id,age,condition,counterbalance,block,trialinblock,trial,tstart,tend,trialstim,trialintensity,response,RT,accuracy,trialtype,colourfreq,credits
81,23,1,1,Practice,1,NA,6.00004568696022e-06,1.1604172000661492,"[87, 0, 167]",167,l,0.5427707000635564,1,colour,0.5,4
81,23,1,1,Practice,2,NA,1.672573999967426,2.216418999945745,"[14, 0, 240]",240,a,0.020943399984389544,1,colour,0.5,4
81,23,1,1,Practice,3,NA,2.7350206000264734,8.56043199985288,"[26, 0, 228]",228,a,5.300404899986461,1,colour,0.5,4
81,23,1,1,Practice,4,NA,9.074270999990404,9.744407899910584,"[46, 0, 208]",208,a,0.14749119989573956,1,colour,0.5,4
81,23,1,1,Practice,5,NA,10.257032599998638,11.024404499912634,"[35, 0, 219]",219,a,0.2514245000202209,1,colour,0.5,4
81,23,1,1,Practice,6,NA,11.531351400073618,13.51240610005334,"[43, 0, 211]",211,a,1.458159000147134,1,colour,0.5,4
81,23,1,1,Practice,7,NA,14.021217899862677,14.91272130003199,"[52, 0, 202]",202,a,0.3645751001313329,0,colour,0.5,4
81,23,1,1,Practice,8,NA,15.43125219992362,16.30436609988101,"[79, 0, 175]",175,l,0.3500875998288393,1,colour,0.5,4
81,23,1,1,Practice,9,NA,16.822860599961132,17.688425299944356,"[62, 0, 192]",192,a,0.343390200054273,0,colour,0.5,4
81,23,1,1,Practice,10,NA,18.190050499979407,19.072462599957362,"[91, 0, 163]",163,l,0.3594359999988228,1,colour,0.5,4
81,23,1,1,1,1,1,5.025284199975431,5.936000899877399,"[59, 0, 195]",195,a,0.3869556998834014,0,colour,0.5,4.0
81,23,1,1,1,2,2,6.4479142997879535,7.376132299890742,"[75, 0, 179]",179,l,0.40363639988936484,1,colour,0.5,4.0
81,23,1,1,1,3,3,7.889966899994761,8.727991899941117,"[81, 0, 173]",173,l,0.31497270008549094,1,colour,0.5,4.0
81,23,1,1,1,4,4,9.233827299904078,10.04792879987508,"[91, 0, 163]",163,l,0.2922856998629868,1,colour,0.5,4.0
81,23,1,1,1,5,5,10.561971899820492,11.368068699957803,"[56, 0, 198]",198,a,0.2832325999625027,0,colour,0.5,4.0
81,23,1,1,1,6,6,11.864524699980393,12.687972799874842,"[76, 0, 178]",178,l,0.30050050001591444,1,colour,0.5,4.0
81,23,1,1,1,7,7,13.208270499948412,13.992014199960977,"[23, 0, 231]",231,a,0.2608797000721097,1,colour,0.5,4.0
81,23,1,1,1,8,8,14.505183599889278,15.336006699828431,"[89, 0, 165]",165,l,0.3078248000238091,1,colour,0.5,4.0
81,23,1,1,1,9,9,15.84892089990899,16.62397969979793,"[79, 0, 175]",175,l,0.25210829987190664,1,colour,0.5,4.0
81,23,1,1,1,10,10,17.1446232998278,17.99998590000905,"[67, 0, 187]",187,l,0.32428360008634627,1,colour,0.5,4.0
81,23,1,1,1,11,11,18.51088359998539,19.28799209999852,"[20, 0, 234]",234,a,0.258939600083977,1,colour,0.5,4.0
81,23,1,1,1,12,12,19.799704799894243,20.5599576998502,"[11, 0, 243]",243,a,0.2405850999057293,1,colour,0.5,4.0
81,23,1,1,1,13,13,21.07296139979735,21.832000899827108,"[28, 0, 226]",226,a,0.2427316999528557,1,colour,0.5,4.0
81,23,1,1,1,14,14,22.34370999992825,23.119991899933666,"[27, 0, 227]",227,a,0.25158830010332167,1,colour,0.5,4.0
81,23,1,1,1,15,15,23.638769899960607,24.383993699913844,"[40, 0, 214]",214,a,0.2237058999016881,1,colour,0.5,4.0
81,23,1,1,1,16,16,24.897920300019905,25.671962699852884,"[22, 0, 232]",232,a,0.25113660003989935,1,colour,0.5,4.0
81,23,1,1,1,17,17,26.179072699975222,26.984014199813828,"[74, 0, 180]",180,l,0.28228949988260865,1,colour,0.5,4.0
81,23,1,1,1,18,18,27.502846099901944,28.328015399863943,"[83, 0, 171]",171,l,0.2542888999450952,1,colour,0.5,4.0
81,23,1,1,1,19,19,28.838674099883065,29.575968199875206,"[80, 0, 174]",174,l,0.22147260000929236,1,colour,0.5,4.0
81,23,1,1,1,20,20,30.089907999848947,30.847981199854985,"[96, 0, 158]",158,l,0.226300299866125,1,colour,0.5,4.0
81,23,1,1,1,21,21,31.369122099829838,32.143972399877384,"[60, 0, 194]",194,l,0.25049220002256334,1,colour,0.5,4.0
81,23,1,1,1,22,22,32.66347229992971,33.360066099790856,"[45, 0, 209]",209,a,0.17144609987735748,1,colour,0.5,4.0
81,23,1,1,1,23,23,33.879567299969494,34.47198459994979,"[84, 0, 170]",170,l,0.07293440005742013,1,colour,0.5,4.0
81,23,1,1,1,24,24,34.99129519984126,36.007960999850184,"[41, 0, 213]",213,a,0.49372989987023175,1,colour,0.5,4.0
81,23,1,1,1,25,25,36.52261749980971,37.287991099990904,"[10, 0, 244]",244,a,0.2461725000757724,1,colour,0.5,4.0
81,23,1,1,1,26,26,37.85132050001994,38.61600669985637,"[47, 0, 207]",207,a,0.23829460004344583,1,colour,0.5,4.0
81,23,1,1,1,27,27,39.13586749997921,39.887967200018466,"[38, 0, 216]",216,a,0.23381920019164681,1,colour,0.5,4.0
81,23,1,1,1,28,28,40.40351999993436,41.223982099909335,"[21, 0, 233]",233,a,0.3016105000860989,1,colour,0.5,4.0
81,23,1,1,1,29,29,41.741760900011286,42.511914199916646,"[78, 0, 176]",176,l,0.24413749994710088,1,colour,0.5,4.0
81,23,1,1,1,30,30,43.021975699812174,43.75997729995288,"[1, 0, 253]",253,a,0.2168646000791341,1,colour,0.5,4.0
81,23,1,1,1,31,31,44.28053809981793,45.03196289995685,"[18, 0, 236]",236,a,0.2308892000000924,1,colour,0.5,4.0
81,23,1,1,1,32,32,45.5437205999624,46.30394529993646,"[5, 0, 249]",249,a,0.2372341000009328,1,colour,0.5,4.0
81,23,1,1,1,33,33,46.825028699822724,47.49598789983429,"[99, 0, 155]",155,l,0.1482374998740852,1,colour,0.5,4.0
81,23,1,1,1,34,34,48.014137799851596,48.775970599846914,"[24, 0, 230]",230,a,0.23987929988652468,1,colour,0.5,4.0
81,23,1,1,1,35,35,49.29132189997472,50.07193969981745,"[16, 0, 238]",238,a,0.2613778000231832,1,colour,0.5,4.0
81,23,1,1,1,36,36,50.59431039984338,51.35998439998366,"[6, 0, 248]",248,a,0.24900750000961125,1,colour,0.5,4.0
81,23,1,1,1,37,37,51.87936789984815,52.67194189992733,"[33, 0, 221]",221,a,0.2666889999527484,1,colour,0.5,4.0
81,23,1,1,1,38,38,53.19365329993889,53.9759519000072,"[90, 0, 164]",164,l,0.25886050006374717,1,colour,0.5,4.0
81,23,1,1,1,39,39,54.48537809983827,55.38402309990488,"[69, 0, 185]",185,l,0.3753827998880297,1,colour,0.5,4.0
81,23,1,1,1,40,40,55.89196589984931,56.703945599962026,"[61, 0, 193]",193,a,0.28900870005600154,0,colour,0.5,4.0
81,23,1,1,1,41,41,57.21515709999949,58.09606399992481,"[42, 0, 212]",212,a,0.36181499995291233,1,colour,0.5,4.0
81,23,1,1,1,42,42,58.60569529980421,59.367938899900764,"[48, 0, 206]",206,a,0.2393396000843495,1,colour,0.5,4.0
81,23,1,1,1,43,43,59.88696649996564,60.647987599950284,"[86, 0, 168]",168,l,0.2381605999544263,1,colour,0.5,4.0
81,23,1,1,1,44,44,61.16812639986165,62.12796609988436,"[52, 0, 202]",202,l,0.4375437998678535,1,colour,0.5,4.0
81,23,1,1,1,45,45,62.64499589987099,63.31996120000258,"[8, 0, 246]",246,a,0.15201890002936125,1,colour,0.5,4.0
81,23,1,1,1,46,46,63.832469899905846,64.58395389979705,"[44, 0, 210]",210,a,0.228485899977386,1,colour,0.5,4.0
81,23,1,1,1,47,47,65.0980985998176,65.8959797997959,"[94, 0, 160]",160,l,0.27497789985500276,1,colour,0.5,4.0
81,23,1,1,1,48,48,66.41064469981939,67.26396609982476,"[62, 0, 192]",192,l,0.33075029985047877,1,colour,0.5,4.0
81,23,1,1,1,49,49,67.78403209988028,68.57592460000888,"[14, 0, 240]",240,a,0.26686010020785034,1,colour,0.5,4.0
81,23,1,1,1,50,50,69.09021069994196,69.84798419987783,"[73, 0, 181]",181,l,0.22792749991640449,1,colour,0.5,4.0
81,23,1,1,2,1,51,77.19151069992222,77.9119884998072,"[66, 0, 188]",188,l,0.19937579985707998,1,colour,0.5,4.0
81,23,1,1,2,2,52,78.4284685999155,79.13590829982422,"[58, 0, 196]",196,l,0.18492309981957078,1,colour,0.5,4.0
81,23,1,1,2,3,53,79.64710269984789,80.4239862000104,"[89, 0, 165]",165,l,0.2538612000644207,1,colour,0.5,4.0
81,23,1,1,2,4,54,80.94406649982557,81.86390080000274,"[30, 0, 224]",224,a,0.39750740001909435,1,colour,0.5,4.0
81,23,1,1,2,5,55,82.37151139997877,83.12790249986574,"[35, 0, 219]",219,a,0.23338299989700317,1,colour,0.5,4.0
81,23,1,1,2,6,56,83.6371336998418,84.38396429992281,"[32, 0, 222]",222,a,0.22382490010932088,1,colour,0.5,4.0
81,23,1,1,2,7,57,84.90275979996659,85.69593069981784,"[67, 0, 187]",187,l,0.27023499994538724,1,colour,0.5,4.0
81,23,1,1,2,8,58,86.21527099981904,86.78393249982037,"[27, 0, 227]",227,a,0.04575019981712103,1,colour,0.5,4.0
81,23,1,1,2,9,59,87.2834876999259,88.14403099985793,"[55, 0, 199]",199,l,0.33954169997014105,1,colour,0.5,4.0
81,23,1,1,2,10,60,88.65588139998727,89.52789469994605,"[71, 0, 183]",183,l,0.3489707000553608,1,colour,0.5,4.0
81,23,1,1,2,11,61,90.04644929990172,90.83989669987932,"[91, 0, 163]",163,l,0.2712930999696255,1,colour,0.5,4.0
81,23,1,1,2,12,62,91.35902049997821,92.1919356000144,"[87, 0, 167]",167,l,0.3099917001090944,1,colour,0.5,4.0
81,23,1,1,2,13,63,92.71241779997945,93.5199342998676,"[33, 0, 221]",221,a,0.28461960004642606,1,colour,0.5,4.0
81,23,1,1,2,14,64,94.04043659986928,94.86394539987668,"[82, 0, 172]",172,l,0.3004540998954326,1,colour,0.5,4.0
81,23,1,1,2,15,65,95.38432669988833,96.22398659982719,"[46, 0, 208]",208,a,0.3169895999599248,1,colour,0.5,4.0
81,23,1,1,2,16,66,96.74362539988942,97.5279754998628,"[84, 0, 170]",170,l,0.26139050000347197,1,colour,0.5,4.0
81,23,1,1,2,17,67,98.04020529985428,98.82390239997767,"[9, 0, 245]",245,a,0.25811309996061027,1,colour,0.5,4.0
81,23,1,1,2,18,68,99.33541669999249,100.09590859990567,"[83, 0, 171]",171,l,0.24313280009664595,1,colour,0.5,4.0
81,23,1,1,2,19,69,100.6038624998182,101.4399252999574,"[74, 0, 180]",180,l,0.3191113001666963,1,colour,0.5,4.0
81,23,1,1,2,20,70,101.94838129985146,102.75991559983231,"[3, 0, 251]",251,a,0.29375809989869595,1,colour,0.5,4.0
81,23,1,1,2,21,71,103.2756195999682,104.03197639994323,"[98, 0, 156]",156,l,0.23294349992647767,1,colour,0.5,4.0
81,23,1,1,2,22,72,104.54957399982959,105.38399120001122,"[76, 0, 178]",178,l,0.31596670020371675,1,colour,0.5,4.0
81,23,1,1,2,23,73,105.9049769998528,106.72795009985566,"[92, 0, 162]",162,l,0.2999525999184698,1,colour,0.5,4.0
81,23,1,1,2,24,74,107.24878539983183,108.02397959982045,"[45, 0, 209]",209,a,0.26030680001713336,1,colour,0.5,4.0
81,23,1,1,2,25,75,108.53935289988294,109.30397629993968,"[95, 0, 159]",159,l,0.24858710006810725,1,colour,0.5,4.0
81,23,1,1,2,26,76,109.81893139984459,110.59193110000342,"[25, 0, 229]",229,a,0.25554040004499257,1,colour,0.5,4.0
81,23,1,1,2,27,77,111.10309379990213,111.97594379982911,"[23, 0, 231]",231,a,0.35178070003166795,1,colour,0.5,4.0
81,23,1,1,2,28,78,112.4851831998676,113.2879581998568,"[49, 0, 205]",205,a,0.2722479999065399,1,colour,0.5,4.0
81,23,1,1,2,29,79,113.80410810001194,114.65597019996494,"[43, 0, 211]",211,a,0.3302345001138747,1,colour,0.5,4.0
81,23,1,1,2,30,80,115.16922039981,115.86389689985663,"[17, 0, 237]",237,a,0.1723624998703599,1,colour,0.5,4.0
81,23,1,1,2,31,81,116.37240349990316,117.12797729996964,"[18, 0, 236]",236,a,0.2325345000717789,1,colour,0.5,4.0
81,23,1,1,2,32,82,117.63025049981661,118.37591549986973,"[36, 0, 218]",218,a,0.22707160003483295,1,colour,0.5,4.0
81,23,1,1,2,33,83,118.89457459980622,119.70396630000323,"[70, 0, 184]",184,l,0.2863914000336081,1,colour,0.5,4.0
81,23,1,1,2,34,84,120.22264699987136,121.01587829994969,"[79, 0, 175]",175,l,0.27022680011577904,1,colour,0.5,4.0
81,23,1,1,2,35,85,121.53515659994446,122.29594009998254,"[42, 0, 212]",212,a,0.2381370000075549,1,colour,0.5,4.0
81,23,1,1,2,36,86,122.80941429990344,123.59197929990478,"[81, 0, 173]",173,l,0.2595516999717802,1,colour,0.5,4.0
81,23,1,1,2,37,87,124.10624270001426,125.26392999989912,"[61, 0, 193]",193,l,0.6347046999726444,1,colour,0.5,4.0
81,23,1,1,2,38,88,125.77814099984244,126.51991879986599,"[39, 0, 215]",215,a,0.21880819997750223,1,colour,0.5,4.0
81,23,1,1,2,39,89,127.02810529991984,127.78393899998628,"[16, 0, 238]",238,a,0.23342130007222295,1,colour,0.5,4.0
81,23,1,1,2,40,90,128.306945099961,129.01594079984352,"[41, 0, 213]",213,a,0.1811899000313133,1,colour,0.5,4.0
81,23,1,1,2,41,91,129.5253200000152,130.2639178999234,"[52, 0, 202]",202,a,0.2206459001172334,0,colour,0.5,4.0
81,23,1,1,2,42,92,130.78107419982553,131.75989799993113,"[62, 0, 192]",192,l,0.46163680008612573,1,colour,0.5,4.0
81,23,1,1,2,43,93,132.2819805999752,133.19189549982548,"[86, 0, 168]",168,l,0.3889526999555528,1,colour,0.5,4.0
81,23,1,1,2,44,94,133.70996729983017,134.46395169990137,"[4, 0, 250]",250,a,0.23185120010748506,1,colour,0.5,4.0
81,23,1,1,2,45,95,134.9853637998458,135.70397289982066,"[34, 0, 220]",220,a,0.20069369999691844,1,colour,0.5,4.0
81,23,1,1,2,46,96,136.21812939993106,137.08790849987417,"[56, 0, 198]",198,a,0.3470143999438733,0,colour,0.5,4.0
81,23,1,1,2,47,97,137.6088282999117,138.36788999987766,"[11, 0, 243]",243,a,0.2429142000619322,1,colour,0.5,4.0
81,23,1,1,2,48,98,138.88767899991944,139.65597640001215,"[93, 0, 161]",161,l,0.2515134001150727,1,colour,0.5,4.0
81,23,1,1,2,49,99,140.17949949996546,140.90391899994574,"[40, 0, 214]",214,a,0.20353480009362102,1,colour,0.5,4.0
81,23,1,1,2,50,100,141.41767679993063,142.17595629999414,"[48, 0, 206]",206,a,0.23966350010596216,1,colour,0.5,4.0
81,23,1,1,3,1,101,150.06862379983068,150.7039427999407,"[62, 0, 192]",192,l,0.11964479996822774,1,colour,0.5,4.0
81,23,1,1,3,2,102,151.22658979985863,152.50396230001934,"[51, 0, 203]",203,a,0.7578181000426412,0,colour,0.5,4.0
81,23,1,1,3,3,103,153.02534960000776,153.88792869984172,"[4, 0, 250]",250,a,0.3390388998668641,1,colour,0.5,4.0
81,23,1,1,3,4,104,154.39711309992708,155.19189069978893,"[83, 0, 171]",171,l,0.27570899995043874,1,colour,0.5,4.0
81,23,1,1,3,5,105,155.7067592998501,156.50393619993702,"[81, 0, 173]",173,l,0.27428500005044043,1,colour,0.5,4.0
81,23,1,1,3,6,106,157.01915739988908,157.8879331999924,"[71, 0, 183]",183,l,0.34590880014002323,1,colour,0.5,4.0
81,23,1,1,3,7,107,158.40309659997,159.17592519987375,"[98, 0, 156]",156,l,0.24302880000323057,1,colour,0.5,4.0
81,23,1,1,3,8,108,159.69165789987892,160.52789189992473,"[63, 0, 191]",191,a,0.31785330013372004,0,colour,0.5,4.0
81,23,1,1,3,9,109,161.0394080998376,162.1119269998744,"[75, 0, 179]",179,l,0.5407436999958009,1,colour,0.5,4.0
81,23,1,1,3,10,110,162.632364399964,163.3439191998914,"[72, 0, 182]",182,l,0.19057080009952188,1,colour,0.5,4.0
81,23,1,1,3,11,111,163.86376519990154,164.6398898998741,"[86, 0, 168]",168,l,0.25065609999001026,1,colour,0.5,4.0
81,23,1,1,3,12,112,165.15784479980357,165.95190009986982,"[26, 0, 228]",228,a,0.2755976999178529,1,colour,0.5,4.0
81,23,1,1,3,13,113,166.45773059991188,167.247914099833,"[84, 0, 170]",170,l,0.2672117999754846,1,colour,0.5,4.0
81,23,1,1,3,14,114,167.75460689980537,168.55188609985635,"[5, 0, 249]",249,a,0.268178999889642,1,colour,0.5,4.0
81,23,1,1,3,15,115,169.06934549985453,170.0159467998892,"[66, 0, 188]",188,l,0.4292391000781208,1,colour,0.5,4.0
81,23,1,1,3,16,116,170.52583159995265,171.33588899997994,"[88, 0, 166]",166,l,0.29284650017507374,1,colour,0.5,4.0
81,23,1,1,3,17,117,171.8530850999523,172.65602419991046,"[21, 0, 233]",233,a,0.2720961000304669,1,colour,0.5,4.0
81,23,1,1,3,18,118,173.16789509984665,174.23191629978828,"[41, 0, 213]",213,a,0.5399345997720957,1,colour,0.5,4.0
81,23,1,1,3,19,119,174.73982899985276,175.5519365000073,"[11, 0, 243]",243,a,0.2920657000504434,1,colour,0.5,4.0
81,23,1,1,3,20,120,176.06076659983955,176.85590089997277,"[96, 0, 158]",158,l,0.27213070006109774,1,colour,0.5,4.0
81,23,1,1,3,21,121,177.3733991999179,178.23195079993457,"[92, 0, 162]",162,l,0.33565220003947616,1,colour,0.5,4.0
81,23,1,1,3,22,122,178.75195800000802,179.6078770000022,"[64, 0, 190]",190,l,0.33281220006756485,1,colour,0.5,4.0
81,23,1,1,3,23,123,180.12101279990748,180.93588589993306,"[30, 0, 224]",224,a,0.29630149994045496,1,colour,0.5,4.0
81,23,1,1,3,24,124,181.45249669998884,182.39987919991836,"[37, 0, 217]",217,a,0.42781180003657937,1,colour,0.5,4.0
81,23,1,1,3,25,125,182.91115249996074,183.77589519997127,"[15, 0, 239]",239,a,0.34240130009129643,1,colour,0.5,4.0
81,23,1,1,3,26,126,184.29511209996417,185.12788049993105,"[19, 0, 235]",235,a,0.3090697000734508,1,colour,0.5,4.0
81,23,1,1,3,27,127,185.64875989989378,186.42392119998112,"[8, 0, 246]",246,a,0.25401420006528497,1,colour,0.5,4.0
81,23,1,1,3,28,128,186.94384399987757,187.76788449985906,"[99, 0, 155]",155,l,0.301117799943313,1,colour,0.5,4.0
81,23,1,1,3,29,129,188.28549479995854,189.05594069999643,"[0, 0, 254]",254,a,0.25138320005498827,1,colour,0.5,4.0
81,23,1,1,3,30,130,189.5769598998595,190.9038864998147,"[67, 0, 187]",187,l,0.8089416997972876,1,colour,0.5,4.0
81,23,1,1,3,31,131,191.41685209982097,192.2399372998625,"[9, 0, 245]",245,a,0.3019101000390947,1,colour,0.5,4.0
81,23,1,1,3,32,132,192.755825500004,193.62392869987525,"[27, 0, 227]",227,a,0.34666360006667674,1,colour,0.5,4.0
81,23,1,1,3,33,133,194.14146489999257,194.91188329993747,"[76, 0, 178]",178,l,0.24530220008455217,1,colour,0.5,4.0
81,23,1,1,3,34,134,195.43348059989512,197.95986850000918,"[59, 0, 195]",195,a,2.007435000035912,0,colour,0.5,4.0
81,23,1,1,3,35,135,198.4689276998397,199.48794959997758,"[28, 0, 226]",226,l,0.5003438000567257,0,colour,0.5,4.0
81,23,1,1,3,36,136,200.0036668998655,201.27990139997564,"[42, 0, 212]",212,a,0.7531332999933511,1,colour,0.5,4.0
81,23,1,1,3,37,137,201.80135579989292,202.60791649995372,"[70, 0, 184]",184,l,0.2844392000697553,1,colour,0.5,4.0
81,23,1,1,3,38,138,203.12879679980688,203.87186099984683,"[34, 0, 220]",220,a,0.21567459986545146,1,colour,0.5,4.0
81,23,1,1,3,39,139,204.38333339989185,205.13592529995367,"[2, 0, 252]",252,a,0.22971069999039173,1,colour,0.5,4.0
81,23,1,1,3,40,140,205.64901870000176,206.44792969990522,"[43, 0, 211]",211,a,0.2760147999506444,1,colour,0.5,4.0
81,23,1,1,3,41,141,206.96147129987366,207.68791069998406,"[10, 0, 244]",244,a,0.20351310004480183,1,colour,0.5,4.0
81,23,1,1,3,42,142,208.19578059995547,209.03985679987818,"[52, 0, 202]",202,a,0.3209802999626845,0,colour,0.5,4.0
81,23,1,1,3,43,143,209.55253679980524,210.3119087999221,"[25, 0, 229]",229,a,0.2381311000790447,1,colour,0.5,4.0
81,23,1,1,3,44,144,210.8221100999508,211.46388689987361,"[36, 0, 218]",218,a,0.12181559996679425,1,colour,0.5,4.0
81,23,1,1,3,45,145,211.97343819984235,212.77588099986315,"[49, 0, 205]",205,a,0.275613599922508,1,colour,0.5,4.0
81,23,1,1,3,46,146,213.2961155998055,214.15190099994652,"[77, 0, 177]",177,l,0.3300042999908328,1,colour,0.5,4.0
81,23,1,1,3,47,147,214.6695236999076,215.56793429981917,"[90, 0, 164]",164,l,0.37403289997018874,1,colour,0.5,4.0
81,23,1,1,3,48,148,216.0835231000092,216.95996709982865,"[80, 0, 174]",174,l,0.35339859989471734,1,colour,0.5,4.0
81,23,1,1,3,49,149,217.4744413997978,218.2718881999608,"[16, 0, 238]",238,a,0.2745233001187444,1,colour,0.5,4.0
81,23,1,1,3,50,150,218.78341279993765,219.68791149999015,"[48, 0, 206]",206,a,0.3858136001508683,1,colour,0.5,4.0
81,23,1,1,4,1,151,227.2152342000045,228.0078416999895,"[15, 0, 239]",239,a,0.2690489999949932,1,colour,0.5,4.0
81,23,1,1,4,2,152,228.5189896998927,229.4078643999528,"[54, 0, 200]",200,l,0.3698361001443118,1,colour,0.5,4.0
81,23,1,1,4,3,153,229.92237349995412,230.8559713999275,"[47, 0, 207]",207,a,0.41052070003934205,1,colour,0.5,4.0
81,23,1,1,4,4,154,231.3755830998998,232.15184820001014,"[42, 0, 212]",212,a,0.2533278001938015,1,colour,0.5,4.0
81,23,1,1,4,5,155,232.67258689994924,233.527841999894,"[55, 0, 199]",199,a,0.33236339990980923,0,colour,0.5,4.0
81,23,1,1,4,6,156,234.04161179997027,234.85590679990128,"[56, 0, 198]",198,a,0.2915101000107825,0,colour,0.5,4.0
81,23,1,1,4,7,157,235.36972790001892,236.19183919997886,"[26, 0, 228]",228,a,0.29913430009037256,1,colour,0.5,4.0
81,23,1,1,4,8,158,236.6979164998047,237.43186709983274,"[23, 0, 231]",231,a,0.21101189986802638,1,colour,0.5,4.0
81,23,1,1,4,9,159,237.94788210000843,238.69585829996504,"[5, 0, 249]",249,a,0.2250771000981331,1,colour,0.5,4.0
81,23,1,1,4,10,160,239.21086029987782,239.87189099984244,"[12, 0, 242]",242,a,0.13568679988384247,1,colour,0.5,4.0
81,23,1,1,4,11,161,240.3803557998035,241.16789849987254,"[91, 0, 163]",163,l,0.2700316999107599,1,colour,0.5,4.0
81,23,1,1,4,12,162,241.68127950001508,242.74391409987584,"[29, 0, 225]",225,a,0.5422346000559628,1,colour,0.5,4.0
81,23,1,1,4,13,163,243.26000709994696,244.12787480000407,"[67, 0, 187]",187,l,0.3484024000354111,1,colour,0.5,4.0
81,23,1,1,4,14,164,244.64320389996283,245.4319056000095,"[11, 0, 243]",243,a,0.2662423001602292,1,colour,0.5,4.0
81,23,1,1,4,15,165,245.94977279985324,246.73585579986684,"[43, 0, 211]",211,a,0.2680760999210179,1,colour,0.5,4.0
81,23,1,1,4,16,166,247.2501546998974,248.0399441998452,"[4, 0, 250]",250,a,0.2670050000306219,1,colour,0.5,4.0
81,23,1,1,4,17,167,248.5470226998441,249.5259499999229,"[60, 0, 194]",194,l,0.4652700999286026,1,colour,0.5,4.0
81,23,1,1,4,18,168,250.04006409994327,251.06388119980693,"[9, 0, 245]",245,a,0.5015260998625308,1,colour,0.5,4.0
81,23,1,1,4,19,169,251.5711737999227,252.42382779996842,"[77, 0, 177]",177,l,0.3296869001351297,1,colour,0.5,4.0
81,23,1,1,4,20,170,252.93057869980112,253.68784519983456,"[40, 0, 214]",214,a,0.23430919996462762,1,colour,0.5,4.0
81,23,1,1,4,21,171,254.20309560000896,255.0158303999342,"[75, 0, 179]",179,l,0.2898832999635488,1,colour,0.5,4.0
81,23,1,1,4,22,172,255.53109159995802,256.3598455998581,"[78, 0, 176]",176,l,0.30578229995444417,1,colour,0.5,4.0
81,23,1,1,4,23,173,256.8748826999217,257.66388609982096,"[89, 0, 165]",165,l,0.26605199999175966,1,colour,0.5,4.0
81,23,1,1,4,24,174,258.171687199967,258.91987539990805,"[93, 0, 161]",161,l,0.22536180005408823,1,colour,0.5,4.0
81,23,1,1,4,25,175,259.4366414998658,260.09591249981895,"[80, 0, 174]",174,l,0.13222609995864332,1,colour,0.5,4.0
81,23,1,1,4,26,176,260.6108002997935,261.5118625999894,"[49, 0, 205]",205,a,0.3823528001084924,1,colour,0.5,4.0
81,23,1,1,4,27,177,262.02306949999183,262.5758732999675,"[28, 0, 226]",226,a,0.021577500039711595,1,colour,0.5,4.0
81,23,1,1,4,28,178,263.08723929990083,263.75184139981866,"[68, 0, 186]",186,l,0.14759619999676943,1,colour,0.5,4.0
81,23,1,1,4,29,179,264.2696014000103,265.1599274999462,"[17, 0, 237]",237,a,0.36624519992619753,1,colour,0.5,4.0
81,23,1,1,4,30,180,265.6748631999362,266.3358605999965,"[21, 0, 233]",233,a,0.1407213001511991,1,colour,0.5,4.0
81,23,1,1,4,31,181,266.85744629986584,267.65586199983954,"[1, 0, 253]",253,a,0.27537039993330836,1,colour,0.5,4.0
81,23,1,1,4,32,182,268.1700364998542,268.9598724998068,"[65, 0, 189]",189,l,0.26699499995447695,1,colour,0.5,4.0
81,23,1,1,4,33,183,269.4775041998364,271.6719090999104,"[57, 0, 197]",197,l,1.6661445000208914,1,colour,0.5,4.0
81,23,1,1,4,34,184,272.19013519980945,273.1838508998044,"[19, 0, 235]",235,a,0.4640435997862369,1,colour,0.5,4.0
81,23,1,1,4,35,185,273.70010809996165,274.55989159992896,"[13, 0, 241]",241,a,0.3373754001222551,1,colour,0.5,4.0
81,23,1,1,4,36,186,275.0718174998183,276.6559142000042,"[62, 0, 192]",192,l,1.0593069000169635,1,colour,0.5,4.0
81,23,1,1,4,37,187,277.16524269990623,278.05582679994404,"[63, 0, 191]",191,l,0.3680517999455333,1,colour,0.5,4.0
81,23,1,1,4,38,188,278.5714130999986,279.3998757000081,"[83, 0, 171]",171,l,0.3034891001880169,1,colour,0.5,4.0
81,23,1,1,4,39,189,279.92423229990527,280.7438450998161,"[90, 0, 164]",164,l,0.29045689990743995,1,colour,0.5,4.0
81,23,1,1,4,40,190,281.25525089981966,282.0398934998084,"[30, 0, 224]",224,a,0.2673194999806583,1,colour,0.5,4.0
81,23,1,1,4,41,191,282.55295309983194,283.72781119984575,"[95, 0, 159]",159,l,0.6577019998803735,1,colour,0.5,4.0
81,23,1,1,4,42,192,284.2435444998555,285.1758096998092,"[48, 0, 206]",206,a,0.41152470000088215,1,colour,0.5,4.0
81,23,1,1,4,43,193,285.6906486998778,286.44781579985283,"[20, 0, 234]",234,a,0.23680739989504218,1,colour,0.5,4.0
81,23,1,1,4,44,194,286.95972729986534,287.7278413998429,"[70, 0, 184]",184,l,0.24524039984680712,1,colour,0.5,4.0
81,23,1,1,4,45,195,288.24087969982065,289.0238204000052,"[7, 0, 247]",247,a,0.2597485000733286,1,colour,0.5,4.0
81,23,1,1,4,46,196,289.5342193997931,290.3278185999952,"[31, 0, 223]",223,a,0.23420820012688637,1,colour,0.5,4.0
81,23,1,1,4,47,197,290.84533899999224,291.599875099957,"[53, 0, 201]",201,a,0.22760660015046597,0,colour,0.5,4.0
81,23,1,1,4,48,198,292.12217399990186,293.11185139999725,"[61, 0, 193]",193,l,0.47081109997816384,1,colour,0.5,4.0
81,23,1,1,4,49,199,293.62321409978904,294.4959086999297,"[71, 0, 183]",183,l,0.35248670005239546,1,colour,0.5,4.0
81,23,1,1,4,50,200,295.0053420998156,295.83984879986383,"[50, 0, 204]",204,a,0.3094923999160528,1,colour,0.5,4.0
81,23,1,1,5,1,201,304.6967235999182,305.70386040001176,"[98, 0, 156]",156,l,0.48380000004544854,1,colour,0.4,4.0
81,23,1,1,5,2,202,306.2131089998875,307.0078325998038,"[8, 0, 246]",246,a,0.27178639988414943,1,colour,0.4,4.0
81,23,1,1,5,3,203,307.5256705998909,308.15990590001456,"[74, 0, 180]",180,l,0.11133360001258552,1,colour,0.4,4.0
81,23,1,1,5,4,204,308.6662858999334,309.43983309995383,"[21, 0, 233]",233,a,0.2507647001184523,1,colour,0.4,4.0
81,23,1,1,5,5,205,309.96044009993784,310.8238218999468,"[69, 0, 185]",185,l,0.33486020006239414,1,colour,0.4,4.0
81,23,1,1,5,6,206,311.33204299979843,311.99186239996925,"[47, 0, 207]",207,a,0.14194570016115904,1,colour,0.4,4.0
81,23,1,1,5,7,207,312.5070338998921,313.63182679982856,"[63, 0, 191]",191,l,0.6023913000244647,1,colour,0.4,4.0
81,23,1,1,5,8,208,314.14597169985063,314.93587169982493,"[87, 0, 167]",167,l,0.26734909997321665,1,colour,0.4,4.0
81,23,1,1,5,9,209,315.4568006999325,316.24784470000304,"[65, 0, 189]",189,l,0.26572870020754635,1,colour,0.4,4.0
81,23,1,1,5,10,210,316.76396269979887,317.49587799981236,"[20, 0, 234]",234,a,0.20721599995158613,1,colour,0.4,4.0
81,23,1,1,5,11,211,318.01565589988604,318.83180419984274,"[6, 0, 248]",248,a,0.29313299991190434,1,colour,0.4,4.0
81,23,1,1,5,12,212,319.339805399999,320.1577404998243,"[35, 0, 219]",219,a,0.2982979000080377,1,colour,0.4,4.0
81,23,1,1,5,13,213,320.6690016000066,321.5038181999698,"[66, 0, 188]",188,l,0.3123847001697868,1,colour,0.4,4.0
81,23,1,1,5,14,214,322.012647499796,322.8158336998895,"[68, 0, 186]",186,l,0.28015649993903935,1,colour,0.4,4.0
81,23,1,1,5,15,215,323.3251092999708,324.0878437999636,"[48, 0, 206]",206,a,0.23981920001097023,1,colour,0.4,4.0
81,23,1,1,5,16,216,324.59710339992307,325.43980329995975,"[81, 0, 173]",173,l,0.3197878000792116,1,colour,0.4,4.0
81,23,1,1,5,17,217,325.95645929989405,326.7118902998045,"[25, 0, 229]",229,a,0.23256999999284744,1,colour,0.4,4.0
81,23,1,1,5,18,218,327.2220514998771,328.02382160001434,"[24, 0, 230]",230,a,0.2788153002038598,1,colour,0.4,4.0
81,23,1,1,5,19,219,328.5344966999255,329.3197913998738,"[88, 0, 166]",166,l,0.2625333999749273,1,colour,0.4,4.0
81,23,1,1,5,20,220,329.8320614998229,330.61581889982335,"[95, 0, 159]",159,l,0.26509579992853105,1,colour,0.4,4.0
81,23,1,1,5,21,221,331.13395149982534,331.9438340999186,"[11, 0, 243]",243,a,0.2873084000311792,1,colour,0.4,4.0
81,23,1,1,5,22,222,332.46195279993117,333.25594539986923,"[83, 0, 171]",171,l,0.2709317998960614,1,colour,0.4,4.0
81,23,1,1,5,23,223,333.77458269987255,334.56782260001637,"[26, 0, 228]",228,a,0.2704296000301838,1,colour,0.4,4.0
81,23,1,1,5,24,224,335.0760135999881,335.8797832999844,"[84, 0, 170]",170,l,0.2808763000648469,1,colour,0.4,4.0
81,23,1,1,5,25,225,336.38841109978966,337.2078746999614,"[54, 0, 200]",200,a,0.2964501001406461,0,colour,0.4,4.0
81,23,1,1,5,26,226,337.7165452998597,338.58381289988756,"[77, 0, 177]",177,l,0.3443352999165654,1,colour,0.4,4.0
81,23,1,1,5,27,227,339.09157339995727,341.3838330998551,"[53, 0, 201]",201,a,1.778544900007546,0,colour,0.4,4.0
81,23,1,1,5,28,228,341.89573519979604,342.92014339985326,"[79, 0, 175]",175,l,0.501495199976489,1,colour,0.4,4.0
81,23,1,1,5,29,229,343.42705559986643,344.22380149993114,"[15, 0, 239]",239,a,0.2744545000605285,1,colour,0.4,4.0
81,23,1,1,5,30,230,344.73001739988104,346.7358372998424,"[58, 0, 196]",196,a,1.4829017999581993,0,colour,0.4,4.0
81,23,1,1,5,31,231,347.2456677998416,348.295818899991,"[72, 0, 182]",182,l,0.5272314001340419,1,colour,0.4,4.0
81,23,1,1,5,32,232,348.808154999977,349.591841599904,"[29, 0, 225]",225,a,0.26078770007006824,1,colour,0.4,4.0
81,23,1,1,5,33,233,350.10372089990415,350.9198274000082,"[78, 0, 176]",176,l,0.2861735001206398,1,colour,0.4,4.0
81,23,1,1,5,34,234,351.4295514000114,352.23178629996255,"[5, 0, 249]",249,a,0.27335990010760725,1,colour,0.4,4.0
81,23,1,1,5,35,235,352.74129029992037,353.6718078998383,"[64, 0, 190]",190,l,0.39903849991969764,1,colour,0.4,4.0
81,23,1,1,5,36,236,354.18868449982256,354.9918275999371,"[86, 0, 168]",168,l,0.28707289998419583,1,colour,0.4,4.0
81,23,1,1,5,37,237,355.5025577999186,356.32780919992365,"[27, 0, 227]",227,a,0.30256390012800694,1,colour,0.4,4.0
81,23,1,1,5,38,238,356.83995969989337,358.4798122998327,"[62, 0, 192]",192,l,1.120832199929282,1,colour,0.4,4.0
81,23,1,1,5,39,239,358.99027589987963,360.03181639988907,"[60, 0, 194]",194,a,0.5187987999524921,0,colour,0.4,4.0
81,23,1,1,5,40,240,360.5479056998156,361.35178689984605,"[80, 0, 174]",174,l,0.286450200015679,1,colour,0.4,4.0
81,23,1,1,5,41,241,361.87038619979285,362.6798033998348,"[17, 0, 237]",237,a,0.2864582999609411,1,colour,0.4,4.0
81,23,1,1,5,42,242,363.1985659999773,364.7597930999473,"[61, 0, 193]",193,l,1.0382261001504958,1,colour,0.4,4.0
81,23,1,1,5,43,243,365.26560979988426,366.0478272999171,"[57, 0, 197]",197,a,0.2592392999213189,0,colour,0.4,4.0
81,23,1,1,5,44,244,366.5624295999296,367.3198771998286,"[41, 0, 213]",213,a,0.23451229999773204,1,colour,0.4,4.0
81,23,1,1,5,45,245,367.82810179982334,368.57582629984245,"[34, 0, 220]",220,a,0.22552119987085462,1,colour,0.4,4.0
81,23,1,1,5,46,246,369.0936096999794,369.84779059980065,"[37, 0, 217]",217,a,0.23122149985283613,1,colour,0.4,4.0
81,23,1,1,5,47,247,370.3592576999217,371.175850499887,"[89, 0, 165]",165,l,0.2949564999435097,1,colour,0.4,4.0
81,23,1,1,5,48,248,371.6938402999658,372.43185679987073,"[97, 0, 157]",157,l,0.2220274000428617,1,colour,0.4,4.0
81,23,1,1,5,49,249,372.9468251999933,373.7678429998923,"[70, 0, 184]",184,l,0.3003428000956774,1,colour,0.4,4.0
81,23,1,1,5,50,250,374.28255349979736,375.0558891999535,"[28, 0, 226]",226,a,0.2497324999421835,1,colour,0.4,4.0
81,23,1,1,6,1,251,382.8074684999883,383.6318504998926,"[96, 0, 158]",158,l,0.30085640004836023,1,colour,0.28,4.0
81,23,1,1,6,2,252,384.15193709987216,384.85596750001423,"[25, 0, 229]",229,a,0.1808803000021726,1,colour,0.28,4.0
81,23,1,1,6,3,253,385.36445240001194,386.1518313998822,"[67, 0, 187]",187,l,0.26488210004754364,1,colour,0.28,4.0
81,23,1,1,6,4,254,386.6612821999006,387.7758120999206,"[82, 0, 172]",172,l,0.5916098000016063,1,colour,0.28,4.0
81,23,1,1,6,5,255,388.28624269994907,389.2557715999428,"[53, 0, 201]",201,a,0.4465813999995589,0,colour,0.28,4.0
81,23,1,1,6,6,256,389.77069619996473,391.6878267999273,"[62, 0, 192]",192,l,1.3938474000897259,1,colour,0.28,4.0
81,23,1,1,6,7,257,392.2102280999534,393.03981699980795,"[76, 0, 178]",178,l,0.31189359980635345,1,colour,0.28,4.0
81,23,1,1,6,8,258,393.55592769989744,394.3678096998483,"[2, 0, 252]",252,a,0.2816506000235677,1,colour,0.28,4.0
81,23,1,1,6,9,259,394.879453699803,395.69582539983094,"[14, 0, 240]",240,a,0.29283889988437295,1,colour,0.28,4.0
81,23,1,1,6,10,260,396.2050241997931,396.97578739980236,"[92, 0, 162]",162,l,0.25031069992110133,1,colour,0.28,4.0
81,23,1,1,6,11,261,397.49149549985304,398.3117690999061,"[89, 0, 165]",165,l,0.2994369000662118,1,colour,0.28,4.0
81,23,1,1,6,12,262,398.8176346998662,399.5117910997942,"[3, 0, 251]",251,a,0.17154599982313812,1,colour,0.28,4.0
81,23,1,1,6,13,263,400.0211547999643,401.1358369998634,"[55, 0, 199]",199,a,0.5922379998955876,0,colour,0.28,4.0
81,23,1,1,6,14,264,401.6444617998786,402.52778190001845,"[61, 0, 193]",193,l,0.36038160021416843,1,colour,0.28,4.0
81,23,1,1,6,15,265,403.03505859989673,403.77577049983665,"[70, 0, 184]",184,l,0.21805189992301166,1,colour,0.28,4.0
81,23,1,1,6,16,266,404.2850496999454,405.007809799863,"[75, 0, 179]",179,l,0.2000323999673128,1,colour,0.28,4.0
81,23,1,1,6,17,267,405.5137797999196,406.2798030998092,"[83, 0, 171]",171,l,0.24314619996584952,1,colour,0.28,4.0
81,23,1,1,6,18,268,406.794939099811,407.55977179994807,"[57, 0, 197]",197,a,0.2419307001400739,0,colour,0.28,4.0
81,23,1,1,6,19,269,408.07618390000425,408.79976490000263,"[56, 0, 198]",198,a,0.20058470009826124,0,colour,0.28,4.0
81,23,1,1,6,20,270,409.3105405999813,409.9918306998443,"[49, 0, 205]",205,a,0.15887419995851815,1,colour,0.28,4.0
81,23,1,1,6,21,271,410.4985857999418,411.247733599972,"[22, 0, 232]",232,a,0.22886460018344223,1,colour,0.28,4.0
81,23,1,1,6,22,272,411.766763899941,412.47183860000223,"[59, 0, 195]",195,a,0.18224190012551844,0,colour,0.28,4.0
81,23,1,1,6,23,273,412.98549899994396,413.7997669999022,"[51, 0, 203]",203,a,0.291557899909094,0,colour,0.28,4.0
81,23,1,1,6,24,274,414.31369309988804,415.0718433998991,"[32, 0, 222]",222,a,0.2352553999517113,1,colour,0.28,4.0
81,23,1,1,6,25,275,415.58648149995133,416.55179399996996,"[37, 0, 217]",217,a,0.4423724999651313,1,colour,0.28,4.0
81,23,1,1,6,26,276,417.0708515997976,417.9677944998257,"[64, 0, 190]",190,l,0.3739136999938637,1,colour,0.28,4.0
81,23,1,1,6,27,277,418.47712869988754,419.16779259988107,"[65, 0, 189]",189,l,0.1677419999614358,1,colour,0.28,4.0
81,23,1,1,6,28,278,419.6802353998646,420.5038347998634,"[35, 0, 219]",219,a,0.3014736999757588,1,colour,0.28,4.0
81,23,1,1,6,29,279,421.04632009984925,421.87173909996636,"[85, 0, 169]",169,l,0.3049334001261741,1,colour,0.28,4.0
81,23,1,1,6,30,280,422.38797969999723,423.53578659985214,"[58, 0, 196]",196,a,0.6248726998455822,0,colour,0.28,4.0
81,23,1,1,6,31,281,424.044247899903,424.8157859998755,"[50, 0, 204]",204,a,0.24865229986608028,1,colour,0.28,4.0
81,23,1,1,6,32,282,425.3192211999558,426.1037519997917,"[91, 0, 163]",163,l,0.2615822998341173,1,colour,0.28,4.0
81,23,1,1,6,33,283,426.61606319993734,427.5197665998712,"[97, 0, 157]",157,l,0.3807063000276685,1,colour,0.28,4.0
81,23,1,1,6,34,284,428.03797849989496,428.7518187998794,"[29, 0, 225]",225,a,0.1909241999965161,1,colour,0.28,4.0
81,23,1,1,6,35,285,429.2722860998474,429.94377889996395,"[94, 0, 160]",160,l,0.14844559994526207,1,colour,0.28,4.0
81,23,1,1,6,36,286,430.4504416999407,431.7197879999876,"[66, 0, 188]",188,a,0.7472965000197291,0,colour,0.28,4.0
81,23,1,1,6,37,287,432.2270091997925,433.0798360998742,"[16, 0, 238]",238,a,0.32993000000715256,1,colour,0.28,4.0
81,23,1,1,6,38,288,433.5862714999821,434.34376949979924,"[31, 0, 223]",223,a,0.23450259980745614,1,colour,0.28,4.0
81,23,1,1,6,39,289,434.85191959980875,435.63179040001705,"[98, 0, 156]",156,l,0.2600580002181232,1,colour,0.28,4.0
81,23,1,1,6,40,290,436.14561100001447,436.91172139998525,"[72, 0, 182]",182,l,0.24313289998099208,1,colour,0.28,4.0
81,23,1,1,6,41,291,437.4268649998121,438.19177559996024,"[84, 0, 170]",170,l,0.2419303001370281,1,colour,0.28,4.0
81,23,1,1,6,42,292,438.70812089997344,440.3677729999181,"[68, 0, 186]",186,l,1.1367526000831276,1,colour,0.28,4.0
81,23,1,1,6,43,293,440.87951929983683,441.703891400015,"[52, 0, 202]",202,a,0.26349880010820925,0,colour,0.28,4.0
81,23,1,1,6,44,294,442.2213802000042,443.0718156998046,"[88, 0, 166]",166,l,0.32824299996718764,1,colour,0.28,4.0
81,23,1,1,6,45,295,443.58803280000575,444.423818100011,"[95, 0, 159]",159,l,0.31747190002352,1,colour,0.28,4.0
81,23,1,1,6,46,296,444.93475609994493,445.9118081999477,"[73, 0, 181]",181,l,0.457010000012815,1,colour,0.28,4.0
81,23,1,1,6,47,297,446.4244618997909,447.415771599859,"[69, 0, 185]",185,a,0.4703220999799669,0,colour,0.28,4.0
81,23,1,1,6,48,298,447.9293780999724,448.6877884999849,"[20, 0, 234]",234,a,0.24247659998945892,1,colour,0.28,4.0
81,23,1,1,6,49,299,449.2035215999931,450.1038008998148,"[99, 0, 155]",155,l,0.37727069994434714,1,colour,0.28,4.0
81,23,1,1,6,50,300,450.5992434998043,451.40778899984434,"[28, 0, 226]",226,a,0.28985279984772205,1,colour,0.28,4.0
81,23,1,1,7,1,301,468.83452179981396,470.6797817000188,"[61, 0, 193]",193,a,1.3218650000635535,0,colour,0.14,3.9
81,23,1,1,7,2,302,471.19393389998004,471.7757405999582,"[94, 0, 160]",160,l,0.056764099979773164,1,colour,0.14,3.9
81,23,1,1,7,3,303,472.28616559994407,472.99174620001577,"[88, 0, 166]",166,l,0.18796960008330643,1,colour,0.14,3.9
81,23,1,1,7,4,304,473.5068180998787,475.54375199996866,"[58, 0, 196]",196,a,1.5192377001512796,0,colour,0.14,3.9
81,23,1,1,7,5,305,476.05756799993105,476.6157318998594,"[83, 0, 171]",171,l,0.036902799969539046,1,colour,0.14,3.9
81,23,1,1,7,6,306,477.1340286999475,477.86377659998834,"[53, 0, 201]",201,a,0.21020249999128282,0,colour,0.14,3.9
81,23,1,1,7,7,307,478.37703679990955,479.3357170999516,"[72, 0, 182]",182,l,0.44216360012069345,1,colour,0.14,3.9
81,23,1,1,7,8,308,479.85503059998155,480.59176509990357,"[52, 0, 202]",202,a,0.21423249994404614,0,colour,0.14,3.9
81,23,1,1,7,9,309,481.0950265999418,481.83975139982067,"[74, 0, 180]",180,l,0.22667839983478189,1,colour,0.14,3.9
81,23,1,1,7,10,310,482.3486322998069,483.0237523999531,"[93, 0, 161]",161,l,0.15200100000947714,1,colour,0.14,3.9
81,23,1,1,7,11,311,483.536301799817,484.2397465999238,"[65, 0, 189]",189,a,0.1805624000262469,0,colour,0.14,3.9
81,23,1,1,7,12,312,484.75499689998105,485.58371149981394,"[70, 0, 184]",184,a,0.30579269980080426,0,colour,0.14,3.9
81,23,1,1,7,13,313,486.1051825999748,486.887766999891,"[3, 0, 251]",251,a,0.26037469995208085,1,colour,0.14,3.9
81,23,1,1,7,14,314,487.4020702999551,488.1517481999472,"[92, 0, 162]",162,l,0.2269934001378715,1,colour,0.14,3.9
81,23,1,1,7,15,315,488.66766669997014,489.43979909992777,"[51, 0, 203]",203,a,0.2493942000437528,0,colour,0.14,3.9
81,23,1,1,7,16,316,489.9489581999369,490.7677575999405,"[50, 0, 204]",204,a,0.2959197999443859,1,colour,0.14,3.9
81,23,1,1,7,17,317,491.27723419992253,491.9917058998253,"[89, 0, 165]",165,l,0.19570519984699786,1,colour,0.14,3.9
81,23,1,1,7,18,318,492.5120849998202,493.29578119982034,"[11, 0, 243]",243,a,0.2660679998807609,1,colour,0.14,3.9
81,23,1,1,7,19,319,493.81378500000574,494.4877422999125,"[97, 0, 157]",157,l,0.1430124999023974,1,colour,0.14,3.9
81,23,1,1,7,20,320,495.0050104998518,496.00775279989466,"[64, 0, 190]",190,a,0.471608699997887,0,colour,0.14,3.9
81,23,1,1,7,21,321,496.52335189981386,497.59176799980924,"[73, 0, 181]",181,l,0.5455016000196338,1,colour,0.14,3.9
81,23,1,1,7,22,322,498.10644499980845,498.79179739998654,"[13, 0, 241]",241,a,0.1656858001369983,1,colour,0.14,3.9
81,23,1,1,7,23,323,499.3109211998526,500.2877615999896,"[91, 0, 163]",163,l,0.4541436000727117,1,colour,0.14,3.9
81,23,1,1,7,24,324,500.79533049999736,503.01571279997006,"[62, 0, 192]",192,a,1.7048265000339597,0,colour,0.14,3.9
81,23,1,1,7,25,325,503.5277676999103,504.3757251999341,"[84, 0, 170]",170,l,0.3250080000143498,1,colour,0.14,3.9
81,23,1,1,7,26,326,504.8871357999742,505.5517635999713,"[96, 0, 158]",158,l,0.14173729997128248,1,colour,0.14,3.9
81,23,1,1,7,27,327,506.0478171999566,506.93578129983507,"[66, 0, 188]",188,a,0.3655634999740869,0,colour,0.14,3.9
81,23,1,1,7,28,328,507.4540651999414,508.34372729994357,"[75, 0, 179]",179,l,0.3667000001296401,1,colour,0.14,3.9
81,23,1,1,7,29,329,508.8603193999734,509.6557505999226,"[80, 0, 174]",174,l,0.272453699959442,1,colour,0.14,3.9
81,23,1,1,7,30,330,510.1727845999412,511.04775009979494,"[78, 0, 176]",176,l,0.3525114997755736,1,colour,0.14,3.9
81,23,1,1,7,31,331,511.56175409979187,512.2717822999693,"[54, 0, 200]",200,a,0.18711280007846653,0,colour,0.14,3.9
81,23,1,1,7,32,332,512.7895188999828,514.4719397998415,"[90, 0, 164]",164,l,1.1651381999254227,1,colour,0.14,3.9
81,23,1,1,7,33,333,514.9823096999899,515.7997141999658,"[81, 0, 173]",173,l,0.3010663001332432,1,colour,0.14,3.9
81,23,1,1,7,34,334,516.3150826999918,517.1437340998091,"[77, 0, 177]",177,l,0.3060723999515176,1,colour,0.14,3.9
81,23,1,1,7,35,335,517.6556918998249,518.4556974999141,"[57, 0, 197]",197,a,0.2795587000437081,0,colour,0.14,3.9
81,23,1,1,7,36,336,518.9755835998803,519.7197278998792,"[69, 0, 185]",185,a,0.22120340005494654,0,colour,0.14,3.9
81,23,1,1,7,37,337,520.2255688998848,520.9277136998717,"[98, 0, 156]",156,l,0.1792520999442786,1,colour,0.14,3.9
81,23,1,1,7,38,338,521.4337645999622,522.199731899891,"[76, 0, 178]",178,l,0.2472632999997586,1,colour,0.14,3.9
81,23,1,1,7,39,339,522.7157959998585,523.4316979998257,"[60, 0, 194]",194,a,0.1930392999202013,0,colour,0.14,3.9
81,23,1,1,7,40,340,523.9501345998142,524.8077322000172,"[82, 0, 172]",172,l,0.334707000060007,1,colour,0.14,3.9
81,23,1,1,7,41,341,525.3250773998443,525.9997144998051,"[41, 0, 213]",213,a,0.1518017000053078,1,colour,0.14,3.9
81,23,1,1,7,42,342,526.5056373998523,527.2957662998233,"[37, 0, 217]",217,a,0.26709460001438856,1,colour,0.14,3.9
81,23,1,1,7,43,343,527.8025723998435,528.4877353999764,"[87, 0, 167]",167,l,0.16318460018374026,1,colour,0.14,3.9
81,23,1,1,7,44,344,529.0057528999168,529.7437607999891,"[56, 0, 198]",198,a,0.21507550007663667,0,colour,0.14,3.9
81,23,1,1,7,45,345,530.255691499915,531.7917222999968,"[67, 0, 187]",187,a,1.0130166001617908,0,colour,0.14,3.9
81,23,1,1,7,46,346,532.3038859998342,533.3277347998228,"[68, 0, 186]",186,l,0.5050597998779267,1,colour,0.14,3.9
81,23,1,1,7,47,347,533.8495832998306,534.4877352998592,"[86, 0, 168]",168,l,0.11300030001439154,1,colour,0.14,3.9
81,23,1,1,7,48,348,535.002102999948,535.7997212999035,"[21, 0, 233]",233,a,0.2668530000373721,1,colour,0.14,3.9
81,23,1,1,7,49,349,536.3156175999902,537.3918060997967,"[71, 0, 183]",183,l,0.5552099999040365,1,colour,0.14,3.9
81,23,1,1,7,50,350,537.9116921999957,538.6956962998956,"[6, 0, 248]",248,a,0.2642053000163287,1,colour,0.14,3.9
81,23,1,1,8,1,351,561.1944962998386,562.0317183998413,"[68, 0, 186]",186,l,0.3235677999909967,1,colour,0.06,3.9
81,23,1,1,8,2,352,562.5427035999019,563.2236677999608,"[89, 0, 165]",165,l,0.16040339996106923,1,colour,0.06,3.9
81,23,1,1,8,3,353,563.7372618999798,565.0797228999436,"[63, 0, 191]",191,a,0.8214142001233995,0,colour,0.06,3.9
81,23,1,1,8,4,354,565.5952254999429,566.4077433999628,"[60, 0, 194]",194,a,0.29488079994916916,0,colour,0.06,3.9
81,23,1,1,8,5,355,566.9268372999504,567.6797159998678,"[86, 0, 168]",168,l,0.23043720005080104,1,colour,0.06,3.9
81,23,1,1,8,6,356,568.1892707999796,568.7197461000178,"[81, 0, 173]",173,l,0.009529100032523274,1,colour,0.06,3.9
81,23,1,1,8,7,357,569.2326175000053,569.9837547999341,"[85, 0, 169]",169,l,0.2376323000062257,1,colour,0.06,3.9
81,23,1,1,8,8,358,570.5044141998515,571.3117487998679,"[57, 0, 197]",197,a,0.28431049990467727,0,colour,0.06,3.9
81,23,1,1,8,9,359,571.8212252999656,572.4557437999174,"[97, 0, 157]",157,l,0.06993589992634952,1,colour,0.06,3.9
81,23,1,1,8,10,360,572.9744014998432,573.6877428998705,"[55, 0, 199]",199,a,0.19532519998028874,0,colour,0.06,3.9
81,23,1,1,8,11,361,574.1975614000112,574.9756711998489,"[64, 0, 190]",190,l,0.2598273998592049,1,colour,0.06,3.9
81,23,1,1,8,12,362,575.4842590999324,576.6157547999173,"[61, 0, 193]",193,a,0.6131319999694824,0,colour,0.06,3.9
81,23,1,1,8,13,363,577.1318756998517,577.9117050999776,"[50, 0, 204]",204,a,0.2562655000947416,1,colour,0.06,3.9
81,23,1,1,8,14,364,578.4255213998258,579.1836488000117,"[52, 0, 202]",202,a,0.2385490001179278,0,colour,0.06,3.9
81,23,1,1,8,15,365,579.7015308998525,580.4397195000201,"[82, 0, 172]",172,l,0.21552550001069903,1,colour,0.06,3.9
81,23,1,1,8,16,366,580.9514846999664,581.6717477999628,"[88, 0, 166]",166,l,0.1975841000676155,1,colour,0.06,3.9
81,23,1,1,8,17,367,582.1887986999936,582.8317757998593,"[66, 0, 188]",188,a,0.11783010000362992,0,colour,0.06,3.9
81,23,1,1,8,18,368,583.3546241999138,584.0876955999993,"[59, 0, 195]",195,a,0.21710170013830066,0,colour,0.06,3.9
81,23,1,1,8,19,369,584.6104927000124,585.2637068999466,"[51, 0, 203]",203,a,0.1306414999999106,0,colour,0.06,3.9
81,23,1,1,8,20,370,585.7760197999887,586.4637350998819,"[58, 0, 196]",196,a,0.16915209987200797,0,colour,0.06,3.9
81,23,1,1,8,21,371,586.9753502998501,587.7516798998695,"[74, 0, 180]",180,l,0.2540366998873651,1,colour,0.06,3.9
81,23,1,1,8,22,372,588.2666919999756,588.9917242999654,"[47, 0, 207]",207,a,0.20682270010001957,1,colour,0.06,3.9
81,23,1,1,8,23,373,589.5053884999361,590.2236786999274,"[92, 0, 162]",162,l,0.19077749992720783,1,colour,0.06,3.9
81,23,1,1,8,24,374,590.7443222999573,591.6397603999358,"[69, 0, 185]",185,l,0.3725706001278013,1,colour,0.06,3.9
81,23,1,1,8,25,375,592.1548029999249,592.9437345999759,"[80, 0, 174]",174,l,0.2714949999935925,1,colour,0.06,3.9
81,23,1,1,8,26,376,593.4598451999482,594.143698199885,"[56, 0, 198]",198,a,0.16718959994614124,0,colour,0.06,3.9
81,23,1,1,8,27,377,594.6661065998487,595.3516722000204,"[83, 0, 171]",171,l,0.1670063000638038,1,colour,0.06,3.9
81,23,1,1,8,28,378,595.8633258999325,596.6316838997882,"[72, 0, 182]",182,l,0.23898659995757043,1,colour,0.06,3.9
81,23,1,1,8,29,379,597.145633299835,597.8156959998887,"[71, 0, 183]",183,l,0.14755699993111193,1,colour,0.06,3.9
81,23,1,1,8,30,380,598.3297401999589,598.9276726997923,"[78, 0, 176]",176,l,0.07747219991870224,1,colour,0.06,3.9
81,23,1,1,8,31,381,599.4487567998003,600.0476932998281,"[67, 0, 187]",187,a,0.07339119981043041,0,colour,0.06,3.9
81,23,1,1,8,32,382,600.5614215999376,602.079734099796,"[65, 0, 189]",189,a,0.9953422998078167,0,colour,0.06,3.9
81,23,1,1,8,33,383,602.5975673999637,603.4076999998651,"[75, 0, 179]",179,l,0.2361989999189973,1,colour,0.06,3.9
81,23,1,1,8,34,384,603.9224953998346,604.62368780002,"[79, 0, 175]",175,l,0.1829232000745833,1,colour,0.06,3.9
81,23,1,1,8,35,385,605.1451720998157,606.175701599801,"[99, 0, 155]",155,l,0.5140670000109822,1,colour,0.06,3.9
81,23,1,1,8,36,386,606.6909946999513,607.3517119998578,"[84, 0, 170]",170,l,0.1363061999436468,1,colour,0.06,3.9
81,23,1,1,8,37,387,607.8623204999603,608.6237002999987,"[87, 0, 167]",167,l,0.23868770012632012,1,colour,0.06,3.9
81,23,1,1,8,38,388,609.1358266999014,609.8957008998841,"[30, 0, 224]",224,a,0.24079920002259314,1,colour,0.06,3.9
81,23,1,1,8,39,389,610.4043858000077,611.1756684000138,"[70, 0, 184]",184,l,0.24848810001276433,1,colour,0.06,3.9
81,23,1,1,8,40,390,611.685667200014,612.5276693999767,"[98, 0, 156]",156,a,0.3131850999779999,0,colour,0.06,3.9
81,23,1,1,8,41,391,613.0400588999037,614.0556926999707,"[26, 0, 228]",228,a,0.49775260011665523,1,colour,0.06,3.9
81,23,1,1,8,42,392,614.572826199932,615.7516989998985,"[90, 0, 164]",164,l,0.6612867000512779,1,colour,0.06,3.9
81,23,1,1,8,43,393,616.2738965000026,617.1198899999727,"[54, 0, 200]",200,a,0.31616290006786585,0,colour,0.06,3.9
81,23,1,1,8,44,394,617.633191099856,618.3597188999411,"[53, 0, 201]",201,a,0.20350460009649396,0,colour,0.06,3.9
81,23,1,1,8,45,395,618.8772706999443,619.6317091998644,"[93, 0, 161]",161,l,0.23498249985277653,1,colour,0.06,3.9
81,23,1,1,8,46,396,620.1384439999238,620.8636715998873,"[96, 0, 158]",158,l,0.20223319996148348,1,colour,0.06,3.9
81,23,1,1,8,47,397,621.3729163999669,622.2877275999635,"[62, 0, 192]",192,a,0.39182080002501607,0,colour,0.06,3.9
81,23,1,1,8,48,398,622.826295599807,623.5676533998922,"[76, 0, 178]",178,l,0.22013429994694889,1,colour,0.06,3.9
81,23,1,1,8,49,399,624.0744477999397,625.5676459998358,"[94, 0, 160]",160,l,0.9701531999744475,1,colour,0.06,3.9
81,23,1,1,8,50,400,626.0744305998087,626.9756722999737,"[77, 0, 177]",177,l,0.378198100021109,1,colour,0.06,3.9
81,23,1,1,9,1,401,648.1989566998091,649.095674399985,"[25, 0, 229]",229,a,0.3730560000985861,1,colour,0.06,3.8
81,23,1,1,9,2,402,649.6059538999107,650.4717280999757,"[77, 0, 177]",177,l,0.3435186999849975,1,colour,0.06,3.8
81,23,1,1,9,3,403,650.9809544999152,651.9276569997892,"[55, 0, 199]",199,a,0.4237555998843163,0,colour,0.06,3.8
81,23,1,1,9,4,404,652.4242059998214,653.2717091999948,"[73, 0, 181]",181,l,0.32756620016880333,1,colour,0.06,3.8
81,23,1,1,9,5,405,653.7860251998063,654.5596878000069,"[50, 0, 204]",204,a,0.25064139999449253,1,colour,0.06,3.8
81,23,1,1,9,6,406,655.067207199987,655.9917183998041,"[84, 0, 170]",170,l,0.4015681999735534,1,colour,0.06,3.8
81,23,1,1,9,7,407,656.5047978998628,657.3436634999234,"[65, 0, 189]",189,a,0.31588850007392466,0,colour,0.06,3.8
81,23,1,1,9,8,408,657.8534663999453,658.6157559999265,"[69, 0, 185]",185,a,0.23990390007384121,0,colour,0.06,3.8
81,23,1,1,9,9,409,659.1345210999716,659.8316524999682,"[0, 0, 254]",254,a,0.17420749994926155,1,colour,0.06,3.8
81,23,1,1,9,10,410,660.3377464998048,661.0316343999002,"[31, 0, 223]",223,a,0.17100000008940697,1,colour,0.06,3.8
81,23,1,1,9,11,411,661.5407584998757,662.2796954999212,"[58, 0, 196]",196,a,0.21595510002225637,0,colour,0.06,3.8
81,23,1,1,9,12,412,662.78933459986,663.727707499871,"[95, 0, 159]",159,l,0.4187425998970866,1,colour,0.06,3.8
81,23,1,1,9,13,413,664.2383723999374,664.9676512000151,"[67, 0, 187]",187,a,0.21245420002378523,0,colour,0.06,3.8
81,23,1,1,9,14,414,665.4883426998276,666.5676715997979,"[76, 0, 178]",178,l,0.5626359998714179,1,colour,0.06,3.8
81,23,1,1,9,15,415,667.0782359999139,668.0236897999421,"[93, 0, 161]",161,l,0.42486570007167757,1,colour,0.06,3.8
81,23,1,1,9,16,416,668.539007499814,669.5356795999687,"[82, 0, 172]",172,l,0.4736966001801193,1,colour,0.06,3.8
81,23,1,1,9,17,417,670.0452626999468,670.8236699998379,"[64, 0, 190]",190,a,0.26255139987915754,0,colour,0.06,3.8
81,23,1,1,9,18,418,671.3354623999912,673.8636793999467,"[75, 0, 179]",179,a,2.005424699978903,0,colour,0.06,3.8
81,23,1,1,9,19,419,674.3824543999508,675.1916790998075,"[89, 0, 165]",165,l,0.2863276998978108,1,colour,0.06,3.8
81,23,1,1,9,20,420,675.7106013998855,676.6156436000019,"[51, 0, 203]",203,a,0.3822187001351267,0,colour,0.06,3.8
81,23,1,1,9,21,421,677.1324531999417,679.5036269999109,"[72, 0, 182]",182,l,1.8566344000864774,1,colour,0.06,3.8
81,23,1,1,9,22,422,680.0148014000151,680.8076302998234,"[56, 0, 198]",198,a,0.26995410001836717,0,colour,0.06,3.8
81,23,1,1,9,23,423,681.3271627000067,682.1356350998394,"[61, 0, 193]",193,a,0.2854673999827355,0,colour,0.06,3.8
81,23,1,1,9,24,424,682.6456795998383,683.471727799857,"[97, 0, 157]",157,l,0.30718829995021224,1,colour,0.06,3.8
81,23,1,1,9,25,425,683.9937473998871,684.9116624000017,"[80, 0, 174]",174,l,0.39475179999135435,1,colour,0.06,3.8
81,23,1,1,9,26,426,685.4314396998379,687.0316284999717,"[68, 0, 186]",186,a,1.0773424000944942,0,colour,0.06,3.8
81,23,1,1,9,27,427,687.5407935997937,688.8396798998583,"[70, 0, 184]",184,a,0.7733978999312967,0,colour,0.06,3.8
81,23,1,1,9,28,428,689.3558014999144,690.1356404998805,"[83, 0, 171]",171,l,0.2574541000649333,1,colour,0.06,3.8
81,23,1,1,9,29,429,690.6526918997988,691.4316389998421,"[54, 0, 200]",200,a,0.25598499993793666,0,colour,0.06,3.8
81,23,1,1,9,30,430,691.9495103999507,693.4561958999839,"[96, 0, 158]",158,l,0.9841006000060588,1,colour,0.06,3.8
81,23,1,1,9,31,431,693.9696967999917,694.8956372998655,"[87, 0, 167]",167,l,0.4029747999738902,1,colour,0.06,3.8
81,23,1,1,9,32,432,695.4071740999352,696.4556263999548,"[91, 0, 163]",163,l,0.5255207000300288,1,colour,0.06,3.8
81,23,1,1,9,33,433,696.9696437998209,697.799631799804,"[99, 0, 155]",155,l,0.3069540997967124,1,colour,0.06,3.8
81,23,1,1,9,34,434,698.3188699998427,699.1676725000143,"[98, 0, 156]",156,l,0.3260969000402838,1,colour,0.06,3.8
81,23,1,1,9,35,435,699.6782111998182,701.9036710998043,"[94, 0, 160]",160,l,1.7025277998764068,1,colour,0.06,3.8
81,23,1,1,9,36,436,702.4125967000145,703.7676740998868,"[74, 0, 180]",180,l,0.8421557999681681,1,colour,0.06,3.8
81,23,1,1,9,37,437,704.278443899937,705.1116781998426,"[53, 0, 201]",201,a,0.31026549986563623,0,colour,0.06,3.8
81,23,1,1,9,38,438,705.6222099999432,706.4076477999333,"[79, 0, 175]",175,l,0.262495500035584,1,colour,0.06,3.8
81,23,1,1,9,39,439,706.9189944998361,707.7676903000101,"[63, 0, 191]",191,a,0.3259174001868814,0,colour,0.06,3.8
81,23,1,1,9,40,440,708.2857965999283,709.0716563998722,"[86, 0, 168]",168,l,0.2631007998716086,1,colour,0.06,3.8
81,23,1,1,9,41,441,709.5826471999753,710.4716394999996,"[66, 0, 188]",188,a,0.3659948999993503,0,colour,0.06,3.8
81,23,1,1,9,42,442,710.9888358998578,711.9196266999934,"[90, 0, 164]",164,l,0.407706200145185,1,colour,0.06,3.8
81,23,1,1,9,43,443,712.4263613999356,713.2316738998052,"[52, 0, 202]",202,a,0.291580299846828,0,colour,0.06,3.8
81,23,1,1,9,44,444,713.75476479996,714.5756343998946,"[62, 0, 192]",192,a,0.2986737999599427,0,colour,0.06,3.8
81,23,1,1,9,45,445,715.0904349999037,715.9756445998792,"[59, 0, 195]",195,a,0.36553069995716214,0,colour,0.06,3.8
81,23,1,1,9,46,446,716.4853481999598,717.3436036999337,"[78, 0, 176]",176,l,0.338838699972257,1,colour,0.06,3.8
81,23,1,1,9,47,447,717.864901999943,718.6076410999522,"[60, 0, 194]",194,a,0.2198515001218766,0,colour,0.06,3.8
81,23,1,1,9,48,448,719.1292184998747,719.9756447998807,"[71, 0, 183]",183,a,0.32414949988014996,0,colour,0.06,3.8
81,23,1,1,9,49,449,720.4976089999545,721.3115940999705,"[88, 0, 166]",166,l,0.2946222999598831,1,colour,0.06,3.8
81,23,1,1,9,50,450,721.8221455998719,723.3836508998647,"[92, 0, 162]",162,a,1.039385800017044,0,colour,0.06,3.8
81,23,1,1,10,1,451,742.2845457999501,743.1996797998436,"[83, 0, 171]",171,l,0.39163960004225373,1,colour,0.06,3.8
81,23,1,1,10,2,452,743.7215551999398,744.4635856999084,"[63, 0, 191]",191,a,0.22431290009990335,0,colour,0.06,3.8
81,23,1,1,10,3,453,744.9794359998778,747.5676494999789,"[94, 0, 160]",160,l,2.057439000112936,1,colour,0.06,3.8
81,23,1,1,10,4,454,748.0761986998841,748.7916023998987,"[97, 0, 157]",157,l,0.19218680006451905,1,colour,0.06,3.8
81,23,1,1,10,5,455,749.3097628999967,750.0716044998262,"[93, 0, 161]",161,l,0.2403293999377638,1,colour,0.06,3.8
81,23,1,1,10,6,456,750.5846209998708,751.3515941000078,"[33, 0, 221]",221,a,0.24146779999136925,1,colour,0.06,3.8
81,23,1,1,10,7,457,751.8695402999874,752.70366619993,"[80, 0, 174]",174,l,0.31129830004647374,1,colour,0.06,3.8
81,23,1,1,10,8,458,753.207450499991,754.0715901998337,"[81, 0, 173]",173,l,0.34344780002720654,1,colour,0.06,3.8
81,23,1,1,10,9,459,754.5893527998123,755.3516269999091,"[61, 0, 193]",193,a,0.2444070999044925,0,colour,0.06,3.8
81,23,1,1,10,10,460,755.8718983000144,757.2716114998329,"[51, 0, 203]",203,a,0.8684167999308556,0,colour,0.06,3.8
81,23,1,1,10,11,461,757.7847789998632,758.5835998000111,"[66, 0, 188]",188,a,0.2788383001461625,0,colour,0.06,3.8
81,23,1,1,10,12,462,759.1047656999435,760.0636078999378,"[71, 0, 183]",183,l,0.4361193000804633,1,colour,0.06,3.8
81,23,1,1,10,13,463,760.5807364999782,761.2316353998613,"[92, 0, 162]",162,l,0.12562599987722933,1,colour,0.06,3.8
81,23,1,1,10,14,464,761.7393427998759,763.5916489998344,"[69, 0, 185]",185,a,1.3293522999156266,0,colour,0.06,3.8
81,23,1,1,10,15,465,764.0996328999754,764.8716825998854,"[62, 0, 192]",192,a,0.2471258998848498,0,colour,0.06,3.8
81,23,1,1,10,16,466,765.388362800004,766.2716368997935,"[78, 0, 176]",176,l,0.35220189997926354,1,colour,0.06,3.8
81,23,1,1,10,17,467,766.7920110998675,767.5836166997906,"[56, 0, 198]",198,a,0.2750588997732848,0,colour,0.06,3.8
81,23,1,1,10,18,468,768.1057569999248,769.1436530998908,"[84, 0, 170]",170,l,0.5145529001019895,1,colour,0.06,3.8
81,23,1,1,10,19,469,769.6604690998793,770.6715962998569,"[54, 0, 200]",200,a,0.48668430000543594,0,colour,0.06,3.8
81,23,1,1,10,20,470,771.1851072998252,771.943648400018,"[86, 0, 168]",168,l,0.23583720019087195,1,colour,0.06,3.8
81,23,1,1,10,21,471,772.4505991998594,773.2396390999202,"[96, 0, 158]",158,l,0.26599809993058443,1,colour,0.06,3.8
81,23,1,1,10,22,472,773.7548518998083,774.6715978998691,"[77, 0, 177]",177,l,0.4002674000803381,1,colour,0.06,3.8
81,23,1,1,10,23,473,775.1786911999807,776.0075989000034,"[64, 0, 190]",190,a,0.30607610009610653,0,colour,0.06,3.8
81,23,1,1,10,24,474,776.5224017999135,777.2636962998658,"[36, 0, 218]",218,a,0.21837379992939532,1,colour,0.06,3.8
81,23,1,1,10,25,475,777.7722584998701,779.5275836999062,"[95, 0, 159]",159,l,1.2322068000212312,1,colour,0.06,3.8
81,23,1,1,10,26,476,780.0467969998717,781.8956063999794,"[58, 0, 196]",196,a,1.3259169000666589,0,colour,0.06,3.8
81,23,1,1,10,27,477,782.4061516998336,783.3196058999747,"[91, 0, 163]",163,l,0.39044860005378723,1,colour,0.06,3.8
81,23,1,1,10,28,478,783.8298663999885,784.7836465998553,"[75, 0, 179]",179,l,0.434617199935019,1,colour,0.06,3.8
81,23,1,1,10,29,479,785.3026072999928,790.5676407997962,"[76, 0, 178]",178,l,4.742392999818549,1,colour,0.06,3.8
81,23,1,1,10,30,480,791.0883563999087,791.7915740997996,"[53, 0, 201]",201,a,0.18073529982939363,0,colour,0.06,3.8
81,23,1,1,10,31,481,792.3070853999816,793.1036943998188,"[87, 0, 167]",167,l,0.27416249993257225,1,colour,0.06,3.8
81,23,1,1,10,32,482,793.6110331998207,794.7995876998175,"[68, 0, 186]",186,a,0.6563905000220984,0,colour,0.06,3.8
81,23,1,1,10,33,483,795.3128351999912,796.0796224998776,"[59, 0, 195]",195,a,0.24389069993048906,0,colour,0.06,3.8
81,23,1,1,10,34,484,796.5941000999883,797.271605799906,"[82, 0, 172]",172,l,0.15462539996951818,1,colour,0.06,3.8
81,23,1,1,10,35,485,797.7815204998478,798.4635947998613,"[85, 0, 169]",169,l,0.1591745000332594,1,colour,0.06,3.8
81,23,1,1,10,36,486,798.9773752999026,799.5996343998704,"[65, 0, 189]",189,a,0.09936410002410412,0,colour,0.06,3.8
81,23,1,1,10,37,487,800.1179866997991,800.7596183000132,"[74, 0, 180]",180,a,0.1189966001547873,0,colour,0.06,3.8
81,23,1,1,10,38,488,801.2742009998765,802.0156645998359,"[67, 0, 187]",187,a,0.21839139983057976,0,colour,0.06,3.8
81,23,1,1,10,39,489,802.5241594999097,803.2155502999667,"[89, 0, 165]",165,l,0.1683388000819832,1,colour,0.06,3.8
81,23,1,1,10,40,490,803.7183958999813,804.4799318998121,"[90, 0, 164]",164,l,0.24266200000420213,1,colour,0.06,3.8
81,23,1,1,10,41,491,804.9952827999368,806.0235841998365,"[79, 0, 175]",175,a,0.5051225998904556,0,colour,0.06,3.8
81,23,1,1,10,42,492,806.5423910999671,807.2635728998575,"[57, 0, 197]",197,a,0.19842169992625713,0,colour,0.06,3.8
81,23,1,1,10,43,493,807.7767361998558,808.4156301999465,"[50, 0, 204]",204,a,0.11593049997463822,1,colour,0.06,3.8
81,23,1,1,10,44,494,808.928555799881,809.6316335999873,"[30, 0, 224]",224,a,0.1802109000273049,1,colour,0.06,3.8
81,23,1,1,10,45,495,810.1472443998791,810.8236756999977,"[88, 0, 166]",166,l,0.153548400150612,1,colour,0.06,3.8
81,23,1,1,10,46,496,811.334753499832,813.5596282999031,"[60, 0, 194]",194,a,1.7027582000009716,0,colour,0.06,3.8
81,23,1,1,10,47,497,814.0691962998826,814.7676279000007,"[73, 0, 181]",181,l,0.17933620000258088,1,colour,0.06,3.8
81,23,1,1,10,48,498,815.283536599949,815.9595778998919,"[55, 0, 199]",199,a,0.1454330999404192,0,colour,0.06,3.8
81,23,1,1,10,49,499,816.4693910998758,817.1916377998423,"[99, 0, 155]",155,l,0.2049062999431044,1,colour,0.06,3.8
81,23,1,1,10,50,500,817.7057605998125,819.3995595998131,"[70, 0, 184]",184,a,1.1705025997944176,0,colour,0.06,3.8
81,23,1,1,11,1,501,829.604399099946,830.4876174000092,"[78, 0, 176]",176,l,0.3594829000066966,1,colour,0.06,3.7
81,23,1,1,11,2,502,830.9957659998909,831.543610899942,"[89, 0, 165]",165,l,0.02491810009814799,1,colour,0.06,3.7
81,23,1,1,11,3,503,832.0583507998381,834.1515842999797,"[66, 0, 188]",188,a,1.5703732001129538,0,colour,0.06,3.7
81,23,1,1,11,4,504,834.6630013999529,835.3755534999073,"[54, 0, 200]",200,a,0.14774690009653568,0,colour,0.06,3.7
81,23,1,1,11,5,505,835.8922949999105,836.6156068998389,"[79, 0, 175]",175,l,0.20028440002352,1,colour,0.06,3.7
81,23,1,1,11,6,506,837.1266923998483,838.2236352998298,"[52, 0, 202]",202,a,0.5739764999598265,0,colour,0.06,3.7
81,23,1,1,11,7,507,838.7360629998147,839.7756161999423,"[21, 0, 233]",233,a,0.5121065999846905,1,colour,0.06,3.7
81,23,1,1,11,8,508,840.2874921998009,841.135592599865,"[75, 0, 179]",179,l,0.32567599997855723,1,colour,0.06,3.7
81,23,1,1,11,9,509,841.6468314998783,842.2235472998582,"[80, 0, 174]",174,l,0.05377210001461208,1,colour,0.06,3.7
81,23,1,1,11,10,510,842.7406075999606,844.2075562998652,"[69, 0, 185]",185,l,0.9439997998997569,1,colour,0.06,3.7
81,23,1,1,11,11,511,844.7192074998748,845.5276058998425,"[57, 0, 197]",197,a,0.2903350000269711,0,colour,0.06,3.7
81,23,1,1,11,12,512,846.0424281999003,846.6877946997993,"[11, 0, 243]",243,a,0.12245899997651577,1,colour,0.06,3.7
81,23,1,1,11,13,513,847.1987153999507,847.9115716000088,"[84, 0, 170]",170,l,0.19074550014920533,1,colour,0.06,3.7
81,23,1,1,11,14,514,848.4174083999824,849.1356054998469,"[93, 0, 161]",161,l,0.19515990000218153,1,colour,0.06,3.7
81,23,1,1,11,15,515,849.6568096999545,850.4235473999288,"[73, 0, 181]",181,l,0.243797899922356,1,colour,0.06,3.7
81,23,1,1,11,16,516,850.9380171999801,851.79956269986,"[53, 0, 201]",201,a,0.3385908999480307,0,colour,0.06,3.7
81,23,1,1,11,17,517,852.3130212998949,853.1035568998195,"[76, 0, 178]",178,l,0.26808679988607764,1,colour,0.06,3.7
81,23,1,1,11,18,518,853.6099123999011,854.3595324999187,"[64, 0, 190]",190,a,0.2365333999041468,0,colour,0.06,3.7
81,23,1,1,11,19,519,854.8751352999825,855.5515522998758,"[87, 0, 167]",167,l,0.14465989987365901,1,colour,0.06,3.7
81,23,1,1,11,20,520,856.0715520000085,857.5035962997936,"[50, 0, 204]",204,a,0.9091589997988194,1,colour,0.06,3.7
81,23,1,1,11,21,521,858.0246334997937,858.72756629996,"[51, 0, 203]",203,a,0.17988190008327365,0,colour,0.06,3.7
81,23,1,1,11,22,522,859.2322829000186,860.4635508998763,"[94, 0, 160]",160,l,0.708331499947235,1,colour,0.06,3.7
81,23,1,1,11,23,523,860.9822416999377,862.6396440998651,"[77, 0, 177]",177,l,1.134525500005111,1,colour,0.06,3.7
81,23,1,1,11,24,524,863.1540921998676,864.375546899857,"[65, 0, 189]",189,a,0.6984440998639911,0,colour,0.06,3.7
81,23,1,1,11,25,525,864.8848565998487,865.6155693999026,"[71, 0, 183]",183,l,0.21342980000190437,1,colour,0.06,3.7
81,23,1,1,11,26,526,866.1292391999159,866.7515200998168,"[56, 0, 198]",198,a,0.09931489988230169,0,colour,0.06,3.7
81,23,1,1,11,27,527,867.269792099949,868.0075793999713,"[68, 0, 186]",186,l,0.21481180004775524,1,colour,0.06,3.7
81,23,1,1,11,28,528,868.5197314999532,869.2875920999795,"[95, 0, 159]",159,l,0.24529280001297593,1,colour,0.06,3.7
81,23,1,1,11,29,529,869.8047660000157,870.5275640999898,"[55, 0, 199]",199,a,0.19994190009310842,0,colour,0.06,3.7
81,23,1,1,11,30,530,871.0391211998649,871.7196066000033,"[92, 0, 162]",162,l,0.15755320014432073,1,colour,0.06,3.7
81,23,1,1,11,31,531,872.226612099912,872.9515427998267,"[86, 0, 168]",168,l,0.20207769982516766,1,colour,0.06,3.7
81,23,1,1,11,32,532,873.4609391998965,874.1755541998427,"[97, 0, 157]",157,l,0.19163109990768135,1,colour,0.06,3.7
81,23,1,1,11,33,533,874.6966266999952,875.4155384998303,"[62, 0, 192]",192,a,0.2008656000252813,0,colour,0.06,3.7
81,23,1,1,11,34,534,875.9381524999626,876.4956613997929,"[82, 0, 172]",172,l,0.04058779985643923,1,colour,0.06,3.7
81,23,1,1,11,35,535,877.0051841000095,877.5916492999531,"[81, 0, 173]",173,l,0.06699880002997816,1,colour,0.06,3.7
81,23,1,1,11,36,536,878.1033820998855,878.7435688998085,"[98, 0, 156]",156,l,0.12045079981908202,1,colour,0.06,3.7
81,23,1,1,11,37,537,879.265370799927,880.007544499822,"[85, 0, 169]",169,l,0.21899029985070229,1,colour,0.06,3.7
81,23,1,1,11,38,538,880.5262100999244,881.255546099972,"[96, 0, 158]",158,l,0.20828950009308755,1,colour,0.06,3.7
81,23,1,1,11,39,539,881.7675019998569,882.463577899849,"[99, 0, 155]",155,l,0.17835049983114004,1,colour,0.06,3.7
81,23,1,1,11,40,540,882.9821365999524,883.6155377000105,"[91, 0, 163]",163,l,0.11057150014676154,1,colour,0.06,3.7
81,23,1,1,11,41,541,884.1227386998944,885.5835965999868,"[83, 0, 171]",171,l,0.9457275001332164,1,colour,0.06,3.7
81,23,1,1,11,42,542,886.0961152999662,886.8075112998486,"[59, 0, 195]",195,a,0.18839369993656874,0,colour,0.06,3.7
81,23,1,1,11,43,543,887.314792299876,888.0315850998741,"[4, 0, 250]",250,a,0.19462169986218214,1,colour,0.06,3.7
81,23,1,1,11,44,544,888.5491898998152,889.6715359999798,"[70, 0, 184]",184,l,0.5993451001122594,1,colour,0.06,3.7
81,23,1,1,11,45,545,890.1851126998663,890.8235672998708,"[88, 0, 166]",166,l,0.11579150008037686,1,colour,0.06,3.7
81,23,1,1,11,46,546,891.3411107999273,891.9675909997895,"[74, 0, 180]",180,l,0.1033035998698324,1,colour,0.06,3.7
81,23,1,1,11,47,547,892.4817858999595,893.1035708999261,"[58, 0, 196]",196,a,0.09870749991387129,0,colour,0.06,3.7
81,23,1,1,11,48,548,893.6224395998288,894.2795549998991,"[72, 0, 182]",182,l,0.13409810001030564,1,colour,0.06,3.7
81,23,1,1,11,49,549,894.7943130999338,895.7357785999775,"[61, 0, 193]",193,a,0.42353560007177293,0,colour,0.06,3.7
81,23,1,1,11,50,550,896.2486127999146,896.999551499961,"[67, 0, 187]",187,a,0.22803190001286566,0,colour,0.06,3.7
81,23,1,1,12,1,551,906.8858244000003,907.9435753999278,"[69, 0, 185]",185,a,0.5341847999952734,0,colour,0.06,3.7
81,23,1,1,12,2,552,908.4646464998368,909.2475451999344,"[63, 0, 191]",191,a,0.2600060999393463,0,colour,0.06,3.7
81,23,1,1,12,3,553,909.752665199805,910.8075134998653,"[50, 0, 204]",204,a,0.5318611999973655,1,colour,0.06,3.7
81,23,1,1,12,4,554,911.3152649998665,912.1835550998803,"[91, 0, 163]",163,l,0.3452765999827534,1,colour,0.06,3.7
81,23,1,1,12,5,555,912.6902846000157,913.6635912000202,"[56, 0, 198]",198,a,0.4504241000395268,0,colour,0.06,3.7
81,23,1,1,12,6,556,914.1745582998265,914.8556124998722,"[80, 0, 174]",174,l,0.16718530002981424,1,colour,0.06,3.7
81,23,1,1,12,7,557,915.4215264997911,916.863572999835,"[70, 0, 184]",184,a,0.9276668999809772,0,colour,0.06,3.7
81,23,1,1,12,8,558,917.3817049998324,918.2635749999899,"[57, 0, 197]",197,a,0.35893780016340315,0,colour,0.06,3.7
81,23,1,1,12,9,559,918.7723325998522,919.5675253998488,"[58, 0, 196]",196,a,0.2721885999199003,0,colour,0.06,3.7
81,23,1,1,12,10,560,920.0790436998941,920.8715352998115,"[82, 0, 172]",172,l,0.26950529986061156,1,colour,0.06,3.7
81,23,1,1,12,11,561,921.391427599825,922.1675176999997,"[84, 0, 170]",170,l,0.2537540001794696,1,colour,0.06,3.7
81,23,1,1,12,12,562,922.6884016999975,923.4315302998293,"[81, 0, 173]",173,l,0.22009629989042878,1,colour,0.06,3.7
81,23,1,1,12,13,563,923.93830109993,924.6955534999724,"[86, 0, 168]",168,l,0.23451800015754998,1,colour,0.06,3.7
81,23,1,1,12,14,564,925.2050700997934,925.9595615998842,"[89, 0, 165]",165,l,0.23053990001790226,1,colour,0.06,3.7
81,23,1,1,12,15,565,926.4676767999772,927.3195275999606,"[75, 0, 179]",179,a,0.3268687000963837,0,colour,0.06,3.7
81,23,1,1,12,16,566,927.8336878998671,928.6475564998109,"[64, 0, 190]",190,a,0.28293859981931746,0,colour,0.06,3.7
81,23,1,1,12,17,567,929.1648007999174,929.903570199851,"[90, 0, 164]",164,l,0.22237650002352893,1,colour,0.06,3.7
81,23,1,1,12,18,568,930.4217592999339,931.1674951999448,"[88, 0, 166]",166,l,0.22322280006483197,1,colour,0.06,3.7
81,23,1,1,12,19,569,931.6802882999182,932.3835416999646,"[36, 0, 218]",218,a,0.18565760017372668,1,colour,0.06,3.7
81,23,1,1,12,20,570,932.8936333998572,933.5995881999843,"[65, 0, 189]",189,a,0.18355450010858476,0,colour,0.06,3.7
81,23,1,1,12,21,571,934.1123259998858,934.84751399979,"[72, 0, 182]",182,a,0.21214639977551997,0,colour,0.06,3.7
81,23,1,1,12,22,572,935.3574560999405,936.3115783999674,"[77, 0, 177]",177,l,0.43091130000539124,1,colour,0.06,3.7
81,23,1,1,12,23,573,936.8322285998147,937.5755465999246,"[67, 0, 187]",187,a,0.2256459000054747,0,colour,0.06,3.7
81,23,1,1,12,24,574,938.0838754000142,939.1915573999286,"[52, 0, 202]",202,a,0.5767590999603271,0,colour,0.06,3.7
81,23,1,1,12,25,575,939.7057826998644,940.7035765999462,"[66, 0, 188]",188,a,0.47758690011687577,0,colour,0.06,3.7
81,23,1,1,12,26,576,941.2117397999391,941.9514927999116,"[97, 0, 157]",157,l,0.22109979996457696,1,colour,0.06,3.7
81,23,1,1,12,27,577,942.4675497999415,943.1355384998024,"[55, 0, 199]",199,a,0.14041129988618195,0,colour,0.06,3.7
81,23,1,1,12,28,578,943.6440092998091,944.2395074998494,"[92, 0, 162]",162,l,0.07257149997167289,1,colour,0.06,3.7
81,23,1,1,12,29,579,944.7533592998516,945.559478599811,"[85, 0, 169]",169,l,0.29233169998042285,1,colour,0.06,3.7
81,23,1,1,12,30,580,946.0729267999995,946.8235408000182,"[78, 0, 176]",176,l,0.23219290003180504,1,colour,0.06,3.7
81,23,1,1,12,31,581,947.3457845000084,948.1355298999697,"[96, 0, 158]",158,l,0.2716352001298219,1,colour,0.06,3.7
81,23,1,1,12,32,582,948.6477298999671,949.3915212999564,"[59, 0, 195]",195,a,0.2269574999809265,0,colour,0.06,3.7
81,23,1,1,12,33,583,949.8998703998514,952.2155931999441,"[60, 0, 194]",194,a,1.7933303001336753,0,colour,0.06,3.7
81,23,1,1,12,34,584,952.7294171999674,953.4555346998386,"[53, 0, 201]",201,a,0.20356239983811975,0,colour,0.06,3.7
81,23,1,1,12,35,585,953.9637182999868,954.855494099902,"[79, 0, 175]",175,l,0.36874189996160567,1,colour,0.06,3.7
81,23,1,1,12,36,586,955.3633741999511,956.1355409999378,"[94, 0, 160]",160,l,0.2535564999561757,1,colour,0.06,3.7
81,23,1,1,12,37,587,956.6566012999974,957.4075257999357,"[30, 0, 224]",224,a,0.23151420010253787,1,colour,0.06,3.7
81,23,1,1,12,38,588,957.929038599832,959.6635052999482,"[76, 0, 178]",178,l,1.2025899000000209,1,colour,0.06,3.7
81,23,1,1,12,39,589,960.1839600999374,960.9675576000009,"[99, 0, 155]",155,l,0.2663756001275033,1,colour,0.06,3.7
81,23,1,1,12,40,590,961.4873567998875,962.2075872998685,"[61, 0, 193]",193,a,0.20228510000742972,0,colour,0.06,3.7
81,23,1,1,12,41,591,962.7205633998383,963.3915834999643,"[95, 0, 159]",159,l,0.14866030006669462,1,colour,0.06,3.7
81,23,1,1,12,42,592,963.9079729998484,964.623536199797,"[87, 0, 167]",167,l,0.19250239990651608,1,colour,0.06,3.7
81,23,1,1,12,43,593,965.1408884997945,966.2475320999511,"[26, 0, 228]",228,a,0.5888583001215011,1,colour,0.06,3.7
81,23,1,1,12,44,594,966.7591609999072,967.5835135998204,"[68, 0, 186]",186,a,0.30559200001880527,0,colour,0.06,3.7
81,23,1,1,12,45,595,968.10367579991,969.0475232999306,"[73, 0, 181]",181,l,0.4260303999762982,1,colour,0.06,3.7
81,23,1,1,12,46,596,969.5572506999597,970.1675537999254,"[74, 0, 180]",180,l,0.07950929994694889,1,colour,0.06,3.7
81,23,1,1,12,47,597,970.6877158998977,971.615516499849,"[93, 0, 161]",161,l,0.4050795999355614,1,colour,0.06,3.7
81,23,1,1,12,48,598,972.1300204999279,972.8315610999707,"[83, 0, 171]",171,l,0.18313210015185177,1,colour,0.06,3.7
81,23,1,1,12,49,599,973.3399000999052,974.8796196999028,"[98, 0, 156]",156,l,1.016778599936515,1,colour,0.06,3.7
81,23,1,1,12,50,600,975.3995294999331,976.1995574999601,"[54, 0, 200]",200,a,0.24184080003760755,0,colour,0.06,3.7
81,23,1,1,13,1,601,983.3609833999071,984.1515057999641,"[97, 0, 157]",157,a,0.26690210006199777,0,colour,0.06,3.7
81,23,1,1,13,2,602,984.6585967999417,985.3115177999716,"[53, 0, 201]",201,a,0.13033460010774434,0,colour,0.06,3.7
81,23,1,1,13,3,603,985.8335583999287,986.8154957999941,"[66, 0, 188]",188,a,0.454733100021258,0,colour,0.06,3.7
81,23,1,1,13,4,604,987.3226016999688,990.6155499999877,"[31, 0, 223]",223,l,2.7700079001951963,0,colour,0.06,3.7
81,23,1,1,13,5,605,991.1245703999884,991.8714978999924,"[50, 0, 204]",204,a,0.22392650018446147,1,colour,0.06,3.7
81,23,1,1,13,6,606,992.3902198998258,993.6794941998087,"[67, 0, 187]",187,a,0.7661837998311967,0,colour,0.06,3.7
81,23,1,1,13,7,607,994.1871443998534,1000.4795144998934,"[58, 0, 196]",196,a,5.769401300000027,0,colour,0.06,3.7
81,23,1,1,13,8,608,1000.9940664998721,1003.711547399871,"[89, 0, 165]",165,l,2.194540499942377,1,colour,0.06,3.7
81,23,1,1,13,9,609,1004.229113999987,1006.4875083998777,"[62, 0, 192]",192,a,1.7362019000574946,0,colour,0.06,3.7
81,23,1,1,13,10,610,1007.0031698998064,1007.7915325998329,"[54, 0, 200]",200,a,0.2698683999478817,0,colour,0.06,3.7
81,23,1,1,13,11,611,1008.3055224998388,1009.1514703999273,"[78, 0, 176]",176,l,0.3277201000601053,1,colour,0.06,3.7
81,23,1,1,13,12,612,1009.6614137999713,1010.2635017000139,"[79, 0, 175]",175,l,0.0716396002098918,1,colour,0.06,3.7
81,23,1,1,13,13,613,1010.77856529993,1011.4955113998149,"[94, 0, 160]",160,l,0.19648349983617663,1,colour,0.06,3.7
81,23,1,1,13,14,614,1012.0046773999929,1012.7834849997889,"[56, 0, 198]",198,a,0.25925149978138506,0,colour,0.06,3.7
81,23,1,1,13,15,615,1013.295987599995,1013.9835427999496,"[64, 0, 190]",190,a,0.16459960001520813,0,colour,0.06,3.7
81,23,1,1,13,16,616,1014.4991099999752,1015.2475359998643,"[60, 0, 194]",194,a,0.2255212999880314,0,colour,0.06,3.7
81,23,1,1,13,17,617,1015.7564284999389,1020.0554966998752,"[82, 0, 172]",172,l,3.740533599862829,1,colour,0.06,3.7
81,23,1,1,13,18,618,1020.5619843997993,1021.503493799828,"[71, 0, 183]",183,a,0.41853509983047843,0,colour,0.06,3.7
81,23,1,1,13,19,619,1022.015070399968,1023.4394932999276,"[63, 0, 191]",191,a,0.9015242999885231,0,colour,0.06,3.7
81,23,1,1,13,20,620,1023.9532421999611,1031.575492599979,"[99, 0, 155]",155,l,7.1002518001478165,1,colour,0.06,3.7
81,23,1,1,13,21,621,1032.0876556998119,1033.5594628998078,"[77, 0, 177]",177,l,0.9489173998590559,1,colour,0.06,3.7
81,23,1,1,13,22,622,1034.0719629998785,1044.623530099867,"[90, 0, 164]",164,l,10.028546999907121,1,colour,0.06,3.7
81,23,1,1,13,23,623,1045.1447488998529,1051.2314670998603,"[96, 0, 158]",158,l,5.563910200027749,1,colour,0.06,3.7
81,23,1,1,13,24,624,1051.7479228000157,1052.4954585998785,"[91, 0, 163]",163,l,0.22796049993485212,1,colour,0.06,3.7
81,23,1,1,13,25,625,1053.0063167999033,1055.1754402997904,"[70, 0, 184]",184,a,1.6450737998820841,0,colour,0.06,3.7
81,23,1,1,13,26,626,1055.6950125999283,1056.5114602998365,"[68, 0, 186]",186,a,0.3014048000331968,0,colour,0.06,3.7
81,23,1,1,13,27,627,1057.020390199963,1057.7994369999506,"[59, 0, 195]",195,a,0.24766420014202595,0,colour,0.06,3.7
81,23,1,1,13,28,628,1058.3193355000112,1059.0075244999025,"[72, 0, 182]",182,l,0.1711804000660777,1,colour,0.06,3.7
81,23,1,1,13,29,629,1059.522902800003,1061.0154991999734,"[87, 0, 167]",167,l,0.9733202001079917,1,colour,0.06,3.7
81,23,1,1,13,30,630,1061.5376565000042,1062.1914324997924,"[74, 0, 180]",180,l,0.1286794999614358,1,colour,0.06,3.7
81,23,1,1,13,31,631,1062.7086514998227,1063.295512399869,"[51, 0, 203]",203,a,0.06849749991670251,0,colour,0.06,3.7
81,23,1,1,13,32,632,1063.8167341998778,1064.5914508998394,"[86, 0, 168]",168,l,0.25168979982845485,1,colour,0.06,3.7
81,23,1,1,13,33,633,1065.0981058999896,1066.0714840998407,"[88, 0, 166]",166,l,0.45043900003656745,1,colour,0.06,3.7
81,23,1,1,13,34,634,1066.5862265999895,1067.2474573999643,"[57, 0, 197]",197,a,0.14152640011161566,0,colour,0.06,3.7
81,23,1,1,13,35,635,1067.7630258998834,1068.407515199855,"[49, 0, 205]",205,a,0.12471310002729297,1,colour,0.06,3.7
81,23,1,1,13,36,636,1068.926207399927,1069.6795161999762,"[73, 0, 181]",181,l,0.22204659995622933,1,colour,0.06,3.7
81,23,1,1,13,37,637,1070.1946697998792,1070.847459799843,"[55, 0, 199]",199,a,0.1353650998789817,0,colour,0.06,3.7
81,23,1,1,13,38,638,1071.3596595998388,1072.0394599998835,"[65, 0, 189]",189,a,0.15472129988484085,0,colour,0.06,3.7
81,23,1,1,13,39,639,1072.5472212999593,1073.2475351998582,"[95, 0, 159]",159,l,0.17909269989468157,1,colour,0.06,3.7
81,23,1,1,13,40,640,1073.75781549979,1074.415472399909,"[52, 0, 202]",202,a,0.14203059999272227,0,colour,0.06,3.7
81,23,1,1,13,41,641,1074.92248259997,1075.6474446000066,"[93, 0, 161]",161,l,0.202076300047338,1,colour,0.06,3.7
81,23,1,1,13,42,642,1076.1517292999197,1076.8458528998308,"[98, 0, 156]",156,l,0.175061599817127,1,colour,0.06,3.7
81,23,1,1,13,43,643,1077.3585240999237,1077.9514342998154,"[83, 0, 171]",171,l,0.06993979983963072,1,colour,0.06,3.7
81,23,1,1,13,44,644,1078.4679456998128,1079.9835159999784,"[75, 0, 179]",179,l,0.9928405999671668,1,colour,0.06,3.7
81,23,1,1,13,45,645,1080.499127099989,1081.1515808999538,"[85, 0, 169]",169,l,0.12953620008192956,1,colour,0.06,3.7
81,23,1,1,13,46,646,1081.6592202999163,1082.367505399976,"[76, 0, 178]",178,l,0.18544070003554225,1,colour,0.06,3.7
81,23,1,1,13,47,647,1082.878039199859,1083.5354955999646,"[61, 0, 193]",193,a,0.13457500003278255,0,colour,0.06,3.7
81,23,1,1,13,48,648,1084.049890999915,1084.7194864000194,"[80, 0, 174]",174,a,0.14722590008750558,0,colour,0.06,3.7
81,23,1,1,13,49,649,1085.2374055997934,1086.2634532998782,"[81, 0, 173]",173,l,0.5032190999481827,1,colour,0.06,3.7
81,23,1,1,13,50,650,1086.8141001998447,1087.5994676998816,"[27, 0, 227]",227,a,0.2650009000208229,1,colour,0.06,3.7
81,23,1,1,14,1,651,1096.8853285999503,1097.6874210999813,"[65, 0, 189]",189,a,0.28014400019310415,0,colour,0.06,3.6
81,23,1,1,14,2,652,1098.2016131000128,1098.9594543999992,"[80, 0, 174]",174,l,0.2266023000702262,1,colour,0.06,3.6
81,23,1,1,14,3,653,1099.4684512999374,1100.119431399973,"[79, 0, 175]",175,l,0.13375960011035204,1,colour,0.06,3.6
81,23,1,1,14,4,654,1100.6301487998571,1101.2154753999785,"[95, 0, 159]",159,l,0.06810370017774403,1,colour,0.06,3.6
81,23,1,1,14,5,655,1101.7314773998223,1102.3914935998619,"[72, 0, 182]",182,a,0.138346099993214,0,colour,0.06,3.6
81,23,1,1,14,6,656,1102.9007673999295,1103.4714544999879,"[91, 0, 163]",163,l,0.05081160017289221,1,colour,0.06,3.6
81,23,1,1,14,7,657,1103.9883020999841,1104.5834277998656,"[63, 0, 191]",191,a,0.08058509998954833,0,colour,0.06,3.6
81,23,1,1,14,8,658,1105.089349999791,1105.6954142998438,"[66, 0, 188]",188,a,0.08303069998510182,0,colour,0.06,3.6
81,23,1,1,14,9,659,1106.2143277998548,1106.7754296998028,"[62, 0, 192]",192,a,0.04122869996353984,0,colour,0.06,3.6
81,23,1,1,14,10,660,1107.3060544999316,1107.9034406999126,"[99, 0, 155]",155,l,0.06920249992981553,1,colour,0.06,3.6
81,23,1,1,14,11,661,1108.4205733998679,1109.0314569999464,"[57, 0, 197]",197,a,0.08797460002824664,0,colour,0.06,3.6
81,23,1,1,14,12,662,1109.54546319996,1110.927447399823,"[55, 0, 199]",199,a,0.8589939998928457,0,colour,0.06,3.6
81,23,1,1,14,13,663,1111.4258162998594,1112.0074876998551,"[82, 0, 172]",172,l,0.058747699949890375,1,colour,0.06,3.6
81,23,1,1,14,14,664,1112.5196184997912,1113.063526700018,"[77, 0, 177]",177,l,0.02094460022635758,1,colour,0.06,3.6
81,23,1,1,14,15,665,1113.5820066998713,1114.183441999834,"[35, 0, 219]",219,a,0.07838790002278984,1,colour,0.06,3.6
81,23,1,1,14,16,666,1114.6913898999337,1115.271474499954,"[60, 0, 194]",194,a,0.05708090006373823,0,colour,0.06,3.6
81,23,1,1,14,17,667,1115.7850982998498,1116.3834956998471,"[94, 0, 160]",160,l,0.07550300005823374,1,colour,0.06,3.6
81,23,1,1,14,18,668,1116.8969719999004,1117.5514716999605,"[70, 0, 184]",184,a,0.1331245000474155,0,colour,0.06,3.6
81,23,1,1,14,19,669,1118.0608840999193,1118.6874622998293,"[40, 0, 214]",214,a,0.11035199998877943,1,colour,0.06,3.6
81,23,1,1,14,20,670,1119.2040065999608,1119.7914851999376,"[93, 0, 161]",161,l,0.05619890009984374,1,colour,0.06,3.6
81,23,1,1,14,21,671,1120.300600499846,1120.9354425999336,"[87, 0, 167]",167,l,0.11342890001833439,1,colour,0.06,3.6
81,23,1,1,14,22,672,1121.4495250999462,1122.0474598999135,"[74, 0, 180]",180,a,0.07849230011925101,0,colour,0.06,3.6
81,23,1,1,14,23,673,1122.5699534998275,1123.1514716998208,"[90, 0, 164]",164,l,0.059790399856865406,1,colour,0.06,3.6
81,23,1,1,14,24,674,1123.6719717998058,1124.2874108999968,"[98, 0, 156]",156,l,0.09710940020158887,1,colour,0.06,3.6
81,23,1,1,14,25,675,1124.8064258999657,1126.783433899982,"[97, 0, 157]",157,l,1.453977599972859,1,colour,0.06,3.6
81,23,1,1,14,26,676,1127.2920376998372,1127.8874339999165,"[52, 0, 202]",202,a,0.08062219992280006,0,colour,0.06,3.6
81,23,1,1,14,27,677,1128.39320089994,1129.5676549999043,"[67, 0, 187]",187,a,0.6514391999226063,0,colour,0.06,3.6
81,23,1,1,14,28,678,1130.0807381998748,1130.7754780999385,"[68, 0, 186]",186,a,0.1719364000018686,0,colour,0.06,3.6
81,23,1,1,14,29,679,1131.2838284999598,1131.8634467998054,"[86, 0, 168]",168,l,0.049225099850445986,1,colour,0.06,3.6
81,23,1,1,14,30,680,1132.3693701999728,1132.9994516998995,"[58, 0, 196]",196,a,0.107370899990201,0,colour,0.06,3.6
81,23,1,1,14,31,681,1133.5099134999327,1134.3754310999066,"[81, 0, 173]",173,l,0.34247209993191063,1,colour,0.06,3.6
81,23,1,1,14,32,682,1134.8849504999816,1135.9594513999764,"[96, 0, 158]",158,l,0.5526422001421452,1,colour,0.06,3.6
81,23,1,1,14,33,683,1136.4787192000076,1137.0473911999725,"[89, 0, 165]",165,l,0.04429880017414689,1,colour,0.06,3.6
81,23,1,1,14,34,684,1137.5789518998936,1138.1434270997997,"[88, 0, 166]",166,l,0.035780999809503555,1,colour,0.06,3.6
81,23,1,1,14,35,685,1138.655947299907,1139.3114618000109,"[54, 0, 200]",200,a,0.1373674999922514,0,colour,0.06,3.6
81,23,1,1,14,36,686,1139.81998309982,1140.4393946998753,"[92, 0, 162]",162,l,0.08847100008279085,1,colour,0.06,3.6
81,23,1,1,14,37,687,1140.9485579999164,1141.5355599999893,"[50, 0, 204]",204,a,0.056166900089010596,1,colour,0.06,3.6
81,23,1,1,14,38,688,1142.0480597999413,1142.6074408998247,"[64, 0, 190]",190,a,0.03552869986742735,0,colour,0.06,3.6
81,23,1,1,14,39,689,1143.125918699894,1143.695470499806,"[78, 0, 176]",176,l,0.04901179997250438,1,colour,0.06,3.6
81,23,1,1,14,40,690,1144.2119457998779,1144.7674486998003,"[83, 0, 171]",171,l,0.035306699806824327,1,colour,0.06,3.6
81,23,1,1,14,41,691,1145.2874100999907,1146.0154869998805,"[69, 0, 185]",185,a,0.20534819993190467,0,colour,0.06,3.6
81,23,1,1,14,42,692,1146.521706599975,1147.3114103998523,"[73, 0, 181]",181,l,0.2684334998484701,1,colour,0.06,3.6
81,23,1,1,14,43,693,1147.8208750998601,1148.4315082998946,"[76, 0, 178]",178,a,0.09384629991836846,0,colour,0.06,3.6
81,23,1,1,14,44,694,1148.9524812998716,1151.4314059999306,"[51, 0, 203]",203,a,1.9619768001139164,0,colour,0.06,3.6
81,23,1,1,14,45,695,1151.950079599861,1152.8874698998407,"[19, 0, 235]",235,a,0.41365040000528097,1,colour,0.06,3.6
81,23,1,1,14,46,696,1153.3969541999977,1154.0235441999976,"[61, 0, 193]",193,a,0.10975300008431077,0,colour,0.06,3.6
81,23,1,1,14,47,697,1154.5443580998108,1155.111410900019,"[59, 0, 195]",195,a,0.04422970023006201,0,colour,0.06,3.6
81,23,1,1,14,48,698,1155.622334399959,1156.207475299947,"[84, 0, 170]",170,l,0.06220240006223321,1,colour,0.06,3.6
81,23,1,1,14,49,699,1156.7242899998091,1157.3674283998553,"[71, 0, 183]",183,l,0.12432079995051026,1,colour,0.06,3.6
81,23,1,1,14,50,700,1157.8794197000097,1158.4395249998197,"[53, 0, 201]",201,a,0.041076699970290065,0,colour,0.06,3.6
81,23,1,1,15,1,701,1167.259135399945,1167.983412399888,"[98, 0, 156]",156,l,0.20297509990632534,1,colour,0.06,3.5
81,23,1,1,15,2,702,1168.4941257999744,1169.5994737998117,"[59, 0, 195]",195,a,0.5824648998677731,0,colour,0.06,3.5
81,23,1,1,15,3,703,1170.1190930998418,1170.679420299828,"[61, 0, 193]",193,a,0.037486799992620945,0,colour,0.06,3.5
81,23,1,1,15,4,704,1171.197215899825,1171.871455000015,"[88, 0, 166]",166,l,0.15134580014273524,1,colour,0.06,3.5
81,23,1,1,15,5,705,1172.3791602000128,1172.999436599901,"[68, 0, 186]",186,a,0.09713810007087886,0,colour,0.06,3.5
81,23,1,1,15,6,706,1173.5198386998381,1174.183430199977,"[63, 0, 191]",191,l,0.14064150000922382,1,colour,0.06,3.5
81,23,1,1,15,7,707,1174.6917717999313,1175.3994059998076,"[75, 0, 179]",179,l,0.18452729983255267,1,colour,0.06,3.5
81,23,1,1,15,8,708,1175.9104887999129,1176.4954256999772,"[62, 0, 192]",192,a,0.06201910017989576,0,colour,0.06,3.5
81,23,1,1,15,9,709,1176.9947527998593,1177.607394799823,"[71, 0, 183]",183,a,0.09481789986602962,0,colour,0.06,3.5
81,23,1,1,15,10,710,1178.1229177999776,1178.6714244999457,"[67, 0, 187]",187,a,0.017195899970829487,0,colour,0.06,3.5
81,23,1,1,15,11,711,1179.1896785998251,1179.783427399816,"[66, 0, 188]",188,a,0.07731999992392957,0,colour,0.06,3.5
81,23,1,1,15,12,712,1180.3038970998023,1180.9994629998691,"[13, 0, 241]",241,a,0.1671782999765128,1,colour,0.06,3.5
81,23,1,1,15,13,713,1181.5211076999549,1182.679462599801,"[81, 0, 173]",173,a,0.6400010997895151,0,colour,0.06,3.5
81,23,1,1,15,14,714,1183.1961536000017,1184.3273884998634,"[89, 0, 165]",165,l,0.6123148000333458,1,colour,0.06,3.5
81,23,1,1,15,15,715,1184.8429429999087,1185.6314332999755,"[91, 0, 163]",163,l,0.2655607000924647,1,colour,0.06,3.5
81,23,1,1,15,16,716,1186.1398616000079,1186.7593995998614,"[86, 0, 168]",168,l,0.09658419992774725,1,colour,0.06,3.5
81,23,1,1,15,17,717,1187.2695736999158,1188.4716266999021,"[41, 0, 213]",213,a,0.6434611000586301,1,colour,0.06,3.5
81,23,1,1,15,18,718,1188.9847285000142,1189.6394598998595,"[79, 0, 175]",175,l,0.13204609998501837,1,colour,0.06,3.5
81,23,1,1,15,19,719,1190.1565591997933,1191.0394113999791,"[51, 0, 203]",203,a,0.3598513000179082,0,colour,0.06,3.5
81,23,1,1,15,20,720,1191.547213099897,1192.239427599823,"[94, 0, 160]",160,l,0.1728161999490112,1,colour,0.06,3.5
81,23,1,1,15,21,721,1192.7467838998418,1193.503372399835,"[74, 0, 180]",180,l,0.2336480999365449,1,colour,0.06,3.5
81,23,1,1,15,22,722,1194.012391799828,1194.7834073998965,"[97, 0, 157]",157,l,0.24811160005629063,1,colour,0.06,3.5
81,23,1,1,15,23,723,1195.2935697999783,1196.839392399881,"[80, 0, 174]",174,a,1.022890199907124,0,colour,0.06,3.5
81,23,1,1,15,24,724,1197.3575948998332,1198.343362199841,"[96, 0, 158]",158,l,0.4260157998651266,1,colour,0.06,3.5
81,23,1,1,15,25,725,1198.8559613998514,1199.6153652998619,"[54, 0, 200]",200,a,0.23703689989633858,0,colour,0.06,3.5
81,23,1,1,15,26,726,1200.1215756998863,1200.743437099969,"[52, 0, 202]",202,a,0.09905000007711351,0,colour,0.06,3.5
81,23,1,1,15,27,727,1201.2621584997978,1201.9353678999469,"[57, 0, 197]",197,a,0.15022359997965395,0,colour,0.06,3.5
81,23,1,1,15,28,728,1202.4448239998892,1203.1434147998225,"[60, 0, 194]",194,a,0.1756972000002861,0,colour,0.06,3.5
81,23,1,1,15,29,729,1203.6634483998641,1204.4314966998063,"[76, 0, 178]",178,l,0.2458279998973012,1,colour,0.06,3.5
81,23,1,1,15,30,730,1204.944724699948,1206.2713773997966,"[90, 0, 164]",164,l,0.803679300006479,1,colour,0.06,3.5
81,23,1,1,15,31,731,1206.7885304999072,1207.4634527999442,"[84, 0, 170]",170,l,0.1619277000427246,1,colour,0.06,3.5
81,23,1,1,15,32,732,1207.9752201999072,1208.6553829999175,"[50, 0, 204]",204,a,0.13780710007995367,1,colour,0.06,3.5
81,23,1,1,15,33,733,1209.1669781999663,1209.8874498999212,"[53, 0, 201]",201,a,0.1976723000407219,0,colour,0.06,3.5
81,23,1,1,15,34,734,1210.4013624999207,1211.2474421998486,"[82, 0, 172]",172,l,0.32330669998191297,1,colour,0.06,3.5
81,23,1,1,15,35,735,1211.7606777998153,1212.9194532998372,"[70, 0, 184]",184,a,0.6415329999290407,0,colour,0.06,3.5
81,23,1,1,15,36,736,1213.426768800011,1214.1353953999933,"[85, 0, 169]",169,l,0.18566250009462237,1,colour,0.06,3.5
81,23,1,1,15,37,737,1214.6455518999137,1215.703386799898,"[92, 0, 162]",162,l,0.5348785000387579,1,colour,0.06,3.5
81,23,1,1,15,38,738,1216.2236883000005,1216.8954184998292,"[64, 0, 190]",190,a,0.14906740002334118,0,colour,0.06,3.5
81,23,1,1,15,39,739,1217.400975599885,1218.0947061998304,"[58, 0, 196]",196,a,0.1753430999815464,0,colour,0.06,3.5
81,23,1,1,15,40,740,1218.6074200000148,1219.2234646999277,"[77, 0, 177]",177,l,0.09317860007286072,1,colour,0.06,3.5
81,23,1,1,15,41,741,1219.732400599867,1220.4393833999056,"[56, 0, 198]",198,a,0.1840284001082182,0,colour,0.06,3.5
81,23,1,1,15,42,742,1220.9511639999691,1221.567381599918,"[65, 0, 189]",189,a,0.0933670001104474,0,colour,0.06,3.5
81,23,1,1,15,43,743,1222.0762183999177,1223.0314744999632,"[27, 0, 227]",227,a,0.4437476000748575,1,colour,0.06,3.5
81,23,1,1,15,44,744,1223.5490639999043,1224.3434184999205,"[72, 0, 182]",182,a,0.2714468000922352,0,colour,0.06,3.5
81,23,1,1,15,45,745,1224.8615811998025,1225.6393922998104,"[93, 0, 161]",161,l,0.2560907998122275,1,colour,0.06,3.5
81,23,1,1,15,46,746,1226.15891979984,1227.1193605000153,"[78, 0, 176]",176,l,0.43809850001707673,1,colour,0.06,3.5
81,23,1,1,15,47,747,1227.6292076997925,1228.6234028998297,"[87, 0, 167]",167,l,0.43699199985712767,1,colour,0.06,3.5
81,23,1,1,15,48,748,1229.1389883998781,1229.7273728998844,"[95, 0, 159]",159,l,0.07169030001387,1,colour,0.06,3.5
81,23,1,1,15,49,749,1230.2377129998058,1230.8473713998683,"[99, 0, 155]",155,l,0.09181870007887483,1,colour,0.06,3.5
81,23,1,1,15,50,750,1231.3688609998208,1231.92744699982,"[55, 0, 199]",199,a,0.0404250998981297,0,colour,0.06,3.5
81,23,1,1,16,1,751,1237.2479139999487,1237.991363799898,"[61, 0, 193]",193,a,0.220376200042665,0,colour,0.06,3.5
81,23,1,1,16,2,752,1238.5129054000136,1240.5833660999779,"[91, 0, 163]",163,l,1.548268400132656,1,colour,0.06,3.5
81,23,1,1,16,3,753,1241.1006777000148,1241.6713931998238,"[90, 0, 164]",164,l,0.04029209981672466,1,colour,0.06,3.5
81,23,1,1,16,4,754,1242.1840657999273,1242.9354595998302,"[4, 0, 250]",250,a,0.22587660001590848,1,colour,0.06,3.5
81,23,1,1,16,5,755,1243.4559414999094,1244.143407399999,"[77, 0, 177]",177,l,0.17205110006034374,1,colour,0.06,3.5
81,23,1,1,16,6,756,1244.6560231999028,1245.7753892999608,"[95, 0, 159]",159,l,0.579290600027889,1,colour,0.06,3.5
81,23,1,1,16,7,757,1246.2828736999072,1248.2875028999988,"[64, 0, 190]",190,a,1.4826324000023305,0,colour,0.06,3.5
81,23,1,1,16,8,758,1248.8070407998748,1250.6714557998348,"[54, 0, 200]",200,l,1.3412391999736428,1,colour,0.06,3.5
81,23,1,1,16,9,759,1251.1820729998872,1252.3436391998548,"[79, 0, 175]",175,l,0.6392083999235183,1,colour,0.06,3.5
81,23,1,1,16,10,760,1252.8454069998115,1253.4553562998772,"[78, 0, 176]",176,l,0.08745129988528788,1,colour,0.06,3.5
81,23,1,1,16,11,761,1253.9704386999365,1254.759409799939,"[63, 0, 191]",191,a,0.26578469993546605,0,colour,0.06,3.5
81,23,1,1,16,12,762,1255.267301299842,1256.063437699806,"[74, 0, 180]",180,a,0.2735104998573661,0,colour,0.06,3.5
81,23,1,1,16,13,763,1256.5798155998345,1258.0716722998768,"[50, 0, 204]",204,a,0.9690974000841379,1,colour,0.06,3.5
81,23,1,1,16,14,764,1258.5811528998893,1259.351643399801,"[65, 0, 189]",189,a,0.24926309986039996,0,colour,0.06,3.5
81,23,1,1,16,15,765,1259.8695632999297,1260.5116752998438,"[85, 0, 169]",169,l,0.12299089995212853,1,colour,0.06,3.5
81,23,1,1,16,16,766,1261.0296202998143,1261.823721599998,"[75, 0, 179]",179,l,0.26284630014561117,1,colour,0.06,3.5
81,23,1,1,16,17,767,1262.3423784999177,1263.247375199804,"[80, 0, 174]",174,l,0.3836695000063628,1,colour,0.06,3.5
81,23,1,1,16,18,768,1263.765730299987,1264.4874095998239,"[60, 0, 194]",194,a,0.1964434999972582,0,colour,0.06,3.5
81,23,1,1,16,19,769,1265.0016620999668,1266.935424399795,"[73, 0, 181]",181,l,1.413184099830687,1,colour,0.06,3.5
81,23,1,1,16,20,770,1267.4580279998481,1268.2234594000038,"[59, 0, 195]",195,a,0.2379443000536412,0,colour,0.06,3.5
81,23,1,1,16,21,771,1268.7361135999672,1269.519406199921,"[99, 0, 155]",155,l,0.26401289994828403,1,colour,0.06,3.5
81,23,1,1,16,22,772,1270.0389091998804,1270.9833829000127,"[94, 0, 160]",160,l,0.42617620015516877,1,colour,0.06,3.5
81,23,1,1,16,23,773,1271.492829799885,1272.4313628999516,"[81, 0, 173]",173,l,0.41919200005941093,1,colour,0.06,3.5
81,23,1,1,16,24,774,1272.9523445998784,1273.7034505999181,"[56, 0, 198]",198,a,0.22922790003940463,0,colour,0.06,3.5
81,23,1,1,16,25,775,1274.2141210997943,1274.9034047999885,"[2, 0, 252]",252,a,0.1679214001633227,1,colour,0.06,3.5
81,23,1,1,16,26,776,1275.4265434998088,1276.279427899979,"[71, 0, 183]",183,l,0.3383973001036793,1,colour,0.06,3.5
81,23,1,1,16,27,777,1276.7932900998276,1278.2314237998798,"[76, 0, 178]",178,a,0.9152005999349058,0,colour,0.06,3.5
81,23,1,1,16,28,778,1278.7517087999731,1279.6073446997907,"[72, 0, 182]",182,a,0.3387715998105705,0,colour,0.06,3.5
81,23,1,1,16,29,779,1280.1278213998303,1280.7753910999745,"[70, 0, 184]",184,a,0.12323820008896291,0,colour,0.06,3.5
81,23,1,1,16,30,780,1281.2953547998331,1282.0954402999487,"[84, 0, 170]",170,l,0.27661520009860396,1,colour,0.06,3.5
81,23,1,1,16,31,781,1282.6039179998916,1283.2954700998962,"[69, 0, 185]",185,a,0.17185660009272397,0,colour,0.06,3.5
81,23,1,1,16,32,782,1283.8170053998474,1284.4873799998313,"[89, 0, 165]",165,l,0.14828129997476935,1,colour,0.06,3.5
81,23,1,1,16,33,783,1284.9974288998637,1285.6633417999838,"[67, 0, 187]",187,a,0.1455761999823153,0,colour,0.06,3.5
81,23,1,1,16,34,784,1286.177755099954,1286.807361899875,"[82, 0, 172]",172,l,0.10690480004996061,1,colour,0.06,3.5
81,23,1,1,16,35,785,1287.3184038999025,1288.0154853998683,"[68, 0, 186]",186,a,0.17427359987050295,0,colour,0.06,3.5
81,23,1,1,16,36,786,1288.532085799845,1289.2553889998235,"[83, 0, 171]",171,l,0.20621039997786283,1,colour,0.06,3.5
81,23,1,1,16,37,787,1289.7612290999386,1290.43945299997,"[66, 0, 188]",188,a,0.15525630000047386,0,colour,0.06,3.5
81,23,1,1,16,38,788,1290.948725399794,1291.5754088999238,"[93, 0, 161]",161,l,0.10377190005965531,1,colour,0.06,3.5
81,23,1,1,16,39,789,1292.0893860999495,1292.7034534998238,"[53, 0, 201]",201,a,0.09159479988738894,0,colour,0.06,3.5
81,23,1,1,16,40,790,1293.2172991000116,1294.335389799904,"[86, 0, 168]",168,l,0.595628899987787,1,colour,0.06,3.5
81,23,1,1,16,41,791,1294.8422339998651,1295.3673835999798,"[96, 0, 158]",158,a,0.0023395000025629997,0,colour,0.06,3.5
81,23,1,1,16,42,792,1295.8891259999946,1296.4393703998066,"[57, 0, 197]",197,a,0.02738549979403615,0,colour,0.06,3.5
81,23,1,1,16,43,793,1296.9515873999335,1297.5273193998728,"[88, 0, 166]",166,l,0.05297279986552894,1,colour,0.06,3.5
81,23,1,1,16,44,794,1298.0356642999686,1298.9515054000076,"[29, 0, 225]",225,a,0.3966854000464082,1,colour,0.06,3.5
81,23,1,1,16,45,795,1299.4589772999752,1300.3835443998687,"[62, 0, 192]",192,a,0.402658199891448,0,colour,0.06,3.5
81,23,1,1,16,46,796,1300.8963808999397,1301.5753601999022,"[52, 0, 202]",202,a,0.15652170008979738,0,colour,0.06,3.5
81,23,1,1,16,47,797,1302.0838360998314,1302.7913357999641,"[98, 0, 156]",156,l,0.18513600016012788,1,colour,0.06,3.5
81,23,1,1,16,48,798,1303.2926485999487,1304.0233367998153,"[92, 0, 162]",162,l,0.20847620000131428,1,colour,0.06,3.5
81,23,1,1,16,49,799,1304.5424661999568,1305.2314794999547,"[51, 0, 203]",203,a,0.16689500003121793,0,colour,0.06,3.5
81,23,1,1,16,50,800,1305.7457198000047,1306.3355036999565,"[87, 0, 167]",167,l,0.0670737000182271,1,colour,0.06,3.5
