id,age,condition,counterbalance,block,trialinblock,trial,tstart,tend,trialstim,trialintensity,response,RT,accuracy,trialtype,colourfreq,credits
45,21,1,2,Practice,1,NA,5.9076701290905476e-06,1.0009428656485397,"[53, 0, 201]",201,a,0.3672367183608003,0,colour,0.5,4
45,21,1,2,Practice,2,NA,1.5165777363872621,2.4569842162600253,"[68, 0, 186]",186,a,0.41720111476024613,0,colour,0.5,4
45,21,1,2,Practice,3,NA,2.9672903600730933,3.6489522927149665,"[89, 0, 165]",165,l,0.15722777019254863,1,colour,0.5,4
45,21,1,2,Practice,4,NA,4.155836708581774,5.057083937863354,"[73, 0, 181]",181,a,0.3778335200040601,0,colour,0.5,4
45,21,1,2,Practice,5,NA,5.578123153827619,6.5369478091888595,"[47, 0, 207]",207,a,0.43584850820479915,1,colour,0.5,4
45,21,1,2,Practice,6,NA,7.044237491849344,7.824968059139792,"[28, 0, 226]",226,a,0.2575169314222876,1,colour,0.5,4
45,21,1,2,Practice,7,NA,8.34104088586173,9.096902091638185,"[36, 0, 218]",218,a,0.2325168132665567,1,colour,0.5,4
45,21,1,2,Practice,8,NA,9.606629676709417,10.344938772788737,"[43, 0, 211]",211,a,0.21490838369936682,1,colour,0.5,4
45,21,1,2,Practice,9,NA,10.856663547398057,11.592927798687015,"[29, 0, 225]",225,a,0.21371148782782257,1,colour,0.5,4
45,21,1,2,Practice,10,NA,12.106589898321545,12.848951662570471,"[66, 0, 188]",188,l,0.2190150086535141,1,colour,0.5,4
45,21,1,2,1,1,1,4.903430707636289,5.551980490476126,"[76, 0, 178]",178,l,0.12444329966092482,1,colour,0.5,4.0
45,21,1,2,1,2,2,6.060493062803289,7.632023640180705,"[13, 0, 241]",241,a,1.048182640253799,1,colour,0.5,4.0
45,21,1,2,1,3,3,8.138601644372102,8.928027134359581,"[23, 0, 231]",231,a,0.2660688882751856,1,colour,0.5,4.0
45,21,1,2,1,4,4,9.435421186033636,10.367944458354032,"[6, 0, 248]",248,a,0.40782208275049925,1,colour,0.5,4.0
45,21,1,2,1,5,5,10.87421644476126,11.89601263141958,"[92, 0, 162]",162,l,0.4983576651138719,1,colour,0.5,4.0
45,21,1,2,1,6,6,12.415594225923996,13.343952190334676,"[40, 0, 214]",214,a,0.40510139940306544,1,colour,0.5,4.0
45,21,1,2,1,7,7,13.85307679825928,14.840049183403607,"[26, 0, 228]",228,a,0.4636260234110523,1,colour,0.5,4.0
45,21,1,2,1,8,8,15.353129179682583,16.223982973286184,"[8, 0, 246]",246,a,0.3475539056234993,1,colour,0.5,4.0
45,21,1,2,1,9,9,16.74372407514602,17.63192399730906,"[41, 0, 213]",213,a,0.36355859707691707,1,colour,0.5,4.0
45,21,1,2,1,10,10,18.15134135831613,18.927950334531488,"[51, 0, 203]",203,a,0.2521503953321371,0,colour,0.5,4.0
45,21,1,2,1,11,11,19.44935464509763,20.327926231198944,"[60, 0, 194]",194,a,0.35532014109776355,0,colour,0.5,4.0
45,21,1,2,1,12,12,20.840014525019797,21.608058941317722,"[20, 0, 234]",234,a,0.24473822678555734,1,colour,0.5,4.0
45,21,1,2,1,13,13,22.121283084969036,22.895940951566445,"[19, 0, 235]",235,a,0.2514934613718651,1,colour,0.5,4.0
45,21,1,2,1,14,14,23.402538648049813,24.207984583306825,"[44, 0, 210]",210,a,0.2850364779296797,1,colour,0.5,4.0
45,21,1,2,1,15,15,24.727783186594024,25.511931149550946,"[61, 0, 193]",193,l,0.2609106963791419,1,colour,0.5,4.0
45,21,1,2,1,16,16,26.02648845955264,26.783931741898414,"[45, 0, 209]",209,a,0.23412606515921652,1,colour,0.5,4.0
45,21,1,2,1,17,17,27.29210560725187,28.11194737596088,"[80, 0, 174]",174,l,0.29657890216913074,1,colour,0.5,4.0
45,21,1,2,1,18,18,28.620311468606815,29.35196103452472,"[16, 0, 238]",238,a,0.20837803478934802,1,colour,0.5,4.0
45,21,1,2,1,19,19,29.87020079809008,30.60798214148963,"[56, 0, 198]",198,a,0.214361726451898,0,colour,0.5,4.0
45,21,1,2,1,20,20,31.120264207187574,31.863935113186017,"[67, 0, 187]",187,l,0.22035723342560232,1,colour,0.5,4.0
45,21,1,2,1,21,21,32.370212219597306,33.095965133659774,"[35, 0, 219]",219,a,0.20240300771547481,1,colour,0.5,4.0
45,21,1,2,1,22,22,33.60462854875368,34.34394667649758,"[88, 0, 166]",166,l,0.21609976573381573,1,colour,0.5,4.0
45,21,1,2,1,23,23,34.854580499610165,35.60789982782444,"[79, 0, 175]",175,l,0.23000959408818744,1,colour,0.5,4.0
45,21,1,2,1,24,24,36.12024215183919,36.99191081136814,"[9, 0, 245]",245,a,0.3482943347771652,1,colour,0.5,4.0
45,21,1,2,1,25,25,37.510869736463064,38.255915162560996,"[58, 0, 196]",196,a,0.2217770457500592,0,colour,0.5,4.0
45,21,1,2,1,26,26,38.77645773961558,39.591881745582214,"[96, 0, 158]",158,l,0.29220485626137815,1,colour,0.5,4.0
45,21,1,2,1,27,27,40.10454820431187,40.91991155809956,"[7, 0, 247]",247,a,0.2920666165591683,1,colour,0.5,4.0
45,21,1,2,1,28,28,41.42313636341714,42.287872557964874,"[72, 0, 182]",182,l,0.34151507561909966,1,colour,0.5,4.0
45,21,1,2,1,29,29,42.79801328675239,43.5359301129356,"[37, 0, 217]",217,a,0.21467325804405846,1,colour,0.5,4.0
45,21,1,2,1,30,30,44.04833348299144,44.82388065228588,"[93, 0, 161]",161,l,0.25233550264965743,1,colour,0.5,4.0
45,21,1,2,1,31,31,45.34520422454807,46.11996842935332,"[68, 0, 186]",186,l,0.25149424906703644,1,colour,0.5,4.0
45,21,1,2,1,32,32,46.62666970715509,47.327878969779704,"[24, 0, 230]",230,a,0.17820948475855403,1,colour,0.5,4.0
45,21,1,2,1,33,33,47.84517350461101,48.7438575886772,"[64, 0, 190]",190,l,0.3753731684118975,1,colour,0.5,4.0
45,21,1,2,1,34,34,49.251429264608305,49.94398692747927,"[36, 0, 218]",218,a,0.16956654959358275,1,colour,0.5,4.0
45,21,1,2,1,35,35,50.45450968624209,51.13584630266996,"[15, 0, 239]",239,a,0.15801900540827774,1,colour,0.5,4.0
45,21,1,2,1,36,36,51.64203243079828,52.43188366753748,"[18, 0, 236]",236,a,0.26668722537579015,1,colour,0.5,4.0
45,21,1,2,1,37,37,52.93887717855978,53.73590112593956,"[43, 0, 211]",211,a,0.2737079117214307,1,colour,0.5,4.0
45,21,1,2,1,38,38,54.251332378655206,55.15993348741904,"[0, 0, 254]",254,a,0.3855568263679743,1,colour,0.5,4.0
45,21,1,2,1,39,39,55.67328011695645,56.27990703674732,"[71, 0, 183]",183,l,0.08335105635342188,1,colour,0.5,4.0
45,21,1,2,1,40,40,56.79909793671686,57.51988721845555,"[83, 0, 171]",171,l,0.19767253179452382,1,colour,0.5,4.0
45,21,1,2,1,41,41,58.03337996461778,58.583941430493724,"[69, 0, 185]",185,l,0.027371854579541832,1,colour,0.5,4.0
45,21,1,2,1,42,42,59.09580286941491,59.90384621443809,"[52, 0, 202]",202,a,0.28475054627051577,0,colour,0.5,4.0
45,21,1,2,1,43,43,60.42392956785625,61.24786535848398,"[57, 0, 197]",197,a,0.30056028434773907,0,colour,0.5,4.0
45,21,1,2,1,44,44,61.76773721695645,62.49589101198944,"[73, 0, 181]",181,l,0.20501892821630463,1,colour,0.5,4.0
45,21,1,2,1,45,45,63.00220513984095,63.751846346771345,"[42, 0, 212]",212,a,0.22654493697336875,1,colour,0.5,4.0
45,21,1,2,1,46,46,64.26767853400088,65.0559504511184,"[86, 0, 168]",168,l,0.2651350810774602,1,colour,0.5,4.0
45,21,1,2,1,47,47,65.5645524263382,67.27185132497107,"[5, 0, 249]",249,l,1.1840537551615853,0,colour,0.5,4.0
45,21,1,2,1,48,48,67.78331458629691,69.08790824035532,"[47, 0, 207]",207,a,0.781381199718453,1,colour,0.5,4.0
45,21,1,2,1,49,49,69.59578002637136,71.08785270815133,"[66, 0, 188]",188,l,0.9688436859287322,1,colour,0.5,4.0
45,21,1,2,1,50,50,71.59574733721092,72.73581605535583,"[91, 0, 163]",163,l,0.6167089656519238,1,colour,0.5,4.0
45,21,1,2,2,1,51,78.0910739688843,79.1678422949044,"[6, 0, 248]",248,a,0.5527284027193673,1,colour,0.5,4.0
45,21,1,2,2,2,52,79.68561889638659,80.85580614619539,"[28, 0, 226]",226,a,0.6468747587641701,1,colour,0.5,4.0
45,21,1,2,2,3,53,81.37321213926771,82.41594947437989,"[46, 0, 208]",208,a,0.5195331515278667,1,colour,0.5,4.0
45,21,1,2,2,4,54,82.93563858864945,84.31183056146256,"[71, 0, 183]",183,l,0.8528660910378676,1,colour,0.5,4.0
45,21,1,2,2,5,55,84.82623387794592,86.75187549131806,"[20, 0, 234]",234,a,1.4024547589942813,1,colour,0.5,4.0
45,21,1,2,2,6,56,87.26375741019729,88.45578850191669,"[72, 0, 182]",182,l,0.6687749205448199,1,colour,0.5,4.0
45,21,1,2,2,7,57,88.96685082872864,90.11981994967209,"[79, 0, 175]",175,l,0.6297716327244416,1,colour,0.5,4.0
45,21,1,2,2,8,58,90.63868159498088,91.85585143839126,"[10, 0, 244]",244,a,0.6938656231213827,1,colour,0.5,4.0
45,21,1,2,2,9,59,92.37319638545159,93.59179825038882,"[55, 0, 199]",199,a,0.6946324399323203,0,colour,0.5,4.0
45,21,1,2,2,10,60,94.10832518074312,95.20777033147169,"[81, 0, 173]",173,l,0.5761208443436772,1,colour,0.5,4.0
45,21,1,2,2,11,61,95.7176369439403,96.75985834171297,"[17, 0, 237]",237,a,0.5190443895116914,1,colour,0.5,4.0
45,21,1,2,2,12,62,97.28015358390985,98.38374710720382,"[8, 0, 246]",246,a,0.5803038752637804,1,colour,0.5,4.0
45,21,1,2,2,13,63,98.90509627942811,100.03179591882508,"[85, 0, 169]",169,l,0.6032863239524886,1,colour,0.5,4.0
45,21,1,2,2,14,64,100.53862637787824,101.80793936987175,"[14, 0, 240]",240,a,0.746102506906027,1,colour,0.5,4.0
45,21,1,2,2,15,65,102.31035403540591,103.41583289616392,"[29, 0, 225]",225,a,0.5820186777273193,1,colour,0.5,4.0
45,21,1,2,2,16,66,103.93544796752394,105.19177903071977,"[97, 0, 157]",157,l,0.7330603197624441,1,colour,0.5,4.0
45,21,1,2,2,17,67,105.70100997688132,106.71977591776522,"[25, 0, 229]",229,a,0.49551764663192444,1,colour,0.5,4.0
45,21,1,2,2,18,68,107.23232579827891,108.40778269822476,"[53, 0, 201]",201,a,0.6521621319407132,0,colour,0.5,4.0
45,21,1,2,2,19,69,108.91985720745288,109.96776258060709,"[98, 0, 156]",156,l,0.524575159070082,1,colour,0.5,4.0
45,21,1,2,2,20,70,110.48251681326656,111.52774285682244,"[23, 0, 231]",231,a,0.5203417159209494,1,colour,0.5,4.0
45,21,1,2,2,21,71,112.04713973790058,113.15178088968969,"[48, 0, 206]",206,a,0.5813948267605156,1,colour,0.5,4.0
45,21,1,2,2,22,72,113.6721734116727,114.6637829313695,"[1, 0, 253]",253,a,0.46835334855131805,1,colour,0.5,4.0
45,21,1,2,2,23,73,115.17216238399851,116.13575571824913,"[0, 0, 254]",254,a,0.4402914770471398,1,colour,0.5,4.0
45,21,1,2,2,24,74,116.65655193166458,117.91973905384657,"[41, 0, 213]",213,a,0.7398454865906388,1,colour,0.5,4.0
45,21,1,2,2,25,75,118.43770627648337,119.43982910265913,"[50, 0, 204]",204,a,0.47882727047544904,1,colour,0.5,4.0
45,21,1,2,2,26,76,119.95338013791479,120.90374735926162,"[56, 0, 198]",198,a,0.4271287732408382,0,colour,0.5,4.0
45,21,1,2,2,27,77,121.41388454346452,122.32772340087104,"[51, 0, 203]",203,a,0.3905996216053609,0,colour,0.5,4.0
45,21,1,2,2,28,78,122.83577399267233,123.72770087292884,"[3, 0, 251]",251,a,0.3687786227092147,1,colour,0.5,4.0
45,21,1,2,2,29,79,124.24195334667456,125.00768943564617,"[88, 0, 166]",166,l,0.2425752283888869,1,colour,0.5,4.0
45,21,1,2,2,30,80,125.52327271265676,126.42374288517749,"[11, 0, 243]",243,a,0.3772376320557669,1,colour,0.5,4.0
45,21,1,2,2,31,81,126.94508575586951,127.99970225294237,"[78, 0, 176]",176,l,0.5313091260031797,1,colour,0.5,4.0
45,21,1,2,2,32,82,128.5075381990464,129.5677862900775,"[42, 0, 212]",212,a,0.5369367815146688,1,colour,0.5,4.0
45,21,1,2,2,33,83,130.08563142066123,132.90375563001726,"[65, 0, 189]",189,a,2.295343409467023,0,colour,0.5,4.0
45,21,1,2,2,34,84,133.41379159598728,134.55169692187337,"[47, 0, 207]",207,a,0.6146259178640321,1,colour,0.5,4.0
45,21,1,2,2,35,85,135.07000915295794,136.03974292930798,"[60, 0, 194]",194,a,0.4464425529586151,0,colour,0.5,4.0
45,21,1,2,2,36,86,136.55442784517072,137.56769255490508,"[15, 0, 239]",239,a,0.48997388017596677,1,colour,0.5,4.0
45,21,1,2,2,37,87,138.0856857713079,138.92769354738994,"[34, 0, 220]",220,a,0.31941484039998613,1,colour,0.5,4.0
45,21,1,2,2,38,88,139.4450766974478,140.55168431880884,"[7, 0, 247]",247,a,0.5834093454759568,1,colour,0.5,4.0
45,21,1,2,2,39,89,141.07093390173395,142.0716908723989,"[16, 0, 238]",238,a,0.47748859028797597,1,colour,0.5,4.0
45,21,1,2,2,40,90,142.58645810195594,143.5996582210355,"[96, 0, 158]",158,l,0.4902700518432539,1,colour,0.5,4.0
45,21,1,2,2,41,91,144.11768412662786,145.12766652961727,"[54, 0, 200]",200,a,0.4868073639809154,0,colour,0.5,4.0
45,21,1,2,2,42,92,145.64893850815133,146.77570746431593,"[91, 0, 163]",163,l,0.603478520468343,1,colour,0.5,4.0
45,21,1,2,2,43,93,147.28959051118,148.8476543361612,"[66, 0, 188]",188,a,1.0348009584704414,0,colour,0.5,4.0
45,21,1,2,2,44,94,149.36763804670773,150.29568566102535,"[22, 0, 232]",232,a,0.404849732236471,1,colour,0.5,4.0
45,21,1,2,2,45,95,150.80517260663328,151.6796682877466,"[89, 0, 165]",165,l,0.35119224851951003,1,colour,0.5,4.0
45,21,1,2,2,46,96,152.19583169888938,153.20768644241616,"[84, 0, 170]",170,l,0.4885339817556087,1,colour,0.5,4.0
45,21,1,2,2,47,97,153.72709198808298,154.6876664980955,"[87, 0, 167]",167,l,0.4373144003911875,1,colour,0.5,4.0
45,21,1,2,2,48,98,155.19580452353694,156.14370391026023,"[86, 0, 168]",168,l,0.42462470481405035,1,colour,0.5,4.0
45,21,1,2,2,49,99,156.65610255417414,157.60764816065785,"[67, 0, 187]",187,a,0.428222875460051,0,colour,0.5,4.0
45,21,1,2,2,50,100,158.12483084344422,159.11165514274035,"[32, 0, 222]",222,a,0.4605666330899112,1,colour,0.5,4.0
45,21,1,2,3,1,101,167.90840733685764,168.7755979753274,"[46, 0, 208]",208,a,0.3429730909119826,1,colour,0.5,4.0
45,21,1,2,3,2,102,169.28429841186153,170.14361411353457,"[39, 0, 215]",215,a,0.33618477333220653,1,colour,0.5,4.0
45,21,1,2,3,3,103,170.646873971069,171.67169134502183,"[91, 0, 163]",163,l,0.501594679633854,1,colour,0.5,4.0
45,21,1,2,3,4,104,172.17812402031268,173.1116322997259,"[79, 0, 175]",175,l,0.4102914927934762,1,colour,0.5,4.0
45,21,1,2,3,5,105,173.63116781433928,174.56758661053027,"[44, 0, 210]",210,a,0.41314529583905824,1,colour,0.5,4.0
45,21,1,2,3,6,106,175.0748833824182,176.11964271930628,"[47, 0, 207]",207,a,0.5214811103942338,1,colour,0.5,4.0
45,21,1,2,3,7,107,176.63932435051538,177.86364445535582,"[62, 0, 192]",192,a,0.700771306612296,0,colour,0.5,4.0
45,21,1,2,3,8,108,178.3738659224473,179.3196279107069,"[34, 0, 220]",220,a,0.43519630035734735,1,colour,0.5,4.0
45,21,1,2,3,9,109,179.82185077358736,180.7916192083212,"[30, 0, 224]",224,a,0.4464260114473291,1,colour,0.5,4.0
45,21,1,2,3,10,110,181.3061997551995,182.21562478831038,"[11, 0, 243]",243,a,0.38600029615918174,1,colour,0.5,4.0
45,21,1,2,3,11,111,182.72829045934486,183.94358559913235,"[57, 0, 197]",197,a,0.6922213190118782,0,colour,0.5,4.0
45,21,1,2,3,12,112,184.4624200690887,185.39158541639335,"[28, 0, 226]",226,a,0.4058780623599887,1,colour,0.5,4.0
45,21,1,2,3,13,113,185.8999152444885,186.79158297454705,"[29, 0, 225]",225,a,0.36838792817434296,1,colour,0.5,4.0
45,21,1,2,3,14,114,187.30626985966228,188.27160517167067,"[95, 0, 159]",159,l,0.4420736270258203,1,colour,0.5,4.0
45,21,1,2,3,15,115,188.7905475552543,189.9676011040283,"[98, 0, 156]",156,l,0.6537639007729013,1,colour,0.5,4.0
45,21,1,2,3,16,116,190.47800492148963,191.4796122041589,"[53, 0, 201]",201,a,0.47828927778755315,0,colour,0.5,4.0
45,21,1,2,3,17,117,191.99366972447024,193.0315800915996,"[82, 0, 172]",172,l,0.5146624667104334,1,colour,0.5,4.0
45,21,1,2,3,18,118,193.54187008776353,194.6396709343826,"[2, 0, 252]",252,a,0.5744481833535247,1,colour,0.5,4.0
45,21,1,2,3,19,119,195.1513689275016,196.2796159850841,"[15, 0, 239]",239,a,0.6055662943981588,1,colour,0.5,4.0
45,21,1,2,3,20,120,196.79192916455213,198.2876000170072,"[38, 0, 216]",216,a,0.9724316166248173,1,colour,0.5,4.0
45,21,1,2,3,21,121,198.80749944466515,199.7035396452702,"[14, 0, 240]",240,a,0.37257962371222675,1,colour,0.5,4.0
45,21,1,2,3,22,122,200.21380679839058,201.12755625293357,"[12, 0, 242]",242,a,0.3903751297912095,1,colour,0.5,4.0
45,21,1,2,3,23,123,201.63571909064194,202.55155001755338,"[56, 0, 198]",198,a,0.39255388197489083,0,colour,0.5,4.0
45,21,1,2,3,24,124,203.07321859832155,204.02358975814423,"[19, 0, 235]",235,a,0.42710671792156063,1,colour,0.5,4.0
45,21,1,2,3,25,125,204.54187363237725,205.56762008738588,"[22, 0, 232]",232,a,0.5024284501268994,1,colour,0.5,4.0
45,21,1,2,3,26,126,206.08881526606274,207.03961414188961,"[16, 0, 238]",238,a,0.42754979387973435,1,colour,0.5,4.0
45,21,1,2,3,27,127,207.55745809091604,208.55956792019424,"[10, 0, 244]",244,a,0.47735901520354673,1,colour,0.5,4.0
45,21,1,2,3,28,128,209.07458760458394,209.91158921306487,"[21, 0, 233]",233,a,0.3136497329105623,1,colour,0.5,4.0
45,21,1,2,3,29,129,210.41838777062367,212.4635441035789,"[60, 0, 194]",194,l,1.5220293430320453,1,colour,0.5,4.0
45,21,1,2,3,30,130,212.98092410285608,213.8475684778823,"[41, 0, 213]",213,a,0.35265105147846043,1,colour,0.5,4.0
45,21,1,2,3,31,131,214.36222582458868,215.39152437035227,"[99, 0, 155]",155,l,0.5060281961632427,1,colour,0.5,4.0
45,21,1,2,3,32,132,215.90905245547765,217.055547153519,"[85, 0, 169]",169,l,0.623153062450001,1,colour,0.5,4.0
45,21,1,2,3,33,133,217.5653846214409,219.04756194003858,"[75, 0, 179]",179,l,0.9589183905045502,1,colour,0.5,4.0
45,21,1,2,3,34,134,219.56534405538696,220.63951103319414,"[71, 0, 183]",183,l,0.5508985974593088,1,colour,0.5,4.0
45,21,1,2,3,35,135,221.15909341539373,223.79958551720483,"[76, 0, 178]",178,l,2.1160701485641766,1,colour,0.5,4.0
45,21,1,2,3,36,136,224.3164976282569,225.67153380688978,"[63, 0, 191]",191,a,0.8318028505018447,0,colour,0.5,4.0
45,21,1,2,3,37,137,226.19141708689858,228.10354192956584,"[70, 0, 184]",184,a,1.3894933101546485,0,colour,0.5,4.0
45,21,1,2,3,38,138,228.61324942854117,229.6235417877615,"[33, 0, 221]",221,a,0.49403796982369386,1,colour,0.5,4.0
45,21,1,2,3,39,139,230.13943226411357,231.23951662579202,"[55, 0, 199]",199,a,0.5767773844709154,0,colour,0.5,4.0
45,21,1,2,3,40,140,231.74883500559372,233.1996027676214,"[83, 0, 171]",171,l,0.9275698799756356,1,colour,0.5,4.0
45,21,1,2,3,41,141,233.71757274717675,234.9435328238469,"[74, 0, 180]",180,l,0.7031501322344411,1,colour,0.5,4.0
45,21,1,2,3,42,142,235.45189809805015,236.73550964370952,"[3, 0, 251]",251,a,0.7604435958492104,1,colour,0.5,4.0
45,21,1,2,3,43,143,237.2487491473148,238.71147247729823,"[52, 0, 202]",202,a,0.9397389120713342,0,colour,0.5,4.0
45,21,1,2,3,44,144,239.2174998857954,240.2634557246929,"[77, 0, 177]",177,l,0.5346461772569455,1,colour,0.5,4.0
45,21,1,2,3,45,145,240.78428423343576,241.783446918329,"[17, 0, 237]",237,a,0.47601718426449224,1,colour,0.5,4.0
45,21,1,2,3,46,146,242.29991004572366,243.37546493439004,"[89, 0, 165]",165,l,0.5523018682433758,1,colour,0.5,4.0
45,21,1,2,3,47,147,243.8936523165321,245.00750629758113,"[7, 0, 247]",247,a,0.5905446407850832,1,colour,0.5,4.0
45,21,1,2,3,48,148,245.51867181184934,247.03151471327874,"[64, 0, 190]",190,a,0.9896682562248316,0,colour,0.5,4.0
45,21,1,2,3,49,149,247.54990453188657,248.4314504377253,"[51, 0, 203]",203,a,0.3583661406592,0,colour,0.5,4.0
45,21,1,2,3,50,150,248.9405384180427,249.98345770969172,"[8, 0, 246]",246,a,0.5197450403065886,1,colour,0.5,4.0
45,21,1,2,4,1,151,265.4551914324402,266.35939289533417,"[91, 0, 163]",163,l,0.39248417134513147,1,colour,0.5,3.9
45,21,1,2,4,2,152,266.86565424792934,267.8634400496667,"[45, 0, 209]",209,a,0.4745658643369097,1,colour,0.5,3.9
45,21,1,2,4,3,153,268.3811493036046,269.31139693778823,"[9, 0, 245]",245,a,0.4072836962295696,1,colour,0.5,3.9
45,21,1,2,4,4,154,269.8187011927366,270.72740903354133,"[7, 0, 247]",247,a,0.3855186233704444,1,colour,0.5,3.9
45,21,1,2,4,5,155,271.2405469250807,272.0954259594437,"[20, 0, 234]",234,a,0.3316090785956476,1,colour,0.5,3.9
45,21,1,2,4,6,156,272.6155258543731,273.44744567692396,"[30, 0, 224]",224,a,0.3088755401549861,1,colour,0.5,3.9
45,21,1,2,4,7,157,273.95920353452675,274.8794116581266,"[21, 0, 233]",233,a,0.3968519157206174,1,colour,0.5,3.9
45,21,1,2,4,8,158,275.3967168267991,276.1434888707299,"[16, 0, 238]",238,a,0.223389842256438,1,colour,0.5,3.9
45,21,1,2,4,9,159,276.6623245222145,277.5513897225319,"[64, 0, 190]",190,l,0.3657286847010255,1,colour,0.5,3.9
45,21,1,2,4,10,160,278.0686161221238,278.9913858155778,"[44, 0, 210]",210,a,0.3995280945673585,1,colour,0.5,3.9
45,21,1,2,4,11,161,279.5060703376075,280.43138663479476,"[78, 0, 176]",176,l,0.40189037867821753,1,colour,0.5,3.9
45,21,1,2,4,12,162,280.94362813440966,281.91938341155765,"[72, 0, 182]",182,l,0.45253376435721293,1,colour,0.5,3.9
45,21,1,2,4,13,163,282.4279570298968,283.4393718482461,"[84, 0, 170]",170,l,0.4867116595560219,1,colour,0.5,3.9
45,21,1,2,4,14,164,283.9606647006003,286.74340427274,"[73, 0, 181]",181,l,2.2594900963595137,1,colour,0.5,3.9
45,21,1,2,4,15,165,287.257444857707,288.2954044555081,"[37, 0, 217]",217,a,0.5146549836499617,1,colour,0.5,3.9
45,21,1,2,4,16,166,288.80435931609827,289.8234296994051,"[51, 0, 203]",203,a,0.49581657521775924,0,colour,0.5,3.9
45,21,1,2,4,17,167,290.33567159288214,291.56739835246117,"[57, 0, 197]",197,a,0.7084690130432136,0,colour,0.5,3.9
45,21,1,2,4,18,168,292.08560621456127,293.079349588108,"[96, 0, 158]",158,l,0.47040173795539886,1,colour,0.5,3.9
45,21,1,2,4,19,169,293.58566726057325,294.5513660918223,"[54, 0, 200]",200,a,0.4424529000534676,0,colour,0.5,3.9
45,21,1,2,4,20,170,295.069932746992,296.2633777433366,"[36, 0, 218]",218,a,0.6701640129322186,1,colour,0.5,3.9
45,21,1,2,4,21,171,296.77308091000305,297.79138565805624,"[97, 0, 157]",157,l,0.49499658931745216,1,colour,0.5,3.9
45,21,1,2,4,22,172,298.3043026023661,300.9594126663869,"[67, 0, 187]",187,l,2.1318361698067747,1,colour,0.5,3.9
45,21,1,2,4,23,173,301.47618181159487,302.41535555565497,"[22, 0, 232]",232,a,0.41595183743629605,1,colour,0.5,3.9
45,21,1,2,4,24,174,302.9168588631728,303.87133231564076,"[70, 0, 184]",184,l,0.43126414890866727,1,colour,0.5,3.9
45,21,1,2,4,25,175,304.3855895155284,306.4953211178363,"[65, 0, 189]",189,l,1.5868511595763266,1,colour,0.5,3.9
45,21,1,2,4,26,176,307.01060901087476,307.98332340843626,"[60, 0, 194]",194,a,0.4494893401861191,0,colour,0.5,3.9
45,21,1,2,4,27,177,308.4949583863199,309.3433531516348,"[82, 0, 172]",172,l,0.32502674209536053,1,colour,0.5,3.9
45,21,1,2,4,28,178,309.854330407863,310.67934454689384,"[46, 0, 208]",208,a,0.30176860169740394,1,colour,0.5,3.9
45,21,1,2,4,29,179,311.1980876447633,312.0473224821035,"[63, 0, 191]",191,a,0.325912894011708,0,colour,0.5,3.9
45,21,1,2,4,30,180,312.5573604172969,316.351296617504,"[25, 0, 229]",229,a,3.2705654200690333,1,colour,0.5,3.9
45,21,1,2,4,31,181,316.8706702616764,317.8392981204088,"[47, 0, 207]",207,a,0.44609754445264116,1,colour,0.5,3.9
45,21,1,2,4,32,182,318.3542520326446,319.4233238337911,"[92, 0, 162]",162,l,0.5457825469784439,1,colour,0.5,3.9
45,21,1,2,4,33,183,319.9324886139366,321.0872674540442,"[55, 0, 199]",199,a,0.631546693504788,0,colour,0.5,3.9
45,21,1,2,4,34,184,321.60420595272444,322.63125446031336,"[26, 0, 228]",228,a,0.5037182935047895,1,colour,0.5,3.9
45,21,1,2,4,35,185,323.151198392472,324.1513055184041,"[8, 0, 246]",246,a,0.4769943144347053,1,colour,0.5,3.9
45,21,1,2,4,36,186,324.6667954540753,325.59929470182396,"[76, 0, 178]",178,l,0.4093305102433078,1,colour,0.5,3.9
45,21,1,2,4,37,187,326.1199357401929,326.9993328260607,"[2, 0, 252]",252,a,0.3561432777787559,1,colour,0.5,3.9
45,21,1,2,4,38,188,327.5105148818402,328.5513105596183,"[17, 0, 237]",237,a,0.5175926757219713,1,colour,0.5,3.9
45,21,1,2,4,39,189,329.05728676822037,329.9432654028933,"[35, 0, 219]",219,a,0.36264684522757307,1,colour,0.5,3.9
45,21,1,2,4,40,190,330.463595697307,331.7352946041501,"[52, 0, 202]",202,a,0.7485289877804462,0,colour,0.5,3.9
45,21,1,2,4,41,191,332.2448331435153,332.99927335540997,"[31, 0, 223]",223,a,0.2311545023403596,1,colour,0.5,3.9
45,21,1,2,4,42,192,333.5104380820121,334.1432600466069,"[18, 0, 236]",236,a,0.10951577508240007,1,colour,0.5,3.9
45,21,1,2,4,43,193,334.6510625158553,335.6872568989929,"[5, 0, 249]",249,a,0.5130736947467085,1,colour,0.5,3.9
45,21,1,2,4,44,194,336.1979320758546,337.05526791719603,"[89, 0, 165]",165,l,0.3340509194531478,1,colour,0.5,3.9
45,21,1,2,4,45,195,337.57297795882914,338.9112489307008,"[12, 0, 242]",242,a,0.8149667515826877,1,colour,0.5,3.9
45,21,1,2,4,46,196,339.4322952358925,340.4793215463287,"[98, 0, 156]",156,l,0.523809917649487,1,colour,0.5,3.9
45,21,1,2,4,47,197,340.99481384508545,342.04725395303103,"[40, 0, 214]",214,a,0.5291516414727084,1,colour,0.5,3.9
45,21,1,2,4,48,198,342.5572824359115,343.6152269257873,"[58, 0, 196]",196,a,0.5348813029122539,0,colour,0.5,3.9
45,21,1,2,4,49,199,344.1354111036053,345.05523680342594,"[75, 0, 179]",179,l,0.3965238426171709,1,colour,0.5,3.9
45,21,1,2,4,50,200,345.5729216389591,346.4792356880498,"[11, 0, 243]",243,a,0.3829877734533511,1,colour,0.5,3.9
45,21,1,2,5,1,201,361.228235321003,362.2792241089919,"[65, 0, 189]",189,l,0.5268834863672964,1,colour,0.4,3.9
45,21,1,2,5,2,202,362.79158297454705,363.8552059259673,"[61, 0, 193]",193,l,0.5403325157240033,1,colour,0.4,3.9
45,21,1,2,5,3,203,364.3696498085046,365.28720262710704,"[59, 0, 195]",195,l,0.39427971208351664,1,colour,0.4,3.9
45,21,1,2,5,4,204,365.8071410454577,366.5432123125647,"[68, 0, 186]",186,l,0.21274184071808122,1,colour,0.4,3.9
45,21,1,2,5,5,205,367.0572280852648,369.1031669888471,"[55, 0, 199]",199,l,1.522676824737573,1,colour,0.4,3.9
45,21,1,2,5,6,206,369.6196395685256,370.5192094107042,"[0, 0, 254]",254,a,0.37617582516395487,1,colour,0.4,3.9
45,21,1,2,5,7,207,371.02779878285946,371.95119075188995,"[3, 0, 251]",251,a,0.4002846713992767,1,colour,0.4,3.9
45,21,1,2,5,8,208,372.4653833611519,373.3431648935657,"[86, 0, 168]",168,l,0.3546754163107835,1,colour,0.4,3.9
45,21,1,2,5,9,209,373.8559156351839,374.79121709225,"[51, 0, 203]",203,a,0.4120326828560792,0,colour,0.4,3.9
45,21,1,2,5,10,210,375.30902638292173,376.2471702215262,"[29, 0, 225]",225,a,0.414862855192041,1,colour,0.4,3.9
45,21,1,2,5,11,211,376.7621513090562,377.8232111152611,"[85, 0, 169]",169,l,0.5377859119907953,1,colour,0.4,3.9
45,21,1,2,5,12,212,378.340259890625,379.76716023360495,"[81, 0, 173]",173,l,0.9018305141944438,1,colour,0.4,3.9
45,21,1,2,5,13,213,380.2795183114358,381.3511843715969,"[94, 0, 160]",160,l,0.5483527814212721,1,colour,0.4,3.9
45,21,1,2,5,14,214,381.85891476715915,382.9271728839085,"[57, 0, 197]",197,a,0.5450507824134547,0,colour,0.4,3.9
45,21,1,2,5,15,215,383.4370584009448,385.4231903202308,"[21, 0, 233]",233,a,1.4628308497485705,1,colour,0.4,3.9
45,21,1,2,5,16,216,385.93707454862306,386.9271394070529,"[14, 0, 240]",240,a,0.46680120422388427,1,colour,0.4,3.9
45,21,1,2,5,17,217,387.4370284687029,388.4551737094007,"[70, 0, 184]",184,l,0.49482408503536135,1,colour,0.4,3.9
45,21,1,2,5,18,218,388.96817217970965,389.86314663491794,"[39, 0, 215]",215,a,0.3717237978707999,1,colour,0.4,3.9
45,21,1,2,5,19,219,390.37439446285134,391.19914118092856,"[98, 0, 156]",156,l,0.30187572762952186,1,colour,0.4,3.9
45,21,1,2,5,20,220,391.7190047686745,392.5671600760543,"[58, 0, 196]",196,a,0.3258171896159183,0,colour,0.4,3.9
45,21,1,2,5,21,221,393.07751978284796,394.0231640113634,"[12, 0, 242]",242,a,0.42230495598050766,1,colour,0.4,3.9
45,21,1,2,5,22,222,394.53068960737437,395.46313450447633,"[33, 0, 221]",221,a,0.4091619444661774,1,colour,0.4,3.9
45,21,1,2,5,23,223,395.98381689659436,396.8551444860932,"[44, 0, 210]",210,a,0.3481025321234483,1,colour,0.4,3.9
45,21,1,2,5,24,224,397.3743405060377,398.2951334899408,"[53, 0, 201]",201,a,0.39771049850969575,0,colour,0.4,3.9
45,21,1,2,5,25,225,398.8119302043051,399.68710566239315,"[6, 0, 248]",248,a,0.3520795819640625,1,colour,0.4,3.9
45,21,1,2,5,26,226,400.20258338886197,401.1511192295875,"[76, 0, 178]",178,l,0.42520995895029046,1,colour,0.4,3.9
45,21,1,2,5,27,227,401.67129592434503,402.62316369629116,"[18, 0, 236]",236,a,0.42849305336130783,1,colour,0.4,3.9
45,21,1,2,5,28,228,403.14019514247775,406.0551296774938,"[19, 0, 235]",235,a,2.3978731565875933,1,colour,0.4,3.9
45,21,1,2,5,29,229,406.5735021669243,407.9750881032087,"[56, 0, 198]",198,l,0.8782675375405233,1,colour,0.4,3.9
45,21,1,2,5,30,230,408.4953282070346,409.35906757912016,"[37, 0, 217]",217,a,0.3404142779763788,1,colour,0.4,3.9
45,21,1,2,5,31,231,409.87035439774627,410.8151262589381,"[83, 0, 171]",171,l,0.4215066315664444,1,colour,0.4,3.9
45,21,1,2,5,32,232,411.32344033321715,412.2311458377517,"[84, 0, 170]",170,l,0.3844103426672518,1,colour,0.4,3.9
45,21,1,2,5,33,233,412.7453778315394,413.8071134762722,"[74, 0, 180]",180,l,0.5384589936002158,1,colour,0.4,3.9
45,21,1,2,5,34,234,414.3234151271172,415.31107871077256,"[79, 0, 175]",175,l,0.46429516657372005,1,colour,0.4,3.9
45,21,1,2,5,35,235,415.8234096132801,416.7671531443775,"[69, 0, 185]",185,l,0.4203357294900343,1,colour,0.4,3.9
45,21,1,2,5,36,236,417.27658534547663,418.25507824131637,"[92, 0, 162]",162,l,0.45526547537883744,1,colour,0.4,3.9
45,21,1,2,5,37,237,418.77664127151365,419.86311433959054,"[73, 0, 181]",181,a,0.5633114197698887,0,colour,0.4,3.9
45,21,1,2,5,38,238,420.3703110747738,421.3271101837454,"[72, 0, 182]",182,a,0.43380090649588965,0,colour,0.4,3.9
45,21,1,2,5,39,239,421.8391256161849,422.77508952104836,"[26, 0, 228]",228,a,0.413045652967412,1,colour,0.4,3.9
45,21,1,2,5,40,240,423.2921619271219,424.0550902929681,"[22, 0, 232]",232,a,0.23968125312239863,1,colour,0.4,3.9
45,21,1,2,5,41,241,424.5734308809333,425.4310774662299,"[99, 0, 155]",155,l,0.3343746603059117,1,colour,0.4,3.9
45,21,1,2,5,42,242,425.9483849979588,426.9030687638151,"[64, 0, 190]",190,a,0.4313448871835135,0,colour,0.4,3.9
45,21,1,2,5,43,243,427.41712864721194,428.4551181772258,"[36, 0, 218]",218,a,0.5148570262826979,1,colour,0.4,3.9
45,21,1,2,5,44,244,428.96398599800887,429.91107642647694,"[71, 0, 183]",183,l,0.4237401282880455,1,colour,0.4,3.9
45,21,1,2,5,45,245,430.417220806994,431.3350540434476,"[31, 0, 223]",223,a,0.3947771386883687,1,colour,0.4,3.9
45,21,1,2,5,46,246,431.85465257329633,433.1350491597841,"[63, 0, 191]",191,a,0.7571144215180539,0,colour,0.4,3.9
45,21,1,2,5,47,247,433.6515067733417,434.75907065111096,"[4, 0, 250]",250,a,0.584424284810666,1,colour,0.4,3.9
45,21,1,2,5,48,248,435.2764923979994,436.24705758175696,"[30, 0, 224]",224,a,0.4473267356224824,1,colour,0.4,3.9
45,21,1,2,5,49,249,436.7608358657744,437.6470523829921,"[23, 0, 231]",231,a,0.3628303771256469,1,colour,0.4,3.9
45,21,1,2,5,50,250,438.1671061980305,439.1110419256147,"[50, 0, 204]",204,a,0.42074808551114984,1,colour,0.4,3.9
45,21,1,2,6,1,251,454.15064740291564,454.9750156356604,"[86, 0, 168]",168,l,0.30058549041859806,1,colour,0.28,3.9
45,21,1,2,6,2,252,455.4963931647362,456.5109957669629,"[91, 0, 163]",163,l,0.4913417049101554,1,colour,0.28,3.9
45,21,1,2,6,3,253,457.02759910328314,458.00701950478833,"[90, 0, 164]",164,l,0.45611539352103136,1,colour,0.28,3.9
45,21,1,2,6,4,254,458.52766054315725,459.55899999526446,"[76, 0, 178]",178,l,0.5080375948746223,1,colour,0.28,3.9
45,21,1,2,6,5,255,460.0758160080877,460.95899834111333,"[28, 0, 226]",226,a,0.35998130022198893,1,colour,0.28,3.9
45,21,1,2,6,6,256,461.4663388298359,462.3989971911069,"[64, 0, 190]",190,a,0.4096483434259426,0,colour,0.28,3.9
45,21,1,2,6,7,257,462.9194161007181,463.7749942104856,"[62, 0, 192]",192,a,0.3319848070386797,0,colour,0.28,3.9
45,21,1,2,6,8,258,464.2945088512788,465.15898471407127,"[38, 0, 216]",216,a,0.3411885778477881,1,colour,0.28,3.9
45,21,1,2,6,9,259,465.6694720267551,466.671021414164,"[92, 0, 162]",162,l,0.4869298498670105,1,colour,0.28,3.9
45,21,1,2,6,10,260,467.19199367641704,468.1269828141667,"[80, 0, 174]",174,l,0.4117573849798646,1,colour,0.28,3.9
45,21,1,2,6,11,261,468.6450284119928,469.50302158115664,"[10, 0, 244]",244,a,0.33504025888396427,1,colour,0.28,3.9
45,21,1,2,6,12,262,470.020173937839,470.94301649267436,"[43, 0, 211]",211,a,0.39968563269940205,1,colour,0.28,3.9
45,21,1,2,6,13,263,471.45748912592535,472.49498004780617,"[54, 0, 200]",200,a,0.514044129580725,0,colour,0.28,3.9
45,21,1,2,6,14,264,472.9919836727495,473.8950134458719,"[84, 0, 170]",170,l,0.379286809155019,1,colour,0.28,3.9
45,21,1,2,6,15,265,474.41381128825014,476.3269908486109,"[75, 0, 179]",179,l,1.3906642122310586,1,colour,0.28,3.9
45,21,1,2,6,16,266,476.8372442171676,477.766972369398,"[61, 0, 193]",193,a,0.4064463811228052,0,colour,0.28,3.9
45,21,1,2,6,17,267,478.2747244264465,479.2629642057582,"[1, 0, 253]",253,a,0.4652766290528234,1,colour,0.28,3.9
45,21,1,2,6,18,268,479.7746877988393,480.7509511364042,"[60, 0, 194]",194,a,0.4529654188081622,0,colour,0.28,3.9
45,21,1,2,6,19,269,481.25914272482623,482.1509754760482,"[79, 0, 175]",175,l,0.3685297124902718,1,colour,0.28,3.9
45,21,1,2,6,20,270,482.66534767876146,483.70293863731786,"[63, 0, 191]",191,a,0.5142973721085582,0,colour,0.28,3.9
45,21,1,2,6,21,271,484.2121806111536,485.6469818846963,"[15, 0, 239]",239,a,0.9114812994375825,1,colour,0.28,3.9
45,21,1,2,6,22,272,486.1653012050083,486.94297159431153,"[93, 0, 161]",161,l,0.2543653813190758,1,colour,0.28,3.9
45,21,1,2,6,23,273,487.4621652511996,488.2309402505052,"[40, 0, 214]",214,a,0.24544478525058366,1,colour,0.28,3.9
45,21,1,2,6,24,274,488.7433641005191,489.526907117106,"[58, 0, 196]",196,a,0.27259136029169895,0,colour,0.28,3.9
45,21,1,2,6,25,275,490.03423618429224,490.8789075361565,"[99, 0, 155]",155,l,0.32143014681059867,1,colour,0.28,3.9
45,21,1,2,6,26,276,491.3939307651599,492.48697711128625,"[81, 0, 173]",173,l,0.5700067899015266,1,colour,0.28,3.9
45,21,1,2,6,27,277,493.00302591343643,493.8949208922277,"[18, 0, 236]",236,a,0.36865062298602425,1,colour,0.28,3.9
45,21,1,2,6,28,278,494.4092611934757,495.3109156588325,"[57, 0, 197]",197,a,0.37838057114277035,0,colour,0.28,3.9
45,21,1,2,6,29,279,495.83113095042063,496.71894529805286,"[49, 0, 205]",205,a,0.3730345150397625,1,colour,0.28,3.9
45,21,1,2,6,30,280,497.2288099412981,498.07902033344726,"[85, 0, 169]",169,l,0.3268738765618764,1,colour,0.28,3.9
45,21,1,2,6,31,281,498.58814494137187,499.72694232687354,"[50, 0, 204]",204,a,0.6154695345030632,1,colour,0.28,3.9
45,21,1,2,6,32,282,500.2444211813272,501.1509309715184,"[55, 0, 199]",199,a,0.3832236868038308,0,colour,0.28,3.9
45,21,1,2,6,33,283,501.66632205204223,502.6229679551616,"[82, 0, 172]",172,l,0.43338027969002724,1,colour,0.28,3.9
45,21,1,2,6,34,284,503.13508736275253,504.18299864360597,"[83, 0, 171]",171,l,0.5247004018747248,1,colour,0.28,3.9
45,21,1,2,6,35,285,504.697547289019,505.54291417164495,"[95, 0, 159]",159,l,0.32205163469188847,1,colour,0.28,3.9
45,21,1,2,6,36,286,506.04446789136273,506.9508997001976,"[22, 0, 232]",232,a,0.38194999110419303,1,colour,0.28,3.9
45,21,1,2,6,37,287,507.4674396274495,508.5749148900213,"[69, 0, 185]",185,a,0.584214759117458,0,colour,0.28,3.9
45,21,1,2,6,38,288,509.0924721196934,509.9589258735941,"[97, 0, 157]",157,l,0.34309754602145404,1,colour,0.28,3.9
45,21,1,2,6,39,289,510.4674364766979,511.4789139164495,"[77, 0, 177]",177,l,0.48869073219248094,1,colour,0.28,3.9
45,21,1,2,6,40,290,511.9986707721255,512.8628583401442,"[52, 0, 202]",202,a,0.34090028310311027,0,colour,0.28,3.9
45,21,1,2,6,41,291,513.373661122896,514.3029194176779,"[3, 0, 251]",251,a,0.4060036989976652,1,colour,0.28,3.9
45,21,1,2,6,42,292,514.8112208889215,515.6148500158451,"[17, 0, 237]",237,a,0.2803654726885725,1,colour,0.28,3.9
45,21,1,2,6,43,293,516.1236587598396,517.0309026776813,"[96, 0, 158]",158,l,0.38391055300598964,1,colour,0.28,3.9
45,21,1,2,6,44,294,517.5455198521668,518.6229179368238,"[70, 0, 184]",184,a,0.5540761413285509,0,colour,0.28,3.9
45,21,1,2,6,45,295,519.1392900859646,520.1268906543555,"[35, 0, 219]",219,a,0.4642991050204728,1,colour,0.28,3.9
45,21,1,2,6,46,296,520.6363393969659,521.7508747304091,"[66, 0, 188]",188,a,0.5913492667314131,0,colour,0.28,3.9
45,21,1,2,6,47,297,522.2612308925891,523.2148311900382,"[36, 0, 218]",218,a,0.4302748095069546,1,colour,0.28,3.9
45,21,1,2,6,48,298,523.7299615449447,524.7429155107238,"[67, 0, 187]",187,a,0.4896576223836746,0,colour,0.28,3.9
45,21,1,2,6,49,299,525.2611942649819,526.1909484110074,"[78, 0, 176]",176,l,0.4064286580833141,1,colour,0.28,3.9
45,21,1,2,6,50,300,526.6986815634591,527.6308866087929,"[56, 0, 198]",198,a,0.40773740599979647,0,colour,0.28,3.9
45,21,1,2,7,1,301,556.464575978287,557.7907602316991,"[92, 0, 162]",162,l,0.8020108165510464,1,colour,0.14,3.9
45,21,1,2,7,2,302,558.3091484749457,559.7827576890413,"[86, 0, 168]",168,l,0.9503132645622827,1,colour,0.14,3.9
45,21,1,2,7,3,303,560.2934970626957,561.3188284047646,"[65, 0, 189]",189,a,0.5022787889174651,0,colour,0.14,3.9
45,21,1,2,7,4,304,561.8403386597056,562.8467583380989,"[12, 0, 242]",242,a,0.48321549480897374,1,colour,0.14,3.9
45,21,1,2,7,5,305,563.3560771117627,567.6627510566905,"[58, 0, 196]",196,a,3.784186165954452,0,colour,0.14,3.9
45,21,1,2,7,6,306,568.1841620626219,569.2227699297655,"[85, 0, 169]",169,l,0.515526957140537,1,colour,0.14,3.9
45,21,1,2,7,7,307,569.7309623058536,570.8467524304288,"[81, 0, 173]",173,l,0.5925126857764553,1,colour,0.14,3.9
45,21,1,2,7,8,308,571.3560239426442,572.7427623049007,"[84, 0, 170]",170,l,0.8642659432371147,1,colour,0.14,3.9
45,21,1,2,7,9,309,573.2621119245305,574.2948113244784,"[59, 0, 195]",195,a,0.5093554012710229,0,colour,0.14,3.9
45,21,1,2,7,10,310,574.8090925489087,575.8547864807188,"[18, 0, 236]",236,a,0.5224704497959465,1,colour,0.14,3.9
45,21,1,2,7,11,311,576.3715757120226,577.5987732506474,"[47, 0, 207]",207,a,0.7038803214381915,1,colour,0.14,3.9
45,21,1,2,7,12,312,578.1059916473168,579.5907742526033,"[77, 0, 177]",177,l,0.9614677511563059,1,colour,0.14,3.9
45,21,1,2,7,13,313,580.1059420228121,581.2067416075442,"[63, 0, 191]",191,a,0.5775095428689383,0,colour,0.14,3.9
45,21,1,2,7,14,314,581.7205675468431,582.6547177940956,"[51, 0, 203]",203,a,0.4107507164007984,0,colour,0.14,3.9
45,21,1,2,7,15,315,583.1737629713025,584.1828560715949,"[73, 0, 181]",181,l,0.485786910780007,1,colour,0.14,3.9
45,21,1,2,7,16,316,584.6893923282041,585.6627396351832,"[55, 0, 199]",199,a,0.4500875911908224,0,colour,0.14,3.9
45,21,1,2,7,17,317,586.175717231672,587.1107658400724,"[52, 0, 202]",202,a,0.4149254765943624,0,colour,0.14,3.9
45,21,1,2,7,18,318,587.6256583124341,588.5746982751298,"[70, 0, 184]",184,l,0.428846332593821,1,colour,0.14,3.9
45,21,1,2,7,19,319,589.0912964914751,590.0307195396163,"[72, 0, 182]",182,l,0.41601248961524107,1,colour,0.14,3.9
45,21,1,2,7,20,320,590.5445561127272,591.4467103677453,"[80, 0, 174]",174,l,0.37890911154681817,1,colour,0.14,3.9
45,21,1,2,7,21,321,591.9663963312632,592.8947235757369,"[61, 0, 193]",193,a,0.4050651656289119,0,colour,0.14,3.9
45,21,1,2,7,22,322,593.4038800851267,594.4147135878156,"[53, 0, 201]",201,a,0.4874934424587991,0,colour,0.14,3.9
45,21,1,2,7,23,323,594.9351273774519,595.8147233551717,"[57, 0, 197]",197,a,0.3563760403194465,0,colour,0.14,3.9
45,21,1,2,7,24,324,596.3257695343345,598.7026964224642,"[96, 0, 158]",158,l,1.853633301652735,1,colour,0.14,3.9
45,21,1,2,7,25,325,599.2163845158939,601.4706864881155,"[87, 0, 167]",167,l,1.7310584041115362,1,colour,0.14,3.9
45,21,1,2,7,26,326,601.9819114730344,603.5186993810348,"[95, 0, 159]",159,l,1.0134317001502495,1,colour,0.14,3.9
45,21,1,2,7,27,327,604.0288164791127,605.2227687482082,"[97, 0, 157]",157,l,0.6705653412791435,1,colour,0.14,3.9
45,21,1,2,7,28,328,605.73199536209,606.6948356641224,"[78, 0, 176]",176,l,0.43957467860309407,1,colour,0.14,3.9
45,21,1,2,7,29,329,607.216329377552,608.4227204627823,"[74, 0, 180]",180,l,0.6830868649412878,1,colour,0.14,3.9
45,21,1,2,7,30,330,608.923506577994,610.0387193253555,"[79, 0, 175]",175,l,0.5919435792893637,1,colour,0.14,3.9
45,21,1,2,7,31,331,610.5381541573443,611.7908059177571,"[88, 0, 166]",166,l,0.7293148509634193,1,colour,0.14,3.9
45,21,1,2,7,32,332,612.3037760312145,613.7427556095354,"[68, 0, 186]",186,a,0.9156257335271221,0,colour,0.14,3.9
45,21,1,2,7,33,333,614.2568926866225,615.3586406508111,"[67, 0, 187]",187,a,0.5784862792061176,0,colour,0.14,3.9
45,21,1,2,7,34,334,615.8662426528172,616.9666814752563,"[69, 0, 185]",185,a,0.5771747743710876,0,colour,0.14,3.9
45,21,1,2,7,35,335,617.4755965574877,618.5346698079666,"[82, 0, 172]",172,l,0.5357253133843187,1,colour,0.14,3.9
45,21,1,2,7,36,336,619.0537216805678,620.1426716417191,"[1, 0, 253]",253,a,0.5656701592961326,1,colour,0.14,3.9
45,21,1,2,7,37,337,620.6630732221529,621.7666561116057,"[93, 0, 161]",161,l,0.5802384969429113,1,colour,0.14,3.9
45,21,1,2,7,38,338,622.2599296277331,623.414659237169,"[94, 0, 160]",160,l,0.6314238137856591,1,colour,0.14,3.9
45,21,1,2,7,39,339,623.9317560616764,624.9506326731062,"[66, 0, 188]",188,a,0.4955727849737741,0,colour,0.14,3.9
45,21,1,2,7,40,340,625.4630321046861,626.5026454588806,"[71, 0, 183]",183,a,0.524840610800311,0,colour,0.14,3.9
45,21,1,2,7,41,341,627.0169384986802,627.8706541140273,"[24, 0, 230]",230,a,0.3303314444492571,1,colour,0.14,3.9
45,21,1,2,7,42,342,628.3919572063605,629.4626469239884,"[76, 0, 178]",178,l,0.5475887215288822,1,colour,0.14,3.9
45,21,1,2,7,43,343,629.9718436055991,630.9506287346303,"[50, 0, 204]",204,a,0.45555967779364437,1,colour,0.14,3.9
45,21,1,2,7,44,344,631.4718436055991,632.6066347967135,"[64, 0, 190]",190,a,0.6114105648302939,0,colour,0.14,3.9
45,21,1,2,7,45,345,633.1207899906731,634.0946331488667,"[98, 0, 156]",156,l,0.45054917788365856,1,colour,0.14,3.9
45,21,1,2,7,46,346,634.6054780730628,635.5426124861697,"[91, 0, 163]",163,l,0.41384437124361284,1,colour,0.14,3.9
45,21,1,2,7,47,347,636.0585545562499,637.0146352913871,"[21, 0, 233]",233,a,0.43279778250143863,1,colour,0.14,3.9
45,21,1,2,7,48,348,637.5272793009062,638.5105920755304,"[40, 0, 214]",214,a,0.45986913310480304,1,colour,0.14,3.9
45,21,1,2,7,49,349,639.0179538318771,639.8625763469026,"[54, 0, 200]",200,a,0.3214171499130316,0,colour,0.14,3.9
45,21,1,2,7,50,350,640.3773443641549,641.2866039822402,"[89, 0, 165]",165,l,0.38612081282190047,1,colour,0.14,3.9
45,21,1,2,8,1,351,710.8918902526493,711.8784396479314,"[74, 0, 180]",180,l,0.46008850491489284,1,colour,0.06,3.8
45,21,1,2,8,2,352,712.3951146641339,713.9664640726405,"[59, 0, 195]",195,a,1.0480581851152238,0,colour,0.06,3.8
45,21,1,2,8,3,353,714.4731547166011,715.3824710484478,"[51, 0, 203]",203,a,0.38679310676525347,0,colour,0.06,3.8
45,21,1,2,8,4,354,715.895054405788,717.0465032838692,"[98, 0, 156]",156,l,0.6281344178132713,1,colour,0.06,3.8
45,21,1,2,8,5,355,717.5671683468099,719.8544521060539,"[60, 0, 194]",194,l,1.7629177320341114,1,colour,0.06,3.8
45,21,1,2,8,6,356,720.364940994099,721.270438601874,"[54, 0, 200]",200,a,0.3822260766464751,0,colour,0.06,3.8
45,21,1,2,8,7,357,721.7868091756536,722.6704905107035,"[68, 0, 186]",186,a,0.36043540385435335,0,colour,0.06,3.8
45,21,1,2,8,8,358,723.1774017080315,724.7983874398051,"[70, 0, 184]",184,l,1.097685449931305,1,colour,0.06,3.8
45,21,1,2,8,9,359,725.305648765614,726.2864551087259,"[64, 0, 190]",190,a,0.45743792603025213,0,colour,0.06,3.8
45,21,1,2,8,10,360,726.8056290733512,727.7823870806023,"[0, 0, 254]",254,a,0.45339313478325494,1,colour,0.06,3.8
45,21,1,2,8,11,361,728.289986719552,729.1344217642036,"[40, 0, 214]",214,a,0.3212844240479171,1,colour,0.06,3.8
45,21,1,2,8,12,362,729.6371101522236,730.566406650003,"[65, 0, 189]",189,a,0.4061939262901433,0,colour,0.06,3.8
45,21,1,2,8,13,363,731.07440013421,731.9744638583797,"[94, 0, 160]",160,l,0.37676856230245903,1,colour,0.06,3.8
45,21,1,2,8,14,364,732.4806933095097,733.3663808925194,"[55, 0, 199]",199,a,0.36242826108355075,0,colour,0.06,3.8
45,21,1,2,8,15,365,733.8874984837021,734.6464442858705,"[69, 0, 185]",185,a,0.235636855737539,0,colour,0.06,3.8
45,21,1,2,8,16,366,735.1531329606078,735.9184381828236,"[52, 0, 202]",202,a,0.24196555584785528,0,colour,0.06,3.8
45,21,1,2,8,17,367,736.4344030959473,737.2464758722635,"[84, 0, 170]",170,l,0.2890414908179082,1,colour,0.06,3.8
45,21,1,2,8,18,368,737.764690823562,738.798473691917,"[87, 0, 167]",167,l,0.5106574538222048,1,colour,0.06,3.8
45,21,1,2,8,19,369,739.3114686176123,740.2624065208074,"[88, 0, 166]",166,l,0.4276624336198438,1,colour,0.06,3.8
45,21,1,2,8,20,370,740.780200057663,741.6704274954391,"[71, 0, 183]",183,a,0.3669299128523562,0,colour,0.06,3.8
45,21,1,2,8,21,371,742.1863668086007,743.0703927582945,"[35, 0, 219]",219,a,0.3607122771209106,1,colour,0.06,3.8
45,21,1,2,8,22,372,743.5770152670157,744.4547121227079,"[56, 0, 198]",198,a,0.3546962901309598,0,colour,0.06,3.8
45,21,1,2,8,23,373,744.9676680577395,746.0624355078326,"[85, 0, 169]",169,l,0.5715817772434093,1,colour,0.06,3.8
45,21,1,2,8,24,374,746.5769983316713,747.5824042522581,"[83, 0, 171]",171,l,0.48206192190991715,1,colour,0.06,3.8
45,21,1,2,8,25,375,748.0932283026632,750.4143906346872,"[89, 0, 165]",165,l,1.7978348748583812,1,colour,0.06,3.8
45,21,1,2,8,26,376,750.9213605149707,751.9103946802497,"[99, 0, 155]",155,l,0.46579886792460456,1,colour,0.06,3.8
45,21,1,2,8,27,377,752.4213309765619,753.3583881959785,"[78, 0, 176]",176,a,0.4137262176373042,0,colour,0.06,3.8
45,21,1,2,8,28,378,753.8762486865162,754.7263377743366,"[92, 0, 162]",162,l,0.3270637099922169,1,colour,0.06,3.8
45,21,1,2,8,29,379,755.2355951081263,756.2143424280221,"[93, 0, 161]",161,l,0.4553907181834802,1,colour,0.06,3.8
45,21,1,2,8,30,380,756.7355919573747,757.7343316524057,"[77, 0, 177]",177,a,0.475433111685561,0,colour,0.06,3.8
45,21,1,2,8,31,381,758.2512272219465,759.3343506357342,"[53, 0, 201]",201,a,0.5600090269290376,0,colour,0.06,3.8
45,21,1,2,8,32,382,759.8450388095225,760.846311323694,"[76, 0, 178]",178,a,0.47801082918886095,0,colour,0.06,3.8
45,21,1,2,8,33,383,761.3606311449839,762.1583667708037,"[61, 0, 193]",193,a,0.2744191963283811,0,colour,0.06,3.8
45,21,1,2,8,34,384,762.6731332126656,763.6786458653223,"[63, 0, 191]",191,a,0.4822777491353918,0,colour,0.06,3.8
45,21,1,2,8,35,385,764.1887212158181,765.7103338705492,"[73, 0, 181]",181,a,0.9983178867259994,0,colour,0.06,3.8
45,21,1,2,8,36,386,766.2198976159852,767.4703595965111,"[58, 0, 196]",196,a,0.7270939573063515,0,colour,0.06,3.8
45,21,1,2,8,37,387,767.9855383943941,769.0703360445623,"[57, 0, 197]",197,a,0.5613721255213022,0,colour,0.06,3.8
45,21,1,2,8,38,388,769.5792838159541,770.542330099066,"[82, 0, 172]",172,l,0.43719664064701647,1,colour,0.06,3.8
45,21,1,2,8,39,389,771.0505193244026,772.0863041084376,"[95, 0, 159]",159,l,0.5125097082927823,1,colour,0.06,3.8
45,21,1,2,8,40,390,772.5974172412825,773.5743359374464,"[91, 0, 163]",163,l,0.4536637065175455,1,colour,0.06,3.8
45,21,1,2,8,41,391,774.0818308135204,775.2703058760089,"[79, 0, 175]",175,l,0.6652149528672453,1,colour,0.06,3.8
45,21,1,2,8,42,392,775.7849592842686,776.7582888682082,"[90, 0, 164]",164,l,0.4502104709390551,1,colour,0.06,3.8
45,21,1,2,8,43,393,777.2692909366742,778.1982825981977,"[67, 0, 187]",187,a,0.40559213067172095,0,colour,0.06,3.8
45,21,1,2,8,44,394,778.694432366523,779.6223480426706,"[62, 0, 192]",192,a,0.4156414873432368,0,colour,0.06,3.8
45,21,1,2,8,45,395,780.1366895254469,780.9823352505628,"[81, 0, 173]",173,l,0.3222843972616829,1,colour,0.06,3.8
45,21,1,2,8,46,396,781.4960993561544,782.4943093292532,"[86, 0, 168]",168,l,0.4749376543040853,1,colour,0.06,3.8
45,21,1,2,8,47,397,783.0117039007891,783.9263154826767,"[75, 0, 179]",179,a,0.39132390308077447,0,colour,0.06,3.8
45,21,1,2,8,48,398,784.4369934164861,785.4383383981767,"[72, 0, 182]",182,a,0.478040761401644,0,colour,0.06,3.8
45,21,1,2,8,49,399,785.9526085949619,789.950342802942,"[97, 0, 157]",157,l,3.47441305234679,1,colour,0.06,3.8
45,21,1,2,8,50,400,790.4682048688701,793.2303069472837,"[50, 0, 204]",204,a,2.2388470887963194,1,colour,0.06,3.8
45,21,1,2,9,1,401,800.3892833905993,802.8702480595384,"[62, 0, 192]",192,a,1.9678417435206939,0,colour,0.06,3.8
45,21,1,2,9,2,402,803.379418353521,805.3743503521837,"[54, 0, 200]",200,a,1.471931826963555,0,colour,0.06,3.8
45,21,1,2,9,3,403,805.8822812149883,807.5263021707069,"[95, 0, 159]",159,l,1.1206986185279675,1,colour,0.06,3.8
45,21,1,2,9,4,404,808.038559424167,810.1182366915746,"[89, 0, 165]",165,l,1.556439606967615,1,colour,0.06,3.8
45,21,1,2,9,5,405,810.6322430119908,812.6862805564888,"[78, 0, 176]",176,l,1.5307447457162198,1,colour,0.06,3.8
45,21,1,2,9,6,406,813.1947868272837,814.8782206699543,"[76, 0, 178]",178,l,1.1601504961727187,1,colour,0.06,3.8
45,21,1,2,9,7,407,815.3978688243078,816.3422291171446,"[57, 0, 197]",197,a,0.4210548910195939,0,colour,0.06,3.8
45,21,1,2,9,8,408,816.850981935102,817.7982409293472,"[84, 0, 170]",170,l,0.42422101338161156,1,colour,0.06,3.8
45,21,1,2,9,9,409,818.3041060735704,819.9822253677412,"[94, 0, 160]",160,l,1.1548505199607462,1,colour,0.06,3.8
45,21,1,2,9,10,410,820.4915760428703,821.4862091129471,"[77, 0, 177]",177,a,0.4713674466474913,0,colour,0.06,3.8
45,21,1,2,9,11,411,822.00720067363,822.670198277483,"[87, 0, 167]",167,l,0.13971740813576616,1,colour,0.06,3.8
45,21,1,2,9,12,412,823.1790948489797,824.1982711766614,"[80, 0, 174]",174,l,0.49584059976041317,1,colour,0.06,3.8
45,21,1,2,9,13,413,824.7104823502304,825.6302225856052,"[63, 0, 191]",191,a,0.39593149928259663,0,colour,0.06,3.8
45,21,1,2,9,14,414,826.1479397164658,827.1662996028608,"[86, 0, 168]",168,l,0.4950808722060174,1,colour,0.06,3.8
45,21,1,2,9,15,415,827.6792870454956,828.9342108994315,"[66, 0, 188]",188,a,0.7317417256999761,0,colour,0.06,3.8
45,21,1,2,9,16,416,829.4476016396657,830.4222179161734,"[88, 0, 166]",166,l,0.4513790099299513,1,colour,0.06,3.8
45,21,1,2,9,17,417,830.9318584614666,831.9261953598761,"[90, 0, 164]",164,l,0.47103425351087935,1,colour,0.06,3.8
45,21,1,2,9,18,418,832.4475689505052,833.5741917900741,"[73, 0, 181]",181,a,0.6034986065933481,0,colour,0.06,3.8
45,21,1,2,9,19,419,834.0881859012879,835.0542557347799,"[92, 0, 162]",162,l,0.4427754593489226,1,colour,0.06,3.8
45,21,1,2,9,20,420,835.5725726920355,836.5102088640269,"[53, 0, 201]",201,a,0.4143551885790657,0,colour,0.06,3.8
45,21,1,2,9,21,421,837.0263088661013,838.0622251944442,"[91, 0, 163]",163,l,0.5098319540848024,1,colour,0.06,3.8
45,21,1,2,9,22,422,838.5759625185456,839.6541671983723,"[99, 0, 155]",155,l,0.554892188811209,1,colour,0.06,3.8
45,21,1,2,9,23,423,840.1697201492789,845.6541636537586,"[93, 0, 161]",161,l,4.961167641042266,1,colour,0.06,3.8
45,21,1,2,9,24,424,846.1696027833968,847.1421742151142,"[59, 0, 195]",195,a,0.4491868669865653,0,colour,0.06,3.8
45,21,1,2,9,25,425,847.6540254140564,848.6701758283016,"[98, 0, 156]",156,l,0.49300215669791214,1,colour,0.06,3.8
45,21,1,2,9,26,426,849.1852841278887,850.4701437692856,"[79, 0, 175]",175,l,0.7616180425102357,1,colour,0.06,3.8
45,21,1,2,9,27,427,850.9821828324348,851.9261760614463,"[22, 0, 232]",232,a,0.4207500547345262,1,colour,0.06,3.8
45,21,1,2,9,28,428,852.4351939373009,853.4141496013617,"[81, 0, 173]",173,l,0.4555443178396672,1,colour,0.06,3.8
45,21,1,2,9,29,429,853.9352868848073,855.086143025721,"[70, 0, 184]",184,a,0.6275523144868203,0,colour,0.06,3.8
45,21,1,2,9,30,430,855.6071440386877,856.6622055809421,"[68, 0, 186]",186,a,0.5321192658157088,0,colour,0.06,3.8
45,21,1,2,9,31,431,857.169603964925,858.246178519039,"[3, 0, 251]",251,a,0.5532975091482513,1,colour,0.06,3.8
45,21,1,2,9,32,432,858.7633911340672,859.8061477676092,"[74, 0, 180]",180,a,0.5195756868342869,0,colour,0.06,3.8
45,21,1,2,9,33,433,860.3258372757118,861.3742105370911,"[65, 0, 189]",189,a,0.5243041935027577,0,colour,0.06,3.8
45,21,1,2,9,34,434,861.8892298276478,862.9661446640966,"[50, 0, 204]",204,a,0.5536578776082024,1,colour,0.06,3.8
45,21,1,2,9,35,435,863.4828996308788,867.8221430068079,"[17, 0, 237]",237,a,3.8160313154221512,1,colour,0.06,3.8
45,21,1,2,9,36,436,868.3422578678583,869.7101408863382,"[56, 0, 198]",198,a,0.8446307857811917,0,colour,0.06,3.8
45,21,1,2,9,37,437,870.2191449776001,871.4061289418023,"[51, 0, 203]",203,a,0.6637238545808941,0,colour,0.06,3.8
45,21,1,2,9,38,438,871.9257412562438,875.0061408359325,"[72, 0, 182]",182,l,2.557071334827924,1,colour,0.06,3.8
45,21,1,2,9,39,439,875.5195575699327,876.4301523236209,"[52, 0, 202]",202,a,0.3872483919549268,0,colour,0.06,3.8
45,21,1,2,9,40,440,876.9319084798044,877.8700909152394,"[97, 0, 157]",157,l,0.41486600594362244,1,colour,0.06,3.8
45,21,1,2,9,41,441,878.3850605812913,879.742082527926,"[82, 0, 172]",172,l,0.8329138880944811,1,colour,0.06,3.8
45,21,1,2,9,42,442,880.2612494033237,881.4141299090988,"[83, 0, 171]",171,l,0.6295774670143146,1,colour,0.06,3.8
45,21,1,2,9,43,443,881.9318785475625,883.1581111651903,"[75, 0, 179]",179,l,0.7028870435897261,1,colour,0.06,3.8
45,21,1,2,9,44,444,883.6662736090657,884.9821174541139,"[55, 0, 199]",199,a,0.7926148492260836,0,colour,0.06,3.8
45,21,1,2,9,45,445,885.4947122329904,886.7261089502135,"[61, 0, 193]",193,a,0.7078085344692226,0,colour,0.06,3.8
45,21,1,2,9,46,446,887.2357628862374,888.6220636863727,"[58, 0, 196]",196,a,0.8630580197204836,0,colour,0.06,3.8
45,21,1,2,9,47,447,889.1281950699922,890.9580621708592,"[64, 0, 190]",190,a,1.3065573667408898,0,colour,0.06,3.8
45,21,1,2,9,48,448,891.4595587829826,892.9420838670048,"[71, 0, 183]",183,a,0.9592960881709587,0,colour,0.06,3.8
45,21,1,2,9,49,449,893.4595312138263,894.2940795599134,"[85, 0, 169]",169,l,0.3112181320320815,1,colour,0.06,3.8
45,21,1,2,9,50,450,894.803250247729,895.8140845381131,"[69, 0, 185]",185,a,0.4875596085039433,0,colour,0.06,3.8
45,21,1,2,10,1,451,927.8992728828161,928.8220071301912,"[52, 0, 202]",202,a,0.3987986930878833,0,colour,0.06,3.7
45,21,1,2,10,2,452,929.3376770531468,931.3500130756584,"[72, 0, 182]",182,l,1.4890857590071391,1,colour,0.06,3.7
45,21,1,2,10,3,453,931.8688404564164,932.8539664947893,"[54, 0, 200]",200,a,0.4617800704727415,0,colour,0.06,3.7
45,21,1,2,10,4,454,933.368823521072,935.1339763251599,"[99, 0, 155]",155,l,1.2417804485594388,1,colour,0.06,3.7
45,21,1,2,10,5,455,935.6502586776041,937.1339700236567,"[80, 0, 174]",174,l,0.960734411230078,1,colour,0.06,3.7
45,21,1,2,10,6,456,937.6500617549464,939.5419598844892,"[85, 0, 169]",169,l,1.3687455396866426,1,colour,0.06,3.7
45,21,1,2,10,7,457,940.0562923088437,941.133992078976,"[84, 0, 170]",170,l,0.5543691622151528,1,colour,0.06,3.7
45,21,1,2,10,8,458,941.6500184319739,942.6299484692863,"[69, 0, 185]",185,a,0.45675145369023085,0,colour,0.06,3.7
45,21,1,2,10,9,459,943.1500164627214,944.4379953589232,"[67, 0, 187]",187,a,0.764646319032181,0,colour,0.06,3.7
45,21,1,2,10,10,460,944.9469281641941,945.8940879094298,"[77, 0, 177]",177,l,0.42385985725559294,1,colour,0.06,3.7
45,21,1,2,10,11,461,946.4000999579439,947.4060076374444,"[70, 0, 184]",184,a,0.4828244064410683,0,colour,0.06,3.7
45,21,1,2,10,12,462,947.9156107674062,948.8378720065812,"[96, 0, 158]",158,l,0.39887234213529155,1,colour,0.06,3.7
45,21,1,2,10,13,463,949.3531827426341,950.3259310109133,"[65, 0, 189]",189,a,0.44948382634902373,0,colour,0.06,3.7
45,21,1,2,10,14,464,950.8375498411187,951.9659776737099,"[76, 0, 178]",178,l,0.6051456676214002,1,colour,0.06,3.7
45,21,1,2,10,15,465,952.4781104720314,953.4699468466279,"[58, 0, 196]",196,a,0.4684852867212612,0,colour,0.06,3.7
45,21,1,2,10,16,466,953.9781470996386,955.0779494680755,"[71, 0, 183]",183,a,0.5765217788575683,0,colour,0.06,3.7
45,21,1,2,10,17,467,955.587479736656,956.5259256545978,"[88, 0, 166]",166,l,0.41515351299312897,1,colour,0.06,3.7
45,21,1,2,10,18,468,957.0406034812913,958.1099096203689,"[62, 0, 192]",192,a,0.5458880975202192,0,colour,0.06,3.7
45,21,1,2,10,19,469,958.6187624750601,959.9499796775926,"[60, 0, 194]",194,a,0.8086022115312517,0,colour,0.06,3.7
45,21,1,2,10,20,470,960.4624948996934,961.5339112619404,"[98, 0, 156]",156,l,0.5606891977658961,1,colour,0.06,3.7
45,21,1,2,10,21,471,962.0313654459023,963.2538963115658,"[93, 0, 161]",161,l,0.6992928113904782,1,colour,0.06,3.7
45,21,1,2,10,22,472,963.7657041875354,964.773868206772,"[57, 0, 197]",197,a,0.4848952450265642,0,colour,0.06,3.7
45,21,1,2,10,23,473,965.2813461474725,966.3259542477899,"[50, 0, 204]",204,a,0.5213456276105717,1,colour,0.06,3.7
45,21,1,2,10,24,474,966.8438178890792,967.8299175130378,"[53, 0, 201]",201,a,0.4612952469033189,0,colour,0.06,3.7
45,21,1,2,10,25,475,968.3453771226341,970.9659008738527,"[64, 0, 190]",190,a,2.0972372539690696,0,colour,0.06,3.7
45,21,1,2,10,26,476,971.4859554765862,976.2139706380549,"[91, 0, 163]",163,l,4.204785377951339,1,colour,0.06,3.7
45,21,1,2,10,27,477,976.7202662551717,978.4379417959717,"[75, 0, 179]",179,l,1.194342175964266,1,colour,0.06,3.7
45,21,1,2,10,28,478,978.9560405629163,980.8538967841887,"[90, 0, 164]",164,l,1.3745795701397583,1,colour,0.06,3.7
45,21,1,2,10,29,479,981.3628477063321,982.357867532497,"[59, 0, 195]",195,a,0.4717179689614568,0,colour,0.06,3.7
45,21,1,2,10,30,480,982.8784664294217,983.8458867584413,"[81, 0, 173]",173,l,0.44421299468376674,1,colour,0.06,3.7
45,21,1,2,10,31,481,984.3629300199973,985.5178750628256,"[94, 0, 160]",160,l,0.6316569701884873,1,colour,0.06,3.7
45,21,1,2,10,32,482,986.0347903246293,987.0538618894934,"[66, 0, 188]",188,a,0.4958894365991,0,colour,0.06,3.7
45,21,1,2,10,33,483,987.565995081648,988.5258827254875,"[83, 0, 171]",171,l,0.43661690037697554,1,colour,0.06,3.7
45,21,1,2,10,34,484,989.0347599985544,990.3978940304078,"[78, 0, 176]",176,l,0.8399121252296027,1,colour,0.06,3.7
45,21,1,2,10,35,485,990.9119113784982,991.9178438702656,"[79, 0, 175]",175,l,0.4826806529017631,1,colour,0.06,3.7
45,21,1,2,10,36,486,992.427572243032,993.469855474541,"[92, 0, 162]",162,l,0.5189861004182603,1,colour,0.06,3.7
45,21,1,2,10,37,487,993.9900691907387,994.9978535431146,"[26, 0, 228]",228,a,0.4844824951433111,1,colour,0.06,3.7
45,21,1,2,10,38,488,995.5057402952516,996.5098449509824,"[97, 0, 157]",157,l,0.4808855060255155,1,colour,0.06,3.7
45,21,1,2,10,39,489,997.0213850121363,998.0138412992528,"[73, 0, 181]",181,a,0.4691906636580825,0,colour,0.06,3.7
45,21,1,2,10,40,490,998.5212841877365,999.5338293421082,"[61, 0, 193]",193,a,0.48933388156001456,0,colour,0.06,3.7
45,21,1,2,10,41,491,1000.0524798863335,1001.10983872824,"[1, 0, 253]",253,a,0.5340660431538709,1,colour,0.06,3.7
45,21,1,2,10,42,492,1001.6306286401232,1002.6058612845372,"[74, 0, 180]",180,l,0.4526243487780448,1,colour,0.06,3.7
45,21,1,2,10,43,493,1003.1149264218111,1004.1338345408731,"[68, 0, 186]",186,a,0.4956547048059292,0,colour,0.06,3.7
45,21,1,2,10,44,494,1004.6369179557369,1005.7258257754438,"[17, 0, 237]",237,a,0.5656303809082601,1,colour,0.06,3.7
45,21,1,2,10,45,495,1006.2465979642875,1007.2698159324646,"[87, 0, 167]",167,l,0.5002997162810061,1,colour,0.06,3.7
45,21,1,2,10,46,496,1007.7775770479639,1008.8857974658313,"[55, 0, 199]",199,a,0.5849303760041948,0,colour,0.06,3.7
45,21,1,2,10,47,497,1009.4025504633901,1013.1098678727867,"[86, 0, 168]",168,l,3.1840903827687725,1,colour,0.06,3.7
45,21,1,2,10,48,498,1013.6213299525552,1014.5897486794274,"[63, 0, 191]",191,a,0.44513498654123396,0,colour,0.06,3.7
45,21,1,2,10,49,499,1015.1057143802464,1016.0458187807526,"[51, 0, 203]",203,a,0.41684783549862914,0,colour,0.06,3.7
45,21,1,2,10,50,500,1016.558789288043,1017.5498269443633,"[95, 0, 159]",159,l,0.4678283527609892,1,colour,0.06,3.7
45,21,1,2,11,1,501,1072.0420524381334,1073.0136561919644,"[93, 0, 161]",161,l,0.44738896319177,1,colour,0.06,3.6
45,21,1,2,11,2,502,1073.5272926916368,1074.4296690754127,"[57, 0, 197]",197,a,0.3791710186342243,0,colour,0.06,3.6
45,21,1,2,11,3,503,1074.9491014025698,1076.0936532617488,"[53, 0, 201]",201,a,0.6216036750411149,0,colour,0.06,3.6
45,21,1,2,11,4,504,1076.605326836463,1079.9896568347176,"[83, 0, 171]",171,l,2.8609863934398163,1,colour,0.06,3.6
45,21,1,2,11,5,505,1080.4960075901763,1082.2216588921729,"[97, 0, 157]",157,l,1.202505013672635,1,colour,0.06,3.6
45,21,1,2,11,6,506,1082.730380202498,1084.605707684881,"[19, 0, 235]",235,a,1.3522138832195196,1,colour,0.06,3.6
45,21,1,2,11,7,507,1085.1209392580204,1086.5736297728145,"[82, 0, 172]",172,l,0.929391414480051,1,colour,0.06,3.6
45,21,1,2,11,8,508,1087.089771522471,1088.9177225659078,"[64, 0, 190]",190,a,1.3048000289709307,0,colour,0.06,3.6
45,21,1,2,11,9,509,1089.4334578672133,1091.0298030615959,"[89, 0, 165]",165,l,1.0733462041825987,1,colour,0.06,3.6
45,21,1,2,11,10,510,1091.5427995626815,1093.7416240919847,"[80, 0, 174]",174,l,1.6755919888673816,1,colour,0.06,3.6
45,21,1,2,11,11,511,1094.2614809843653,1095.7656545630016,"[16, 0, 238]",238,a,0.9808914136956446,1,colour,0.06,3.6
45,21,1,2,11,12,512,1096.277165873471,1097.6136566645873,"[96, 0, 158]",158,l,0.813257462985348,1,colour,0.06,3.6
45,21,1,2,11,13,513,1098.1208313444222,1099.4456276870042,"[52, 0, 202]",202,a,0.8014661284978501,0,colour,0.06,3.6
45,21,1,2,11,14,514,1099.964652384253,1101.6295932208304,"[85, 0, 169]",169,l,1.1418425973679405,1,colour,0.06,3.6
45,21,1,2,11,15,515,1102.1365315934818,1104.9896213886386,"[68, 0, 186]",186,a,2.3298466208798345,0,colour,0.06,3.6
45,21,1,2,11,16,516,1105.4959323657386,1106.597618102387,"[79, 0, 175]",175,l,0.5784189316618722,1,colour,0.06,3.6
45,21,1,2,11,17,517,1107.1053126580373,1108.469652644213,"[72, 0, 182]",182,l,0.8410074090352282,1,colour,0.06,3.6
45,21,1,2,11,18,518,1108.980253384303,1110.277607767901,"[63, 0, 191]",191,a,0.7740119603113271,0,colour,0.06,3.6
45,21,1,2,11,19,519,1110.7928204364725,1114.973595823365,"[99, 0, 155]",155,l,3.6575428464566357,1,colour,0.06,3.6
45,21,1,2,11,20,520,1115.4802648058394,1116.5975578440703,"[92, 0, 162]",162,l,0.5939833041338716,1,colour,0.06,3.6
45,21,1,2,11,21,521,1117.1052776057913,1118.029606138938,"[59, 0, 195]",195,a,0.40099753136746585,0,colour,0.06,3.6
45,21,1,2,11,22,522,1118.542781839642,1119.5495961510169,"[77, 0, 177]",177,l,0.4836329708341509,1,colour,0.06,3.6
45,21,1,2,11,23,523,1120.058437978034,1121.1415802963893,"[71, 0, 183]",183,a,0.5599204117315821,0,colour,0.06,3.6
45,21,1,2,11,24,524,1121.6521251104714,1123.9015512778715,"[75, 0, 179]",179,l,1.726864739350276,1,colour,0.06,3.6
45,21,1,2,11,25,525,1124.4177867627004,1125.645552620088,"[73, 0, 181]",181,l,0.7047664733545389,1,colour,0.06,3.6
45,21,1,2,11,26,526,1126.1520711536577,1127.029560059047,"[81, 0, 173]",173,l,0.35726967532536946,1,colour,0.06,3.6
45,21,1,2,11,27,527,1127.5401060546574,1128.3575544254854,"[56, 0, 198]",198,a,0.29417487047612667,0,colour,0.06,3.6
45,21,1,2,11,28,528,1128.868279620714,1129.7495994593191,"[61, 0, 193]",193,a,0.3580097106460016,0,colour,0.06,3.6
45,21,1,2,11,29,529,1130.2588406454597,1131.141559028736,"[98, 0, 156]",156,l,0.3593558738648426,1,colour,0.06,3.6
45,21,1,2,11,30,530,1131.6495084023045,1132.5255668615573,"[51, 0, 203]",203,a,0.3528412787709385,0,colour,0.06,3.6
45,21,1,2,11,31,531,1133.0400879377848,1134.141588960978,"[67, 0, 187]",187,a,0.5781649014388677,0,colour,0.06,3.6
45,21,1,2,11,32,532,1134.6494989500206,1135.4135375657643,"[94, 0, 160]",160,l,0.2408966597286053,1,colour,0.06,3.6
45,21,1,2,11,33,533,1135.9313500071585,1136.717502642714,"[62, 0, 192]",192,a,0.2635356753016822,0,colour,0.06,3.6
45,21,1,2,11,34,534,1137.2275980793056,1138.141523188824,"[84, 0, 170]",170,l,0.39067169529153034,1,colour,0.06,3.6
45,21,1,2,11,35,535,1138.6495017069392,1139.4855131882941,"[65, 0, 189]",189,a,0.3128061162424274,0,colour,0.06,3.6
45,21,1,2,11,36,536,1139.9877852818463,1141.8295083077683,"[76, 0, 178]",178,l,1.3183553965354804,1,colour,0.06,3.6
45,21,1,2,11,37,537,1142.347104528133,1143.461511861824,"[86, 0, 168]",168,l,0.5911503748502582,1,colour,0.06,3.6
45,21,1,2,11,38,538,1143.9720271375263,1144.7014837727766,"[88, 0, 166]",166,l,0.20596533844945952,1,colour,0.06,3.6
45,21,1,2,11,39,539,1145.2221145711665,1146.0054862650286,"[90, 0, 164]",164,l,0.26008243969408795,1,colour,0.06,3.6
45,21,1,2,11,40,540,1146.5190117003513,1149.4214861516084,"[74, 0, 180]",180,a,2.3792608153889887,0,colour,0.06,3.6
45,21,1,2,11,41,541,1149.9408326204866,1151.293492730416,"[55, 0, 199]",199,a,0.8293188682000618,0,colour,0.06,3.6
45,21,1,2,11,42,542,1151.800180617458,1152.6695693065412,"[54, 0, 200]",200,a,0.3461959270061925,0,colour,0.06,3.6
45,21,1,2,11,43,543,1153.1908637342567,1154.0454836183926,"[58, 0, 196]",196,a,0.33139403906534426,0,colour,0.06,3.6
45,21,1,2,11,44,544,1154.5658060359128,1155.4535010484105,"[95, 0, 159]",159,l,0.3644254505925346,1,colour,0.06,3.6
45,21,1,2,11,45,545,1155.9720172913803,1156.9095053775527,"[87, 0, 167]",167,l,0.41407122611417435,1,colour,0.06,3.6
45,21,1,2,11,46,546,1157.425203657418,1158.581498801912,"[69, 0, 185]",185,a,0.6329956503468566,0,colour,0.06,3.6
45,21,1,2,11,47,547,1159.097058842075,1160.0375409402186,"[24, 0, 230]",230,a,0.41722120085614733,1,colour,0.06,3.6
45,21,1,2,11,48,548,1160.550176285149,1161.6055017037725,"[66, 0, 188]",188,a,0.5322673516348004,0,colour,0.06,3.6
45,21,1,2,11,49,549,1162.112648814451,1163.2134999929112,"[60, 0, 194]",194,a,0.5775339612737298,0,colour,0.06,3.6
45,21,1,2,11,50,550,1163.722726606764,1164.605545420607,"[50, 0, 204]",204,a,0.3595795780129265,1,colour,0.06,3.6
45,21,1,2,12,1,551,1187.11238021194,1187.9974506393773,"[53, 0, 201]",201,a,0.3610115995397791,0,colour,0.06,3.6
45,21,1,2,12,2,552,1188.5038592900964,1189.517425291473,"[54, 0, 200]",200,a,0.48853161867009476,0,colour,0.06,3.6
45,21,1,2,12,3,553,1190.03690803083,1190.9414485945308,"[85, 0, 169]",169,l,0.3812808479415253,1,colour,0.06,3.6
45,21,1,2,12,4,554,1191.4588585260499,1192.3654002177063,"[51, 0, 203]",203,a,0.38332254195120186,0,colour,0.06,3.6
45,21,1,2,12,5,555,1192.8697730820859,1193.837423416786,"[83, 0, 171]",171,l,0.44449577562045306,1,colour,0.06,3.6
45,21,1,2,12,6,556,1194.353990125499,1196.5493996222212,"[79, 0, 175]",175,l,1.6720836149179377,1,colour,0.06,3.6
45,21,1,2,12,7,557,1197.0570941778715,1197.9013968905201,"[60, 0, 194]",194,a,0.32097092320327647,0,colour,0.06,3.6
45,21,1,2,12,8,558,1198.4165473315516,1199.4774401473405,"[48, 0, 206]",206,a,0.5377244721457828,1,colour,0.06,3.6
45,21,1,2,12,9,559,1199.9946882084187,1201.125546854193,"[62, 0, 192]",192,a,0.607468961039558,0,colour,0.06,3.6
45,21,1,2,12,10,560,1201.6367080361815,1202.65338384005,"[82, 0, 172]",172,l,0.4934527157165576,1,colour,0.06,3.6
45,21,1,2,12,11,561,1203.1678383564285,1204.5493606315285,"[69, 0, 185]",185,a,0.85816646105377,0,colour,0.06,3.6
45,21,1,2,12,12,562,1205.0584879963717,1207.005421674403,"[72, 0, 182]",182,a,1.423636153107509,0,colour,0.06,3.6
45,21,1,2,12,13,563,1207.511657033203,1208.349427033856,"[98, 0, 156]",156,l,0.31458314624615014,1,colour,0.06,3.6
45,21,1,2,12,14,564,1208.8710160578485,1209.82947601247,"[95, 0, 159]",159,l,0.43514943280024454,1,colour,0.06,3.6
45,21,1,2,12,15,565,1210.3397707347758,1211.4533679287124,"[81, 0, 173]",173,l,0.5903311766451225,1,colour,0.06,3.6
45,21,1,2,12,16,566,1211.9647602978803,1212.925331263279,"[70, 0, 184]",184,a,0.4372234221373219,0,colour,0.06,3.6
45,21,1,2,12,17,567,1213.4335638116172,1214.3493525970844,"[77, 0, 177]",177,l,0.39270393701735884,1,colour,0.06,3.6
45,21,1,2,12,18,568,1214.8553394394985,1215.941353677801,"[90, 0, 164]",164,l,0.562981377413962,1,colour,0.06,3.6
45,21,1,2,12,19,569,1216.4490809226118,1217.4853205979452,"[57, 0, 197]",197,a,0.512949239637237,0,colour,0.06,3.6
45,21,1,2,12,20,570,1217.9866632165795,1221.8773518472153,"[75, 0, 179]",179,l,3.367400164162973,1,colour,0.06,3.6
45,21,1,2,12,21,571,1222.3929638749396,1223.8773258534202,"[78, 0, 176]",176,l,0.9611869394429959,1,colour,0.06,3.6
45,21,1,2,12,22,572,1224.3928449336672,1227.821325777797,"[91, 0, 163]",163,l,2.905161657719873,1,colour,0.06,3.6
45,21,1,2,12,23,573,1228.3304306934588,1229.8613369157538,"[55, 0, 199]",199,a,1.0077363032323774,0,colour,0.06,3.6
45,21,1,2,12,24,574,1230.377268745855,1231.6134101174248,"[73, 0, 181]",181,l,0.7133125225664116,1,colour,0.06,3.6
45,21,1,2,12,25,575,1232.127187219885,1233.2053395182884,"[80, 0, 174]",174,l,0.5548224781814497,1,colour,0.06,3.6
45,21,1,2,12,26,576,1233.7209495767893,1234.6293033506663,"[58, 0, 196]",196,a,0.38568679528543726,0,colour,0.06,3.6
45,21,1,2,12,27,577,1235.1428020045278,1236.037375525193,"[67, 0, 187]",187,a,0.371287023415789,0,colour,0.06,3.6
45,21,1,2,12,28,578,1236.5490467368218,1237.6053555871767,"[68, 0, 186]",186,a,0.5330546484037768,0,colour,0.06,3.6
45,21,1,2,12,29,579,1238.1115590445115,1239.0372719438747,"[56, 0, 198]",198,a,0.40527469135122374,0,colour,0.06,3.6
45,21,1,2,12,30,580,1239.546207506064,1240.525275416032,"[92, 0, 162]",162,l,0.4557369081885554,1,colour,0.06,3.6
45,21,1,2,12,31,581,1241.046233105997,1242.0453323817928,"[52, 0, 202]",202,a,0.4786468893289566,0,colour,0.06,3.6
45,21,1,2,12,32,582,1242.5590425305709,1243.5172905963846,"[61, 0, 193]",193,a,0.4350127684592735,0,colour,0.06,3.6
45,21,1,2,12,33,583,1244.0285313351196,1244.965291989036,"[84, 0, 170]",170,l,0.41424451806233265,1,colour,0.06,3.6
45,21,1,2,12,34,584,1245.4685183697438,1248.4373344865162,"[76, 0, 178]",178,a,2.4456367454549763,0,colour,0.06,3.6
45,21,1,2,12,35,585,1248.9528263914108,1250.5253344928205,"[96, 0, 158]",158,l,1.0492149087949656,1,colour,0.06,3.6
45,21,1,2,12,36,586,1251.03730384534,1251.9972871935752,"[30, 0, 224]",224,a,0.43669606329058297,1,colour,0.06,3.6
45,21,1,2,12,37,587,1252.506408256886,1254.901274404634,"[64, 0, 190]",190,a,1.8717679085384589,0,colour,0.06,3.6
45,21,1,2,12,38,588,1255.4125907616399,1256.5492578379053,"[74, 0, 180]",180,l,0.6133447390748188,1,colour,0.06,3.6
45,21,1,2,12,39,589,1257.0688378570485,1259.4452799216087,"[66, 0, 188]",188,a,1.8531551734777167,0,colour,0.06,3.6
45,21,1,2,12,40,590,1259.9615307664208,1261.7092385867727,"[93, 0, 161]",161,l,1.2245379013183992,1,colour,0.06,3.6
45,21,1,2,12,41,591,1262.2270671758451,1265.1972558434936,"[50, 0, 204]",204,a,2.446915167296538,1,colour,0.06,3.6
45,21,1,2,12,42,592,1265.7113409329613,1270.5412434798782,"[97, 0, 157]",157,l,4.306636923458427,1,colour,0.06,3.6
45,21,1,2,12,43,593,1271.058174101694,1273.8852649870096,"[89, 0, 165]",165,l,2.3038327449467033,1,colour,0.06,3.6
45,21,1,2,12,44,594,1274.4019573323894,1277.3412767992122,"[59, 0, 195]",195,a,2.416064871067647,0,colour,0.06,3.6
45,21,1,2,12,45,595,1277.85499128027,1279.7252129521512,"[46, 0, 208]",208,a,1.3469079993083142,1,colour,0.06,3.6
45,21,1,2,12,46,596,1280.2456082310528,1283.1812365797232,"[86, 0, 168]",168,l,2.4123272791330237,1,colour,0.06,3.6
45,21,1,2,12,47,597,1283.6987575756211,1285.2051737094007,"[71, 0, 183]",183,a,0.9832040733017493,0,colour,0.06,3.6
45,21,1,2,12,48,598,1285.7143085573043,1286.9892188787344,"[99, 0, 155]",155,l,0.7516179164813366,1,colour,0.06,3.6
45,21,1,2,12,49,599,1287.495553092711,1288.413281566318,"[94, 0, 160]",160,l,0.39438368726405315,1,colour,0.06,3.6
45,21,1,2,12,50,600,1288.9330608711462,1289.8691819203086,"[87, 0, 167]",167,l,0.41301335766911507,1,colour,0.06,3.6
45,21,1,2,13,1,601,1328.1195938824676,1329.7091149193293,"[80, 0, 174]",174,l,1.0654184921295382,1,colour,0.06,3.5
45,21,1,2,13,2,602,1330.2298087329837,1331.4371493792278,"[75, 0, 179]",179,l,0.6835901992453728,1,colour,0.06,3.5
45,21,1,2,13,3,603,1331.9490053043119,1333.0690985826368,"[61, 0, 193]",193,a,0.5968209595012013,0,colour,0.06,3.5
45,21,1,2,13,4,604,1333.5896939349477,1334.6450993041508,"[98, 0, 156]",156,l,0.5322126071550883,1,colour,0.06,3.5
45,21,1,2,13,5,605,1335.152163707302,1336.157219499437,"[78, 0, 176]",176,l,0.4817712641088292,1,colour,0.06,3.5
45,21,1,2,13,6,606,1336.6677922765375,1337.6530994837522,"[50, 0, 204]",204,a,0.4621219281980302,1,colour,0.06,3.5
45,21,1,2,13,7,607,1338.1677296551352,1339.685112805164,"[72, 0, 182]",182,l,0.994124615797773,1,colour,0.06,3.5
45,21,1,2,13,8,608,1340.198980492045,1341.1571226134838,"[54, 0, 200]",200,a,0.4349347870738711,0,colour,0.06,3.5
45,21,1,2,13,9,609,1341.6677627381287,1342.5490664291137,"[85, 0, 169]",169,l,0.3581377103982959,1,colour,0.06,3.5
45,21,1,2,13,10,610,1343.0584324641968,1343.8931348038022,"[81, 0, 173]",173,l,0.3114465622929856,1,colour,0.06,3.5
45,21,1,2,13,11,611,1344.4020869074739,1345.4370398902392,"[93, 0, 161]",161,l,0.5116003194998484,1,colour,0.06,3.5
45,21,1,2,13,12,612,1345.9489564675023,1346.9651001863822,"[99, 0, 155]",155,l,0.492874944669893,1,colour,0.06,3.5
45,21,1,2,13,13,613,1347.4802080921072,1348.389088831027,"[88, 0, 166]",166,l,0.385689158400055,1,colour,0.06,3.5
45,21,1,2,13,14,614,1348.9020018368901,1349.9410968906595,"[86, 0, 168]",168,l,0.5156711045128759,1,colour,0.06,3.5
45,21,1,2,13,15,615,1350.4489407136862,1351.3810882575926,"[63, 0, 191]",191,a,0.4088460805360228,0,colour,0.06,3.5
45,21,1,2,13,16,616,1351.8896603005414,1352.82909043791,"[91, 0, 163]",163,l,0.41623461837298237,1,colour,0.06,3.5
45,21,1,2,13,17,617,1353.3427375714236,1354.2450426692085,"[87, 0, 167]",167,l,0.37904104971676134,1,colour,0.06,3.5
45,21,1,2,13,18,618,1354.7646419867524,1355.8211146767135,"[73, 0, 181]",181,a,0.5331901311583351,0,colour,0.06,3.5
45,21,1,2,13,19,619,1356.3427170914656,1357.4050667410193,"[82, 0, 172]",172,l,0.5390371585090179,1,colour,0.06,3.5
45,21,1,2,13,20,620,1357.923134788056,1359.069064318086,"[95, 0, 159]",159,l,0.6226398820290342,1,colour,0.06,3.5
45,21,1,2,13,21,621,1359.5794110279821,1360.5010133639735,"[84, 0, 170]",170,l,0.3982989033975173,1,colour,0.06,3.5
45,21,1,2,13,22,622,1361.016845551203,1361.9250543900416,"[65, 0, 189]",189,a,0.3851039042638149,0,colour,0.06,3.5
45,21,1,2,13,23,623,1362.4390949750086,1363.42106237408,"[42, 0, 212]",212,a,0.4586170988914091,1,colour,0.06,3.5
45,21,1,2,13,24,624,1363.9391847717343,1364.9250524208182,"[79, 0, 175]",175,l,0.4626169917464722,1,colour,0.06,3.5
45,21,1,2,13,25,625,1365.4391146672715,1366.5090651372739,"[76, 0, 178]",178,a,0.546683271182701,0,colour,0.06,3.5
45,21,1,2,13,26,626,1367.0172653902846,1367.9811383546912,"[14, 0, 240]",240,a,0.4408093835809268,1,colour,0.06,3.5
45,21,1,2,13,27,627,1368.5016687225434,1369.5490337399533,"[68, 0, 186]",186,a,0.5241127847111784,0,colour,0.06,3.5
45,21,1,2,13,28,628,1370.0648273303523,1371.1570848043484,"[77, 0, 177]",177,l,0.5696476029697806,1,colour,0.06,3.5
45,21,1,2,13,29,629,1371.6733880305837,1372.5810840828344,"[71, 0, 183]",183,a,0.38426698301918805,0,colour,0.06,3.5
45,21,1,2,13,30,630,1373.0953775164671,1374.029031518643,"[92, 0, 162]",162,l,0.4103875910222996,1,colour,0.06,3.5
45,21,1,2,13,31,631,1374.5484146151284,1375.4769978590484,"[57, 0, 197]",197,a,0.40520025457954034,0,colour,0.06,3.5
45,21,1,2,13,32,632,1375.9859405104653,1376.9890262883855,"[74, 0, 180]",180,a,0.479685459373286,0,colour,0.06,3.5
45,21,1,2,13,33,633,1377.5026462465758,1378.437013502582,"[94, 0, 160]",160,l,0.41107800183817744,1,colour,0.06,3.5
45,21,1,2,13,34,634,1378.9559806984325,1379.933034483518,"[55, 0, 199]",199,a,0.45417609927244484,0,colour,0.06,3.5
45,21,1,2,13,35,635,1380.4400547760015,1381.509004485124,"[52, 0, 202]",202,a,0.5454958276241086,0,colour,0.06,3.5
45,21,1,2,13,36,636,1382.018242914317,1383.2609898592636,"[64, 0, 190]",190,a,0.7194466631044634,0,colour,0.06,3.5
45,21,1,2,13,37,637,1383.7682752096443,1384.7410183579195,"[59, 0, 195]",195,a,0.44945310641196556,0,colour,0.06,3.5
45,21,1,2,13,38,638,1385.2525548744597,1386.5010373885161,"[70, 0, 184]",184,a,0.7251018877723254,0,colour,0.06,3.5
45,21,1,2,13,39,639,1387.018258668133,1388.0450082471361,"[66, 0, 188]",188,a,0.5035304292978253,0,colour,0.06,3.5
45,21,1,2,13,40,640,1388.565060092922,1389.5330440145626,"[83, 0, 171]",171,l,0.444621018395992,1,colour,0.06,3.5
45,21,1,2,13,41,641,1390.0494362498284,1391.1570276967832,"[67, 0, 187]",187,a,0.5843864756752737,0,colour,0.06,3.5
45,21,1,2,13,42,642,1391.6743982437765,1392.6049979756353,"[22, 0, 232]",232,a,0.4073502560786437,1,colour,0.06,3.5
45,21,1,2,13,43,643,1393.1119666743907,1393.9890314083896,"[90, 0, 164]",164,l,0.35380304901627824,1,colour,0.06,3.5
45,21,1,2,13,44,644,1394.5026159205008,1395.5409551851335,"[56, 0, 198]",198,a,0.5151142072572839,0,colour,0.06,3.5
45,21,1,2,13,45,645,1396.0494334929099,1396.8849357323197,"[97, 0, 157]",157,l,0.3123205050069373,1,colour,0.06,3.5
45,21,1,2,13,46,646,1397.3931458314764,1398.31692967657,"[69, 0, 185]",185,a,0.4004449664207641,0,colour,0.06,3.5
45,21,1,2,13,47,647,1398.8306981144415,1399.7329366523481,"[96, 0, 158]",158,l,0.379790143459104,1,colour,0.06,3.5
45,21,1,2,13,48,648,1400.2525891390105,1401.0529725867964,"[53, 0, 201]",201,a,0.277113492047647,0,colour,0.06,3.5
45,21,1,2,13,49,649,1401.565014406864,1402.4529504526872,"[58, 0, 196]",196,a,0.3645550257060677,0,colour,0.06,3.5
45,21,1,2,13,50,650,1402.9719101654773,1405.484962986433,"[51, 0, 203]",203,a,1.9897174868965521,0,colour,0.06,3.5
45,21,1,2,14,1,651,1411.6429414257582,1412.7649417030334,"[83, 0, 171]",171,l,0.5965306955331471,1,colour,0.06,3.5
45,21,1,2,14,2,652,1413.2857477625657,1414.764940127643,"[85, 0, 169]",169,l,0.9559452523535583,1,colour,0.06,3.5
45,21,1,2,14,3,653,1415.2857209810754,1416.3329631187662,"[97, 0, 157]",157,l,0.5239761203993112,1,colour,0.06,3.5
45,21,1,2,14,4,654,1416.8482234426192,1421.2448918264417,"[64, 0, 190]",190,a,3.873433874163311,0,colour,0.06,3.5
45,21,1,2,14,5,655,1421.754491411819,1422.9409389586945,"[70, 0, 184]",184,a,0.6631649880728219,0,colour,0.06,3.5
45,21,1,2,14,6,656,1423.4575608057785,1424.4209391004988,"[89, 0, 165]",165,l,0.4401366958336439,1,colour,0.06,3.5
45,21,1,2,14,7,657,1424.941921996564,1425.8849503046076,"[51, 0, 203]",203,a,0.41976701689418405,0,colour,0.06,3.5
45,21,1,2,14,8,658,1426.3949701228994,1427.7889481494785,"[91, 0, 163]",163,l,0.8705603788548615,1,colour,0.06,3.5
45,21,1,2,14,9,659,1428.3012853535183,1429.2689183590119,"[2, 0, 252]",252,a,0.4443409944069572,1,colour,0.06,3.5
45,21,1,2,14,10,660,1429.7855898306007,1431.7809081915184,"[61, 0, 193]",193,a,1.4719523069215938,0,colour,0.06,3.5
45,21,1,2,14,11,661,1432.3012546335813,1434.660899196082,"[65, 0, 189]",189,a,1.836324982228689,0,colour,0.06,3.5
45,21,1,2,14,12,662,1435.1762209598091,1436.0448719766573,"[86, 0, 168]",168,l,0.3452613321132958,1,colour,0.06,3.5
45,21,1,2,14,13,663,1436.5512558151386,1437.4049119598349,"[50, 0, 204]",204,a,0.3303349890629761,1,colour,0.06,3.5
45,21,1,2,14,14,664,1437.9262111136923,1438.8128478638537,"[53, 0, 201]",201,a,0.36331913914182223,0,colour,0.06,3.5
45,21,1,2,14,15,665,1439.3324507260113,1440.276876791002,"[73, 0, 181]",181,l,0.4211395677411929,1,colour,0.06,3.5
45,21,1,2,14,16,666,1440.785535479954,1442.8768630851991,"[69, 0, 185]",185,l,1.568037957244087,1,colour,0.06,3.5
45,21,1,2,14,17,667,1443.3949149845575,1444.0848622407939,"[55, 0, 199]",199,a,0.1649416242435109,0,colour,0.06,3.5
45,21,1,2,14,18,668,1444.599741716258,1445.4848893373564,"[63, 0, 191]",191,a,0.3620233881229069,0,colour,0.06,3.5
45,21,1,2,14,19,669,1446.0059478517214,1446.8608473660424,"[94, 0, 160]",160,l,0.3316480692883488,1,colour,0.06,3.5
45,21,1,2,14,20,670,1447.3810665960773,1448.4048587907164,"[87, 0, 167]",167,l,0.500891271920409,1,colour,0.06,3.5
45,21,1,2,14,21,671,1448.9122800177138,1450.1488715544401,"[66, 0, 188]",188,a,0.7133830208622385,0,colour,0.06,3.5
45,21,1,2,14,22,672,1450.6622158209211,1456.4128735425766,"[60, 0, 194]",194,a,5.227411002764711,0,colour,0.06,3.5
45,21,1,2,14,23,673,1456.9278278486454,1457.8768331529573,"[90, 0, 164]",164,l,0.42570069018984213,1,colour,0.06,3.5
45,21,1,2,14,24,674,1458.396563227143,1459.444793128816,"[99, 0, 155]",155,l,0.5249118967913091,1,colour,0.06,3.5
45,21,1,2,14,25,675,1459.9590708086616,1460.9248409258726,"[38, 0, 216]",216,a,0.44249543533078395,1,colour,0.06,3.5
45,21,1,2,14,26,676,1461.4436742143298,1462.4928166555474,"[54, 0, 200]",200,a,0.5257484242029022,0,colour,0.06,3.5
45,21,1,2,14,27,677,1463.006357450853,1464.3489209426334,"[82, 0, 172]",172,l,0.8192427300091367,1,colour,0.06,3.5
45,21,1,2,14,28,678,1464.8656707894406,1465.8528897217475,"[67, 0, 187]",187,l,0.4639765457250178,1,colour,0.06,3.5
45,21,1,2,14,29,679,1466.3656605494616,1467.2288422365964,"[71, 0, 183]",183,l,0.3399050360021647,1,colour,0.06,3.5
45,21,1,2,14,30,680,1467.7407328200643,1468.5648911332828,"[59, 0, 195]",195,a,0.30099942183005624,0,colour,0.06,3.5
45,21,1,2,14,31,681,1469.0843628449365,1469.996838997613,"[52, 0, 202]",202,a,0.38932828896213323,0,colour,0.06,3.5
45,21,1,2,14,32,682,1470.5062286634347,1471.340823483275,"[93, 0, 161]",161,l,0.3113429809745867,1,colour,0.06,3.5
45,21,1,2,14,33,683,1471.8500430079002,1473.028801906854,"[92, 0, 162]",162,l,0.6557165857811924,1,colour,0.06,3.5
45,21,1,2,14,34,684,1473.5375188848702,1474.372847832361,"[62, 0, 192]",192,a,0.31198809956549667,0,colour,0.06,3.5
45,21,1,2,14,35,685,1474.8812517033948,1475.7088073261548,"[58, 0, 196]",196,a,0.3044010637095198,0,colour,0.06,3.5
45,21,1,2,14,36,686,1476.2250203618023,1477.0048218480079,"[84, 0, 170]",170,l,0.25655713040032424,1,colour,0.06,3.5
45,21,1,2,14,37,687,1477.5219186725153,1478.292796805763,"[56, 0, 198]",198,a,0.24750695924740285,0,colour,0.06,3.5
45,21,1,2,14,38,688,1478.803112795722,1479.4368220937904,"[75, 0, 179]",179,l,0.11042713312781416,1,colour,0.06,3.5
45,21,1,2,14,39,689,1479.9436813035281,1480.788823300507,"[78, 0, 176]",176,l,0.3217322261480149,1,colour,0.06,3.5
45,21,1,2,14,40,690,1481.3030832573131,1482.148779788491,"[74, 0, 180]",180,l,0.3224017631728202,1,colour,0.06,3.5
45,21,1,2,14,41,691,1482.6624533096328,1483.4208567868336,"[77, 0, 177]",177,l,0.2351244630117435,1,colour,0.06,3.5
45,21,1,2,14,42,692,1483.9280554912402,1484.660771590221,"[79, 0, 175]",175,l,0.20941621100064367,1,colour,0.06,3.5
45,21,1,2,14,43,693,1485.1780617927434,1485.9727585082292,"[95, 0, 159]",159,l,0.2714212458813563,1,colour,0.06,3.5
45,21,1,2,14,44,694,1486.4906379033637,1487.2207258726412,"[98, 0, 156]",156,l,0.20683219196507707,1,colour,0.06,3.5
45,21,1,2,14,45,695,1487.7405256574566,1488.5649013732618,"[72, 0, 182]",182,a,0.30103053560014814,0,colour,0.06,3.5
45,21,1,2,14,46,696,1489.085629845271,1489.956765632116,"[81, 0, 173]",173,l,0.3478678003011737,1,colour,0.06,3.5
45,21,1,2,14,47,697,1490.4761944146594,1491.34072187118,"[88, 0, 166]",166,l,0.34112831953098066,1,colour,0.06,3.5
45,21,1,2,14,48,698,1491.851200913079,1492.6607904947887,"[48, 0, 206]",206,a,0.28616957089980133,1,colour,0.06,3.5
45,21,1,2,14,49,699,1493.179451672826,1493.9407219499408,"[96, 0, 158]",158,l,0.23798732447903603,1,colour,0.06,3.5
45,21,1,2,14,50,700,1494.4606213775987,1495.444742716616,"[57, 0, 197]",197,a,0.4609037646732759,0,colour,0.06,3.5
45,21,1,2,15,1,701,1504.006611481076,1504.8127301041095,"[88, 0, 166]",166,l,0.28200111220940016,1,colour,0.06,3.4
45,21,1,2,15,2,702,1505.3199796145782,1506.1967261215614,"[87, 0, 167]",167,l,0.35353917264728807,1,colour,0.06,3.4
45,21,1,2,15,3,703,1506.710552060831,1507.524722457223,"[61, 0, 193]",193,a,0.2909819666238036,0,colour,0.06,3.4
45,21,1,2,15,4,704,1508.0387193253555,1508.7567426315509,"[57, 0, 197]",197,a,0.1947403535596095,0,colour,0.06,3.4
45,21,1,2,15,5,705,1509.2730033224798,1510.0527335226943,"[92, 0, 162]",162,l,0.256415739946533,1,colour,0.06,3.4
45,21,1,2,15,6,706,1510.5698740640364,1511.4047378801915,"[14, 0, 240]",240,a,0.3115714112354908,1,colour,0.06,3.4
45,21,1,2,15,7,707,1511.9136498116713,1512.708747461671,"[99, 0, 155]",155,l,0.2718249373428989,1,colour,0.06,3.4
45,21,1,2,15,8,708,1513.2261443962925,1513.9567100999411,"[94, 0, 160]",160,l,0.207289052545093,1,colour,0.06,3.4
45,21,1,2,15,9,709,1514.4761609378038,1515.364788182109,"[63, 0, 191]",191,a,0.36543054378125817,0,colour,0.06,3.4
45,21,1,2,15,10,710,1515.882396611676,1516.8287639401678,"[20, 0, 234]",234,a,0.4233974828675855,1,colour,0.06,3.4
45,21,1,2,15,11,711,1517.3355479254678,1518.2847340047592,"[89, 0, 165]",165,l,0.4258038776461035,1,colour,0.06,3.4
45,21,1,2,15,12,712,1518.804322294629,1519.7486947966681,"[82, 0, 172]",172,l,0.421162016922608,1,colour,0.06,3.4
45,21,1,2,15,13,713,1520.2574759715062,1521.0047218113032,"[81, 0, 173]",173,l,0.22409679455449805,1,colour,0.06,3.4
45,21,1,2,15,14,714,1521.5229966271145,1522.3166902186058,"[58, 0, 196]",196,a,0.27056620773510076,0,colour,0.06,3.4
45,21,1,2,15,15,715,1522.8355065717187,1523.6846898153308,"[59, 0, 195]",195,a,0.3265619510784745,0,colour,0.06,3.4
45,21,1,2,15,16,716,1524.187466030853,1525.0126766987087,"[78, 0, 176]",176,l,0.301958828989882,1,colour,0.06,3.4
45,21,1,2,15,17,717,1525.529112256947,1526.3086935836182,"[60, 0, 194]",194,a,0.2562637156515848,0,colour,0.06,3.4
45,21,1,2,15,18,718,1526.8263122531644,1527.9566931645677,"[69, 0, 185]",185,a,0.6071200141159352,0,colour,0.06,3.4
45,21,1,2,15,19,719,1528.466929203947,1529.2367478933302,"[79, 0, 175]",175,l,0.2470142587844748,1,colour,0.06,3.4
45,21,1,2,15,20,720,1529.748211154656,1530.5726431903313,"[66, 0, 188]",188,a,0.30115892918547615,0,colour,0.06,3.4
45,21,1,2,15,21,721,1531.0930278354208,1531.8526813775825,"[52, 0, 202]",202,a,0.23566796950763091,0,colour,0.06,3.4
45,21,1,2,15,22,722,1532.3596677993773,1533.1726649306074,"[91, 0, 163]",163,l,0.2896614033379592,1,colour,0.06,3.4
45,21,1,2,15,23,723,1533.6884384348814,1534.4926559666928,"[65, 0, 189]",189,a,0.2809089792135637,0,colour,0.06,3.4
45,21,1,2,15,24,724,1535.000873548881,1535.7886925438943,"[24, 0, 230]",230,a,0.2645600669493433,1,colour,0.06,3.4
45,21,1,2,15,25,725,1536.2977305058448,1537.0926840084721,"[74, 0, 180]",180,l,0.27159768861019984,1,colour,0.06,3.4
45,21,1,2,15,26,726,1537.610255810403,1538.3646751485066,"[54, 0, 200]",200,a,0.23107927790260874,0,colour,0.06,3.4
45,21,1,2,15,27,727,1538.8759091918764,1539.6526796446706,"[90, 0, 164]",164,l,0.2541720032750163,1,colour,0.06,3.4
45,21,1,2,15,28,728,1540.1741729642672,1541.1726700505824,"[71, 0, 183]",183,a,0.484525424282765,0,colour,0.06,3.4
45,21,1,2,15,29,729,1541.6708174022788,1542.4526692471409,"[83, 0, 171]",171,l,0.2585712552827317,1,colour,0.06,3.4
45,21,1,2,15,30,730,1542.967670814658,1543.7646896420338,"[80, 0, 174]",174,l,0.27270478775608353,1,colour,0.06,3.4
45,21,1,2,15,31,731,1544.2811767940002,1545.0686637774052,"[84, 0, 170]",170,l,0.26421230149571784,1,colour,0.06,3.4
45,21,1,2,15,32,732,1545.5780569878407,1546.36464600396,"[86, 0, 168]",168,l,0.26316191608202644,1,colour,0.06,3.4
45,21,1,2,15,33,733,1546.8750876305858,1548.4766386721458,"[70, 0, 184]",184,a,1.0782200398098212,0,colour,0.06,3.4
45,21,1,2,15,34,734,1548.9843856092193,1549.8526620791527,"[67, 0, 187]",187,a,0.3450982801441569,0,colour,0.06,3.4
45,21,1,2,15,35,735,1550.3594086491503,1551.1487884530798,"[76, 0, 178]",178,l,0.26609527590335347,1,colour,0.06,3.4
45,21,1,2,15,36,736,1551.6562620615005,1552.5566073850787,"[50, 0, 204]",204,a,0.3770552817150019,1,colour,0.06,3.4
45,21,1,2,15,37,737,1553.0782125567493,1553.9406234886264,"[53, 0, 201]",201,a,0.33915318534127437,0,colour,0.06,3.4
45,21,1,2,15,38,738,1554.4531280769152,1557.5647391089879,"[95, 0, 159]",159,l,2.5882619134208653,1,colour,0.06,3.4
45,21,1,2,15,39,739,1558.0781003108132,1558.8846364099008,"[73, 0, 181]",181,l,0.28158599926973693,1,colour,0.06,3.4
45,21,1,2,15,40,740,1559.3797858111793,1560.1246091085486,"[93, 0, 161]",161,l,0.2218286395072937,1,colour,0.06,3.4
45,21,1,2,15,41,741,1560.645466367976,1561.388687502651,"[51, 0, 203]",203,a,0.2199791419552639,0,colour,0.06,3.4
45,21,1,2,15,42,742,1561.8953966573463,1562.660604205943,"[55, 0, 199]",199,a,0.24187339606578462,0,colour,0.06,3.4
45,21,1,2,15,43,743,1563.1766132297344,1563.940621913236,"[85, 0, 169]",169,l,0.23899793153395876,1,colour,0.06,3.4
45,21,1,2,15,44,744,1564.4594804077642,1565.10861386935,"[75, 0, 179]",179,l,0.1258461766410619,1,colour,0.06,3.4
45,21,1,2,15,45,745,1565.615733804676,1566.524609817454,"[98, 0, 156]",156,l,0.38568088761530817,1,colour,0.06,3.4
45,21,1,2,15,46,746,1567.037593715504,1571.4846144333424,"[68, 0, 186]",186,a,3.9237511559622362,0,colour,0.06,3.4
45,21,1,2,15,47,747,1571.989460699755,1572.9006221968157,"[64, 0, 190]",190,a,0.38793486429494806,0,colour,0.06,3.4
45,21,1,2,15,48,748,1573.4113127336605,1574.5646205615485,"[72, 0, 182]",182,l,0.6300036075990647,1,colour,0.06,3.4
45,21,1,2,15,49,749,1575.0831340475997,1575.956587220193,"[96, 0, 158]",158,l,0.35022338904673234,1,colour,0.06,3.4
45,21,1,2,15,50,750,1576.473773841426,1577.2685469629068,"[97, 0, 157]",157,l,0.27138067985652015,1,colour,0.06,3.4
45,21,1,2,16,1,751,1596.2248577036953,1598.5166135763284,"[82, 0, 172]",172,l,1.7676312725816388,1,colour,0.06,3.4
45,21,1,2,16,2,752,1599.0382423787087,1600.836559714051,"[65, 0, 189]",189,a,1.2750280811742414,0,colour,0.06,3.4
45,21,1,2,16,3,753,1601.3395104030205,1602.3405119516246,"[68, 0, 186]",186,a,0.4778076049988158,0,colour,0.06,3.4
45,21,1,2,16,4,754,1602.8550101848377,1603.7085265144415,"[96, 0, 158]",158,l,0.33095411385875195,1,colour,0.06,3.4
45,21,1,2,16,5,755,1604.2300576432026,1605.1725589862035,"[76, 0, 178]",178,a,0.41923493187641725,0,colour,0.06,3.4
45,21,1,2,16,6,756,1605.6834039103996,1606.5165671025752,"[75, 0, 179]",179,l,0.31002438691211864,1,colour,0.06,3.4
45,21,1,2,16,7,757,1607.0271123104903,1607.6765131930297,"[61, 0, 193]",193,a,0.12604152390849777,0,colour,0.06,3.4
45,21,1,2,16,8,758,1608.1834082427085,1609.1406208892295,"[90, 0, 164]",164,l,0.4340474536293186,1,colour,0.06,3.4
45,21,1,2,16,9,759,1609.652179461118,1610.5885395743535,"[89, 0, 165]",165,l,0.4134012952563353,1,colour,0.06,3.4
45,21,1,2,16,10,760,1611.1052571258333,1611.9564773373422,"[94, 0, 160]",160,l,0.32796010188758373,1,colour,0.06,3.4
45,21,1,2,16,11,761,1612.4646291473764,1613.4285155025427,"[59, 0, 195]",195,a,0.44096062020980753,0,colour,0.06,3.4
45,21,1,2,16,12,762,1613.9489938828046,1616.196556374227,"[98, 0, 156]",156,l,1.7243307386816014,1,colour,0.06,3.4
45,21,1,2,16,13,763,1616.7146196950926,1618.0525456584874,"[86, 0, 168]",168,l,0.8146540384041145,1,colour,0.06,3.4
45,21,1,2,16,14,764,1618.5739413044357,1619.6364650336327,"[56, 0, 198]",198,a,0.5392829179763794,0,colour,0.06,3.4
45,21,1,2,16,15,765,1620.1521093566553,1621.0924583351007,"[83, 0, 171]",171,l,0.41705302891205065,1,colour,0.06,3.4
45,21,1,2,16,16,766,1621.6052334951237,1622.860509840626,"[74, 0, 180]",180,a,0.732063103467226,0,colour,0.06,3.4
45,21,1,2,16,17,767,1623.3708285875036,1624.3324822336435,"[55, 0, 199]",199,a,0.43842622567899525,0,colour,0.06,3.4
45,21,1,2,16,18,768,1624.839522612223,1625.8604751822422,"[63, 0, 191]",191,a,0.49759163599810563,0,colour,0.06,3.4
45,21,1,2,16,19,769,1626.370789990673,1627.2205025623553,"[62, 0, 192]",192,a,0.3263709360908251,0,colour,0.06,3.4
45,21,1,2,16,20,770,1627.7301470460952,1628.6044379276282,"[73, 0, 181]",181,l,0.3509551536408253,1,colour,0.06,3.4
45,21,1,2,16,21,771,1629.120774236857,1629.9724623365619,"[52, 0, 202]",202,a,0.3283098365063779,0,colour,0.06,3.4
45,21,1,2,16,22,772,1630.4801214461331,1631.348486925126,"[77, 0, 177]",177,l,0.3450892217224464,1,colour,0.06,3.4
45,21,1,2,16,23,773,1631.8558132354228,1632.8044605343312,"[66, 0, 188]",188,a,0.4253875831491314,0,colour,0.06,3.4
45,21,1,2,16,24,774,1633.324592724588,1635.156497974851,"[10, 0, 244]",244,a,1.3085856700199656,1,colour,0.06,3.4
45,21,1,2,16,25,775,1635.6683219984698,1636.620479640551,"[91, 0, 163]",163,l,0.4288175818801392,1,colour,0.06,3.4
45,21,1,2,16,26,776,1637.1370754938398,1638.0284391753084,"[84, 0, 170]",170,l,0.36802992277080193,1,colour,0.06,3.4
45,21,1,2,16,27,777,1638.5433115615742,1639.444463480293,"[47, 0, 207]",207,a,0.37775632631382905,1,colour,0.06,3.4
45,21,1,2,16,28,778,1639.9651765923481,1640.8364565265656,"[99, 0, 155]",155,l,0.3479635047260672,1,colour,0.06,3.4
45,21,1,2,16,29,779,1641.345087646332,1642.2204478178755,"[93, 0, 161]",161,l,0.35210557575919665,1,colour,0.06,3.4
45,21,1,2,16,30,780,1642.735684904852,1643.6924024878535,"[69, 0, 185]",185,a,0.4333901258360129,0,colour,0.06,3.4
45,21,1,2,16,31,781,1644.2044454894494,1646.124387767486,"[51, 0, 203]",203,a,1.3966719284362625,0,colour,0.06,3.4
45,21,1,2,16,32,782,1646.632650641899,1647.4764330848993,"[60, 0, 194]",194,a,0.3205896809522528,0,colour,0.06,3.4
45,21,1,2,16,33,783,1647.9919726450753,1649.6204304099083,"[70, 0, 184]",184,l,1.1051397599512711,1,colour,0.06,3.4
45,21,1,2,16,34,784,1650.1335761783412,1651.0524227787391,"[87, 0, 167]",167,l,0.395696767460322,1,colour,0.06,3.4
45,21,1,2,16,35,785,1651.571102073678,1652.3564335417468,"[67, 0, 187]",187,a,0.2619744725234341,0,colour,0.06,3.4
45,21,1,2,16,36,786,1652.8679818736564,1653.7644690886664,"[92, 0, 162]",162,l,0.37319165930966847,1,colour,0.06,3.4
45,21,1,2,16,37,787,1654.2742057321884,1655.220394648757,"[72, 0, 182]",182,a,0.42287091168691404,0,colour,0.06,3.4
45,21,1,2,16,38,788,1655.7273944612825,1656.5724423292268,"[54, 0, 200]",200,a,0.32178736448986456,0,colour,0.06,3.4
45,21,1,2,16,39,789,1657.0867365505837,1657.94842674557,"[50, 0, 204]",204,a,0.33837140243849717,1,colour,0.06,3.4
45,21,1,2,16,40,790,1658.462040402228,1659.364422693674,"[35, 0, 219]",219,a,0.3793730612960644,1,colour,0.06,3.4
45,21,1,2,16,41,791,1659.8836691258475,1661.324415100331,"[57, 0, 197]",197,a,0.9177221720456146,0,colour,0.06,3.4
45,21,1,2,16,42,792,1661.8367826304748,1662.7004073935677,"[58, 0, 196]",196,a,0.34039852416026406,0,colour,0.06,3.4
45,21,1,2,16,43,793,1663.2117981873744,1664.108385832922,"[88, 0, 166]",166,l,0.3733854311867617,1,colour,0.06,3.4
45,21,1,2,16,44,794,1664.6178960153775,1665.5403967124876,"[97, 0, 157]",157,l,0.3991834799235221,1,colour,0.06,3.4
45,21,1,2,16,45,795,1666.0554951659578,1666.900380769628,"[71, 0, 183]",183,a,0.32164991248282604,0,colour,0.06,3.4
45,21,1,2,16,46,796,1667.4148085045454,1668.268364612537,"[79, 0, 175]",175,l,0.3303149029670749,1,colour,0.06,3.4
45,21,1,2,16,47,797,1668.789844935236,1669.748368298926,"[85, 0, 169]",169,l,0.4346268000663258,1,colour,0.06,3.4
45,21,1,2,16,48,798,1670.2591647801455,1671.1083468422294,"[81, 0, 173]",173,l,0.32581010038848035,1,colour,0.06,3.4
45,21,1,2,16,49,799,1671.6185529493378,1672.4523581093526,"[78, 0, 176]",176,l,0.3104745520686265,1,colour,0.06,3.4
45,21,1,2,16,50,800,1672.9623491769307,1673.6523767776089,"[80, 0, 174]",174,l,0.16737795126391575,1,colour,0.06,3.4
