id,age,condition,counterbalance,block,trialinblock,trial,tstart,tend,trialstim,trialintensity,response,RT,accuracy,trialtype,colourfreq,credits
37,24,1,2,Practice,1,NA,5.9076701290905476e-06,1.6878072238177992,"[75, 0, 179]",179,a,1.0681257579126395,0,colour,0.5,4
37,24,1,2,Practice,2,NA,2.205687202687841,3.3118875462096184,"[16, 0, 238]",238,a,0.583211405435577,1,colour,0.5,4
37,24,1,2,Practice,3,NA,3.829523341031745,4.83189507649513,"[65, 0, 189]",189,a,0.47925164696061984,0,colour,0.5,4
37,24,1,2,Practice,4,NA,5.345334845187608,5.967793707095552,"[8, 0, 246]",246,a,0.09909104480175301,1,colour,0.5,4
37,24,1,2,Practice,5,NA,6.496526876580901,7.503805528744124,"[70, 0, 184]",184,a,0.47884204803267494,0,colour,0.5,4
37,24,1,2,Practice,6,NA,8.01743473688839,8.679786961292848,"[44, 0, 210]",210,a,0.13889697362901643,1,colour,0.5,4
37,24,1,2,Practice,7,NA,9.189387921302114,10.015769559657201,"[66, 0, 188]",188,a,0.30319774692179635,0,colour,0.5,4
37,24,1,2,Practice,8,NA,10.533264751778916,11.367789138457738,"[15, 0, 239]",239,a,0.3111597203533165,1,colour,0.5,4
37,24,1,2,Practice,9,NA,11.87711755768396,12.983822022972163,"[39, 0, 215]",215,a,0.5820601960876957,1,colour,0.5,4
37,24,1,2,Practice,10,NA,13.503678710607346,17.399845770269167,"[81, 0, 173]",173,l,3.372940632980317,1,colour,0.5,4
37,24,1,2,1,1,1,4.116838494723197,5.279972304822877,"[36, 0, 218]",218,a,0.6390263517969288,1,colour,0.5,4.0
37,24,1,2,1,2,2,5.789555935654789,6.783934583887458,"[92, 0, 162]",162,l,0.47054373077116907,1,colour,0.5,4.0
37,24,1,2,1,3,3,7.278776197112165,8.303891702031251,"[75, 0, 179]",179,l,0.5022671695915051,1,colour,0.5,4.0
37,24,1,2,1,4,4,8.810297790216282,9.687969881866593,"[26, 0, 228]",228,a,0.3549080391530879,1,colour,0.5,4.0
37,24,1,2,1,5,5,10.20104376837844,11.17597867565928,"[38, 0, 216]",216,a,0.45256588142365217,1,colour,0.5,4.0
37,24,1,2,1,6,6,11.685340177849866,12.599930919532198,"[31, 0, 223]",223,a,0.3916746649774723,1,colour,0.5,4.0
37,24,1,2,1,7,7,13.109631522384007,14.015859356324654,"[51, 0, 203]",203,a,0.3848674455075525,0,colour,0.5,4.0
37,24,1,2,1,8,8,14.529529130551964,15.367866725951899,"[16, 0, 238]",238,a,0.3152694944292307,1,colour,0.5,4.0
37,24,1,2,1,9,9,15.88890928128967,16.79182684677653,"[56, 0, 198]",198,a,0.3796907449141145,0,colour,0.5,4.0
37,24,1,2,1,10,10,17.31094704393763,18.175887303543277,"[0, 0, 254]",254,a,0.3419887368218042,1,colour,0.5,4.0
37,24,1,2,1,11,11,18.686145984975155,19.599849393591285,"[71, 0, 183]",183,l,0.39094447606476024,1,colour,0.5,4.0
37,24,1,2,1,12,12,20.107942714414094,20.887859684007708,"[27, 0, 227]",227,a,0.25647707883035764,1,colour,0.5,4.0
37,24,1,2,1,13,13,21.405971637635957,22.3039145450457,"[3, 0, 251]",251,a,0.37459163181483746,1,colour,0.5,4.0
37,24,1,2,1,14,14,22.814582037739456,23.671841135481372,"[91, 0, 163]",163,l,0.3341441292432137,1,colour,0.5,4.0
37,24,1,2,1,15,15,24.189617926895153,25.039834285678808,"[98, 0, 156]",156,l,0.3268898954265751,1,colour,0.5,4.0
37,24,1,2,1,16,16,25.549104021978565,26.41600602422841,"[82, 0, 172]",172,l,0.34353457897668704,1,colour,0.5,4.0
37,24,1,2,1,17,17,26.922203768393956,27.735824823961593,"[93, 0, 161]",161,l,0.2882296621100977,1,colour,0.5,4.0
37,24,1,2,1,18,18,28.25291474943515,29.159930273657665,"[72, 0, 182]",182,l,0.383813122054562,1,colour,0.5,4.0
37,24,1,2,1,19,19,29.674796943261754,30.487855981860776,"[84, 0, 170]",170,l,0.28974951058626175,1,colour,0.5,4.0
37,24,1,2,1,20,20,31.00314091501059,31.911822010355536,"[52, 0, 202]",202,a,0.3872293348540552,0,colour,0.5,4.0
37,24,1,2,1,21,21,32.426069161563646,33.399799296515994,"[81, 0, 173]",173,l,0.4503906746977009,1,colour,0.5,4.0
37,24,1,2,1,22,22,33.91050381062087,34.83187341503799,"[61, 0, 193]",193,l,0.39856971200788394,1,colour,0.5,4.0
37,24,1,2,1,23,23,35.34824693616247,36.103908558608964,"[12, 0, 242]",242,a,0.23238438973203301,1,colour,0.5,4.0
37,24,1,2,1,24,24,36.611554077477194,37.26388254907215,"[78, 0, 176]",176,l,0.12901933741522953,1,colour,0.5,4.0
37,24,1,2,1,25,25,37.783458818972576,38.61586983257439,"[35, 0, 219]",219,a,0.3066478303517215,1,colour,0.5,4.0
37,24,1,2,1,26,26,39.13036195549648,39.863827647059225,"[45, 0, 209]",209,a,0.20919360598782077,1,colour,0.5,4.0
37,24,1,2,1,27,27,40.38056153652724,41.15179776522564,"[32, 0, 222]",222,a,0.24842097633518279,1,colour,0.5,4.0
37,24,1,2,1,28,28,41.65938105661189,42.48808283667313,"[28, 0, 226]",226,a,0.30589125386904925,1,colour,0.5,4.0
37,24,1,2,1,29,29,43.00314485345734,43.82394255528925,"[1, 0, 253]",253,a,0.2980068678734824,1,colour,0.5,4.0
37,24,1,2,1,30,30,44.331246216606814,45.05579998024041,"[41, 0, 213]",213,a,0.201253687904682,1,colour,0.5,4.0
37,24,1,2,1,31,31,45.56580502539873,46.34400443627965,"[76, 0, 178]",178,l,0.2551411560853012,1,colour,0.5,4.0
37,24,1,2,1,32,32,46.86285996955121,47.75181729992619,"[54, 0, 200]",200,l,0.3626187393674627,1,colour,0.5,4.0
37,24,1,2,1,33,33,48.27429975318955,49.03985122102313,"[59, 0, 195]",195,a,0.2430690146284178,0,colour,0.5,4.0
37,24,1,2,1,34,34,49.555535119376145,50.41575278178789,"[8, 0, 246]",246,a,0.3369274327997118,1,colour,0.5,4.0
37,24,1,2,1,35,35,50.926274157944135,51.68777374696219,"[48, 0, 206]",206,a,0.23875522875459865,1,colour,0.5,4.0
37,24,1,2,1,36,36,52.20773283432936,53.00775126629742,"[34, 0, 220]",220,a,0.2767258392996155,1,colour,0.5,4.0
37,24,1,2,1,37,37,53.520619565679226,54.295754467486404,"[70, 0, 184]",184,l,0.2520463209366426,1,colour,0.5,4.0
37,24,1,2,1,38,38,54.80161429248983,55.57587013189914,"[83, 0, 171]",171,l,0.2511058186646551,1,colour,0.5,4.0
37,24,1,2,1,39,39,56.08314858714584,56.96780158393085,"[57, 0, 197]",197,a,0.3613993948092684,0,colour,0.5,4.0
37,24,1,2,1,40,40,57.48938607022865,58.223759181040805,"[17, 0, 237]",237,l,0.21147948323050514,0,colour,0.5,4.0
37,24,1,2,1,41,41,58.73955256829504,59.49572500784416,"[9, 0, 245]",245,a,0.23204410751350224,1,colour,0.5,4.0
37,24,1,2,1,42,42,60.00599274772685,60.93582057044841,"[53, 0, 201]",201,l,0.40636548277689144,1,colour,0.5,4.0
37,24,1,2,1,43,43,61.44374571938533,62.18370197893819,"[65, 0, 189]",189,l,0.21697677375050262,1,colour,0.5,4.0
37,24,1,2,1,44,44,62.693679848802276,63.42380888428306,"[37, 0, 217]",217,a,0.20674900920130312,1,colour,0.5,4.0
37,24,1,2,1,45,45,63.94398182956502,64.70375598297687,"[63, 0, 191]",191,l,0.2365453636739403,1,colour,0.5,4.0
37,24,1,2,1,46,46,65.22522192186443,65.94373134401394,"[62, 0, 192]",192,l,0.1956752652185969,1,colour,0.5,4.0
37,24,1,2,1,47,47,66.45975985686528,67.19974723015912,"[24, 0, 230]",230,a,0.21672786364797503,1,colour,0.5,4.0
37,24,1,2,1,48,48,67.70980229368433,68.47974434721982,"[15, 0, 239]",239,a,0.2469342109397985,1,colour,0.5,4.0
37,24,1,2,1,49,49,68.99108846590389,69.76777393603697,"[46, 0, 208]",208,a,0.25237124314298853,1,colour,0.5,4.0
37,24,1,2,1,50,50,70.29043204418849,70.83179464598652,"[7, 0, 247]",247,a,0.01861745386850089,1,colour,0.5,4.0
37,24,1,2,2,1,51,75.61821911891457,76.36774502781918,"[54, 0, 200]",200,l,0.22508013766491786,1,colour,0.5,4.0
37,24,1,2,2,2,52,76.88499446056085,77.71206296479795,"[0, 0, 254]",254,a,0.30266369285527617,1,colour,0.5,4.0
37,24,1,2,2,3,53,78.23011190321995,78.83971329650376,"[66, 0, 188]",188,l,0.08662545209517702,1,colour,0.5,4.0
37,24,1,2,2,4,54,79.35498602048028,79.90376196941361,"[63, 0, 191]",191,l,0.025970148853957653,1,colour,0.5,4.0
37,24,1,2,2,5,55,80.41763614933006,81.15167724859202,"[2, 0, 252]",252,a,0.20312760304659605,1,colour,0.5,4.0
37,24,1,2,2,6,56,81.66711853834568,82.45570719032548,"[86, 0, 168]",168,l,0.26622514001792297,1,colour,0.5,4.0
37,24,1,2,2,7,57,82.96400846133474,83.72770885704085,"[1, 0, 253]",253,a,0.23924044601153582,1,colour,0.5,4.0
37,24,1,2,2,8,58,84.24672704836121,85.03966060001403,"[33, 0, 221]",221,a,0.26968979579396546,1,colour,0.5,4.0
37,24,1,2,2,9,59,85.55924474680796,86.35178445326164,"[9, 0, 245]",245,a,0.2692798029165715,1,colour,0.5,4.0
37,24,1,2,2,10,60,86.87200505379587,87.567720688181,"[35, 0, 219]",219,a,0.1732237288961187,1,colour,0.5,4.0
37,24,1,2,2,11,61,88.07509563543135,88.89571019925643,"[51, 0, 203]",203,a,0.29766225337516516,0,colour,0.5,4.0
37,24,1,2,2,12,62,89.40345299791079,90.19966491655214,"[85, 0, 169]",169,l,0.272961467388086,1,colour,0.5,4.0
37,24,1,2,2,13,63,90.71587459812872,91.51174977916526,"[5, 0, 249]",249,a,0.27256683458108455,1,colour,0.5,4.0
37,24,1,2,2,14,64,92.02840726263821,92.767707376217,"[60, 0, 194]",194,l,0.21453926619142294,1,colour,0.5,4.0
37,24,1,2,2,15,65,93.29016107873758,94.10366083000554,"[96, 0, 158]",158,l,0.2907750832964666,1,colour,0.5,4.0
37,24,1,2,2,16,66,94.61836366006173,95.41566731740022,"[17, 0, 237]",237,a,0.27402209234423935,1,colour,0.5,4.0
37,24,1,2,2,17,67,95.93676264805254,96.75195317651378,"[40, 0, 214]",214,a,0.29278448125114664,1,colour,0.5,4.0
37,24,1,2,2,18,68,97.26350957772229,98.04769701021723,"[64, 0, 190]",190,a,0.26091728900792077,0,colour,0.5,4.0
37,24,1,2,2,19,69,98.56048969127005,99.22365284280386,"[28, 0, 226]",226,a,0.13982250972185284,1,colour,0.5,4.0
37,24,1,2,2,20,70,99.73245114646852,100.41573584650178,"[52, 0, 202]",202,a,0.1599661135696806,0,colour,0.5,4.0
37,24,1,2,2,21,71,100.93577567208558,101.71991111699026,"[87, 0, 167]",167,l,0.26102599018486217,1,colour,0.5,4.0
37,24,1,2,2,22,72,102.23282864701468,103.00765950040659,"[70, 0, 184]",184,l,0.2514386178809218,1,colour,0.5,4.0
37,24,1,2,2,23,73,103.51388520753244,104.28763968206476,"[74, 0, 180]",180,l,0.2508510008919984,1,colour,0.5,4.0
37,24,1,2,2,24,74,104.79661994217895,105.55205510364613,"[47, 0, 207]",207,a,0.22972317808307707,1,colour,0.5,4.0
37,24,1,2,2,25,75,106.06487968622241,106.83170484926086,"[34, 0, 220]",220,a,0.2435896779061295,1,colour,0.5,4.0
37,24,1,2,2,26,76,107.34623005520552,107.87205664755311,"[4, 0, 250]",250,a,0.0028451373800635338,1,colour,0.5,4.0
37,24,1,2,2,27,77,108.39392273308476,109.15166819019942,"[31, 0, 223]",223,a,0.2358167501515709,1,colour,0.5,4.0
37,24,1,2,2,28,78,109.65881391958101,110.39164433890255,"[67, 0, 187]",187,l,0.20948898984352127,1,colour,0.5,4.0
37,24,1,2,2,29,79,110.90905367280357,111.70379733672598,"[95, 0, 159]",159,l,0.2707709006499499,1,colour,0.5,4.0
37,24,1,2,2,30,80,112.22309673350537,113.15167646092596,"[39, 0, 215]",215,a,0.4053883529850282,1,colour,0.5,4.0
37,24,1,2,2,31,81,113.64890595723409,114.46365656069247,"[26, 0, 228]",228,a,0.29251194035168737,1,colour,0.5,4.0
37,24,1,2,2,32,82,114.97643782029627,115.71167935960693,"[89, 0, 165]",165,l,0.21260942495428026,1,colour,0.5,4.0
37,24,1,2,2,33,83,116.22380880551646,117.00775166013045,"[46, 0, 208]",208,a,0.2611516268225387,1,colour,0.5,4.0
37,24,1,2,2,34,84,117.51049498852808,118.33624489919748,"[12, 0, 242]",242,a,0.3026290345005691,1,colour,0.5,4.0
37,24,1,2,2,35,85,118.8543430682621,119.8476008332218,"[57, 0, 197]",197,a,0.47933592984918505,0,colour,0.5,4.0
37,24,1,2,2,36,86,120.36138245946495,121.14362665999215,"[22, 0, 232]",232,a,0.25891891872743145,1,colour,0.5,4.0
37,24,1,2,2,37,87,121.65829049935564,122.31973254762124,"[29, 0, 225]",225,a,0.13807147421175614,1,colour,0.5,4.0
37,24,1,2,2,38,88,122.8303421450546,123.58357453066856,"[81, 0, 173]",173,l,0.23025408131070435,1,colour,0.5,4.0
37,24,1,2,2,39,89,124.0961368123535,124.84757995943073,"[13, 0, 241]",241,a,0.22807257308159024,1,colour,0.5,4.0
37,24,1,2,2,40,90,125.36196062411182,126.13566980650648,"[71, 0, 183]",183,l,0.25054616475244984,1,colour,0.5,4.0
37,24,1,2,2,41,91,126.6462443517521,127.43160583660938,"[90, 0, 164]",164,l,0.2624213835806586,1,colour,0.5,4.0
37,24,1,2,2,42,92,127.94310276716715,128.68760833202396,"[36, 0, 218]",218,a,0.21883139054989442,1,colour,0.5,4.0
37,24,1,2,2,43,93,129.19564651453402,129.91199293913087,"[88, 0, 166]",166,l,0.19048399233724922,1,colour,0.5,4.0
37,24,1,2,2,44,94,130.4317988207331,131.17566517490195,"[27, 0, 227]",227,a,0.22093334211967885,1,colour,0.5,4.0
37,24,1,2,2,45,95,131.6819342050003,132.39158171752933,"[93, 0, 161]",161,l,0.18686416163109243,1,colour,0.5,4.0
37,24,1,2,2,46,96,132.9007600817131,133.679567983374,"[91, 0, 163]",163,l,0.2555389396729879,1,colour,0.5,4.0
37,24,1,2,2,47,97,134.19825258787023,134.95957770349924,"[10, 0, 244]",244,a,0.23834681138396263,1,colour,0.5,4.0
37,24,1,2,2,48,98,135.47974237799644,136.23159985017264,"[79, 0, 175]",175,l,0.22917179483920336,1,colour,0.5,4.0
37,24,1,2,2,49,99,136.74640980613185,137.4635474656243,"[23, 0, 231]",231,a,0.1940313556115143,1,colour,0.5,4.0
37,24,1,2,2,50,100,137.98378500150284,138.75960007385584,"[80, 0, 174]",174,l,0.24936266004806384,1,colour,0.5,4.0
37,24,1,2,3,1,101,143.3629913168843,144.40767147328006,"[54, 0, 200]",200,l,0.5184502666234039,1,colour,0.5,4.0
37,24,1,2,3,2,102,144.92858602898195,145.67953962652246,"[29, 0, 225]",225,a,0.22750582988373935,1,colour,0.5,4.0
37,24,1,2,3,3,103,146.18543686682824,146.9195535844192,"[78, 0, 176]",176,l,0.22390293452190235,1,colour,0.5,4.0
37,24,1,2,3,4,104,147.43034750135848,148.1755600182223,"[72, 0, 182]",182,l,0.2222968339920044,1,colour,0.5,4.0
37,24,1,2,3,5,105,148.69599723361898,149.463582123979,"[75, 0, 179]",179,l,0.2545468437601812,1,colour,0.5,4.0
37,24,1,2,3,6,106,149.98305087414337,150.75951185257873,"[38, 0, 216]",216,a,0.25306992448167875,1,colour,0.5,4.0
37,24,1,2,3,7,107,151.2684294912615,151.9114829096943,"[68, 0, 186]",186,l,0.1241608636919409,1,colour,0.5,4.0
37,24,1,2,3,8,108,152.42055887414608,152.97550795192365,"[46, 0, 208]",208,a,0.03175888484111056,1,colour,0.5,4.0
37,24,1,2,3,9,109,153.48298687429633,154.05553177167894,"[15, 0, 239]",239,a,0.04918062489014119,1,colour,0.5,4.0
37,24,1,2,3,10,110,154.56505041808123,155.1435002356884,"[84, 0, 170]",170,l,0.05543015961302444,1,colour,0.5,4.0
37,24,1,2,3,11,111,155.65866465226281,156.39950036804657,"[32, 0, 222]",222,a,0.21757935686036944,1,colour,0.5,4.0
37,24,1,2,3,12,112,156.9088055503671,157.6875654028845,"[20, 0, 234]",234,a,0.25570317305391654,1,colour,0.5,4.0
37,24,1,2,3,13,113,158.20568523346446,158.9755307949381,"[12, 0, 242]",242,a,0.24647931975778192,1,colour,0.5,4.0
37,24,1,2,3,14,114,159.48708404536592,160.14359869697364,"[80, 0, 174]",174,l,0.13312359765404835,1,colour,0.5,4.0
37,24,1,2,3,15,115,160.6590825219755,161.4394917979953,"[39, 0, 215]",215,a,0.25757866370258853,1,colour,0.5,4.0
37,24,1,2,3,16,116,161.95712444203673,162.67147446563467,"[24, 0, 230]",230,a,0.19115116604370996,1,colour,0.5,4.0
37,24,1,2,3,17,117,163.19163677707547,163.95945876225596,"[73, 0, 181]",181,l,0.24447386030806229,1,colour,0.5,4.0
37,24,1,2,3,18,118,164.47301471524406,165.22353232622845,"[94, 0, 160]",160,l,0.2273754671914503,1,colour,0.5,4.0
37,24,1,2,3,19,119,165.7387518811156,166.51148747827392,"[58, 0, 196]",196,l,0.24959069641772658,1,colour,0.5,4.0
37,24,1,2,3,20,120,167.020011665707,167.76747500756755,"[30, 0, 224]",224,a,0.22418020147597417,1,colour,0.5,4.0
37,24,1,2,3,21,121,168.28575552691473,169.08749821293168,"[98, 0, 156]",156,l,0.27826380456099287,1,colour,0.5,4.0
37,24,1,2,3,22,122,169.60581772297155,170.40748991066357,"[91, 0, 163]",163,l,0.2781098111299798,1,colour,0.5,4.0
37,24,1,2,3,23,123,170.92682278424036,171.6394339815015,"[13, 0, 241]",241,a,0.18957854236941785,1,colour,0.5,4.0
37,24,1,2,3,24,124,172.14585149125196,172.8554375639069,"[93, 0, 161]",161,l,0.18631868611555547,1,colour,0.5,4.0
37,24,1,2,3,25,125,173.3583892363822,174.03946761589032,"[53, 0, 201]",201,l,0.15777948533650488,1,colour,0.5,4.0
37,24,1,2,3,26,126,174.54927888920065,175.8554332316271,"[49, 0, 205]",205,a,0.78277904225979,1,colour,0.5,4.0
37,24,1,2,3,27,127,176.3618657074403,176.93545350676868,"[74, 0, 180]",180,l,0.05055002443259582,1,colour,0.5,4.0
37,24,1,2,3,28,128,177.4556851349771,178.2074725027196,"[86, 0, 168]",168,l,0.22855345800053328,1,colour,0.5,4.0
37,24,1,2,3,29,129,178.72147901455173,179.47144957463024,"[18, 0, 236]",236,a,0.22665197361493483,1,colour,0.5,4.0
37,24,1,2,3,30,130,179.9870905437856,180.79187095741509,"[17, 0, 237]",237,a,0.2813862088951282,1,colour,0.5,4.0
37,24,1,2,3,31,131,181.29978901712457,182.06342639762443,"[99, 0, 155]",155,l,0.2396342911524698,1,colour,0.5,4.0
37,24,1,2,3,32,132,182.58187705808086,183.34347747144056,"[5, 0, 249]",249,a,0.23854255239712074,1,colour,0.5,4.0
37,24,1,2,3,33,133,183.8631943440414,184.63942255999427,"[7, 0, 247]",247,a,0.25285449117654935,1,colour,0.5,4.0
37,24,1,2,3,34,134,185.16013625467895,185.95947057759622,"[36, 0, 218]",218,a,0.2763453848892823,1,colour,0.5,4.0
37,24,1,2,3,35,135,186.4727799835382,187.2874403964379,"[70, 0, 184]",184,l,0.2916604471975006,1,colour,0.5,4.0
37,24,1,2,3,36,136,187.80105936469045,188.62349467462627,"[62, 0, 192]",192,l,0.2983656608266756,1,colour,0.5,4.0
37,24,1,2,3,37,137,189.13032729714178,189.8954266307992,"[33, 0, 221]",221,a,0.2419189868378453,1,colour,0.5,4.0
37,24,1,2,3,38,138,190.41151461418485,191.20746501965914,"[11, 0, 243]",243,a,0.2723943303572014,1,colour,0.5,4.0
37,24,1,2,3,39,139,191.71593721950194,192.31137436593417,"[82, 0, 172]",172,l,0.07251043588621542,1,colour,0.5,4.0
37,24,1,2,3,40,140,192.82544192380738,193.59146167355357,"[56, 0, 198]",198,l,0.24298985180212185,1,colour,0.5,4.0
37,24,1,2,3,41,141,194.10670919140102,194.91945394157665,"[79, 0, 175]",175,l,0.29838535306043923,1,colour,0.5,4.0
37,24,1,2,3,42,142,195.42589193122694,196.02339400781784,"[61, 0, 193]",193,l,0.07447178475558758,1,colour,0.5,4.0
37,24,1,2,3,43,143,196.5296421641251,197.26338197186124,"[28, 0, 226]",226,a,0.21079734340310097,1,colour,0.5,4.0
37,24,1,2,3,44,144,197.7811686094501,198.59946933301399,"[2, 0, 252]",252,a,0.291993246297352,1,colour,0.5,4.0
37,24,1,2,3,45,145,199.1124124630005,200.0474547954509,"[4, 0, 250]",250,a,0.4117489521158859,1,colour,0.5,4.0
37,24,1,2,3,46,146,200.5656285827281,201.36737245030235,"[21, 0, 233]",233,a,0.2784067703760229,1,colour,0.5,4.0
37,24,1,2,3,47,147,201.8737753877649,202.65539691911545,"[16, 0, 238]",238,a,0.2699973888229579,1,colour,0.5,4.0
37,24,1,2,3,48,148,203.1746880451101,203.87142531375866,"[64, 0, 190]",190,l,0.1737317891092971,1,colour,0.5,4.0
37,24,1,2,3,49,149,204.3778514880687,205.1033382708556,"[37, 0, 217]",217,l,0.2024560971185565,0,colour,0.5,4.0
37,24,1,2,3,50,150,205.61240084457677,206.24737807438942,"[89, 0, 165]",165,l,0.1116901509813033,1,colour,0.5,4.0
37,24,1,2,4,1,151,212.22187345044222,212.8633412483032,"[15, 0, 239]",239,a,0.11732607503654435,1,colour,0.5,4.0
37,24,1,2,4,2,152,213.378994032857,213.91935666184872,"[83, 0, 171]",171,l,0.017412681598216295,1,colour,0.5,4.0
37,24,1,2,4,3,153,214.42591871268814,215.17534379725112,"[8, 0, 246]",246,a,0.22605175361968577,1,colour,0.5,4.0
37,24,1,2,4,4,154,215.69163776171627,216.2474158835248,"[37, 0, 217]",217,a,0.032794697559438646,1,colour,0.5,4.0
37,24,1,2,4,5,155,216.76659476367058,217.47134047950385,"[10, 0, 244]",244,a,0.1797194168320857,1,colour,0.5,4.0
37,24,1,2,4,6,156,217.98743082600413,218.55131821939722,"[50, 0, 204]",204,a,0.03928881022147834,1,colour,0.5,4.0
37,24,1,2,4,7,157,219.06690995790996,219.83932181441924,"[43, 0, 211]",211,a,0.2493323340313509,1,colour,0.5,4.0
37,24,1,2,4,8,158,220.3483765112469,220.92739228432765,"[64, 0, 190]",190,a,0.05600084125762805,0,colour,0.5,4.0
37,24,1,2,4,9,159,221.43019980943063,221.9595426512533,"[92, 0, 162]",162,l,0.01038136420538649,1,colour,0.5,4.0
37,24,1,2,4,10,160,222.47265474079177,223.25536879856372,"[32, 0, 222]",222,a,0.25929937313776463,1,colour,0.5,4.0
37,24,1,2,4,11,161,223.76950567314634,225.07932238152716,"[76, 0, 178]",178,l,0.784557253064122,1,colour,0.5,4.0
37,24,1,2,4,12,162,225.59963947412325,226.4152947398834,"[45, 0, 209]",209,a,0.29224885179428384,1,colour,0.5,4.0
37,24,1,2,4,13,163,226.92453966394532,227.67931316554314,"[95, 0, 159]",159,l,0.22883111878763884,1,colour,0.5,4.0
37,24,1,2,4,14,164,228.19283327861922,228.95130104775308,"[54, 0, 200]",200,l,0.235087348963134,1,colour,0.5,4.0
37,24,1,2,4,15,165,229.4585696568247,230.08734382560942,"[74, 0, 180]",180,l,0.105424074747134,1,colour,0.5,4.0
37,24,1,2,4,16,166,230.596986139426,231.2473154530162,"[63, 0, 191]",191,l,0.12711391458287835,1,colour,0.5,4.0
37,24,1,2,4,17,167,231.76899643137585,232.3592765694484,"[78, 0, 176]",176,l,0.06690798868658021,1,colour,0.5,4.0
37,24,1,2,4,18,168,232.8784109451226,233.62330129666952,"[47, 0, 207]",207,a,0.22158279275754467,1,colour,0.5,4.0
37,24,1,2,4,19,169,234.14408509572968,234.85526781663066,"[27, 0, 227]",227,a,0.1878377468092367,1,colour,0.5,4.0
37,24,1,2,4,20,170,235.36292160628363,236.1352720229188,"[2, 0, 252]",252,a,0.24897157185478136,1,colour,0.5,4.0
37,24,1,2,4,21,171,236.6456815470592,237.2312985586468,"[75, 0, 179]",179,l,0.062398855632636696,1,colour,0.5,4.0
37,24,1,2,4,22,172,237.73941708554048,238.4872923894436,"[3, 0, 251]",251,a,0.2245200898614712,1,colour,0.5,4.0
37,24,1,2,4,23,173,239.00505736551713,239.61531963094603,"[65, 0, 189]",189,l,0.08744543767534196,1,colour,0.5,4.0
37,24,1,2,4,24,174,240.12990942742908,240.65535910998005,"[6, 0, 248]",248,a,0.0021779636736027896,1,colour,0.5,4.0
37,24,1,2,4,25,175,241.17714091268135,241.73527383460896,"[91, 0, 163]",163,l,0.033802153484430164,1,colour,0.5,4.0
37,24,1,2,4,26,176,242.25672874582233,242.9832474028808,"[28, 0, 226]",226,a,0.20324969507055357,1,colour,0.5,4.0
37,24,1,2,4,27,177,243.49116703798063,244.1993100620457,"[36, 0, 218]",218,a,0.1849130527698435,1,colour,0.5,4.0
37,24,1,2,4,28,178,244.7100035485346,245.36729446897516,"[16, 0, 238]",238,a,0.13403692457359284,1,colour,0.5,4.0
37,24,1,2,4,29,179,245.88200438820058,246.55125599185703,"[87, 0, 167]",167,l,0.14665257226442918,1,colour,0.5,4.0
37,24,1,2,4,30,180,247.06967829546193,247.85521385987522,"[40, 0, 214]",214,a,0.2623059869511053,1,colour,0.5,4.0
37,24,1,2,4,31,181,248.3666060276446,249.29525349644246,"[30, 0, 224]",224,a,0.40548878349363804,1,colour,0.5,4.0
37,24,1,2,4,32,182,249.80405140621588,250.4474825221114,"[4, 0, 250]",250,a,0.11946032184641808,1,colour,0.5,4.0
37,24,1,2,4,33,183,250.96040792902932,251.62330602278234,"[98, 0, 156]",156,l,0.13801791128935292,1,colour,0.5,4.0
37,24,1,2,4,34,184,252.13375690067187,252.83125783503056,"[84, 0, 170]",170,l,0.17437730124220252,1,colour,0.5,4.0
37,24,1,2,4,35,185,253.35262688802322,254.0872622996685,"[19, 0, 235]",235,a,0.21125538530759513,1,colour,0.5,4.0
37,24,1,2,4,36,186,254.6027028016979,255.13525705679785,"[97, 0, 157]",157,l,0.009061589080374688,1,colour,0.5,4.0
37,24,1,2,4,37,187,255.64966017071856,256.207264946308,"[31, 0, 223]",223,a,0.034262164612300694,1,colour,0.5,4.0
37,24,1,2,4,38,188,256.72793728724355,258.3592497879872,"[86, 0, 168]",168,l,1.10812860931037,1,colour,0.5,4.0
37,24,1,2,4,39,189,258.8686392531963,259.86325499619124,"[25, 0, 229]",229,a,0.4712309905444272,1,colour,0.5,4.0
37,24,1,2,4,40,190,260.3687481514062,261.271308499272,"[53, 0, 201]",201,l,0.37914448167430237,1,colour,0.5,4.0
37,24,1,2,4,41,191,261.7908189970185,263.535272180452,"[61, 0, 193]",193,l,1.2215178082697093,1,colour,0.5,4.0
37,24,1,2,4,42,192,264.04222098726314,264.8232100033201,"[26, 0, 228]",228,a,0.257653494249098,1,colour,0.5,4.0
37,24,1,2,4,43,193,265.33908334118314,265.88724055944476,"[99, 0, 155]",155,l,0.02479176427004859,1,colour,0.5,4.0
37,24,1,2,4,44,194,266.4017177161877,266.96721436083317,"[41, 0, 213]",213,a,0.04210362141020596,1,colour,0.5,4.0
37,24,1,2,4,45,195,267.4798869191436,268.27923660207307,"[12, 0, 242]",242,a,0.2759850165457465,1,colour,0.5,4.0
37,24,1,2,4,46,196,268.79256609408185,269.455249148421,"[80, 0, 174]",174,l,0.13965118711348623,1,colour,0.5,4.0
37,24,1,2,4,47,197,269.964597653714,270.71122249925975,"[81, 0, 173]",173,l,0.22350790782365948,1,colour,0.5,4.0
37,24,1,2,4,48,198,271.2302115460043,271.9912022871431,"[68, 0, 186]",186,l,0.23775604367256165,1,colour,0.5,4.0
37,24,1,2,4,49,199,272.4972271332517,273.2152158921235,"[35, 0, 219]",219,a,0.19508686056360602,1,colour,0.5,4.0
37,24,1,2,4,50,200,273.73170362837845,275.17517680692254,"[59, 0, 195]",195,l,0.9201817674329504,1,colour,0.5,4.0
37,24,1,2,5,1,201,280.70029723492917,281.23115519899875,"[46, 0, 208]",208,a,0.006779256509616971,1,colour,0.4,4.0
37,24,1,2,5,2,202,281.74800054664956,282.55913092551054,"[9, 0, 245]",245,a,0.2879705119994469,1,colour,0.4,4.0
37,24,1,2,5,3,203,283.07616216811584,283.78319415502483,"[92, 0, 162]",162,l,0.18362478533526883,1,colour,0.4,4.0
37,24,1,2,5,4,204,284.29514873365406,284.89510525314836,"[86, 0, 168]",168,l,0.07672772975638509,1,colour,0.4,4.0
37,24,1,2,5,5,205,285.4044817214599,286.0311448802822,"[70, 0, 184]",184,l,0.10322917572921142,1,colour,0.4,4.0
37,24,1,2,5,6,206,286.545236462669,287.1751740500331,"[43, 0, 211]",211,a,0.10666035464964807,1,colour,0.4,4.0
37,24,1,2,5,7,207,287.6859281886136,288.4072539974004,"[75, 0, 179]",179,l,0.19797965313773602,1,colour,0.4,4.0
37,24,1,2,5,8,208,288.920454308216,289.51119366980856,"[77, 0, 177]",177,l,0.0673872982733883,1,colour,0.4,4.0
37,24,1,2,5,9,209,290.0298625204596,290.86312030116096,"[39, 0, 215]",215,a,0.31476104038301855,1,colour,0.4,4.0
37,24,1,2,5,10,210,291.3845370094059,291.9271796079702,"[87, 0, 167]",167,l,0.01430563721805811,1,colour,0.4,4.0
37,24,1,2,5,11,211,292.42567689181305,293.0311500002281,"[91, 0, 163]",163,l,0.0822226571617648,1,colour,0.4,4.0
37,24,1,2,5,12,212,293.55077904538484,294.3351413451019,"[47, 0, 207]",207,a,0.2611086977412924,1,colour,0.4,4.0
37,24,1,2,5,13,213,294.84760910394834,295.40713623771444,"[59, 0, 195]",195,a,0.036385383747983724,0,colour,0.4,4.0
37,24,1,2,5,14,214,295.9259161527152,296.71912500209874,"[50, 0, 204]",204,a,0.26977959246141836,1,colour,0.4,4.0
37,24,1,2,5,15,215,297.2371369190514,297.8471557882149,"[10, 0, 244]",244,a,0.08664317516377196,1,colour,0.4,4.0
37,24,1,2,5,16,216,298.3623237493448,299.05511744657997,"[40, 0, 214]",214,a,0.16951016295934096,1,colour,0.4,4.0
37,24,1,2,5,17,217,299.5676750021521,300.1191424888093,"[94, 0, 160]",160,l,0.028050438966602087,1,colour,0.4,4.0
37,24,1,2,5,18,218,300.6303389155655,301.2791613776353,"[95, 0, 159]",159,l,0.12554483552230522,1,colour,0.4,4.0
37,24,1,2,5,19,219,301.797849132854,302.36716607544804,"[97, 0, 157]",157,l,0.04382118012290448,1,colour,0.4,4.0
37,24,1,2,5,20,220,302.8785704523907,303.46318906656234,"[76, 0, 178]",178,l,0.06127954775001854,1,colour,0.4,4.0
37,24,1,2,5,21,221,303.972444230516,304.71108189655934,"[51, 0, 203]",203,a,0.21543565770843998,0,colour,0.4,4.0
37,24,1,2,5,22,222,305.2225087226834,306.9831032555667,"[8, 0, 246]",246,a,1.2371893004747108,1,colour,0.4,4.0
37,24,1,2,5,23,223,307.5029217401752,308.0712509191362,"[35, 0, 219]",219,a,0.04522326885489747,1,colour,0.4,4.0
37,24,1,2,5,24,224,308.58346740476554,309.33509959751973,"[72, 0, 182]",182,l,0.2207915578619577,1,colour,0.4,4.0
37,24,1,2,5,25,225,309.85672740679,310.43909795279615,"[42, 0, 212]",212,a,0.05919728841399774,1,colour,0.4,4.0
37,24,1,2,5,26,226,310.95042710535927,311.65510153525975,"[62, 0, 192]",192,l,0.1761165214702487,1,colour,0.4,4.0
37,24,1,2,5,27,227,312.1744789133081,312.8071312752436,"[73, 0, 181]",181,l,0.10952833498595282,1,colour,0.4,4.0
37,24,1,2,5,28,228,313.31526398059214,313.97509795910446,"[74, 0, 180]",180,l,0.13630074640968814,1,colour,0.4,4.0
37,24,1,2,5,29,229,314.48408255149843,315.2551655744319,"[56, 0, 198]",198,a,0.24774198728846386,0,colour,0.4,4.0
37,24,1,2,5,30,230,315.7676585394074,317.151072696317,"[2, 0, 252]",252,a,0.8600648505380377,1,colour,0.4,4.0
37,24,1,2,5,31,231,317.65979183709715,318.53507328865817,"[66, 0, 188]",188,l,0.3520038250135258,1,colour,0.4,4.0
37,24,1,2,5,32,232,319.05051497218665,320.45507940114476,"[85, 0, 169]",169,l,0.8811647103866562,1,colour,0.4,4.0
37,24,1,2,5,33,233,320.9725568702561,322.0470365319052,"[90, 0, 164]",164,l,0.5511559552396648,1,colour,0.4,4.0
37,24,1,2,5,34,234,322.56648755900096,323.28710562805645,"[38, 0, 216]",216,a,0.19739873154321685,1,colour,0.4,4.0
37,24,1,2,5,35,235,323.80098610947607,324.5670818713261,"[54, 0, 200]",200,a,0.24298709485447034,0,colour,0.4,4.0
37,24,1,2,5,36,236,325.08229591237614,325.88703536608955,"[93, 0, 161]",161,l,0.28144095331663266,1,colour,0.4,4.0
37,24,1,2,5,37,237,326.3947312971577,327.1591055619065,"[60, 0, 194]",194,a,0.2410639490117319,0,colour,0.4,4.0
37,24,1,2,5,38,238,327.676128139894,328.20702824537875,"[5, 0, 249]",249,a,0.0074913285207003355,1,colour,0.4,4.0
37,24,1,2,5,39,239,328.7231820009765,329.29502506623976,"[84, 0, 170]",170,l,0.04856031871167943,1,colour,0.4,4.0
37,24,1,2,5,40,240,329.8014008284081,330.43104933341965,"[80, 0, 174]",174,l,0.10645713051781058,1,colour,0.4,4.0
37,24,1,2,5,41,241,330.942109095864,331.6950736667495,"[36, 0, 218]",218,a,0.22968024894362316,1,colour,0.4,4.0
37,24,1,2,5,42,242,332.2078356279526,332.8070300570689,"[13, 0, 241]",241,a,0.07597154704853892,1,colour,0.4,4.0
37,24,1,2,5,43,243,333.3172375386348,334.1031074775965,"[7, 0, 247]",247,a,0.26243122975574806,1,colour,0.4,4.0
37,24,1,2,5,44,244,334.61194162111497,335.7350725797587,"[11, 0, 243]",243,a,0.6001652574632317,1,colour,0.4,4.0
37,24,1,2,5,45,245,336.2560576337273,336.9030908573186,"[82, 0, 172]",172,l,0.12364807730773464,1,colour,0.4,4.0
37,24,1,2,5,46,246,337.41255121462746,338.12709697923856,"[18, 0, 236]",236,a,0.19163086940534413,1,colour,0.4,4.0
37,24,1,2,5,47,247,338.64381038874853,339.455019536661,"[61, 0, 193]",193,a,0.28801147191552445,0,colour,0.4,4.0
37,24,1,2,5,48,248,339.9719294749084,340.63101475383155,"[25, 0, 229]",229,a,0.13589705521008,1,colour,0.4,4.0
37,24,1,2,5,49,249,341.14401656668633,341.9990145994234,"[0, 0, 254]",254,a,0.34350700984941795,1,colour,0.4,4.0
37,24,1,2,5,50,250,342.50738951953826,343.2230380505789,"[78, 0, 176]",176,l,0.19221494178054854,1,colour,0.4,4.0
37,24,1,2,6,1,251,347.6955214687041,348.7190096054692,"[36, 0, 218]",218,a,0.4994094292051159,1,colour,0.28,4.0
37,24,1,2,6,2,252,349.2277196877985,349.98302054806845,"[17, 0, 237]",237,a,0.2319586431258358,1,colour,0.28,4.0
37,24,1,2,6,3,253,350.49331625096966,351.14299453853164,"[63, 0, 191]",191,l,0.12631165201310068,1,colour,0.28,4.0
37,24,1,2,6,4,254,351.6497275182046,352.23902304348303,"[75, 0, 179]",179,l,0.06593873584643006,1,colour,0.28,4.0
37,24,1,2,6,5,255,352.7591384873376,353.4870304824435,"[32, 0, 222]",222,a,0.2045974331558682,1,colour,0.28,4.0
37,24,1,2,6,6,256,353.99372959142784,354.71100745978765,"[73, 0, 181]",181,l,0.19396991573739797,1,colour,0.28,4.0
37,24,1,2,6,7,257,355.2281162898871,355.7829775401624,"[50, 0, 204]",204,a,0.031503279344178736,1,colour,0.28,4.0
37,24,1,2,6,8,258,356.2914757338003,357.0149503617431,"[41, 0, 213]",213,a,0.20023717358708382,1,colour,0.28,4.0
37,24,1,2,6,9,259,357.5258577060886,358.16696986177703,"[81, 0, 173]",173,l,0.11771361867431551,1,colour,0.28,4.0
37,24,1,2,6,10,260,358.6822575518745,359.3189972387627,"[28, 0, 226]",226,a,0.11344000499229878,1,colour,0.28,4.0
37,24,1,2,6,11,261,359.83871135441586,360.4310095550609,"[99, 0, 155]",155,l,0.06927736109355465,1,colour,0.28,4.0
37,24,1,2,6,12,262,360.94796124089044,361.5589785074699,"[57, 0, 197]",197,a,0.08770813239971176,0,colour,0.28,4.0
37,24,1,2,6,13,263,362.0731480711838,362.67101957451086,"[98, 0, 156]",156,l,0.07329694466898218,1,colour,0.28,4.0
37,24,1,2,6,14,264,363.183884723112,363.7989503238932,"[72, 0, 182]",182,l,0.09175725432578474,1,colour,0.28,4.0
37,24,1,2,6,15,265,364.30896206444595,364.9829843143234,"[68, 0, 186]",186,l,0.15064222359796986,1,colour,0.28,4.0
37,24,1,2,6,16,266,365.4966017071274,366.07902227155864,"[19, 0, 235]",235,a,0.05924297450110316,1,colour,0.28,4.0
37,24,1,2,6,17,267,366.5903494548402,367.2470035276492,"[76, 0, 178]",178,l,0.13327325880527496,1,colour,0.28,4.0
37,24,1,2,6,18,268,367.76230303308694,368.4149548515561,"[89, 0, 165]",165,l,0.12936119496589527,1,colour,0.28,4.0
37,24,1,2,6,19,269,368.93428496824345,369.47162129112985,"[74, 0, 180]",180,l,0.014864109689369798,1,colour,0.28,4.0
37,24,1,2,6,20,270,369.98109228222165,370.93506950774463,"[69, 0, 185]",185,l,0.43060468224575743,1,colour,0.28,4.0
37,24,1,2,6,21,271,371.4376060673967,371.9749636579072,"[82, 0, 172]",172,l,0.013936604314949363,1,colour,0.28,4.0
37,24,1,2,6,22,272,372.48740857373923,373.1109544482315,"[53, 0, 201]",201,a,0.10023674031253904,0,colour,0.28,4.0
37,24,1,2,6,23,273,373.62808887823485,374.32695960602723,"[56, 0, 198]",198,a,0.1754497415968217,0,colour,0.28,4.0
37,24,1,2,6,24,274,374.84685134590836,375.5189461176633,"[38, 0, 216]",216,a,0.14883841283153743,1,colour,0.28,4.0
37,24,1,2,6,25,275,376.03460362832993,376.5749733464909,"[92, 0, 162]",162,l,0.018765145796351135,1,colour,0.28,4.0
37,24,1,2,6,26,276,377.09550429705996,377.7909103690763,"[58, 0, 196]",196,a,0.16868545120814815,0,colour,0.28,4.0
37,24,1,2,6,27,277,378.3021276696236,379.82322339405073,"[88, 0, 166]",166,l,0.9979677590308711,1,colour,0.28,4.0
37,24,1,2,6,28,278,380.3312848134665,380.9189352475223,"[93, 0, 161]",161,l,0.0646827636519447,1,colour,0.28,4.0
37,24,1,2,6,29,279,381.4250644625863,382.1429425509996,"[67, 0, 187]",187,l,0.19553466251818463,1,colour,0.28,4.0
37,24,1,2,6,30,280,382.6585331080132,383.9271654295153,"[45, 0, 209]",209,a,0.7452743505709805,1,colour,0.28,4.0
37,24,1,2,6,31,281,384.4399332983885,385.4468886036193,"[54, 0, 200]",200,a,0.4838986258255318,0,colour,0.28,4.0
37,24,1,2,6,32,282,385.95569360262016,386.76697088580113,"[6, 0, 248]",248,a,0.28820996987633407,1,colour,0.28,4.0
37,24,1,2,6,33,283,387.28388791321777,387.9909313216922,"[64, 0, 190]",190,l,0.18372364045353606,1,colour,0.28,4.0
37,24,1,2,6,34,284,388.502843365015,389.6234891607892,"[47, 0, 207]",207,a,0.5974607228417881,1,colour,0.28,4.0
37,24,1,2,6,35,285,390.12924264761386,390.8869333601906,"[77, 0, 177]",177,l,0.23438591073499992,1,colour,0.28,4.0
37,24,1,2,6,36,286,391.3948470876203,392.10295427183155,"[52, 0, 202]",202,a,0.18508083082269877,0,colour,0.28,4.0
37,24,1,2,6,37,287,392.6135859246133,393.26288375776494,"[86, 0, 168]",168,l,0.12607416341779754,1,colour,0.28,4.0
37,24,1,2,6,38,288,393.78546703536995,394.4869410795509,"[5, 0, 249]",249,a,0.17801643040729687,1,colour,0.28,4.0
37,24,1,2,6,39,289,395.0042566783377,395.68691161996685,"[85, 0, 169]",169,l,0.15903348824940622,1,colour,0.28,4.0
37,24,1,2,6,40,290,396.20753512409283,396.7668992059771,"[21, 0, 233]",233,a,0.03594545874511823,1,colour,0.28,4.0
37,24,1,2,6,41,291,397.2857464684639,397.8949051797972,"[97, 0, 157]",157,l,0.08566092530963942,1,colour,0.28,4.0
37,24,1,2,6,42,292,398.4108986404026,399.05487523181364,"[71, 0, 183]",183,l,0.12092424428556114,1,colour,0.28,4.0
37,24,1,2,6,43,293,399.56721735408064,400.27085124509176,"[59, 0, 195]",195,a,0.18067527905805036,0,colour,0.28,4.0
37,24,1,2,6,44,294,400.78608694759896,401.9668512356002,"[91, 0, 163]",163,l,0.6573945016716607,1,colour,0.28,4.0
37,24,1,2,6,45,295,402.475031596201,403.03086997632636,"[96, 0, 158]",158,l,0.03252136905211955,1,colour,0.28,4.0
37,24,1,2,6,46,296,403.5375592391938,404.34290994057665,"[43, 0, 211]",211,a,0.2824074493255466,1,colour,0.28,4.0
37,24,1,2,6,47,297,404.85092606779654,405.66291621059645,"[39, 0, 215]",215,a,0.2885675812722184,1,colour,0.28,4.0
37,24,1,2,6,48,298,406.1792267165729,406.87887174391653,"[84, 0, 170]",170,l,0.1770113375969231,1,colour,0.28,4.0
37,24,1,2,6,49,299,407.39794074126985,408.19893748452887,"[51, 0, 203]",203,a,0.2777525935671292,0,colour,0.28,4.0
37,24,1,2,6,50,300,408.7106266115443,409.36689668532927,"[65, 0, 189]",189,l,0.13333784940186888,1,colour,0.28,4.0
37,24,1,2,7,1,301,414.179007344821,415.09482452028897,"[60, 0, 194]",194,a,0.39176643086830154,0,colour,0.14,3.9
37,24,1,2,7,2,302,415.60187651455635,416.53488896915223,"[64, 0, 190]",190,l,0.41038467251928523,1,colour,0.14,3.9
37,24,1,2,7,3,303,417.05630646506324,417.8468072352116,"[62, 0, 192]",192,a,0.2671557960566133,0,colour,0.14,3.9
37,24,1,2,7,4,304,418.35330469551263,418.94283298327355,"[90, 0, 164]",164,l,0.06604980013798922,1,colour,0.14,3.9
37,24,1,2,7,5,305,419.45597224810626,420.0388378574862,"[97, 0, 157]",157,l,0.059311109711416066,1,colour,0.14,3.9
37,24,1,2,7,6,306,420.54987517074915,421.33482548128814,"[71, 0, 183]",183,l,0.26164669019635767,1,colour,0.14,3.9
37,24,1,2,7,7,307,421.84673634311184,422.4068148600636,"[66, 0, 188]",188,l,0.03683318570256233,1,colour,0.14,3.9
37,24,1,2,7,8,308,422.9249650167185,423.4868252890883,"[61, 0, 193]",193,a,0.03848536609439179,0,colour,0.14,3.9
37,24,1,2,7,9,309,424.00339573284145,424.5748221100075,"[87, 0, 167]",167,l,0.048136541387066245,1,colour,0.14,3.9
37,24,1,2,7,10,310,425.08142196998233,425.64685008558445,"[72, 0, 182]",182,l,0.04240885144099593,1,colour,0.14,3.9
37,24,1,2,7,11,311,426.1596912096138,426.71080108493334,"[85, 0, 169]",169,l,0.028099669609218836,1,colour,0.14,3.9
37,24,1,2,7,12,312,427.2221806496964,427.8548176516779,"[7, 0, 247]",247,a,0.10926012648269534,1,colour,0.14,3.9
37,24,1,2,7,13,313,428.36295429541497,429.0307821488823,"[3, 0, 251]",251,a,0.14460694056469947,1,colour,0.14,3.9
37,24,1,2,7,14,314,429.5505021722638,430.15879009192577,"[52, 0, 202]",202,a,0.08497248397907242,0,colour,0.14,3.9
37,24,1,2,7,15,315,430.67565828259103,431.51902134204283,"[43, 0, 211]",211,a,0.31776568497298285,1,colour,0.14,3.9
37,24,1,2,7,16,316,432.03637159918435,433.73487802024465,"[82, 0, 172]",172,l,1.1751055209897459,1,colour,0.14,3.9
37,24,1,2,7,17,317,434.25526324805105,434.9348280807026,"[95, 0, 159]",159,l,0.15626357536530122,1,colour,0.14,3.9
37,24,1,2,7,18,318,435.44287335238187,436.0387563315453,"[91, 0, 163]",163,l,0.07255927269579843,1,colour,0.14,3.9
37,24,1,2,7,19,319,436.55231189070037,437.3028224124573,"[10, 0, 244]",244,a,0.22706944949459285,1,colour,0.14,3.9
37,24,1,2,7,20,320,437.81947832059814,439.00678083184175,"[89, 0, 165]",165,l,0.6648818917456083,1,colour,0.14,3.9
37,24,1,2,7,21,321,439.52279359084787,440.11082329781493,"[78, 0, 176]",176,l,0.0648820492788218,1,colour,0.14,3.9
37,24,1,2,7,22,322,440.63219392619794,441.22280568192946,"[22, 0, 232]",232,a,0.06764054071391001,1,colour,0.14,3.9
37,24,1,2,7,23,323,441.74164939980255,442.3987201608252,"[69, 0, 185]",185,l,0.13382306665880606,1,colour,0.14,3.9
37,24,1,2,7,24,324,442.9135860427632,443.4627983721439,"[56, 0, 198]",198,a,0.025931158219464123,0,colour,0.14,3.9
37,24,1,2,7,25,325,443.9760723320069,444.6228263194207,"[68, 0, 186]",186,a,0.12333260738523677,0,colour,0.14,3.9
37,24,1,2,7,26,326,445.13252613454824,445.9348182345275,"[92, 0, 162]",162,l,0.2789400366600603,1,colour,0.14,3.9
37,24,1,2,7,27,327,446.44512890354963,447.7907512556412,"[99, 0, 155]",155,l,0.8214443955221213,1,colour,0.14,3.9
37,24,1,2,7,28,328,448.30596017674543,449.16673828085186,"[70, 0, 184]",184,l,0.3375481328112073,1,colour,0.14,3.9
37,24,1,2,7,29,329,449.6809291121899,451.0947544158553,"[37, 0, 217]",217,a,0.8906839475384913,1,colour,0.14,3.9
37,24,1,2,7,30,330,451.5929043283104,452.25473037560005,"[86, 0, 168]",168,l,0.13855472224531695,1,colour,0.14,3.9
37,24,1,2,7,31,331,452.7684596204199,453.40673609107034,"[73, 0, 181]",181,l,0.11487557057989761,1,colour,0.14,3.9
37,24,1,2,7,32,332,453.92472398345126,454.454763143498,"[16, 0, 238]",238,a,0.006656376819591969,1,colour,0.14,3.9
37,24,1,2,7,33,333,454.9874146783841,455.582747849694,"[75, 0, 179]",179,l,0.07253564201528206,1,colour,0.14,3.9
37,24,1,2,7,34,334,456.09677838609787,456.74269702791935,"[63, 0, 191]",191,a,0.13036825705785304,0,colour,0.14,3.9
37,24,1,2,7,35,335,457.24892115965486,458.3906971413526,"[77, 0, 177]",177,l,0.6186586500843987,1,colour,0.14,3.9
37,24,1,2,7,36,336,458.909542040783,459.59067437710473,"[79, 0, 175]",175,l,0.15774719003820792,1,colour,0.14,3.9
37,24,1,2,7,37,337,460.0970855852938,460.70278279163176,"[84, 0, 170]",170,l,0.08244754275074229,1,colour,0.14,3.9
37,24,1,2,7,38,338,461.22226375096943,461.9027931104065,"[50, 0, 204]",204,a,0.16469698149012402,1,colour,0.14,3.9
37,24,1,2,7,39,339,462.4181859571254,463.04680770786945,"[81, 0, 173]",173,l,0.10532876424258575,1,colour,0.14,3.9
37,24,1,2,7,40,340,463.5591636147001,464.16671701316955,"[53, 0, 201]",201,a,0.0845695803873241,0,colour,0.14,3.9
37,24,1,2,7,41,341,464.6766129632597,465.32672329898924,"[55, 0, 199]",199,a,0.12672361405566335,0,colour,0.14,3.9
37,24,1,2,7,42,342,465.83292734459974,466.4067849278799,"[94, 0, 160]",160,l,0.050587045901920646,1,colour,0.14,3.9
37,24,1,2,7,43,343,466.9184712979477,467.5186897244421,"[65, 0, 189]",189,a,0.0766824375023134,0,colour,0.14,3.9
37,24,1,2,7,44,344,468.02797639608616,468.75870840845164,"[74, 0, 180]",180,l,0.20739333983510733,1,colour,0.14,3.9
37,24,1,2,7,45,345,469.2780365559156,469.8866769670276,"[67, 0, 187]",187,a,0.0854116213740781,0,colour,0.14,3.9
37,24,1,2,7,46,346,470.4031769124558,471.030750247417,"[96, 0, 158]",158,l,0.10432997293537483,1,colour,0.14,3.9
37,24,1,2,7,47,347,471.5438883306924,472.26267186907353,"[80, 0, 174]",174,l,0.1958087786915712,1,colour,0.14,3.9
37,24,1,2,7,48,348,472.7783159890678,473.55868824361823,"[54, 0, 200]",200,a,0.2570505173644051,0,colour,0.14,3.9
37,24,1,2,7,49,349,474.0752610503696,474.6147182293935,"[98, 0, 156]",156,l,0.016143318673130125,1,colour,0.14,3.9
37,24,1,2,7,50,350,475.122155404184,475.6706997722504,"[57, 0, 197]",197,a,0.025043825153261423,0,colour,0.14,3.9
37,24,1,2,8,1,351,481.54383516160306,482.254674449563,"[88, 0, 166]",166,l,0.1867483711685054,1,colour,0.06,3.9
37,24,1,2,8,2,352,482.764800405188,483.6867206050665,"[55, 0, 199]",199,a,0.41028502967674285,0,colour,0.06,3.9
37,24,1,2,8,3,353,484.20633153332165,485.0546597985085,"[97, 0, 157]",157,l,0.32497777725802734,1,colour,0.06,3.9
37,24,1,2,8,4,354,485.5658629206009,486.53469283424783,"[58, 0, 196]",196,l,0.44558300700737163,1,colour,0.06,3.9
37,24,1,2,8,5,355,487.04584908875404,487.7826289872173,"[83, 0, 171]",171,l,0.21016482810955495,1,colour,0.06,3.9
37,24,1,2,8,6,356,488.30140181299066,488.83863416075474,"[52, 0, 202]",202,a,0.013864136766642332,0,colour,0.06,3.9
37,24,1,2,8,7,357,489.3483666650718,490.1266357865534,"[79, 0, 175]",175,l,0.26038874877849594,1,colour,0.06,3.9
37,24,1,2,8,8,358,490.6434322973946,491.22268634685315,"[95, 0, 159]",159,l,0.05597248440608382,1,colour,0.06,3.9
37,24,1,2,8,9,359,491.7343904399313,492.2626238199882,"[87, 0, 167]",167,l,0.016962910420261323,1,colour,0.06,3.9
37,24,1,2,8,10,360,492.7695277284365,493.478752251307,"[50, 0, 204]",204,a,0.1859858869574964,1,colour,0.06,3.9
37,24,1,2,8,11,361,493.988269716152,494.77464298921404,"[63, 0, 191]",191,a,0.2631070679635741,0,colour,0.06,3.9
37,24,1,2,8,12,362,495.2852636143216,495.8545738615212,"[94, 0, 160]",160,l,0.04589989478699863,1,colour,0.06,3.9
37,24,1,2,8,13,363,496.363389494305,497.11870728991926,"[91, 0, 163]",163,l,0.2317625082214363,1,colour,0.06,3.9
37,24,1,2,8,14,364,497.6293287027511,498.31865380576346,"[74, 0, 180]",180,l,0.16610143322031945,1,colour,0.06,3.9
37,24,1,2,8,15,365,498.8323082200368,499.382623315847,"[85, 0, 169]",169,l,0.0269267987459898,1,colour,0.06,3.9
37,24,1,2,8,16,366,499.8949622873333,500.52658513811184,"[98, 0, 156]",156,l,0.1085870451061055,1,colour,0.06,3.9
37,24,1,2,8,17,367,501.035750111565,501.7106849006377,"[71, 0, 183]",183,l,0.1515023813699372,1,colour,0.06,3.9
37,24,1,2,8,18,368,502.2233031083597,502.7826152026537,"[53, 0, 201]",201,a,0.03606243076501414,0,colour,0.06,3.9
37,24,1,2,8,19,369,503.3015002742759,503.8866568809026,"[6, 0, 248]",248,a,0.06180336175020784,1,colour,0.06,3.9
37,24,1,2,8,20,370,504.39538074779557,505.03063445695443,"[99, 0, 155]",155,l,0.11216197750763968,1,colour,0.06,3.9
37,24,1,2,8,21,371,505.5516722861794,506.1986168946023,"[90, 0, 164]",164,l,0.1233822318026796,1,colour,0.06,3.9
37,24,1,2,8,22,372,506.70945255918195,507.4146240216214,"[69, 0, 185]",185,l,0.1818753251573071,1,colour,0.06,3.9
37,24,1,2,8,23,373,507.92833633115515,509.3426058921614,"[61, 0, 193]",193,a,0.8909935098490678,0,colour,0.06,3.9
37,24,1,2,8,24,374,509.84899898344884,510.5105776959681,"[68, 0, 186]",186,a,0.13803839118918404,0,colour,0.06,3.9
37,24,1,2,8,25,375,511.02101203234633,511.67055483721197,"[76, 0, 178]",178,l,0.12523094093194231,1,colour,0.06,3.9
37,24,1,2,8,26,376,512.1795260388753,513.1985546670621,"[65, 0, 189]",189,a,0.49558322358643636,0,colour,0.06,3.9
37,24,1,2,8,27,377,513.7108223526157,514.4946616259404,"[62, 0, 192]",192,a,0.26046436704928055,0,colour,0.06,3.9
37,24,1,2,8,28,378,515.0076721034129,515.5826273330604,"[60, 0, 194]",194,a,0.05025188362924382,0,colour,0.06,3.9
37,24,1,2,8,29,379,516.1028676258866,516.8145966100274,"[31, 0, 223]",223,a,0.18827767187030986,1,colour,0.06,3.9
37,24,1,2,8,30,380,517.3217915700516,517.9666011439404,"[96, 0, 158]",158,l,0.12168948538601398,1,colour,0.06,3.9
37,24,1,2,8,31,381,518.4780559330829,519.1826641969965,"[80, 0, 174]",174,l,0.1813042497378774,1,colour,0.06,3.9
37,24,1,2,8,32,382,519.696811311529,520.4786262208363,"[75, 0, 179]",179,l,0.25853216275572777,1,colour,0.06,3.9
37,24,1,2,8,33,383,520.993772126676,521.7345416764729,"[59, 0, 195]",195,a,0.21730130218202248,0,colour,0.06,3.9
37,24,1,2,8,34,384,522.2439216893981,522.8865729919053,"[66, 0, 188]",188,a,0.11975649342639372,0,colour,0.06,3.9
37,24,1,2,8,35,385,523.4002758491552,524.0864876062842,"[84, 0, 170]",170,l,0.1630306226434186,1,colour,0.06,3.9
37,24,1,2,8,36,386,524.6033959691413,525.390561658598,"[86, 0, 168]",168,l,0.2636675096000545,1,colour,0.06,3.9
37,24,1,2,8,37,387,525.9092998260166,526.6385340453708,"[72, 0, 182]",182,l,0.20595895586302504,1,colour,0.06,3.9
37,24,1,2,8,38,388,527.151139256137,527.7105348456535,"[51, 0, 203]",203,a,0.03614435053896159,0,colour,0.06,3.9
37,24,1,2,8,39,389,528.2293395728921,528.9665554579115,"[54, 0, 200]",200,a,0.2139047816162929,0,colour,0.06,3.9
37,24,1,2,8,40,390,529.4793934312183,530.2865522756474,"[56, 0, 198]",198,a,0.28391863318393007,0,colour,0.06,3.9
37,24,1,2,8,41,391,530.7932852553204,531.5426489000674,"[82, 0, 172]",172,l,0.22675122262444347,1,colour,0.06,3.9
37,24,1,2,8,42,392,532.0589688582695,532.7666495081503,"[93, 0, 161]",161,l,0.18506468314444646,1,colour,0.06,3.9
37,24,1,2,8,43,393,533.2778467225726,534.0065937554464,"[92, 0, 162]",162,l,0.20531462517101318,1,colour,0.06,3.9
37,24,1,2,8,44,394,534.5122968300711,535.3905726862722,"[67, 0, 187]",187,l,0.3554602100048214,1,colour,0.06,3.9
37,24,1,2,8,45,395,535.9032105862279,536.6305189027917,"[81, 0, 173]",173,l,0.20517835475038737,1,colour,0.06,3.9
37,24,1,2,8,46,396,537.1251576857176,538.0145864487858,"[25, 0, 229]",229,a,0.36662965832510963,1,colour,0.06,3.9
37,24,1,2,8,47,397,538.5337716304348,539.2870083483285,"[77, 0, 177]",177,l,0.22995239595184103,1,colour,0.06,3.9
37,24,1,2,8,48,398,539.7993807966704,540.4785131873214,"[70, 0, 184]",184,l,0.15622379700653255,1,colour,0.06,3.9
37,24,1,2,8,49,399,540.9868660520879,541.6465834524133,"[73, 0, 181]",181,a,0.1366567824734375,0,colour,0.06,3.9
37,24,1,2,8,50,400,542.1477061079931,542.8145623455057,"[78, 0, 176]",176,l,0.1429224649327807,1,colour,0.06,3.9
37,24,1,2,9,1,401,547.3044974358636,547.8866060748696,"[92, 0, 162]",162,l,0.05832807219121605,1,colour,0.06,3.9
37,24,1,2,9,2,402,548.3991116428515,549.166652422573,"[74, 0, 180]",180,l,0.24515324318781495,1,colour,0.06,3.9
37,24,1,2,9,3,403,549.6804659502814,550.4065624053474,"[82, 0, 172]",172,l,0.202896022121422,1,colour,0.06,3.9
37,24,1,2,9,4,404,550.9149396885186,551.7347319037071,"[95, 0, 159]",159,l,0.2968154863337986,1,colour,0.06,3.9
37,24,1,2,9,5,405,552.2431816543685,552.8706872479524,"[87, 0, 167]",167,l,0.1048258239752613,1,colour,0.06,3.9
37,24,1,2,9,6,406,553.384041158366,554.0304899158073,"[91, 0, 163]",163,l,0.12417464831378311,1,colour,0.06,3.9
37,24,1,2,9,7,407,554.5492465939024,555.3345950818621,"[73, 0, 181]",181,a,0.2621157597168349,0,colour,0.06,3.9
37,24,1,2,9,8,408,555.8368791867979,556.3665036279126,"[83, 0, 171]",171,l,0.006096722849179059,1,colour,0.06,3.9
37,24,1,2,9,9,409,556.8841331212316,557.5985658522695,"[72, 0, 182]",182,a,0.18210611841641366,0,colour,0.06,3.9
37,24,1,2,9,10,410,558.1118579290342,558.7984851928195,"[59, 0, 195]",195,a,0.16327204974368215,0,colour,0.06,3.9
37,24,1,2,9,11,411,559.3152683129301,560.1025127713801,"[53, 0, 201]",201,a,0.26401842560153455,0,colour,0.06,3.9
37,24,1,2,9,12,412,560.6121586298104,561.3505158780608,"[69, 0, 185]",185,a,0.2149787973612547,0,colour,0.06,3.9
37,24,1,2,9,13,413,561.869553761615,562.518443571229,"[79, 0, 175]",175,l,0.1255735862068832,1,colour,0.06,3.9
37,24,1,2,9,14,414,563.025754321774,563.6864744518534,"[70, 0, 184]",184,a,0.14350574958370999,0,colour,0.06,3.9
37,24,1,2,9,15,415,564.2070278515457,564.7424997115158,"[68, 0, 186]",186,a,0.012686933681834489,0,colour,0.06,3.9
37,24,1,2,9,16,416,565.25413212477,565.8225656726863,"[93, 0, 161]",161,l,0.046068460505921394,1,colour,0.06,3.9
37,24,1,2,9,17,417,566.332260367868,567.006464968028,"[52, 0, 202]",202,a,0.14377356419572607,0,colour,0.06,3.9
37,24,1,2,9,18,418,567.5271900842199,568.0946086931508,"[55, 0, 199]",199,a,0.04469354712637141,0,colour,0.06,3.9
37,24,1,2,9,19,419,568.6051670907764,569.1746222729562,"[61, 0, 193]",193,a,0.04621654632501304,0,colour,0.06,3.9
37,24,1,2,9,20,420,569.693054422678,570.3506104008993,"[84, 0, 170]",170,l,0.13492701458744705,1,colour,0.06,3.9
37,24,1,2,9,21,421,570.8650619577384,571.5106379542849,"[76, 0, 178]",178,l,0.12195533083286136,1,colour,0.06,3.9
37,24,1,2,9,22,422,572.0278168887598,573.0945314995479,"[56, 0, 198]",198,a,0.5436602943809703,0,colour,0.06,3.9
37,24,1,2,9,23,423,573.6060114947613,574.2464895597659,"[57, 0, 197]",197,a,0.1177277970709838,0,colour,0.06,3.9
37,24,1,2,9,24,424,574.7621990579646,575.4064548856113,"[75, 0, 179]",179,l,0.1213003663579002,1,colour,0.06,3.9
37,24,1,2,9,25,425,575.9187194203841,576.526489433716,"[94, 0, 160]",160,l,0.08451089751906693,1,colour,0.06,3.9
37,24,1,2,9,26,426,577.0435758145759,577.7265450446284,"[99, 0, 155]",155,l,0.15964473591884598,1,colour,0.06,3.9
37,24,1,2,9,27,427,578.2472996992292,578.9983935056371,"[25, 0, 229]",229,a,0.22838686150498688,1,colour,0.06,3.9
37,24,1,2,9,28,428,579.5129659729428,580.0784110238892,"[78, 0, 176]",176,l,0.04221311042783782,1,colour,0.06,3.9
37,24,1,2,9,29,429,580.5911083944375,581.9824258419103,"[77, 0, 177]",177,a,0.8689393632230349,0,colour,0.06,3.9
37,24,1,2,9,30,430,582.5020997853717,583.1584242098033,"[12, 0, 242]",242,a,0.13358439650619403,1,colour,0.06,3.9
37,24,1,2,9,31,431,583.674132526503,584.214481370931,"[6, 0, 248]",248,a,0.017855363548733294,1,colour,0.06,3.9
37,24,1,2,9,32,432,584.7211288862163,585.246403307654,"[89, 0, 165]",165,l,0.0019381119636818767,1,colour,0.06,3.9
37,24,1,2,9,33,433,585.7680590798846,586.6864630303462,"[85, 0, 169]",169,l,0.3953685386222787,1,colour,0.06,3.9
37,24,1,2,9,34,434,587.190231537621,587.8064574062009,"[80, 0, 174]",174,l,0.09288562065921724,1,colour,0.06,3.9
37,24,1,2,9,35,435,588.3152206576196,589.3263495399151,"[63, 0, 191]",191,a,0.4876019517541863,0,colour,0.06,3.9
37,24,1,2,9,36,436,589.8466272479855,590.6223745790194,"[67, 0, 187]",187,a,0.2524886089959182,0,colour,0.06,3.9
37,24,1,2,9,37,437,591.1436353246099,591.7103631291538,"[62, 0, 192]",192,a,0.04650365939596668,0,colour,0.06,3.9
37,24,1,2,9,38,438,592.2214177715941,592.7983843684196,"[96, 0, 158]",158,l,0.05363146885065362,1,colour,0.06,3.9
37,24,1,2,9,39,439,593.3170087145991,594.0866853165207,"[90, 0, 164]",164,l,0.24673571297898889,1,colour,0.06,3.9
37,24,1,2,9,40,440,594.6078791084583,595.3583959317184,"[98, 0, 156]",156,l,0.22743021161295474,1,colour,0.06,3.9
37,24,1,2,9,41,441,595.8771553667611,596.6224462588434,"[54, 0, 200]",200,a,0.22080691781593487,0,colour,0.06,3.9
37,24,1,2,9,42,442,597.1417082403204,597.9343822479714,"[60, 0, 194]",194,a,0.26744605996645987,0,colour,0.06,3.9
37,24,1,2,9,43,443,598.4404724724009,599.214373457362,"[71, 0, 183]",183,a,0.2506020907894708,0,colour,0.06,3.9
37,24,1,2,9,44,444,599.7218996411539,600.430446356535,"[50, 0, 204]",204,a,0.18524270120542496,1,colour,0.06,3.9
37,24,1,2,9,45,445,600.9407200040296,601.710369036824,"[66, 0, 188]",188,a,0.24620992969721556,0,colour,0.06,3.9
37,24,1,2,9,46,446,602.2228690909687,603.0064775710925,"[88, 0, 166]",166,l,0.26025641680462286,1,colour,0.06,3.9
37,24,1,2,9,47,447,603.5073048428167,604.2703282186994,"[51, 0, 203]",203,a,0.23992809961782768,0,colour,0.06,3.9
37,24,1,2,9,48,448,604.7888084175647,605.5663934299955,"[64, 0, 190]",190,a,0.25842109840596095,0,colour,0.06,3.9
37,24,1,2,9,49,449,606.0815696619684,606.6463983451831,"[97, 0, 157]",157,l,0.04198861861368641,1,colour,0.06,3.9
37,24,1,2,9,50,450,607.1600641810219,607.9263359916513,"[81, 0, 173]",173,l,0.24343844142276794,1,colour,0.06,3.9
37,24,1,2,10,1,451,615.1607112685451,615.8143126476789,"[66, 0, 188]",188,a,0.12946950242621824,0,colour,0.06,3.8
37,24,1,2,10,2,452,616.3334741985891,616.9103167341673,"[57, 0, 197]",197,a,0.05356963514350355,0,colour,0.06,3.8
37,24,1,2,10,3,453,617.4270139960572,618.5423243716359,"[96, 0, 158]",158,l,0.5922706314595416,1,colour,0.06,3.8
37,24,1,2,10,4,454,619.0521368265036,620.1263199227396,"[84, 0, 170]",170,l,0.5507053963374346,1,colour,0.06,3.8
37,24,1,2,10,5,455,620.6473935918766,621.1982856708346,"[56, 0, 198]",198,a,0.027884630137123168,0,colour,0.06,3.8
37,24,1,2,10,6,456,621.7099436840508,622.286309273215,"[82, 0, 172]",172,l,0.052985562826506793,1,colour,0.06,3.8
37,24,1,2,10,7,457,622.8036851302604,624.3423168098088,"[59, 0, 195]",195,a,1.0155249817762524,0,colour,0.06,3.8
37,24,1,2,10,8,458,624.8508461171878,625.3822897290229,"[63, 0, 191]",191,a,0.008227818936575204,0,colour,0.06,3.8
37,24,1,2,10,9,459,625.8977085695369,626.4462946851854,"[67, 0, 187]",187,a,0.02375004382338375,0,colour,0.06,3.8
37,24,1,2,10,10,460,626.9618171069887,627.5423290978069,"[54, 0, 200]",200,a,0.057159927557222545,0,colour,0.06,3.8
37,24,1,2,10,11,461,628.0556692236569,628.7662958352012,"[18, 0, 236]",236,a,0.18729817896382883,1,colour,0.06,3.8
37,24,1,2,10,12,462,629.2745407863986,629.8142527831951,"[80, 0, 174]",174,l,0.01635087508475408,1,colour,0.06,3.8
37,24,1,2,10,13,463,630.3215603829594,630.9503022564459,"[97, 0, 157]",157,l,0.10584785212995484,1,colour,0.06,3.8
37,24,1,2,10,14,464,631.4621654630173,632.0302827532287,"[85, 0, 169]",169,l,0.04469118406996131,1,colour,0.06,3.8
37,24,1,2,10,15,465,632.5418324590428,633.1982423478621,"[75, 0, 179]",179,l,0.13317007140722126,1,colour,0.06,3.8
37,24,1,2,10,16,466,633.7136863945052,634.2385587000754,"[95, 0, 159]",159,l,0.0017955400398932397,1,colour,0.06,3.8
37,24,1,2,10,17,467,634.760736317141,635.5022600803641,"[76, 0, 178]",178,l,0.21867976017529145,1,colour,0.06,3.8
37,24,1,2,10,18,468,636.0108138061478,636.5343454628601,"[69, 0, 185]",185,a,0.0008621270535513759,0,colour,0.06,3.8
37,24,1,2,10,19,469,637.0577617228846,637.6223229853204,"[87, 0, 167]",167,l,0.03939869301393628,1,colour,0.06,3.8
37,24,1,2,10,20,470,638.1382305876468,639.0784641929786,"[44, 0, 210]",210,a,0.4169614925631322,1,colour,0.06,3.8
37,24,1,2,10,21,471,639.5915231133695,641.5343643674278,"[83, 0, 171]",171,l,1.4196089196484536,1,colour,0.06,3.8
37,24,1,2,10,22,472,642.0460282883141,643.0302591225482,"[98, 0, 156]",156,l,0.457537388720084,1,colour,0.06,3.8
37,24,1,2,10,23,473,643.5496778543456,644.822292344179,"[90, 0, 164]",164,l,0.7493254417786375,1,colour,0.06,3.8
37,24,1,2,10,24,474,645.3309878542204,646.1262486368068,"[65, 0, 189]",189,a,0.272543991508428,0,colour,0.06,3.8
37,24,1,2,10,25,475,646.6412472445518,647.39825896814,"[77, 0, 177]",177,l,0.23362421424826607,1,colour,0.06,3.8
37,24,1,2,10,26,476,647.909751172585,648.7022518884041,"[70, 0, 184]",184,a,0.26916913251625374,0,colour,0.06,3.8
37,24,1,2,10,27,477,649.2221857696422,649.9022507856134,"[50, 0, 204]",204,a,0.1569209028966725,1,colour,0.06,3.8
37,24,1,2,10,28,478,650.4099270244478,651.0542332642362,"[92, 0, 162]",162,l,0.12094196729594842,1,colour,0.06,3.8
37,24,1,2,10,29,479,651.56628315337,652.3742245681351,"[89, 0, 165]",165,l,0.28733523981645703,1,colour,0.06,3.8
37,24,1,2,10,30,480,652.8932262179442,653.534304502944,"[64, 0, 190]",190,a,0.11561048560542986,0,colour,0.06,3.8
37,24,1,2,10,31,481,654.0515854433179,654.6542319251457,"[91, 0, 163]",163,l,0.07901754538761452,1,colour,0.06,3.8
37,24,1,2,10,32,482,655.1611303198151,655.9261902689468,"[79, 0, 175]",175,l,0.24179216870106757,1,colour,0.06,3.8
37,24,1,2,10,33,483,656.4424003443564,657.0782184335985,"[81, 0, 173]",173,l,0.11613981344271451,1,colour,0.06,3.8
37,24,1,2,10,34,484,657.5954690478975,658.3262014541542,"[62, 0, 192]",192,a,0.20734489691676572,0,colour,0.06,3.8
37,24,1,2,10,35,485,658.8455658353632,659.5822425463703,"[53, 0, 201]",201,a,0.223866700718645,0,colour,0.06,3.8
37,24,1,2,10,36,486,660.1012351377285,661.1181917466456,"[93, 0, 161]",161,l,0.4940952766337432,1,colour,0.06,3.8
37,24,1,2,10,37,487,661.6276103563723,662.2863624423044,"[94, 0, 160]",160,l,0.13557764678262174,1,colour,0.06,3.8
37,24,1,2,10,38,488,662.7994954055757,663.5662591288565,"[86, 0, 168]",168,l,0.2438661572523415,1,colour,0.06,3.8
37,24,1,2,10,39,489,664.0808835836942,664.8461715691956,"[51, 0, 203]",203,a,0.24266256648115814,0,colour,0.06,3.8
37,24,1,2,10,40,490,665.3648542044102,666.142218269757,"[68, 0, 186]",186,a,0.2543321981211193,0,colour,0.06,3.8
37,24,1,2,10,41,491,666.6604909122107,667.3422246500268,"[99, 0, 155]",155,l,0.15831669006729499,1,colour,0.06,3.8
37,24,1,2,10,42,492,667.8481896317098,668.5821712603793,"[78, 0, 176]",176,l,0.21062562690349296,1,colour,0.06,3.8
37,24,1,2,10,43,493,669.1003139339737,670.1822160012089,"[52, 0, 202]",202,a,0.5586535852053203,0,colour,0.06,3.8
37,24,1,2,10,44,494,670.6940796016133,671.5581510388292,"[71, 0, 183]",183,a,0.3413601599750109,0,colour,0.06,3.8
37,24,1,2,10,45,495,672.0685928582097,672.8462542766356,"[58, 0, 196]",196,a,0.2542833613115363,0,colour,0.06,3.8
37,24,1,2,10,46,496,673.3655044427724,674.1661983191152,"[72, 0, 182]",182,a,0.2773422069149092,0,colour,0.06,3.8
37,24,1,2,10,47,497,674.6746260144864,675.4861813522875,"[55, 0, 199]",199,a,0.288193428365048,0,colour,0.06,3.8
37,24,1,2,10,48,498,676.0030263061053,676.7901979032322,"[61, 0, 193]",193,a,0.2638805798487738,0,colour,0.06,3.8
37,24,1,2,10,49,499,677.2998622723389,678.0541911228211,"[3, 0, 251]",251,a,0.23099096561782062,1,colour,0.06,3.8
37,24,1,2,10,50,500,678.5655895920936,679.3822097784723,"[60, 0, 194]",194,a,0.29324567393632606,0,colour,0.06,3.8
37,24,1,2,11,1,501,683.8636342691025,684.5501697669388,"[95, 0, 159]",159,l,0.16256982379127294,1,colour,0.06,3.8
37,24,1,2,11,2,502,685.0676090330817,685.6622198923724,"[59, 0, 195]",195,a,0.07129384821746498,0,colour,0.06,3.8
37,24,1,2,11,3,503,686.1775225485908,686.8862098666723,"[86, 0, 168]",168,l,0.18539630074519664,1,colour,0.06,3.8
37,24,1,2,11,4,504,687.3964090775116,687.9581657686504,"[99, 0, 155]",155,l,0.03854404902085662,1,colour,0.06,3.8
37,24,1,2,11,5,505,688.4745841881377,689.2941519115702,"[65, 0, 189]",189,a,0.2960451251710765,0,colour,0.06,3.8
37,24,1,2,11,6,506,689.8028419077746,690.4141742505017,"[79, 0, 175]",175,l,0.08832134929252788,1,colour,0.06,3.8
37,24,1,2,11,7,507,690.9279196429998,692.4942768392502,"[67, 0, 187]",187,a,1.0431288003455848,0,colour,0.06,3.8
37,24,1,2,11,8,508,693.0074952669675,694.5901060585747,"[84, 0, 170]",170,l,1.0594670724240132,1,colour,0.06,3.8
37,24,1,2,11,9,509,695.1014080357854,695.886177965207,"[64, 0, 190]",190,a,0.2614170784363523,0,colour,0.06,3.8
37,24,1,2,11,10,510,696.3983558540349,697.0781778675737,"[92, 0, 162]",162,l,0.15653887315420434,1,colour,0.06,3.8
37,24,1,2,11,11,511,697.5860014044447,698.3581395385554,"[91, 0, 163]",163,l,0.24910232849651948,1,colour,0.06,3.8
37,24,1,2,11,12,512,698.867199749162,699.5581124419696,"[90, 0, 164]",164,l,0.16749367583543062,1,colour,0.06,3.8
37,24,1,2,11,13,513,700.0704352658358,700.9101422607782,"[31, 0, 223]",223,a,0.31627222418319434,1,colour,0.06,3.8
37,24,1,2,11,14,514,701.4299725607852,702.150125498767,"[82, 0, 172]",172,l,0.19713879382470623,1,colour,0.06,3.8
37,24,1,2,11,15,515,702.6644462990225,703.4460544396425,"[48, 0, 206]",206,a,0.2583139725611545,1,colour,0.06,3.8
37,24,1,2,11,16,516,703.9613807265414,704.7340883607394,"[81, 0, 173]",173,l,0.24803067580796778,1,colour,0.06,3.8
37,24,1,2,11,17,517,705.2441422426491,705.9181310157292,"[58, 0, 196]",196,a,0.1506512820487842,0,colour,0.06,3.8
37,24,1,2,11,18,518,706.4317228086293,707.182068703114,"[60, 0, 194]",194,a,0.22723131981911138,0,colour,0.06,3.8
37,24,1,2,11,19,519,707.6974288607016,708.5660980461398,"[62, 0, 192]",192,a,0.3455234969733283,0,colour,0.06,3.8
37,24,1,2,11,20,520,709.0726088971714,709.7500930458773,"[80, 0, 174]",174,l,0.1545105705736205,1,colour,0.06,3.8
37,24,1,2,11,21,521,710.2604872100637,710.9901133052772,"[66, 0, 188]",188,a,0.20654420967912301,0,colour,0.06,3.8
37,24,1,2,11,22,522,711.5103563549928,712.2541151894839,"[85, 0, 169]",169,l,0.21957378869410604,1,colour,0.06,3.8
37,24,1,2,11,23,523,712.761724474607,713.5020509485621,"[73, 0, 181]",181,a,0.21703191206324846,0,colour,0.06,3.8
37,24,1,2,11,24,524,714.0118448927533,714.7261196919135,"[71, 0, 183]",183,a,0.19135911628836766,0,colour,0.06,3.8
37,24,1,2,11,25,525,715.246198902023,715.9980532234185,"[50, 0, 204]",204,a,0.2284569658804685,1,colour,0.06,3.8
37,24,1,2,11,26,526,716.5133440642967,717.1820537369931,"[69, 0, 185]",185,a,0.14552263054065406,0,colour,0.06,3.8
37,24,1,2,11,27,527,717.7009718916379,718.3900575368316,"[93, 0, 161]",161,l,0.16573043109383434,1,colour,0.06,3.8
37,24,1,2,11,28,528,718.9041144608636,719.662084409676,"[9, 0, 245]",245,a,0.23477699898649007,1,colour,0.06,3.8
37,24,1,2,11,29,529,720.1698839220335,720.8300818134448,"[53, 0, 201]",201,a,0.13720343954628333,0,colour,0.06,3.8
37,24,1,2,11,30,530,721.3418119003181,722.0780790123972,"[96, 0, 158]",158,l,0.21279965213034302,1,colour,0.06,3.8
37,24,1,2,11,31,531,722.5919476784766,723.2381002642796,"[74, 0, 180]",180,l,0.12277177185751498,1,colour,0.06,3.8
37,24,1,2,11,32,532,723.7482340967981,724.3180870626238,"[70, 0, 184]",184,a,0.04641701350919902,0,colour,0.06,3.8
37,24,1,2,11,33,533,724.8264726165216,725.4620595186716,"[52, 0, 202]",202,a,0.11220805736957118,0,colour,0.06,3.8
37,24,1,2,11,34,534,725.982879551535,726.6460592445219,"[61, 0, 193]",193,a,0.13983235583873466,0,colour,0.06,3.8
37,24,1,2,11,35,535,727.1562245846726,727.7740159877576,"[98, 0, 156]",156,l,0.09140909521374851,1,colour,0.06,3.8
37,24,1,2,11,36,536,728.2843002690934,728.9659906839952,"[77, 0, 177]",177,l,0.15075762022752315,1,colour,0.06,3.8
37,24,1,2,11,37,537,729.4795293078059,730.1260202066042,"[97, 0, 157]",157,l,0.12324989988701418,1,colour,0.06,3.8
37,24,1,2,11,38,538,730.6359516027151,731.342035998241,"[55, 0, 199]",199,a,0.18287332879845053,0,colour,0.06,3.8
37,24,1,2,11,39,539,731.8485874152975,732.5020418901695,"[89, 0, 165]",165,l,0.13018314982764423,1,colour,0.06,3.8
37,24,1,2,11,40,540,733.0205142120831,733.693996106449,"[75, 0, 179]",179,l,0.15034447668585926,1,colour,0.06,3.8
37,24,1,2,11,41,541,734.1997681039502,734.7980350278085,"[88, 0, 166]",166,l,0.07488729141186923,1,colour,0.06,3.8
37,24,1,2,11,42,542,735.3092149129952,736.1100868073991,"[78, 0, 176]",176,l,0.2777671658550389,1,colour,0.06,3.8
37,24,1,2,11,43,543,736.6218854233739,737.1900196489296,"[94, 0, 160]",160,l,0.0449975955998525,1,colour,0.06,3.8
37,24,1,2,11,44,544,737.7000853462378,738.2779731468181,"[76, 0, 178]",178,a,0.05447981128236279,0,colour,0.06,3.8
37,24,1,2,11,45,545,738.7939331306261,739.326052186836,"[57, 0, 197]",197,a,0.00894067867193371,0,colour,0.06,3.8
37,24,1,2,11,46,546,739.8409015272628,740.5500492503052,"[83, 0, 171]",171,l,0.1838953568949364,1,colour,0.06,3.8
37,24,1,2,11,47,547,741.0620822041528,741.6059811686864,"[63, 0, 191]",191,a,0.01722796820104122,0,colour,0.06,3.8
37,24,1,2,11,48,548,742.1227662580204,743.1499904098455,"[68, 0, 186]",186,a,0.5042403337429278,0,colour,0.06,3.8
37,24,1,2,11,49,549,743.6697383962455,744.2139977290644,"[51, 0, 203]",203,a,0.020987613941542804,0,colour,0.06,3.8
37,24,1,2,11,50,550,744.7323680451373,745.38203924353,"[72, 0, 182]",182,a,0.11743595782900229,0,colour,0.06,3.8
37,24,1,2,12,1,551,750.2206462289905,751.3419379307888,"[76, 0, 178]",178,a,0.5972819171147421,0,colour,0.06,3.7
37,24,1,2,12,2,552,751.8621415959788,752.4379652541829,"[97, 0, 157]",157,l,0.052427484246436507,1,colour,0.06,3.7
37,24,1,2,12,3,553,752.9559881988098,753.797955471091,"[95, 0, 159]",159,l,0.3185876398347318,1,colour,0.06,3.7
37,24,1,2,12,4,554,754.3154573585489,755.5579832607764,"[69, 0, 185]",185,a,0.7191112175351009,0,colour,0.06,3.7
37,24,1,2,12,5,555,756.0669776992872,757.9820000953041,"[56, 0, 198]",198,a,1.391767612483818,0,colour,0.06,3.7
37,24,1,2,12,6,556,758.4889831666369,759.0379930596682,"[90, 0, 164]",164,l,0.026210394455119967,1,colour,0.06,3.7
37,24,1,2,12,7,557,759.5536399364937,760.2619511324447,"[78, 0, 176]",176,l,0.18697089364286512,1,colour,0.06,3.7
37,24,1,2,12,8,558,760.7703299910063,761.4939609754365,"[50, 0, 204]",204,a,0.20018676132895052,1,colour,0.06,3.7
37,24,1,2,12,9,559,762.0047387447557,762.557950571645,"[86, 0, 168]",168,l,0.03016381204361096,1,colour,0.06,3.7
37,24,1,2,12,10,560,763.067498362565,765.2139370769146,"[59, 0, 195]",195,a,1.6230705034104176,0,colour,0.06,3.7
37,24,1,2,12,11,561,765.7246360772406,766.485932836018,"[60, 0, 194]",194,a,0.23793681856477633,0,colour,0.06,3.7
37,24,1,2,12,12,562,767.0058781387634,767.7420330049936,"[85, 0, 169]",169,l,0.21163899049861357,1,colour,0.06,3.7
37,24,1,2,12,13,563,768.2575380976195,768.9979342821753,"[74, 0, 180]",180,a,0.21712604106869549,0,colour,0.06,3.7
37,24,1,2,12,14,564,769.507429297897,770.2859059757902,"[64, 0, 190]",190,a,0.25527545728255063,0,colour,0.06,3.7
37,24,1,2,12,15,565,770.8047997120302,771.5499669366982,"[94, 0, 160]",160,l,0.2224587043747306,1,colour,0.06,3.7
37,24,1,2,12,16,566,772.0703104169224,772.9259240296087,"[91, 0, 163]",163,l,0.3324521704344079,1,colour,0.06,3.7
37,24,1,2,12,17,567,773.4470252679312,774.2699142874917,"[55, 0, 199]",199,a,0.2998941738042049,0,colour,0.06,3.7
37,24,1,2,12,18,568,774.7908961906796,775.5338925409014,"[65, 0, 189]",189,a,0.2198731109383516,0,colour,0.06,3.7
37,24,1,2,12,19,569,776.0409083014238,776.8218996805372,"[79, 0, 175]",175,l,0.2577043002820574,1,colour,0.06,3.7
37,24,1,2,12,20,570,777.3377462368808,778.21390832623,"[92, 0, 162]",162,l,0.3528482289984822,1,colour,0.06,3.7
37,24,1,2,12,21,571,778.7286521162023,779.509901070036,"[82, 0, 172]",172,l,0.25804970250464976,1,colour,0.06,3.7
37,24,1,2,12,22,572,780.0255050177802,780.8619415226276,"[96, 0, 158]",158,l,0.31365157855907455,1,colour,0.06,3.7
37,24,1,2,12,23,573,781.3694602234173,782.1018810438109,"[67, 0, 187]",187,a,0.20955003588460386,0,colour,0.06,3.7
37,24,1,2,12,24,574,782.6115395051893,783.3818478347384,"[51, 0, 203]",203,a,0.2472453485825099,0,colour,0.06,3.7
37,24,1,2,12,25,575,783.8929426494287,784.6379070438561,"[71, 0, 183]",183,a,0.22196403483394533,0,colour,0.06,3.7
37,24,1,2,12,26,576,785.1585557541111,785.9018963249982,"[36, 0, 218]",218,a,0.22003616287838668,1,colour,0.06,3.7
37,24,1,2,12,27,577,786.408771482762,787.2539174791891,"[99, 0, 155]",155,l,0.3219093297375366,1,colour,0.06,3.7
37,24,1,2,12,28,578,787.7681772334618,788.645860352728,"[63, 0, 191]",191,a,0.3523846732568927,0,colour,0.06,3.7
37,24,1,2,12,29,579,789.1608762897085,789.6860132591682,"[93, 0, 161]",161,l,0.0024686213582754135,1,colour,0.06,3.7
37,24,1,2,12,30,580,790.2078612278565,790.9099146182998,"[53, 0, 201]",201,a,0.1792054489487782,0,colour,0.06,3.7
37,24,1,2,12,31,581,791.4266709569492,792.1578606173862,"[89, 0, 165]",165,l,0.20952679897891358,1,colour,0.06,3.7
37,24,1,2,12,32,582,792.675263649784,793.4540845482843,"[54, 0, 200]",200,a,0.25586268038023263,0,colour,0.06,3.7
37,24,1,2,12,33,583,793.9723122924333,794.6778831138508,"[87, 0, 167]",167,l,0.1802243263227865,1,colour,0.06,3.7
37,24,1,2,12,34,584,795.1936587780947,795.9258811005275,"[77, 0, 177]",177,a,0.2096110818674788,0,colour,0.06,3.7
37,24,1,2,12,35,585,796.4436921564629,797.021890700853,"[84, 0, 170]",170,l,0.05488507793052122,1,colour,0.06,3.7
37,24,1,2,12,36,586,797.5364545035991,798.4458819354768,"[75, 0, 179]",179,a,0.3859355535823852,0,colour,0.06,3.7
37,24,1,2,12,37,587,798.9583654481103,799.4939042617334,"[4, 0, 250]",250,a,0.012797210307326168,1,colour,0.06,3.7
37,24,1,2,12,38,588,800.0053503863164,801.0938875626889,"[83, 0, 171]",171,l,0.5644202658440918,1,colour,0.06,3.7
37,24,1,2,12,39,589,801.6004760012147,802.373886648973,"[57, 0, 197]",197,a,0.25001998763764277,0,colour,0.06,3.7
37,24,1,2,12,40,590,802.8817980133463,803.733861505927,"[52, 0, 202]",202,a,0.3337561917724088,0,colour,0.06,3.7
37,24,1,2,12,41,591,804.251910444349,805.0378252816154,"[80, 0, 174]",174,l,0.2625600170576945,1,colour,0.06,3.7
37,24,1,2,12,42,592,805.5489055240178,806.341841044894,"[66, 0, 188]",188,a,0.26966498349793255,0,colour,0.06,3.7
37,24,1,2,12,43,593,806.8615547667141,807.4458118310431,"[98, 0, 156]",156,l,0.06097707466688007,1,colour,0.06,3.7
37,24,1,2,12,44,594,807.9553281143308,808.6858293334953,"[61, 0, 193]",193,a,0.20716687885578722,0,colour,0.06,3.7
37,24,1,2,12,45,595,809.205468224769,809.9659016749938,"[88, 0, 166]",166,l,0.2377883389708586,1,colour,0.06,3.7
37,24,1,2,12,46,596,810.486721313966,811.2698985336465,"[73, 0, 181]",181,a,0.25969321822049096,0,colour,0.06,3.7
37,24,1,2,12,47,597,811.7837408120977,812.581867211964,"[49, 0, 205]",205,a,0.2751528217922896,1,colour,0.06,3.7
37,24,1,2,12,48,598,813.0963097103522,813.8938504625112,"[81, 0, 173]",173,l,0.274262337887194,1,colour,0.06,3.7
37,24,1,2,12,49,599,814.408946349984,815.1818394852453,"[62, 0, 192]",192,a,0.2495457980548963,0,colour,0.06,3.7
37,24,1,2,12,50,600,815.6914636821602,816.5178315358935,"[70, 0, 184]",184,a,0.3030130335246213,0,colour,0.06,3.7
37,24,1,2,13,1,601,824.5043750287732,825.3978517322685,"[78, 0, 176]",176,l,0.36926448240410537,1,colour,0.06,3.6
37,24,1,2,13,2,602,825.9115703433054,826.9019967555068,"[67, 0, 187]",187,a,0.46709404117427766,0,colour,0.06,3.6
37,24,1,2,13,3,603,827.4129332444281,828.2138118341682,"[63, 0, 191]",191,a,0.2776297138771042,0,colour,0.06,3.6
37,24,1,2,13,4,604,828.7254505489836,829.4457405450521,"[69, 0, 185]",185,a,0.19682726229075342,0,colour,0.06,3.6
37,24,1,2,13,5,605,829.9600377146271,830.6938086361624,"[64, 0, 190]",190,a,0.20922156900633126,0,colour,0.06,3.6
37,24,1,2,13,6,606,831.2112841360504,831.8137919844012,"[56, 0, 198]",198,a,0.07947755657369271,0,colour,0.06,3.6
37,24,1,2,13,7,607,832.3208644585684,833.1737495121197,"[93, 0, 161]",161,l,0.3295487440773286,1,colour,0.06,3.6
37,24,1,2,13,8,608,833.6803158952971,834.5417595977196,"[62, 0, 192]",192,a,0.3388434895314276,0,colour,0.06,3.6
37,24,1,2,13,9,609,835.0553864428075,836.4298087212374,"[59, 0, 195]",195,a,0.851077304338105,0,colour,0.06,3.6
37,24,1,2,13,10,610,836.9483208215097,837.5177228346001,"[96, 0, 158]",158,l,0.046112965035717934,1,colour,0.06,3.6
37,24,1,2,13,11,611,838.0265711565735,839.2697520232759,"[81, 0, 173]",173,l,0.7198461325606331,1,colour,0.06,3.6
37,24,1,2,13,12,612,839.7766768055153,840.4458610616857,"[89, 0, 165]",165,l,0.1458920573350042,1,colour,0.06,3.6
37,24,1,2,13,13,613,840.96421365469,841.5017248447984,"[84, 0, 170]",170,l,0.014382830879185349,1,colour,0.06,3.6
37,24,1,2,13,14,614,842.011132426851,842.6297721723677,"[68, 0, 186]",186,a,0.09545309713575989,0,colour,0.06,3.6
37,24,1,2,13,15,615,843.1364224446006,843.781711328018,"[73, 0, 181]",181,a,0.1218682910548523,0,colour,0.06,3.6
37,24,1,2,13,16,616,844.2925938601838,845.0217591566034,"[54, 0, 200]",200,a,0.20587230991804972,0,colour,0.06,3.6
37,24,1,2,13,17,617,845.5426997060422,846.1177356739645,"[83, 0, 171]",171,l,0.051696113776415586,1,colour,0.06,3.6
37,24,1,2,13,18,618,846.6365518227103,847.6217014976428,"[61, 0, 193]",193,a,0.4617609840352088,0,colour,0.06,3.6
37,24,1,2,13,19,619,848.1394353599753,848.6937491655117,"[87, 0, 167]",167,l,0.026751143799629062,1,colour,0.06,3.6
37,24,1,2,13,20,620,849.206179902947,849.9017183069955,"[47, 0, 207]",207,a,0.1722154853050597,1,colour,0.06,3.6
37,24,1,2,13,21,621,850.4110420000507,851.1017506810604,"[52, 0, 202]",202,a,0.16732983628753573,0,colour,0.06,3.6
37,24,1,2,13,22,622,851.6141975661158,852.149690299877,"[82, 0, 172]",172,l,0.020867097366135567,1,colour,0.06,3.6
37,24,1,2,13,23,623,852.6685186577961,853.4217006312101,"[71, 0, 183]",183,l,0.22980076557723805,1,colour,0.06,3.6
37,24,1,2,13,24,624,853.9341581501067,854.6216936207493,"[70, 0, 184]",184,l,0.17129428149200976,1,colour,0.06,3.6
37,24,1,2,13,25,625,855.1307372899028,855.7739553356078,"[94, 0, 160]",160,l,0.1202901536016725,1,colour,0.06,3.6
37,24,1,2,13,26,626,856.2869268223876,856.9176863645553,"[95, 0, 159]",159,l,0.1166648090002127,1,colour,0.06,3.6
37,24,1,2,13,27,627,857.4367919894867,858.2296893073944,"[65, 0, 189]",189,a,0.269647654320579,0,colour,0.06,3.6
37,24,1,2,13,28,628,858.7385057279025,859.373682243342,"[53, 0, 201]",201,a,0.11190164583967999,0,colour,0.06,3.6
37,24,1,2,13,29,629,859.8947740293806,860.4217215050012,"[60, 0, 194]",194,a,0.0035619355039671063,0,colour,0.06,3.6
37,24,1,2,13,30,630,860.9417542414158,861.5656459119637,"[75, 0, 179]",179,l,0.10097598767606542,1,colour,0.06,3.6
37,24,1,2,13,31,631,862.0761901310761,862.6697017686092,"[74, 0, 180]",180,l,0.07020683563314378,1,colour,0.06,3.6
37,24,1,2,13,32,632,863.1772519769729,863.9256774825626,"[98, 0, 156]",156,l,0.22510376834543422,1,colour,0.06,3.6
37,24,1,2,13,33,633,864.4428473585867,865.1096657869639,"[55, 0, 199]",199,a,0.1434183159726672,0,colour,0.06,3.6
37,24,1,2,13,34,634,865.6305062997271,866.2137200682773,"[90, 0, 164]",164,l,0.06044971605297178,1,colour,0.06,3.6
37,24,1,2,13,35,635,866.7343900460983,867.381676118297,"[80, 0, 174]",174,l,0.12169381772400811,1,colour,0.06,3.6
37,24,1,2,13,36,636,867.893492063391,868.5497325988254,"[72, 0, 182]",182,a,0.13292431202717125,0,colour,0.06,3.6
37,24,1,2,13,37,637,869.0654751800466,870.4296700877021,"[99, 0, 155]",155,l,0.8409097979892977,1,colour,0.06,3.6
37,24,1,2,13,38,638,870.9404793646536,871.6776818589424,"[76, 0, 178]",178,l,0.213854763249401,1,colour,0.06,3.6
37,24,1,2,13,39,639,872.1916375647997,872.9816562684719,"[51, 0, 203]",203,a,0.2666812126408331,0,colour,0.06,3.6
37,24,1,2,13,40,640,873.4886239799089,874.0536787302699,"[77, 0, 177]",177,l,0.04176924692001194,1,colour,0.06,3.6
37,24,1,2,13,41,641,874.5667289861012,875.5976395285106,"[88, 0, 166]",166,l,0.5075785652152263,1,colour,0.06,3.6
37,24,1,2,13,42,642,876.1137755610398,876.8936728383414,"[92, 0, 162]",162,l,0.2567834903020412,1,colour,0.06,3.6
37,24,1,2,13,43,643,877.4083118654671,878.2057206794852,"[57, 0, 197]",197,a,0.2741028306190856,0,colour,0.06,3.6
37,24,1,2,13,44,644,878.7243229703163,879.4136705225101,"[31, 0, 223]",223,a,0.16601281805196777,1,colour,0.06,3.6
37,24,1,2,13,45,645,879.9275978715159,880.7257309667184,"[66, 0, 188]",188,a,0.2750019790837541,0,colour,0.06,3.6
37,24,1,2,13,46,646,881.238844237756,881.8857746677822,"[58, 0, 196]",196,a,0.12500644923420623,0,colour,0.06,3.6
37,24,1,2,13,47,647,882.3937364443555,883.0216772368294,"[91, 0, 163]",163,l,0.10463008296210319,1,colour,0.06,3.6
37,24,1,2,13,48,648,883.5345018193475,884.1576790547697,"[86, 0, 168]",168,l,0.0998287167167291,1,colour,0.06,3.6
37,24,1,2,13,49,649,884.6758457528776,885.4696544284234,"[85, 0, 169]",169,l,0.27033452020259574,1,colour,0.06,3.6
37,24,1,2,13,50,650,885.9884374942048,886.7176398120355,"[3, 0, 251]",251,a,0.20583331916714087,1,colour,0.06,3.6
37,24,1,2,14,1,651,891.2849256952177,892.7016784498701,"[90, 0, 164]",164,l,0.892579130420927,1,colour,0.06,3.6
37,24,1,2,14,2,652,893.2078163294937,893.8616134496406,"[99, 0, 155]",155,l,0.13051437359536067,1,colour,0.06,3.6
37,24,1,2,14,3,653,894.3797903876984,895.0296545702149,"[74, 0, 180]",180,a,0.12665350962197408,0,colour,0.06,3.6
37,24,1,2,14,4,654,895.5360263939365,896.4295948633226,"[73, 0, 181]",181,a,0.3702097107307054,0,colour,0.06,3.6
37,24,1,2,14,5,655,896.9437467040261,898.7016197669436,"[92, 0, 162]",162,l,1.2346293070586398,1,colour,0.06,3.6
37,24,1,2,14,6,656,899.2089557235013,900.221692281717,"[95, 0, 159]",159,l,0.48934432270471007,1,colour,0.06,3.6
37,24,1,2,14,7,657,900.7403154463391,901.4935820964165,"[88, 0, 166]",166,l,0.22987323306733742,1,colour,0.06,3.6
37,24,1,2,14,8,658,902.00599904923,902.7976163703715,"[63, 0, 191]",191,a,0.26705142710125074,0,colour,0.06,3.6
37,24,1,2,14,9,659,903.3042524642078,904.1655661976547,"[78, 0, 176]",176,l,0.33803925768006593,1,colour,0.06,3.6
37,24,1,2,14,10,660,904.6794348637341,905.4375977966702,"[72, 0, 182]",182,l,0.23494910931913182,1,colour,0.06,3.6
37,24,1,2,14,11,661,905.9450936543872,906.74957986566,"[96, 0, 158]",158,l,0.2811932247132063,1,colour,0.06,3.6
37,24,1,2,14,12,662,907.2577877954463,908.0615465747542,"[57, 0, 197]",197,a,0.28083049337146804,0,colour,0.06,3.6
37,24,1,2,14,13,663,908.5702814693213,909.3575546785141,"[2, 0, 252]",252,a,0.26448591984808445,1,colour,0.06,3.6
37,24,1,2,14,14,664,909.867256462865,910.7335755743552,"[68, 0, 186]",186,a,0.34291584830498323,0,colour,0.06,3.6
37,24,1,2,14,15,665,911.2425255083363,911.9735875629704,"[59, 0, 195]",195,a,0.2078840708709322,0,colour,0.06,3.6
37,24,1,2,14,16,666,912.4924222224508,913.3095744936145,"[53, 0, 201]",201,a,0.2938462877064012,0,colour,0.06,3.6
37,24,1,2,14,17,667,913.8206523729605,914.5735515655251,"[94, 0, 160]",160,l,0.22919581941096112,1,colour,0.06,3.6
37,24,1,2,14,18,668,915.0864131695125,915.9655755711719,"[77, 0, 177]",177,l,0.3560828791814856,1,colour,0.06,3.6
37,24,1,2,14,19,669,916.4771461507771,917.2455667805625,"[82, 0, 172]",172,l,0.2450662034098059,1,colour,0.06,3.6
37,24,1,2,14,20,670,917.7597859688103,918.5655486321775,"[89, 0, 165]",165,l,0.28241060010623187,1,colour,0.06,3.6
37,24,1,2,14,21,671,919.072376134689,919.869554155448,"[81, 0, 173]",173,l,0.27386376657523215,1,colour,0.06,3.6
37,24,1,2,14,22,672,920.3848796546808,921.1175222098827,"[71, 0, 183]",183,l,0.2092802519327961,1,colour,0.06,3.6
37,24,1,2,14,23,673,921.635080811102,922.2375626656576,"[61, 0, 193]",193,l,0.07904629607219249,1,colour,0.06,3.6
37,24,1,2,14,24,674,922.7445748815662,923.3496135788155,"[62, 0, 192]",192,a,0.0817535876412876,0,colour,0.06,3.6
37,24,1,2,14,25,675,923.8695490355021,924.821560579876,"[70, 0, 184]",184,a,0.42854408448329195,0,colour,0.06,3.6
37,24,1,2,14,26,676,925.3384720935137,926.5895771245123,"[83, 0, 171]",171,l,0.7278195275575854,1,colour,0.06,3.6
37,24,1,2,14,27,677,927.105465428438,927.8695699092932,"[51, 0, 203]",203,a,0.24072445451747626,0,colour,0.06,3.6
37,24,1,2,14,28,678,928.386742542265,929.1575199413346,"[56, 0, 198]",198,a,0.2473461729241535,0,colour,0.06,3.6
37,24,1,2,14,29,679,929.6681724679074,930.437571802875,"[1, 0, 253]",253,a,0.24601655174046755,1,colour,0.06,3.6
37,24,1,2,14,30,680,930.949462972465,931.8455359031213,"[66, 0, 188]",188,a,0.3728083010064438,0,colour,0.06,3.6
37,24,1,2,14,31,681,932.3558591751498,933.4455030563986,"[93, 0, 161]",161,l,0.5664682606002316,1,colour,0.06,3.6
37,24,1,2,14,32,682,933.9653435964137,934.7254989919602,"[50, 0, 204]",204,a,0.2367667046491988,1,colour,0.06,3.6
37,24,1,2,14,33,683,935.2467420144822,935.9735056431964,"[84, 0, 170]",170,l,0.2036498417146504,1,colour,0.06,3.6
37,24,1,2,14,34,684,936.481224023446,937.2295554000302,"[48, 0, 206]",206,a,0.22497261792887002,1,colour,0.06,3.6
37,24,1,2,14,35,685,937.7469344078563,938.5015098053264,"[52, 0, 202]",202,a,0.2316057578427717,0,colour,0.06,3.6
37,24,1,2,14,36,686,939.0126613337197,939.7655353202135,"[60, 0, 194]",194,a,0.22955500619718805,0,colour,0.06,3.6
37,24,1,2,14,37,687,940.278314610594,940.9815003058175,"[69, 0, 185]",185,a,0.18058587616542354,0,colour,0.06,3.6
37,24,1,2,14,38,688,941.4984279670753,942.2855542720645,"[98, 0, 156]",156,l,0.26394477661233395,1,colour,0.06,3.6
37,24,1,2,14,39,689,942.7953316746862,943.5654513524496,"[65, 0, 189]",189,a,0.24712168122641742,0,colour,0.06,3.6
37,24,1,2,14,40,690,944.0768352494342,944.8454728879151,"[76, 0, 178]",178,l,0.24535922420909628,1,colour,0.06,3.6
37,24,1,2,14,41,691,945.3464131931541,946.0535196168348,"[97, 0, 157]",157,l,0.18402650736970827,1,colour,0.06,3.6
37,24,1,2,14,42,692,946.565397395636,947.4934584290604,"[86, 0, 168]",168,l,0.40807555842911825,1,colour,0.06,3.6
37,24,1,2,14,43,693,948.0029502940015,948.5815032990067,"[85, 0, 169]",169,l,0.05533051677048206,1,colour,0.06,3.6
37,24,1,2,14,44,694,949.096698041656,949.8534659751458,"[54, 0, 200]",200,a,0.2335797097766772,0,colour,0.06,3.6
37,24,1,2,14,45,695,950.3623493493069,951.1094113629661,"[75, 0, 179]",179,l,0.22400454652961344,1,colour,0.06,3.6
37,24,1,2,14,46,696,951.6281731611234,952.4134625723236,"[87, 0, 167]",167,l,0.26538467447971925,1,colour,0.06,3.6
37,24,1,2,14,47,697,952.92438488279,953.5974536336144,"[64, 0, 190]",190,a,0.14851664134766906,0,colour,0.06,3.6
37,24,1,2,14,48,698,954.1133608421078,954.8614421270322,"[58, 0, 196]",196,a,0.22491826734039932,0,colour,0.06,3.6
37,24,1,2,14,49,699,955.3789763097884,956.1174970038119,"[80, 0, 174]",174,l,0.21548252529464662,1,colour,0.06,3.6
37,24,1,2,14,50,700,956.6290502542397,957.2854963768041,"[55, 0, 199]",199,a,0.1364976690383628,0,colour,0.06,3.6
37,24,1,2,15,1,701,961.9380899061798,962.509466658812,"[61, 0, 193]",193,a,0.05991329893004149,0,colour,0.06,3.5
37,24,1,2,15,2,702,963.020611491811,964.3654587567435,"[91, 0, 163]",163,l,0.8218559637898579,1,colour,0.06,3.5
37,24,1,2,15,3,703,964.8801647375221,965.5254272333696,"[85, 0, 169]",169,l,0.12468704080674797,1,colour,0.06,3.5
37,24,1,2,15,4,704,966.0339549653581,966.8774393291096,"[62, 0, 192]",192,a,0.32019137719180435,0,colour,0.06,3.5
37,24,1,2,15,5,705,967.3932831285638,968.0934263700619,"[79, 0, 175]",175,l,0.17669232306070626,1,colour,0.06,3.5
37,24,1,2,15,6,706,968.6120845868718,969.3174825102906,"[58, 0, 196]",196,a,0.1821076938067563,0,colour,0.06,3.5
37,24,1,2,15,7,707,969.8310309802182,970.5254020272405,"[55, 0, 199]",199,a,0.17118715558899567,0,colour,0.06,3.5
37,24,1,2,15,8,708,971.0341511002625,971.8614149516798,"[53, 0, 201]",201,a,0.3039460526779294,0,colour,0.06,3.5
37,24,1,2,15,9,709,972.37807361671,973.229386046587,"[56, 0, 198]",198,a,0.32795130810700357,0,colour,0.06,3.5
37,24,1,2,15,10,710,973.7375514410669,974.4462167038,"[92, 0, 162]",162,l,0.18530611018650234,1,colour,0.06,3.5
37,24,1,2,15,11,711,974.9562859457219,976.0053874077275,"[95, 0, 159]",159,l,0.5349933381075971,1,colour,0.06,3.5
37,24,1,2,15,12,712,976.5254185687518,977.3333989742096,"[67, 0, 187]",187,a,0.28472247114405036,0,colour,0.06,3.5
37,24,1,2,15,13,713,977.8492983058095,978.5974926242488,"[64, 0, 190]",190,a,0.22487809509038925,0,colour,0.06,3.5
37,24,1,2,15,14,714,979.1163879358792,979.8855482068611,"[59, 0, 195]",195,a,0.24573574017267674,0,colour,0.06,3.5
37,24,1,2,15,15,715,980.3856649819063,981.2213905962999,"[68, 0, 186]",186,a,0.31237945874454454,0,colour,0.06,3.5
37,24,1,2,15,16,716,981.7294992770767,982.4933942322969,"[87, 0, 167]",167,l,0.24059684871463105,1,colour,0.06,3.5
37,24,1,2,15,17,717,983.0108461014461,983.9254636246478,"[77, 0, 177]",177,l,0.3912898782873526,1,colour,0.06,3.5
37,24,1,2,15,18,718,984.4328366026748,985.4693472292274,"[72, 0, 182]",182,l,0.5134866362204775,1,colour,0.06,3.5
37,24,1,2,15,19,719,985.9798335531377,986.7653911728994,"[75, 0, 179]",179,a,0.26235521759372205,0,colour,0.06,3.5
37,24,1,2,15,20,720,987.2766990577802,987.9654093685676,"[71, 0, 183]",183,a,0.16525545390322804,0,colour,0.06,3.5
37,24,1,2,15,21,721,988.480083447881,989.2613442171132,"[69, 0, 185]",185,a,0.258074514742475,0,colour,0.06,3.5
37,24,1,2,15,22,722,989.7769292602898,990.4613431143225,"[97, 0, 157]",157,l,0.16093142802128568,1,colour,0.06,3.5
37,24,1,2,15,23,723,990.9802396075102,991.6693689695094,"[54, 0, 200]",200,a,0.1659624059102498,0,colour,0.06,3.5
37,24,1,2,15,24,724,992.1835787054151,993.0855459225131,"[74, 0, 180]",180,l,0.37905468500684947,1,colour,0.06,3.5
37,24,1,2,15,25,725,993.6054144254886,994.4373591265175,"[94, 0, 160]",160,l,0.30849378259154037,1,colour,0.06,3.5
37,24,1,2,15,26,726,994.9493621480651,995.7973717925488,"[70, 0, 184]",184,a,0.324708387197461,0,colour,0.06,3.5
37,24,1,2,15,27,727,996.3087698679883,996.9653699840419,"[86, 0, 168]",168,l,0.1332059113192372,1,colour,0.06,3.5
37,24,1,2,15,28,728,997.4821727963863,998.1413399950834,"[84, 0, 170]",170,l,0.1358289199997671,1,colour,0.06,3.5
37,24,1,2,15,29,729,998.6540129472269,999.4773982117185,"[81, 0, 173]",173,l,0.30002532427897677,1,colour,0.06,3.5
37,24,1,2,15,30,730,999.9978519685683,1000.7413390498259,"[29, 0, 225]",225,a,0.21998063067439944,1,colour,0.06,3.5
37,24,1,2,15,31,731,1001.2479211868485,1001.9973580867518,"[51, 0, 203]",203,a,0.22597967996262014,0,colour,0.06,3.5
37,24,1,2,15,32,732,1002.5136788326781,1003.1173473426607,"[90, 0, 164]",164,l,0.08055196609348059,1,colour,0.06,3.5
37,24,1,2,15,33,733,1003.6387841370306,1004.3253117579734,"[52, 0, 202]",202,a,0.16328622814035043,0,colour,0.06,3.5
37,24,1,2,15,34,734,1004.8425029016216,1005.6373339991551,"[82, 0, 172]",172,l,0.28252087673172355,1,colour,0.06,3.5
37,24,1,2,15,35,735,1006.1442989536445,1006.7493329247809,"[80, 0, 174]",174,l,0.08164016023511067,1,colour,0.06,3.5
37,24,1,2,15,36,736,1007.2536851105397,1007.9572957647033,"[76, 0, 178]",178,l,0.18015816033584997,1,colour,0.06,3.5
37,24,1,2,15,37,737,1008.4725673071225,1009.2213126149727,"[38, 0, 216]",216,a,0.22543853672686964,1,colour,0.06,3.5
37,24,1,2,15,38,738,1009.738134725776,1010.4693208415993,"[78, 0, 176]",176,l,0.20818772551137954,1,colour,0.06,3.5
37,24,1,2,15,39,739,1010.9883859005058,1011.6293259458616,"[23, 0, 231]",231,a,0.1175639575230889,1,colour,0.06,3.5
37,24,1,2,15,40,740,1012.1403581391205,1012.8855202438426,"[66, 0, 188]",188,l,0.21910511294845492,1,colour,0.06,3.5
37,24,1,2,15,41,741,1013.385309733625,1014.6852940979297,"[57, 0, 197]",197,a,0.7766063072485849,0,colour,0.06,3.5
37,24,1,2,15,42,742,1015.1979386932799,1015.9012976803351,"[50, 0, 204]",204,a,0.17998368688859046,1,colour,0.06,3.5
37,24,1,2,15,43,743,1016.411192842701,1017.1014600233175,"[63, 0, 191]",191,l,0.17172711726743728,1,colour,0.06,3.5
37,24,1,2,15,44,744,1017.6120467777364,1018.293316172203,"[93, 0, 161]",161,l,0.1578842481249012,1,colour,0.06,3.5
37,24,1,2,15,45,745,1018.7996513682883,1019.5972752217203,"[89, 0, 165]",165,l,0.27449391881236807,1,colour,0.06,3.5
37,24,1,2,15,46,746,1020.1123163647717,1020.8052943815128,"[98, 0, 156]",156,l,0.17020608735037968,1,colour,0.06,3.5
37,24,1,2,15,47,747,1021.3155247060931,1022.1092510679737,"[65, 0, 189]",189,a,0.2721280910191126,0,colour,0.06,3.5
37,24,1,2,15,48,748,1022.6288304886548,1023.4614447263884,"[99, 0, 155]",155,l,0.3093169188941829,1,colour,0.06,3.5
37,24,1,2,15,49,749,1023.9726683284389,1024.7092776919599,"[60, 0, 194]",194,a,0.21334040159126744,0,colour,0.06,3.5
37,24,1,2,15,50,750,1025.2226942237467,1025.9093147921376,"[88, 0, 166]",166,l,0.16323975438717753,1,colour,0.06,3.5
37,24,1,2,16,1,751,1030.708680622687,1031.7494152383879,"[88, 0, 166]",166,l,0.5178189328289591,1,colour,0.06,3.5
37,24,1,2,16,2,752,1032.270673227089,1033.0212617301731,"[86, 0, 168]",168,l,0.22715806460473686,1,colour,0.06,3.5
37,24,1,2,16,3,753,1033.536576989456,1034.405244993337,"[77, 0, 177]",177,l,0.34548962634289637,1,colour,0.06,3.5
37,24,1,2,16,4,754,1034.9139613771695,1035.6132157101529,"[58, 0, 196]",196,a,0.17598340177210048,0,colour,0.06,3.5
37,24,1,2,16,5,755,1036.1329243120272,1036.973299268342,"[99, 0, 155]",155,l,0.3170693667489104,1,colour,0.06,3.5
37,24,1,2,16,6,756,1037.4931283867918,1038.2052208899986,"[64, 0, 190]",190,a,0.18979791412129998,0,colour,0.06,3.5
37,24,1,2,16,7,757,1038.7267789886682,1040.4452604477992,"[95, 0, 159]",159,l,1.1954436842352152,1,colour,0.06,3.5
37,24,1,2,16,8,758,1040.961429957184,1042.5252736337716,"[62, 0, 192]",192,a,1.040577077656053,0,colour,0.06,3.5
37,24,1,2,16,9,759,1043.039640120056,1043.6772297247662,"[82, 0, 172]",172,l,0.1141465631662868,1,colour,0.06,3.5
37,24,1,2,16,10,760,1044.1959048769204,1044.94925344683,"[63, 0, 191]",191,a,0.22985551005695015,0,colour,0.06,3.5
37,24,1,2,16,11,761,1045.461779888603,1046.277224841062,"[67, 0, 187]",187,a,0.29287112719612196,0,colour,0.06,3.5
37,24,1,2,16,12,762,1046.789951750019,1047.6052974535269,"[89, 0, 165]",165,l,0.2920412954990752,1,colour,0.06,3.5
37,24,1,2,16,13,763,1048.1182043497101,1048.9892318798811,"[51, 0, 203]",203,a,0.34763450699392706,0,colour,0.06,3.5
37,24,1,2,16,14,764,1049.5088447773596,1050.4932457526447,"[73, 0, 181]",181,l,0.46104024740634486,1,colour,0.06,3.5
37,24,1,2,16,15,765,1051.0090505614644,1051.7892219549394,"[57, 0, 197]",197,a,0.25680121331242844,0,colour,0.06,3.5
37,24,1,2,16,16,766,1052.305901493819,1053.2052173453849,"[55, 0, 199]",199,a,0.3758712346898392,0,colour,0.06,3.5
37,24,1,2,16,17,767,1053.7123945823987,1054.4693070570356,"[87, 0, 167]",167,l,0.23364587570540607,1,colour,0.06,3.5
37,24,1,2,16,18,768,1054.9781010283623,1055.7412004163489,"[76, 0, 178]",178,l,0.2385260108858347,1,colour,0.06,3.5
37,24,1,2,16,19,769,1056.2608637260273,1057.053249832883,"[91, 0, 163]",163,l,0.2689796929480508,1,colour,0.06,3.5
37,24,1,2,16,20,770,1057.5600993907428,1058.5172045343788,"[94, 0, 160]",160,l,0.43398190435254946,1,colour,0.06,3.5
37,24,1,2,16,21,771,1059.0290165410843,1059.8611727369134,"[75, 0, 179]",179,l,0.3089159845258109,1,colour,0.06,3.5
37,24,1,2,16,22,772,1060.3728079071152,1061.149224774912,"[97, 0, 157]",157,l,0.2529557093512267,1,colour,0.06,3.5
37,24,1,2,16,23,773,1061.669797079172,1062.4692814570735,"[80, 0, 174]",174,l,0.2760535455890931,1,colour,0.06,3.5
37,24,1,2,16,24,774,1062.9824081189,1063.7331998460577,"[54, 0, 200]",200,a,0.2275877496576868,0,colour,0.06,3.5
37,24,1,2,16,25,775,1064.2482335060486,1065.061157061893,"[50, 0, 204]",204,a,0.2896293877856806,1,colour,0.06,3.5
37,24,1,2,16,26,776,1065.5763900075108,1066.4452246078872,"[84, 0, 170]",170,l,0.3455396446515806,1,colour,0.06,3.5
37,24,1,2,16,27,777,1066.9515133302775,1067.7891746935202,"[92, 0, 162]",162,l,0.31053114344831556,1,colour,0.06,3.5
37,24,1,2,16,28,778,1068.2992136093671,1069.1491452181945,"[78, 0, 176]",176,l,0.32663940999191254,1,colour,0.06,3.5
37,24,1,2,16,29,779,1069.6587146706297,1070.445196644927,"[74, 0, 180]",180,l,0.2631980462465435,1,colour,0.06,3.5
37,24,1,2,16,30,780,1070.9554742309265,1071.7331435262458,"[72, 0, 182]",182,a,0.25419356470229104,0,colour,0.06,3.5
37,24,1,2,16,31,781,1072.2526516608777,1072.9971777056926,"[65, 0, 189]",189,a,0.221714730898384,0,colour,0.06,3.5
37,24,1,2,16,32,782,1073.5041135156062,1074.1732182150008,"[52, 0, 202]",202,a,0.14576681453036144,0,colour,0.06,3.5
37,24,1,2,16,33,783,1074.6918118412723,1075.4611339825788,"[70, 0, 184]",184,a,0.2458885521045886,0,colour,0.06,3.5
37,24,1,2,16,34,784,1075.9730456320685,1076.7252315710648,"[85, 0, 169]",169,l,0.22880985116353258,1,colour,0.06,3.5
37,24,1,2,16,35,785,1077.2388603854342,1077.989140113932,"[98, 0, 156]",156,l,0.22696941281901672,1,colour,0.06,3.5
37,24,1,2,16,36,786,1078.5045514714438,1079.3491645953618,"[25, 0, 229]",229,a,0.32128390367142856,1,colour,0.06,3.5
37,24,1,2,16,37,787,1079.8640300834668,1080.6691275424091,"[19, 0, 235]",235,a,0.28195452742511407,1,colour,0.06,3.5
37,24,1,2,16,38,788,1081.176601344836,1081.9171822427888,"[79, 0, 175]",175,l,0.2175923537579365,1,colour,0.06,3.5
37,24,1,2,16,39,789,1082.426725307596,1083.3251250753528,"[60, 0, 194]",194,a,0.3753560852492228,0,colour,0.06,3.5
37,24,1,2,16,40,790,1083.8330581011833,1084.5331095767906,"[83, 0, 171]",171,l,0.17673840298084542,1,colour,0.06,3.5
37,24,1,2,16,41,791,1085.0520174914273,1085.8450877073337,"[59, 0, 195]",195,a,0.2690600373316556,0,colour,0.06,3.5
37,24,1,2,16,42,792,1086.3653059448116,1087.1811041763867,"[90, 0, 164]",164,l,0.29240402684081346,1,colour,0.06,3.5
37,24,1,2,16,43,793,1087.6901041287347,1088.4931425652467,"[36, 0, 218]",218,a,0.2797328469459899,1,colour,0.06,3.5
37,24,1,2,16,44,794,1089.0026584547013,1089.7810981111252,"[69, 0, 185]",185,l,0.2550348178483546,1,colour,0.06,3.5
37,24,1,2,16,45,795,1090.2996614113217,1091.0291346946615,"[56, 0, 198]",198,a,0.20611373701831326,0,colour,0.06,3.5
37,24,1,2,16,46,796,1091.535456106125,1092.5171064669848,"[66, 0, 188]",188,a,0.45820692548295483,0,colour,0.06,3.5
37,24,1,2,16,47,797,1093.035628413374,1093.8530496808235,"[68, 0, 186]",186,a,0.29413103783736005,0,colour,0.06,3.5
37,24,1,2,16,48,798,1094.363767585659,1095.045122050622,"[93, 0, 161]",161,l,0.15821389650227502,1,colour,0.06,3.5
37,24,1,2,16,49,799,1095.5513473639148,1096.2851411284646,"[71, 0, 183]",183,a,0.21038419986143708,0,colour,0.06,3.5
37,24,1,2,16,50,800,1096.8015682125697,1097.5250652896939,"[81, 0, 173]",173,l,0.20074602152453735,1,colour,0.06,3.5
