id,age,condition,counterbalance,block,trialinblock,trial,tstart,tend,trialstim,trialintensity,response,RT,accuracy,trialtype,colourfreq,credits
56,19,0,2,Practice,1,NA,6.301546818576753e-06,1.2472093051619595,"[55, 0, 199]",199,a,0.7236622328782687,0,colour,0.5,4
56,19,0,2,Practice,2,NA,1.7667395413154736,5.127175654954044,"[6, 0, 248]",248,a,2.8380528565030545,1,colour,0.5,4
56,19,0,2,Practice,3,NA,5.642195171996718,7.367200026157661,"[77, 0, 177]",177,l,1.2027751970017562,1,colour,0.5,4
56,19,0,2,Practice,4,NA,7.876724208894302,8.91916506207781,"[30, 0, 224]",224,a,0.5201895344944205,1,colour,0.5,4
56,19,0,2,Practice,5,NA,9.439698424190283,10.58320096823445,"[21, 0, 233]",233,a,0.6216210468264762,1,colour,0.5,4
56,19,0,2,Practice,6,NA,11.096233531818143,12.135180970304646,"[11, 0, 243]",243,a,0.5169619658845477,1,colour,0.5,4
56,19,0,2,Practice,7,NA,12.643191996423411,13.719169236836024,"[73, 0, 181]",181,l,0.5536782663402846,1,colour,0.5,4
56,19,0,2,Practice,8,NA,14.237105971769779,15.255268577428069,"[78, 0, 176]",176,l,0.4959427946450887,1,colour,0.5,4
56,19,0,2,Practice,9,NA,15.76840708560485,16.831168427088414,"[69, 0, 185]",185,a,0.5405092350993073,0,colour,0.5,4
56,19,0,2,Practice,10,NA,17.346621962511563,18.43918012274662,"[31, 0, 223]",223,a,0.5702698200038867,1,colour,0.5,4
56,19,0,2,1,1,1,4.85892315392266,5.840194985314156,"[15, 0, 239]",239,a,0.4583702728123171,1,colour,0.5,4.0
56,19,0,2,1,2,2,6.3600064275669865,7.1520005608326755,"[11, 0, 243]",243,a,0.26983379301964305,1,colour,0.5,4.0
56,19,0,2,1,3,3,7.672547313704854,8.6239872740407,"[87, 0, 167]",167,l,0.42914768164337147,1,colour,0.5,4.0
56,19,0,2,1,4,4,9.141373806007323,10.09599013494153,"[22, 0, 232]",232,a,0.4322968748747371,1,colour,0.5,4.0
56,19,0,2,1,5,5,10.610282218272914,11.616004014067585,"[82, 0, 172]",172,l,0.4835082863137359,1,colour,0.5,4.0
56,19,0,2,1,6,6,12.126054375170497,13.144033448552364,"[70, 0, 184]",184,l,0.4957541423791554,1,colour,0.5,4.0
56,19,0,2,1,7,7,13.657399205927504,14.591992400339223,"[88, 0, 166]",166,l,0.4123477834073128,1,colour,0.5,4.0
56,19,0,2,1,8,8,15.110655781274545,16.1519741731463,"[20, 0, 234]",234,a,0.5191738054563757,1,colour,0.5,4.0
56,19,0,2,1,9,9,16.65777651045937,17.679982339934213,"[41, 0, 213]",213,a,0.5000462769094156,1,colour,0.5,4.0
56,19,0,2,1,10,10,18.189108738137293,19.13601277320413,"[9, 0, 245]",245,a,0.424736211731215,1,colour,0.5,4.0
56,19,0,2,1,11,11,19.651805803950992,20.567994177370565,"[66, 0, 188]",188,l,0.393957140884595,1,colour,0.5,4.0
56,19,0,2,1,12,12,21.07378666853765,22.079986593467765,"[45, 0, 209]",209,a,0.48392812623933423,1,colour,0.5,4.0
56,19,0,2,1,13,13,22.589553311583586,23.60800342487346,"[42, 0, 212]",212,a,0.49613065921585076,1,colour,0.5,4.0
56,19,0,2,1,14,14,24.120918228494702,25.239983017352642,"[62, 0, 192]",192,l,0.5967650271049934,1,colour,0.5,4.0
56,19,0,2,1,15,15,25.74603190230846,26.94398484795238,"[84, 0, 170]",170,l,0.6757658238493605,1,colour,0.5,4.0
56,19,0,2,1,16,16,27.44930354229291,28.927974217251176,"[38, 0, 216]",216,a,0.9565583839284955,1,colour,0.5,4.0
56,19,0,2,1,17,17,29.43378088688769,30.999970067699905,"[94, 0, 160]",160,l,1.0439508590498008,1,colour,0.5,4.0
56,19,0,2,1,18,18,31.51208496991603,32.61599062330788,"[96, 0, 158]",158,l,0.5816917500633281,1,colour,0.5,4.0
56,19,0,2,1,19,19,33.121701588330325,34.16798125921923,"[76, 0, 178]",178,l,0.5241630475502461,1,colour,0.5,4.0
56,19,0,2,1,20,20,34.68425320678216,35.727972878172295,"[18, 0, 236]",236,a,0.5215459403698333,1,colour,0.5,4.0
56,19,0,2,1,21,21,36.24693558213767,37.43197234570107,"[24, 0, 230]",230,a,0.6629343186796177,1,colour,0.5,4.0
56,19,0,2,1,22,22,37.95013948058477,39.03198069523205,"[27, 0, 227]",227,a,0.5596517297817627,1,colour,0.5,4.0
56,19,0,2,1,23,23,39.544005800562445,40.89599746048043,"[39, 0, 215]",215,a,0.8297545196837746,1,colour,0.5,4.0
56,19,0,2,1,24,24,41.40348191438534,42.61597959561914,"[59, 0, 195]",195,l,0.6901711379323388,1,colour,0.5,4.0
56,19,0,2,1,25,25,43.129779765207786,45.103959610292804,"[49, 0, 205]",205,a,1.451973030998488,1,colour,0.5,4.0
56,19,0,2,1,26,26,45.61440421131556,46.62397703404713,"[90, 0, 164]",164,l,0.48753496861900203,1,colour,0.5,4.0
56,19,0,2,1,27,27,47.130167309747776,48.13600686551945,"[16, 0, 238]",238,a,0.4836339232278988,1,colour,0.5,4.0
56,19,0,2,1,28,28,48.64590874665009,49.73597189199063,"[64, 0, 190]",190,l,0.5684853034326807,1,colour,0.5,4.0
56,19,0,2,1,29,29,50.25540957431076,51.32000348159636,"[92, 0, 162]",162,l,0.5423878808796871,1,colour,0.5,4.0
56,19,0,2,1,30,30,51.833598457378685,52.76797543029534,"[34, 0, 220]",220,a,0.41205279270070605,1,colour,0.5,4.0
56,19,0,2,1,31,31,53.28683652197651,54.20796530057851,"[74, 0, 180]",180,l,0.3989377183606848,1,colour,0.5,4.0
56,19,0,2,1,32,32,54.72448497732694,57.17598578687466,"[53, 0, 201]",201,a,1.9292936016136082,0,colour,0.5,4.0
56,19,0,2,1,33,33,57.69342233729549,58.664006761537166,"[93, 0, 161]",161,l,0.44827599787095096,1,colour,0.5,4.0
56,19,0,2,1,34,34,59.17793138649722,60.10399702566792,"[86, 0, 168]",168,l,0.4037469728064025,1,colour,0.5,4.0
56,19,0,2,1,35,35,60.61556054338871,62.11997693637386,"[10, 0, 244]",244,a,0.9824521880800603,1,colour,0.5,4.0
56,19,0,2,1,36,36,62.63132698951813,63.567967395836604,"[50, 0, 204]",204,a,0.41455962297914084,1,colour,0.5,4.0
56,19,0,2,1,37,37,64.08465012485976,66.02398955835088,"[72, 0, 182]",182,l,1.41714837323525,1,colour,0.5,4.0
56,19,0,2,1,38,38,66.53478625776188,67.42399735649815,"[99, 0, 155]",155,l,0.3670334292546613,1,colour,0.5,4.0
56,19,0,2,1,39,39,67.94132678078313,68.96800236937997,"[21, 0, 233]",233,a,0.5045755067985738,1,colour,0.5,4.0
56,19,0,2,1,40,40,69.48815685155569,70.36796211831097,"[0, 0, 254]",254,a,0.35751928960962687,1,colour,0.5,4.0
56,19,0,2,1,41,41,70.87895101460163,71.7679628272308,"[14, 0, 240]",240,a,0.36680972469912376,1,colour,0.5,4.0
56,19,0,2,1,42,42,72.2853568422579,73.25595583881659,"[6, 0, 248]",248,a,0.4484158132254379,1,colour,0.5,4.0
56,19,0,2,1,43,43,73.76987219300645,74.85597324681294,"[44, 0, 210]",210,a,0.5638690335763386,1,colour,0.5,4.0
56,19,0,2,1,44,44,75.3645529866626,76.31198871394736,"[12, 0, 242]",242,a,0.4261064022430219,1,colour,0.5,4.0
56,19,0,2,1,45,45,76.83255358373572,77.78395179638756,"[65, 0, 189]",189,l,0.429351300073904,1,colour,0.5,4.0
56,19,0,2,1,46,46,78.30144151601417,79.2079696328874,"[91, 0, 163]",163,l,0.3843339058512356,1,colour,0.5,4.0
56,19,0,2,1,47,47,79.72341253445484,81.06396375354961,"[85, 0, 169]",169,l,0.8182439742522547,1,colour,0.5,4.0
56,19,0,2,1,48,48,81.58295954058121,82.56798826968588,"[29, 0, 225]",225,a,0.46286445039731916,1,colour,0.5,4.0
56,19,0,2,1,49,49,83.08305386672146,84.10398087797512,"[33, 0, 221]",221,a,0.4986662402516231,1,colour,0.5,4.0
56,19,0,2,1,50,50,84.61442666054063,85.49598375463393,"[75, 0, 179]",179,l,0.3596637814771384,1,colour,0.5,4.0
56,19,0,2,2,1,51,92.83304116518411,93.73597622429952,"[69, 0, 185]",185,l,0.37996221441426314,1,colour,0.5,4.0
56,19,0,2,2,2,52,94.2559164542181,95.75998035495286,"[49, 0, 205]",205,a,0.981953578942921,1,colour,0.5,4.0
56,19,0,2,2,3,53,96.27170534957258,97.119955668677,"[73, 0, 181]",181,l,0.3261782003828557,1,colour,0.5,4.0
56,19,0,2,2,4,54,97.63375977672695,98.67196245228115,"[11, 0, 243]",243,a,0.5189693993306719,1,colour,0.5,4.0
56,19,0,2,2,5,55,99.17793650648673,100.10399741951551,"[43, 0, 211]",211,a,0.40397737275634427,1,colour,0.5,4.0
56,19,0,2,2,6,56,100.61550776801596,101.51999339913891,"[82, 0, 172]",172,l,0.38253678621549625,1,colour,0.5,4.0
56,19,0,2,2,7,57,102.03813257094589,103.10399702566792,"[72, 0, 182]",182,l,0.5437340467760805,1,colour,0.5,4.0
56,19,0,2,2,8,58,103.61639037707937,104.57596680350252,"[41, 0, 213]",213,a,0.43742514464247506,1,colour,0.5,4.0
56,19,0,2,2,9,59,105.08538307240815,106.15194384699862,"[86, 0, 168]",168,l,0.5443232405086746,1,colour,0.5,4.0
56,19,0,2,2,10,60,106.66371767852979,107.68795299682824,"[5, 0, 249]",249,a,0.5021108180517331,1,colour,0.5,4.0
56,19,0,2,2,11,61,108.19505699543515,109.03995962289628,"[83, 0, 171]",171,l,0.3227265333698597,1,colour,0.5,4.0
56,19,0,2,2,12,62,109.55449825388496,110.4719709593628,"[4, 0, 250]",250,a,0.3952501375460997,1,colour,0.5,4.0
56,19,0,2,2,13,63,110.99216364460881,111.90395827121392,"[38, 0, 216]",216,a,0.389580329429009,1,colour,0.5,4.0
56,19,0,2,2,14,64,112.41416026305524,113.34394853534468,"[84, 0, 170]",170,l,0.40769843048474286,1,colour,0.5,4.0
56,19,0,2,2,15,65,113.85172207227151,114.79995927630807,"[52, 0, 202]",202,a,0.4259145991964033,0,colour,0.5,4.0
56,19,0,2,2,16,66,115.3205276907247,116.24803047423484,"[21, 0, 233]",233,a,0.4052703694324009,1,colour,0.5,4.0
56,19,0,2,2,17,67,116.76125838546432,117.77597562564188,"[90, 0, 164]",164,l,0.49240211841242854,1,colour,0.5,4.0
56,19,0,2,2,18,68,118.29260242852615,119.27195110952016,"[7, 0, 247]",247,a,0.45717731304466724,1,colour,0.5,4.0
56,19,0,2,2,19,69,119.7770760315907,120.87996634979208,"[6, 0, 248]",248,a,0.5806228518194985,1,colour,0.5,4.0
56,19,0,2,2,20,70,121.38670485922194,122.31997709390998,"[95, 0, 159]",159,l,0.4111674267333001,1,colour,0.5,4.0
56,19,0,2,2,21,71,122.83983146537503,124.36000091371534,"[28, 0, 226]",226,a,0.9979716927045956,1,colour,0.5,4.0
56,19,0,2,2,22,72,124.87117216075421,125.87995256517024,"[37, 0, 217]",217,a,0.4865286918793572,1,colour,0.5,4.0
56,19,0,2,2,23,73,126.38698291455512,127.50395834998926,"[15, 0, 239]",239,a,0.5947213598119561,1,colour,0.5,4.0
56,19,0,2,2,24,74,128.01212218837463,129.6719797815167,"[56, 0, 198]",198,a,1.137647234441829,0,colour,0.5,4.0
56,19,0,2,2,25,75,130.18420180986868,131.095970442635,"[14, 0, 240]",240,a,0.38961695712350775,1,colour,0.5,4.0
56,19,0,2,2,26,76,131.60123518006003,133.24794816039503,"[79, 0, 175]",175,l,1.124440393949044,1,colour,0.5,4.0
56,19,0,2,2,27,77,133.7576519369468,135.104102970261,"[46, 0, 208]",208,a,0.824927542169462,1,colour,0.5,4.0
56,19,0,2,2,28,78,135.61722572460712,138.34587444264616,"[62, 0, 192]",192,l,2.206425756259705,1,colour,0.5,4.0
56,19,0,2,2,29,79,138.85187252146716,139.88796575744345,"[20, 0, 234]",234,a,0.5138167111290386,1,colour,0.5,4.0
56,19,0,2,2,30,80,140.3988794291363,141.37598121826886,"[36, 0, 218]",218,a,0.4550938673055498,1,colour,0.5,4.0
56,19,0,2,2,31,81,141.88623480394017,142.8319309130893,"[67, 0, 187]",187,l,0.4235735781257972,1,colour,0.5,4.0
56,19,0,2,2,32,82,143.33947089930007,144.35995325834665,"[50, 0, 204]",204,a,0.49829641879478004,1,colour,0.5,4.0
56,19,0,2,2,33,83,144.8612023411697,145.9439588541136,"[18, 0, 236]",236,a,0.5605260680895299,1,colour,0.5,4.0
56,19,0,2,2,34,84,146.45508480884018,147.43198297954223,"[88, 0, 166]",166,l,0.4546917504630983,1,colour,0.5,4.0
56,19,0,2,2,35,85,147.93973052263027,148.7840128425305,"[99, 0, 155]",155,l,0.3221629396430217,1,colour,0.5,4.0
56,19,0,2,2,36,86,149.29905953495472,150.21596982823394,"[10, 0, 244]",244,a,0.3949161560740322,1,colour,0.5,4.0
56,19,0,2,2,37,87,150.72104985185433,151.59195577265928,"[0, 0, 254]",254,a,0.3487002882611705,1,colour,0.5,4.0
56,19,0,2,2,38,88,152.11170419953123,152.90395551429538,"[45, 0, 209]",209,a,0.2699779406830203,1,colour,0.5,4.0
56,19,0,2,2,39,89,153.4088204979489,154.3519802383671,"[97, 0, 157]",157,l,0.42096592324378435,1,colour,0.5,4.0
56,19,0,2,2,40,90,154.8620049994788,155.41600661346456,"[76, 0, 178]",178,l,0.031788104519364424,1,colour,0.5,4.0
56,19,0,2,2,41,91,155.9245343656221,156.55993805588514,"[85, 0, 169]",169,l,0.11309723311569542,1,colour,0.5,4.0
56,19,0,2,2,42,92,157.06532646097185,157.8159364300809,"[22, 0, 232]",232,a,0.22859850266831927,1,colour,0.5,4.0
56,19,0,2,2,43,93,158.33099966404552,159.1839387207001,"[65, 0, 189]",189,l,0.3298047350544948,1,colour,0.5,4.0
56,19,0,2,2,44,94,159.69292018354463,160.5039827684377,"[35, 0, 219]",219,a,0.28876439851592295,1,colour,0.5,4.0
56,19,0,2,2,45,95,161.02118931274163,161.88796930205717,"[91, 0, 163]",163,l,0.3445676613773685,1,colour,0.5,4.0
56,19,0,2,2,46,96,162.3962599588849,163.31997788160515,"[30, 0, 224]",224,a,0.40144848710042424,1,colour,0.5,4.0
56,19,0,2,2,47,97,163.83389817424177,164.67197899382154,"[75, 0, 179]",179,l,0.3155955563124735,1,colour,0.5,4.0
56,19,0,2,2,48,98,165.17783450035495,166.33599008768215,"[61, 0, 193]",193,l,0.6360220286005642,1,colour,0.5,4.0
56,19,0,2,2,49,99,166.84971345728263,167.47197765474266,"[8, 0, 246]",246,a,0.09997743261919823,1,colour,0.5,4.0
56,19,0,2,2,50,100,167.99044883879833,168.97598956779984,"[92, 0, 162]",162,l,0.4632531764655141,1,colour,0.5,4.0
56,19,0,2,3,1,101,182.02204395872832,183.26395918494381,"[55, 0, 199]",199,l,0.7187954769178759,1,colour,0.5,4.0
56,19,0,2,3,2,102,183.77303083853622,185.01598030453897,"[51, 0, 203]",203,a,0.7207265042234212,0,colour,0.5,4.0
56,19,0,2,3,3,103,185.52316858619452,186.5359973344457,"[47, 0, 207]",207,a,0.49060421108151786,1,colour,0.5,4.0
56,19,0,2,3,4,104,187.05448269695626,187.94397854640556,"[85, 0, 169]",169,l,0.3672370476706419,1,colour,0.5,4.0
56,19,0,2,3,5,105,188.46089679538272,189.31196941548842,"[13, 0, 241]",241,a,0.328783098331769,1,colour,0.5,4.0
56,19,0,2,3,6,106,189.82040697689808,190.63997584934987,"[74, 0, 180]",180,l,0.2973368522070814,1,colour,0.5,4.0
56,19,0,2,3,7,107,191.14860048764967,192.08794110268354,"[32, 0, 222]",222,a,0.41737837935215794,1,colour,0.5,4.0
56,19,0,2,3,8,108,192.60189762915252,193.6159484817763,"[46, 0, 208]",208,a,0.49179638315399643,1,colour,0.5,4.0
56,19,0,2,3,9,109,194.1331845645327,195.39999401353998,"[87, 0, 167]",167,l,0.7446168133756146,1,colour,0.5,4.0
56,19,0,2,3,10,110,195.91464725372498,196.903970874293,"[2, 0, 252]",252,a,0.46724362490931526,1,colour,0.5,4.0
56,19,0,2,3,11,111,197.4147297644813,198.37597570441721,"[10, 0, 244]",244,a,0.4391848489030963,1,colour,0.5,4.0
56,19,0,2,3,12,112,198.88362360444444,199.743971299642,"[77, 0, 177]",177,l,0.3387017179193208,1,colour,0.5,4.0
56,19,0,2,3,13,113,200.25873402904836,202.79997621169605,"[45, 0, 209]",209,a,2.0190400947176386,1,colour,0.5,4.0
56,19,0,2,3,14,114,203.3059270289814,204.24794776654744,"[90, 0, 164]",164,l,0.4198517327022273,1,colour,0.5,4.0
56,19,0,2,3,15,115,204.75908002282085,205.87197048673988,"[31, 0, 223]",223,a,0.5906367821444292,1,colour,0.5,4.0
56,19,0,2,3,16,116,206.38424213971302,207.6719636338239,"[66, 0, 188]",188,l,0.7655146800243529,1,colour,0.5,4.0
56,19,0,2,3,17,117,208.18121251816046,209.0879639457562,"[16, 0, 238]",238,a,0.38463874271837994,1,colour,0.5,4.0
56,19,0,2,3,18,118,209.60324497659167,214.0719367735146,"[3, 0, 251]",251,a,3.9464991612912854,1,colour,0.5,4.0
56,19,0,2,3,19,119,214.5880905672675,215.48797174390347,"[73, 0, 181]",181,l,0.37785001790325623,1,colour,0.5,4.0
56,19,0,2,3,20,120,215.99435421649832,216.9439679125644,"[91, 0, 163]",163,l,0.42738285737868864,1,colour,0.5,4.0
56,19,0,2,3,21,121,217.46322875800251,218.32793869233865,"[5, 0, 249]",249,a,0.34245900948008057,1,colour,0.5,4.0
56,19,0,2,3,22,122,218.83830137336918,219.77596853641444,"[29, 0, 225]",225,a,0.41618620726512745,1,colour,0.5,4.0
56,19,0,2,3,23,123,220.29150753644353,221.25597474342794,"[37, 0, 217]",217,a,0.4421796544629615,1,colour,0.5,4.0
56,19,0,2,3,24,124,221.77602446256788,222.68796953836863,"[40, 0, 214]",214,a,0.39203359665407334,1,colour,0.5,4.0
56,19,0,2,3,25,125,223.19567218300654,223.98395274161885,"[9, 0, 245]",245,a,0.2660627168370411,1,colour,0.5,4.0
56,19,0,2,3,26,126,224.49260691837117,225.32794735695643,"[78, 0, 176]",176,l,0.31307651681709103,1,colour,0.5,4.0
56,19,0,2,3,27,127,225.836482592189,226.8079638039635,"[97, 0, 157]",157,l,0.44927991152508184,1,colour,0.5,4.0
56,19,0,2,3,28,128,227.3209747060173,228.39197806434822,"[63, 0, 191]",191,l,0.5487122611812083,1,colour,0.5,4.0
56,19,0,2,3,29,129,228.8991939152329,229.80793190244003,"[33, 0, 221]",221,a,0.38392469978134613,1,colour,0.5,4.0
56,19,0,2,3,30,130,230.32376077315712,231.2239270943537,"[95, 0, 159]",159,l,0.3779626578761963,1,colour,0.5,4.0
56,19,0,2,3,31,131,231.73006656391954,233.41595738270553,"[35, 0, 219]",219,a,1.1635445831925608,1,colour,0.5,4.0
56,19,0,2,3,32,132,233.9334100808046,234.9999539200071,"[64, 0, 190]",190,l,0.5443043358973227,1,colour,0.5,4.0
56,19,0,2,3,33,133,235.5117226315342,236.42397254420212,"[82, 0, 172]",172,l,0.39008957242185716,1,colour,0.5,4.0
56,19,0,2,3,34,134,236.93366883767885,237.87991908825643,"[71, 0, 183]",183,l,0.42400208265462425,1,colour,0.5,4.0
56,19,0,2,3,35,135,238.38688957304112,239.25596410958678,"[76, 0, 178]",178,l,0.3467708363314159,1,colour,0.5,4.0
56,19,0,2,3,36,136,239.76202638531686,240.7519726765313,"[23, 0, 231]",231,a,0.46775680634891614,1,colour,0.5,4.0
56,19,0,2,3,37,137,241.26220420682512,242.63994631089736,"[17, 0, 237]",237,a,0.8555742807511706,1,colour,0.5,4.0
56,19,0,2,3,38,138,243.15292728065106,244.2159643143823,"[42, 0, 212]",212,a,0.540820767331752,1,colour,0.5,4.0
56,19,0,2,3,39,139,244.7312075360096,245.59193174804386,"[60, 0, 194]",194,l,0.338670997924055,1,colour,0.5,4.0
56,19,0,2,3,40,140,246.10621359138167,246.99999842460966,"[26, 0, 228]",228,a,0.3715252437541494,1,colour,0.5,4.0
56,19,0,2,3,41,141,247.5127131544141,248.3359983584378,"[50, 0, 204]",204,a,0.3012579837522935,1,colour,0.5,4.0
56,19,0,2,3,42,142,248.84084758826066,249.80793662858196,"[57, 0, 197]",197,a,0.44490506930742413,0,colour,0.5,4.0
56,19,0,2,3,43,143,250.32530858824612,251.00793796766084,"[86, 0, 168]",168,l,0.16022367306868546,1,colour,0.5,4.0
56,19,0,2,3,44,144,251.5129699420504,252.43992055337003,"[27, 0, 227]",227,a,0.4047248926071916,1,colour,0.5,4.0
56,19,0,2,3,45,145,252.95058255741606,254.04795903054764,"[62, 0, 192]",192,l,0.5751645390409976,1,colour,0.5,4.0
56,19,0,2,3,46,146,254.56007984047756,255.2799635140982,"[12, 0, 242]",242,a,0.19819319173984695,1,colour,0.5,4.0
56,19,0,2,3,47,147,255.79454980045557,256.83193367000786,"[11, 0, 243]",243,a,0.5150226678088075,1,colour,0.5,4.0
56,19,0,2,3,48,148,257.34157955119736,258.4479329579335,"[61, 0, 193]",193,a,0.5841591957287164,0,colour,0.5,4.0
56,19,0,2,3,49,149,258.96667077578604,259.895924205106,"[41, 0, 213]",213,a,0.40712341520702466,1,colour,0.5,4.0
56,19,0,2,3,50,150,260.40420068347885,261.28796331559715,"[67, 0, 187]",187,l,0.36140103652724065,1,colour,0.5,4.0
56,19,0,2,4,1,151,266.74152354628313,267.8879630005249,"[31, 0, 223]",223,a,0.6233059203368612,1,colour,0.5,4.0
56,19,0,2,4,2,152,268.39881247530866,269.23195997893345,"[24, 0, 230]",230,a,0.31126482486433815,1,colour,0.5,4.0
56,19,0,2,4,3,153,269.7425597553083,270.6239108679001,"[7, 0, 247]",247,a,0.35916241542145144,1,colour,0.5,4.0
56,19,0,2,4,4,154,271.1333102014323,272.04795115362504,"[62, 0, 192]",192,l,0.39240971964318305,1,colour,0.5,4.0
56,19,0,2,4,5,155,272.55532454294735,273.49596130540885,"[99, 0, 155]",155,l,0.41842049606202636,1,colour,0.5,4.0
56,19,0,2,4,6,156,274.008579149071,276.8959616204811,"[64, 0, 190]",190,l,2.3653316203708528,1,colour,0.5,4.0
56,19,0,2,4,7,157,277.41513975824637,278.3119473600964,"[78, 0, 176]",176,l,0.3748323692561826,1,colour,0.5,4.0
56,19,0,2,4,8,158,278.82142664439743,279.71992305821914,"[73, 0, 181]",181,l,0.37632347049657255,1,colour,0.5,4.0
56,19,0,2,4,9,159,280.22780962898105,281.07196867505263,"[1, 0, 253]",253,a,0.32192938891239464,1,colour,0.5,4.0
56,19,0,2,4,10,160,281.58721307820815,282.6479484754818,"[65, 0, 189]",189,l,0.5384344539779704,1,colour,0.5,4.0
56,19,0,2,4,11,161,283.1655287797039,284.00792457690113,"[95, 0, 159]",159,l,0.320367395383073,1,colour,0.5,4.0
56,19,0,2,4,12,162,284.5250338412152,285.41592863193364,"[45, 0, 209]",209,a,0.3687049120053416,1,colour,0.5,4.0
56,19,0,2,4,13,163,285.9313920135028,286.807917330123,"[91, 0, 163]",163,l,0.3545016409480013,1,colour,0.5,4.0
56,19,0,2,4,14,164,287.322005795053,288.2239393035852,"[30, 0, 224]",224,a,0.37960814678808674,1,colour,0.5,4.0
56,19,0,2,4,15,165,288.7441048134642,289.5839110726956,"[71, 0, 183]",183,l,0.31757148206816055,1,colour,0.5,4.0
56,19,0,2,4,16,166,290.10352125960344,291.03995410904463,"[38, 0, 216]",216,a,0.41403620153141674,1,colour,0.5,4.0
56,19,0,2,4,17,167,291.5567750780465,292.5119632714923,"[58, 0, 196]",196,a,0.4336883330688579,0,colour,0.5,4.0
56,19,0,2,4,18,168,293.0256346534152,293.9039350342937,"[16, 0, 238]",238,a,0.356040003724047,1,colour,0.5,4.0
56,19,0,2,4,19,169,294.4164422072208,295.32793436002976,"[89, 0, 165]",165,l,0.38925422487955075,1,colour,0.5,4.0
56,19,0,2,4,20,170,295.8384274041164,296.6399494616635,"[37, 0, 217]",217,a,0.27947987111110706,1,colour,0.5,4.0
56,19,0,2,4,21,171,297.1509903456463,298.0159031107032,"[3, 0, 251]",251,a,0.34259134175954387,1,colour,0.5,4.0
56,19,0,2,4,22,172,298.5261338533164,299.3439217538107,"[96, 0, 158]",158,l,0.29559368948685005,1,colour,0.5,4.0
56,19,0,2,4,23,173,299.854445124045,301.10395645952667,"[42, 0, 212]",212,a,0.7273864413728006,1,colour,0.5,4.0
56,19,0,2,4,24,174,301.62016381633293,303.0879600072949,"[0, 0, 254]",254,a,0.9455436907301191,1,colour,0.5,4.0
56,19,0,2,4,25,175,303.6046679424617,304.5039173899859,"[85, 0, 169]",169,l,0.37710722419433296,1,colour,0.5,4.0
56,19,0,2,4,26,176,305.0110871608922,305.85594213298464,"[41, 0, 213]",213,a,0.3226800595439272,1,colour,0.5,4.0
56,19,0,2,4,27,177,306.37043941012234,307.2320048773836,"[25, 0, 229]",229,a,0.33931296702940017,1,colour,0.5,4.0
56,19,0,2,4,28,178,307.7456002470135,308.6639283861732,"[6, 0, 248]",248,a,0.39602601432125084,1,colour,0.5,4.0
56,19,0,2,4,29,179,309.18328060390195,310.01592280300974,"[18, 0, 236]",236,a,0.3104452311672503,1,colour,0.5,4.0
56,19,0,2,4,30,180,310.527169668494,311.4079524612025,"[17, 0, 237]",237,a,0.3586677447601687,1,colour,0.5,4.0
56,19,0,2,4,31,181,311.92049901872815,314.7919173332775,"[2, 0, 252]",252,a,2.349117765101255,1,colour,0.5,4.0
56,19,0,2,4,32,182,315.31147710788355,316.0559210228239,"[33, 0, 221]",221,a,0.22227569775714073,1,colour,0.5,4.0
56,19,0,2,4,33,183,316.5523163466132,317.4479459548602,"[19, 0, 235]",235,a,0.37331409263424575,1,colour,0.5,4.0
56,19,0,2,4,34,184,317.9587068142864,318.79192914866144,"[81, 0, 173]",173,l,0.3117961232201196,1,colour,0.5,4.0
56,19,0,2,4,35,185,319.30248402658617,319.96791257246514,"[66, 0, 188]",188,l,0.14323433487152215,1,colour,0.5,4.0
56,19,0,2,4,36,186,320.47443998041854,321.36794754599396,"[57, 0, 197]",197,l,0.3713035084219882,1,colour,0.5,4.0
56,19,0,2,4,37,187,321.88081548192713,323.1119149071892,"[43, 0, 211]",211,a,0.708959171155584,1,colour,0.5,4.0
56,19,0,2,4,38,188,323.63101348804776,324.46392468402337,"[92, 0, 162]",162,l,0.3107933911087457,1,colour,0.5,4.0
56,19,0,2,4,39,189,324.9748170880339,325.84794626993244,"[75, 0, 179]",179,l,0.35092827551125083,1,colour,0.5,4.0
56,19,0,2,4,40,190,326.3656376387662,327.7999242240039,"[12, 0, 242]",242,a,0.9123621587932575,1,colour,0.5,4.0
56,19,0,2,4,41,191,328.3189038633427,329.3919441935868,"[20, 0, 234]",234,a,0.550815399226849,1,colour,0.5,4.0
56,19,0,2,4,42,192,329.89702815565397,331.12792041788634,"[93, 0, 161]",161,l,0.7085936820076313,1,colour,0.5,4.0
56,19,0,2,4,43,193,331.64725058022304,333.7359388089244,"[47, 0, 207]",207,a,1.5664136730774771,1,colour,0.5,4.0
56,19,0,2,4,44,194,334.252721968689,335.63994631089736,"[53, 0, 201]",201,a,0.8650037434999831,0,colour,0.5,4.0
56,19,0,2,4,45,195,336.15903386406717,336.983929110851,"[80, 0, 174]",174,l,0.30271166961756535,1,colour,0.5,4.0
56,19,0,2,4,46,196,337.5029733409465,338.7519447134546,"[59, 0, 195]",195,a,0.7267558938037837,0,colour,0.5,4.0
56,19,0,2,4,47,197,339.26865107324556,339.9359874095244,"[27, 0, 227]",227,a,0.14506926374451723,1,colour,0.5,4.0
56,19,0,2,4,48,198,340.456168279401,341.2639028649428,"[88, 0, 166]",166,l,0.28535369149176404,1,colour,0.5,4.0
56,19,0,2,4,49,199,341.7688351962861,342.83993347152136,"[67, 0, 187]",187,a,0.5487882734742016,0,colour,0.5,4.0
56,19,0,2,4,50,200,343.34708945780585,343.9759427001118,"[52, 0, 202]",202,a,0.11617198942985851,0,colour,0.5,4.0
56,19,0,2,5,1,201,350.5873194166488,351.9039090404549,"[41, 0, 213]",213,a,0.7936920037027448,1,colour,0.5,4.0
56,19,0,2,5,2,202,352.41640951798763,353.43992921797326,"[56, 0, 198]",198,a,0.5014337966422318,0,colour,0.5,4.0
56,19,0,2,5,3,203,353.945339678452,354.79991240863455,"[8, 0, 246]",246,a,0.33232338071684353,1,colour,0.5,4.0
56,19,0,2,5,4,204,355.3204441953567,355.9519054863922,"[3, 0, 251]",251,a,0.10911348005174659,1,colour,0.5,4.0
56,19,0,2,5,5,205,356.4611929676321,357.103950945675,"[79, 0, 175]",175,l,0.12054289318621159,1,colour,0.5,4.0
56,19,0,2,5,6,206,357.61754473992914,360.4879288146767,"[90, 0, 164]",164,l,2.3482178268168354,1,colour,0.5,4.0
56,19,0,2,5,7,207,361.0084582383279,361.6079250495095,"[47, 0, 207]",207,a,0.07723518478451297,1,colour,0.5,4.0
56,19,0,2,5,8,208,362.1178749798564,363.3279056092724,"[69, 0, 185]",185,l,0.6876611568877706,1,colour,0.5,4.0
56,19,0,2,5,9,209,363.8369154290267,364.58391776809003,"[32, 0, 222]",222,a,0.22485342033905908,1,colour,0.5,4.0
56,19,0,2,5,10,210,365.10251301365497,365.8159360362479,"[2, 0, 252]",252,a,0.19118548851110972,1,colour,0.5,4.0
56,19,0,2,5,11,211,366.32136855208955,367.1359466070717,"[26, 0, 228]",228,a,0.29242086548765656,1,colour,0.5,4.0
56,19,0,2,5,12,212,367.649600659759,368.23195210201084,"[76, 0, 178]",178,l,0.06740242365049198,1,colour,0.5,4.0
56,19,0,2,5,13,213,368.75183128578647,369.35989851373597,"[97, 0, 157]",157,l,0.08579818617727142,1,colour,0.5,4.0
56,19,0,2,5,14,214,369.8769014396239,370.83992677612696,"[40, 0, 214]",214,a,0.44074408551387023,1,colour,0.5,4.0
56,19,0,2,5,15,215,371.34576455959177,372.41591248424083,"[14, 0, 240]",240,a,0.5479178736422909,1,colour,0.5,4.0
56,19,0,2,5,16,216,372.9240420580318,373.8159053162526,"[21, 0, 233]",233,a,0.3696135149075417,1,colour,0.5,4.0
56,19,0,2,5,17,217,374.33043016261945,375.2159032682539,"[5, 0, 249]",249,a,0.3633411222981522,1,colour,0.5,4.0
56,19,0,2,5,18,218,375.72106718107534,376.6958724537253,"[77, 0, 177]",177,l,0.45239996013697237,1,colour,0.5,4.0
56,19,0,2,5,19,219,377.20561837180867,379.1519221854687,"[52, 0, 202]",202,a,1.4241127534187399,0,colour,0.5,4.0
56,19,0,2,5,20,220,379.6590411502111,382.527920339111,"[7, 0, 247]",247,a,2.3467712301790016,1,colour,0.5,4.0
56,19,0,2,5,21,221,383.0341622086562,383.83189861771825,"[63, 0, 191]",191,l,0.27539293038717005,1,colour,0.5,4.0
56,19,0,2,5,22,222,384.3467802886298,385.2638969572581,"[13, 0, 241]",241,a,0.39485392840288114,1,colour,0.5,4.0
56,19,0,2,5,23,223,385.7688261378207,386.58390477116336,"[16, 0, 238]",238,a,0.29289860077551566,1,colour,0.5,4.0
56,19,0,2,5,24,224,387.09704997473455,388.04793776286533,"[59, 0, 195]",195,a,0.4286593125143554,0,colour,0.5,4.0
56,19,0,2,5,25,225,388.56594499624043,389.73591163354286,"[72, 0, 182]",182,a,0.6484037615446141,0,colour,0.5,4.0
56,19,0,2,5,26,226,390.25357740237087,390.83192618693283,"[89, 0, 165]",165,l,0.05604981048963964,1,colour,0.5,4.0
56,19,0,2,5,27,227,391.34731670698966,393.2079353682784,"[61, 0, 193]",193,a,1.338410271826433,0,colour,0.5,4.0
56,19,0,2,5,28,228,393.72261223923124,394.73592069199367,"[36, 0, 218]",218,a,0.49118080173502676,1,colour,0.5,4.0
56,19,0,2,5,29,229,395.2539102023002,396.9039334589179,"[65, 0, 189]",189,l,1.1277034087106586,1,colour,0.5,4.0
56,19,0,2,5,30,230,397.41035098380235,398.3279099415813,"[12, 0, 242]",242,a,0.39528164523653686,1,colour,0.5,4.0
56,19,0,2,5,31,231,398.8479572976212,400.3359085615375,"[68, 0, 186]",186,l,0.9658208559558261,1,colour,0.5,4.0
56,19,0,2,5,32,232,400.84812625759514,401.71188584134507,"[84, 0, 170]",170,l,0.34169337271305267,1,colour,0.5,4.0
56,19,0,2,5,33,233,402.2232993037178,403.1758920515131,"[62, 0, 192]",192,a,0.4303898721700534,0,colour,0.5,4.0
56,19,0,2,5,34,234,403.69213288523315,404.6319283924822,"[73, 0, 181]",181,l,0.4175678193132626,1,colour,0.5,4.0
56,19,0,2,5,35,235,405.14537764521083,406.03192516294075,"[28, 0, 226]",226,a,0.3643796943943016,1,colour,0.5,4.0
56,19,0,2,5,36,236,406.5517417251831,407.3678868936986,"[98, 0, 156]",156,l,0.30636222889006604,1,colour,0.5,4.0
56,19,0,2,5,37,237,407.8831112107,409.3199345585308,"[10, 0, 244]",244,a,0.9146634014177835,1,colour,0.5,4.0
56,19,0,2,5,38,238,409.8364085491339,410.68793645528785,"[15, 0, 239]",239,a,0.3293002182181226,1,colour,0.5,4.0
56,19,0,2,5,39,239,411.19598765371484,412.1439054485818,"[82, 0, 172]",172,l,0.4257357930910075,1,colour,0.5,4.0
56,19,0,2,5,40,240,412.64914340447285,413.4319235087896,"[35, 0, 219]",219,a,0.26076666865264997,1,colour,0.5,4.0
56,19,0,2,5,41,241,413.9460887736932,417.3598969383602,"[53, 0, 201]",201,l,2.8915580275206594,1,colour,0.5,4.0
56,19,0,2,5,42,242,417.8683790043724,419.2638886864879,"[30, 0, 224]",224,a,0.8733981787809171,1,colour,0.5,4.0
56,19,0,2,5,43,243,419.7747361920483,420.79192914866144,"[1, 0, 253]",253,a,0.49500504713796545,1,colour,0.5,4.0
56,19,0,2,5,44,244,421.3061074104917,422.2479091696441,"[27, 0, 227]",227,a,0.41962527121359017,1,colour,0.5,4.0
56,19,0,2,5,45,245,422.7593509889266,423.79194529635424,"[58, 0, 196]",196,a,0.5196535099821631,0,colour,0.5,4.0
56,19,0,2,5,46,246,424.2970331968827,425.1439007224253,"[37, 0, 217]",217,a,0.32477965296129696,1,colour,0.5,4.0
56,19,0,2,5,47,247,425.65649651071,426.60001858952455,"[54, 0, 200]",200,a,0.4213081754860468,0,colour,0.5,4.0
56,19,0,2,5,48,248,427.1096806183923,428.00802185687644,"[85, 0, 169]",169,l,0.37610882439184934,1,colour,0.5,4.0
56,19,0,2,5,49,249,428.51606557221385,429.51189001611783,"[88, 0, 166]",166,l,0.47398351281299256,1,colour,0.5,4.0
56,19,0,2,5,50,250,430.0317944060371,430.90390667738393,"[23, 0, 231]",231,a,0.3500586633745115,1,colour,0.5,4.0
56,19,0,2,6,1,251,450.0325880058808,454.82391890235886,"[6, 0, 248]",248,a,4.268328513309825,1,colour,0.5,4.0
56,19,0,2,6,2,252,455.3332063836133,456.18392139146454,"[7, 0, 247]",247,a,0.3288071229326306,1,colour,0.5,4.0
56,19,0,2,6,3,253,456.6925952605234,457.51992998991045,"[35, 0, 219]",219,a,0.30512633991020266,1,colour,0.5,4.0
56,19,0,2,6,4,254,458.03721175882674,458.91992636653595,"[89, 0, 165]",165,l,0.3612226242548786,1,colour,0.5,4.0
56,19,0,2,6,5,255,459.4271977497119,460.2399038542935,"[47, 0, 207]",207,a,0.2905658504751045,1,colour,0.5,4.0
56,19,0,2,6,6,256,460.75534124202386,461.52789592066256,"[86, 0, 168]",168,l,0.25038409839908127,1,colour,0.5,4.0
56,19,0,2,6,7,257,462.03668597430806,462.8959155404882,"[16, 0, 238]",238,a,0.336935712111881,1,colour,0.5,4.0
56,19,0,2,6,8,258,463.4118649281154,464.27189360799093,"[23, 0, 231]",231,a,0.3377486104145646,1,colour,0.5,4.0
56,19,0,2,6,9,259,464.78795169712976,466.9998865723319,"[49, 0, 205]",205,a,1.688153858340229,1,colour,0.5,4.0
56,19,0,2,6,10,260,467.50838321064657,468.3919028397504,"[17, 0, 237]",237,a,0.36124625502270646,1,colour,0.5,4.0
56,19,0,2,6,11,261,468.8991474413924,469.9679129663127,"[63, 0, 191]",191,l,0.5468288892443525,1,colour,0.5,4.0
56,19,0,2,6,12,262,470.47740721674927,471.24791744039976,"[42, 0, 212]",212,a,0.2482833234098507,1,colour,0.5,4.0
56,19,0,2,6,13,263,471.758754312119,472.69591971526097,"[95, 0, 159]",159,l,0.41498497674183454,1,colour,0.5,4.0
56,19,0,2,6,14,264,473.2118998228834,474.10391274260473,"[25, 0, 229]",229,a,0.36963202567130793,1,colour,0.5,4.0
56,19,0,2,6,15,265,474.61835645668907,475.719912424378,"[53, 0, 201]",201,a,0.5793621505290503,0,colour,0.5,4.0
56,19,0,2,6,16,266,476.22779781359714,477.1838981545443,"[78, 0, 176]",176,l,0.4338651699363254,1,colour,0.5,4.0
56,19,0,2,6,17,267,477.69668850279413,478.5278911945061,"[65, 0, 189]",189,l,0.309006117618992,1,colour,0.5,4.0
56,19,0,2,6,18,268,479.0405696904636,479.99990626462386,"[56, 0, 198]",198,a,0.43713527391082607,0,colour,0.5,4.0
56,19,0,2,6,19,269,480.50941587505804,481.3918839351245,"[91, 0, 163]",163,l,0.36016790445137303,1,colour,0.5,4.0
56,19,0,2,6,20,270,481.90019428425876,482.85589999145304,"[79, 0, 175]",175,l,0.4335079515585676,1,colour,0.5,4.0
56,19,0,2,6,21,271,483.36906606885896,484.2639225572493,"[12, 0, 242]",242,a,0.37277373581309803,1,colour,0.5,4.0
56,19,0,2,6,22,272,484.77542581652233,485.66390554310055,"[34, 0, 220]",220,a,0.36632411247410346,1,colour,0.5,4.0
56,19,0,2,6,23,273,486.18175366266223,487.23991566967743,"[22, 0, 232]",232,a,0.5361867744213669,1,colour,0.5,4.0
56,19,0,2,6,24,274,487.76003234263044,489.2718959710619,"[55, 0, 199]",199,l,0.9895437805098481,1,colour,0.5,4.0
56,19,0,2,6,25,275,489.7913612226257,490.62395025251317,"[80, 0, 174]",174,l,0.310368037346052,1,colour,0.5,4.0
56,19,0,2,6,26,276,491.1352806133509,492.0399170875171,"[14, 0, 240]",240,a,0.38167465713922866,1,colour,0.5,4.0
56,19,0,2,6,27,277,492.55795110242616,494.43190893648716,"[11, 0, 243]",243,a,1.3521531368169235,1,colour,0.5,4.0
56,19,0,2,6,28,278,494.94888626236934,495.9999125661707,"[98, 0, 156]",156,l,0.5290995142713655,1,colour,0.5,4.0
56,19,0,2,6,29,279,496.51143512390263,497.35991229834326,"[97, 0, 157]",157,l,0.3327668513811659,1,colour,0.5,4.0
56,19,0,2,6,30,280,497.8800037651672,498.6798933307291,"[77, 0, 177]",177,l,0.2776662099349778,1,colour,0.5,4.0
56,19,0,2,6,31,281,499.1926364174433,500.4479164164077,"[1, 0, 253]",253,a,0.7330479787196964,1,colour,0.5,4.0
56,19,0,2,6,32,282,500.9584212758782,503.6958771798818,"[92, 0, 162]",162,l,2.215269963766332,1,colour,0.5,4.0
56,19,0,2,6,33,283,504.2086100266024,505.58389650039317,"[36, 0, 218]",218,a,0.8529634751030244,1,colour,0.5,4.0
56,19,0,2,6,34,284,506.09944928502955,507.47989947472524,"[61, 0, 193]",193,l,0.8584288771089632,1,colour,0.5,4.0
56,19,0,2,6,35,285,507.99017905423534,508.80790669628186,"[32, 0, 222]",222,a,0.2954495418234728,1,colour,0.5,4.0
56,19,0,2,6,36,286,509.3184355803678,510.1359099793917,"[72, 0, 182]",182,l,0.2952282003243454,1,colour,0.5,4.0
56,19,0,2,6,37,287,510.646696044947,511.59188448652276,"[29, 0, 225]",225,a,0.4228835598041769,1,colour,0.5,4.0
56,19,0,2,6,38,288,512.0999518326134,513.8399031453737,"[30, 0, 224]",224,a,1.2181076247507008,1,colour,0.5,4.0
56,19,0,2,6,39,289,514.3501319187344,515.2638808095653,"[74, 0, 180]",180,l,0.39167834748513997,1,colour,0.5,4.0
56,19,0,2,6,40,290,515.7684508025122,516.743877958128,"[13, 0, 241]",241,a,0.4532349138316931,1,colour,0.5,4.0
56,19,0,2,6,41,291,517.2529188917251,518.1278959994233,"[2, 0, 252]",252,a,0.35270767207839526,1,colour,0.5,4.0
56,19,0,2,6,42,292,518.6436299532506,519.5438955236605,"[67, 0, 187]",187,l,0.3781194086186588,1,colour,0.5,4.0
56,19,0,2,6,43,293,520.0499826116866,520.9358944618434,"[31, 0, 223]",223,a,0.36371685143967625,1,colour,0.5,4.0
56,19,0,2,6,44,294,521.456364414742,522.3358707523148,"[8, 0, 246]",246,a,0.3572869204072049,1,colour,0.5,4.0
56,19,0,2,6,45,295,522.8470794147288,523.855926772987,"[62, 0, 192]",192,a,0.48662557802163064,0,colour,0.5,4.0
56,19,0,2,6,46,296,524.3628208516311,525.6478984570276,"[73, 0, 181]",181,l,0.7628798497753451,1,colour,0.5,4.0
56,19,0,2,6,47,297,526.1598243131302,526.9758615678293,"[88, 0, 166]",166,l,0.29375127753883135,1,colour,0.5,4.0
56,19,0,2,6,48,298,527.488059965428,528.4318679764838,"[64, 0, 190]",190,l,0.42150312929879874,1,colour,0.5,4.0
56,19,0,2,6,49,299,528.9412617961789,529.8718814775348,"[70, 0, 184]",184,l,0.4136092723929323,1,colour,0.5,4.0
56,19,0,2,6,50,300,530.3893073940999,531.2159107513289,"[33, 0, 221]",221,a,0.3043370723753469,1,colour,0.5,4.0
56,19,0,2,7,1,301,537.0921178403223,539.1438904824317,"[4, 0, 250]",250,a,1.528765532799298,1,colour,0.5,3.9
56,19,0,2,7,2,302,539.655643046266,540.3359018661577,"[37, 0, 217]",217,a,0.15797756888787262,1,colour,0.5,3.9
56,19,0,2,7,3,303,540.8432236616354,542.631895703249,"[81, 0, 173]",173,l,1.2663813383114757,1,colour,0.5,3.9
56,19,0,2,7,4,304,543.1403431108192,544.047867658257,"[67, 0, 187]",187,l,0.3853421517997049,1,colour,0.5,3.9
56,19,0,2,7,5,305,544.5623007385002,545.3998943704792,"[6, 0, 248]",248,a,0.3227651302877348,1,colour,0.5,3.9
56,19,0,2,7,6,306,545.9144420599187,546.7519167503924,"[56, 0, 198]",198,a,0.3153438886802178,0,colour,0.5,3.9
56,19,0,2,7,7,307,547.2583122198994,548.4559949871182,"[68, 0, 186]",186,a,0.6755117931315908,0,colour,0.5,3.9
56,19,0,2,7,8,308,548.9642206593417,550.0478700213425,"[18, 0, 236]",236,a,0.5613921356125502,1,colour,0.5,3.9
56,19,0,2,7,9,309,550.5581377854687,551.3998943704792,"[28, 0, 226]",226,a,0.32004404775216244,1,colour,0.5,3.9
56,19,0,2,7,10,310,551.9176042500621,552.7838789348607,"[29, 0, 225]",225,a,0.34408086762414314,1,colour,0.5,3.9
56,19,0,2,7,11,311,553.2927292469685,554.1039158933709,"[22, 0, 232]",232,a,0.28894556770683266,1,colour,0.5,3.9
56,19,0,2,7,12,312,554.6211019576876,555.4078914150596,"[74, 0, 180]",180,l,0.26461572635162156,1,colour,0.5,3.9
56,19,0,2,7,13,313,555.9179457146092,556.6639157830941,"[46, 0, 208]",208,a,0.22370732824492734,1,colour,0.5,3.9
56,19,0,2,7,14,314,557.1836689361371,558.0318834152567,"[1, 0, 253]",253,a,0.3260246004210785,1,colour,0.5,3.9
56,19,0,2,7,15,315,558.5431613945693,559.5838799588673,"[82, 0, 172]",172,l,0.5184743348363554,1,colour,0.5,3.9
56,19,0,2,7,16,316,560.0901214345504,561.4238878672913,"[83, 0, 171]",171,l,0.8114824248186778,1,colour,0.5,3.9
56,19,0,2,7,17,317,561.9339366530039,562.8799100297911,"[60, 0, 194]",194,a,0.4235889381234301,0,colour,0.5,3.9
56,19,0,2,7,18,318,563.387306262186,564.3518703553127,"[58, 0, 196]",196,a,0.4423572790401522,0,colour,0.5,3.9
56,19,0,2,7,19,319,564.8718054652418,565.7278763858922,"[15, 0, 239]",239,a,0.33390939886157867,1,colour,0.5,3.9
56,19,0,2,7,20,320,566.2469123452174,567.0318968060164,"[12, 0, 242]",242,a,0.262807185165002,1,colour,0.5,3.9
56,19,0,2,7,21,321,567.5438191175199,568.3999014597066,"[36, 0, 218]",218,a,0.33383732502989005,1,colour,0.5,3.9
56,19,0,2,7,22,322,568.9189866497909,570.0398962136824,"[57, 0, 197]",197,a,0.5986665159580298,0,colour,0.5,3.9
56,19,0,2,7,23,323,570.5597655512975,571.6318736478715,"[59, 0, 195]",195,a,0.5547782784415176,0,colour,0.5,3.9
56,19,0,2,7,24,324,572.1488509737537,573.5678957158525,"[69, 0, 185]",185,a,0.8971274048672058,0,colour,0.5,3.9
56,19,0,2,7,25,325,574.0864897798892,574.8639234237198,"[95, 0, 159]",159,l,0.25524297743686475,1,colour,0.5,3.9
56,19,0,2,7,26,326,575.3834284537152,576.2078719590645,"[80, 0, 174]",174,l,0.302276469708886,1,colour,0.5,3.9
56,19,0,2,7,27,327,576.7273033398524,577.3838801951642,"[91, 0, 163]",163,l,0.13442360429326072,1,colour,0.5,3.9
56,19,0,2,7,28,328,577.8992691398307,578.6798878168775,"[35, 0, 219]",219,a,0.25869818904902786,1,colour,0.5,3.9
56,19,0,2,7,29,329,579.1966465581936,580.0959011257219,"[30, 0, 224]",224,a,0.37699812883511186,1,colour,0.5,3.9
56,19,0,2,7,30,330,580.6030291489296,581.5038870638382,"[86, 0, 168]",168,l,0.37869442388182506,1,colour,0.5,3.9
56,19,0,2,7,31,331,582.0093644781446,582.7518840611592,"[2, 0, 252]",252,a,0.2203159196942579,1,colour,0.5,3.9
56,19,0,2,7,32,332,583.259458311979,584.2238656543777,"[77, 0, 177]",177,l,0.44213002985634375,1,colour,0.5,3.9
56,19,0,2,7,33,333,584.7439468811936,585.6798590661201,"[71, 0, 183]",183,l,0.41370300776907243,1,colour,0.5,3.9
56,19,0,2,7,34,334,586.1971999119269,587.1438900885842,"[34, 0, 220]",220,a,0.4244939964119112,1,colour,0.5,3.9
56,19,0,2,7,35,335,587.6504048934585,588.9839003600937,"[85, 0, 169]",169,l,0.8098436313011916,1,colour,0.5,3.9
56,19,0,2,7,36,336,589.4957033362298,590.7198541351681,"[16, 0, 238]",238,a,0.7019613140873844,1,colour,0.5,3.9
56,19,0,2,7,37,337,591.2301053577539,592.0718926627596,"[23, 0, 231]",231,a,0.3202059184841346,1,colour,0.5,3.9
56,19,0,2,7,38,338,592.5896442900412,593.2398632881377,"[43, 0, 211]",211,a,0.12793971633072942,1,colour,0.5,3.9
56,19,0,2,7,39,339,593.7459909423196,594.2958961632685,"[39, 0, 215]",215,a,0.026208093302557245,1,colour,0.5,3.9
56,19,0,2,7,40,340,594.8007544515422,595.8558649391489,"[66, 0, 188]",188,l,0.5329150950565236,1,colour,0.5,3.9
56,19,0,2,7,41,341,596.3633958668943,597.5278624437342,"[65, 0, 189]",189,a,0.6423491658060811,0,colour,0.5,3.9
56,19,0,2,7,42,342,598.0363011866866,598.8638643468003,"[19, 0, 235]",235,a,0.3054654413863318,1,colour,0.5,3.9
56,19,0,2,7,43,343,599.3800413774588,600.1518587762403,"[44, 0, 210]",210,a,0.24954284315754194,1,colour,0.5,3.9
56,19,0,2,7,44,344,600.6613620851422,601.5598872497358,"[11, 0, 243]",243,a,0.37651527354319114,1,colour,0.5,3.9
56,19,0,2,7,45,345,602.0677364051226,602.9038842281589,"[87, 0, 167]",167,l,0.31385239359224215,1,colour,0.5,3.9
56,19,0,2,7,46,346,603.4117168419907,604.2318875112542,"[47, 0, 207]",207,a,0.2978248275030637,1,colour,0.5,3.9
56,19,0,2,7,47,347,604.7399615527393,605.4638411886554,"[48, 0, 206]",206,a,0.20176222488225903,1,colour,0.5,3.9
56,19,0,2,7,48,348,605.9768520907091,606.8319025561796,"[75, 0, 179]",179,l,0.3328846113727195,1,colour,0.5,3.9
56,19,0,2,7,49,349,607.3519506999146,607.9438895372004,"[97, 0, 157]",157,l,0.06967137090396136,1,colour,0.5,3.9
56,19,0,2,7,50,350,608.4613922537537,609.2718904572248,"[63, 0, 191]",191,a,0.288506035489263,0,colour,0.5,3.9
56,19,0,2,8,1,351,614.9616063090943,621.85591220067,"[92, 0, 162]",162,l,6.371364948397968,1,colour,0.5,3.9
56,19,0,2,8,2,352,622.3694445549336,624.1838662530208,"[76, 0, 178]",178,l,1.2923294932115823,1,colour,0.5,3.9
56,19,0,2,8,3,353,624.6975557518599,626.3918614858994,"[25, 0, 229]",229,a,1.1721442122507142,1,colour,0.5,3.9
56,19,0,2,8,4,354,626.900833102598,628.2158875144087,"[13, 0, 241]",241,a,0.7927849761908874,1,colour,0.5,3.9
56,19,0,2,8,5,355,628.7292579979257,630.3118654401187,"[26, 0, 228]",228,a,1.060412049642764,1,colour,0.5,3.9
56,19,0,2,8,6,356,630.8137194705196,632.2878471310105,"[6, 0, 248]",248,a,0.9519519602326909,1,colour,0.5,3.9
56,19,0,2,8,7,357,632.7982275351096,634.3358758723189,"[80, 0, 174]",174,l,1.0154982369567733,1,colour,0.5,3.9
56,19,0,2,8,8,358,634.8453240427625,636.3918358859082,"[94, 0, 160]",160,l,1.0369352788839024,1,colour,0.5,3.9
56,19,0,2,8,9,359,636.9111904667079,638.5118876530323,"[99, 0, 155]",155,l,1.0785175476048607,1,colour,0.5,3.9
56,19,0,2,8,10,360,639.0235756261245,640.4638561548054,"[72, 0, 182]",182,l,0.9180268469062867,1,colour,0.5,3.9
56,19,0,2,8,11,361,640.9769233768457,642.4558508394548,"[44, 0, 210]",210,a,0.9566733869869495,1,colour,0.5,3.9
56,19,0,2,8,12,362,642.9615566844877,644.519890605312,"[51, 0, 203]",203,a,1.036320485160104,0,colour,0.5,3.9
56,19,0,2,8,13,363,645.0397280414036,646.2718908510724,"[88, 0, 166]",166,l,0.7099721432750812,1,colour,0.5,3.9
56,19,0,2,8,14,364,646.7898476721457,648.1758818115195,"[40, 0, 214]",214,a,0.8637891222169856,1,colour,0.5,3.9
56,19,0,2,8,15,365,648.6962997767259,650.4718858886044,"[42, 0, 212]",212,a,1.2532895008916967,1,colour,0.5,3.9
56,19,0,2,8,16,366,650.9777374566911,652.7438791396562,"[50, 0, 204]",204,a,1.2438564935146132,1,colour,0.5,3.9
56,19,0,2,8,17,367,653.2612526746962,654.4558421748516,"[39, 0, 215]",215,a,0.6723665383760817,1,colour,0.5,3.9
56,19,0,2,8,18,368,654.9645384931355,656.1678690130939,"[97, 0, 157]",157,l,0.6811355212557828,1,colour,0.5,3.9
56,19,0,2,8,19,369,656.6833048254339,657.9119005711837,"[82, 0, 172]",172,l,0.7066161808470497,1,colour,0.5,3.9
56,19,0,2,8,20,370,658.4178817146312,659.7758814964327,"[41, 0, 213]",213,a,0.8357110477372771,1,colour,0.5,3.9
56,19,0,2,8,21,371,660.2930376284494,661.5358677590848,"[74, 0, 180]",180,l,0.7206579750054516,1,colour,0.5,3.9
56,19,0,2,8,22,372,662.0431411114987,663.3518459368643,"[96, 0, 158]",158,l,0.7862782451702515,1,colour,0.5,3.9
56,19,0,2,8,23,373,663.871492751452,665.1358839855384,"[34, 0, 220]",220,a,0.7420761123212287,1,colour,0.5,3.9
56,19,0,2,8,24,374,665.6528947883489,668.2078613252088,"[46, 0, 208]",208,a,2.0328034396807197,1,colour,0.5,3.9
56,19,0,2,8,25,375,668.7155470344733,670.0078903122921,"[90, 0, 164]",164,l,0.7701049560419051,1,colour,0.5,3.9
56,19,0,2,8,26,376,670.5282397482806,671.9118781219586,"[28, 0, 226]",226,a,0.8614760641939938,1,colour,0.5,3.9
56,19,0,2,8,27,377,672.4190226867067,673.9118816665723,"[5, 0, 249]",249,a,0.9706435011612484,1,colour,0.5,3.9
56,19,0,2,8,28,378,674.419210551292,676.3358510600083,"[21, 0, 233]",233,a,1.3944955284678144,1,colour,0.5,3.9
56,19,0,2,8,29,379,676.8412327697151,678.2798831694963,"[60, 0, 194]",194,a,0.9163947487686528,0,colour,0.5,3.9
56,19,0,2,8,30,380,678.7944714250771,680.0958522888104,"[0, 0, 254]",254,a,0.7791181234933902,1,colour,0.5,3.9
56,19,0,2,8,31,381,680.6070719789132,683.5198933622305,"[63, 0, 191]",191,a,2.3905117754038656,0,colour,0.5,3.9
56,19,0,2,8,32,382,684.0293533480581,685.2958737140434,"[79, 0, 175]",175,l,0.74436396418605,1,colour,0.5,3.9
56,19,0,2,8,33,383,685.810608480373,687.1358666563174,"[17, 0, 237]",237,a,0.8029276941961143,1,colour,0.5,3.9
56,19,0,2,8,34,384,687.6545390957181,689.5518736636295,"[81, 0, 173]",173,l,1.3750765538279666,1,colour,0.5,3.9
56,19,0,2,8,35,385,690.0610808002675,691.9518468033202,"[57, 0, 197]",197,a,1.3685355581983458,0,colour,0.5,3.9
56,19,0,2,8,36,386,692.4674468494777,693.6638771861908,"[30, 0, 224]",224,a,0.6741522364754928,1,colour,0.5,3.9
56,19,0,2,8,37,387,694.1706578371522,695.3678419952485,"[77, 0, 177]",177,l,0.6748426486446988,1,colour,0.5,3.9
56,19,0,2,8,38,388,695.8740295140306,697.3598815783625,"[68, 0, 186]",186,l,0.9636822717729956,1,colour,0.5,3.9
56,19,0,2,8,39,389,697.8741512124689,699.2638473326515,"[24, 0, 230]",230,a,0.867552715310012,1,colour,0.5,3.9
56,19,0,2,8,40,390,699.7804993416794,701.4958679638803,"[43, 0, 211]",211,a,1.19310824504646,1,colour,0.5,3.9
56,19,0,2,8,41,391,702.0150945447094,703.5518512144045,"[78, 0, 176]",176,l,1.0146640709572239,1,colour,0.5,3.9
56,19,0,2,8,42,392,704.0621264616057,705.4478723056382,"[64, 0, 190]",190,l,0.863528002257226,1,colour,0.5,3.9
56,19,0,2,8,43,393,705.9661209666665,709.807868099364,"[49, 0, 205]",205,a,3.3198022262513405,1,colour,0.5,3.9
56,19,0,2,8,44,394,710.3259273204312,711.2718747033796,"[12, 0, 242]",242,a,0.42456331331050023,1,colour,0.5,3.9
56,19,0,2,8,45,395,711.7791157604079,712.9038476004644,"[48, 0, 206]",206,a,0.6025683490297524,1,colour,0.5,3.9
56,19,0,2,8,46,396,713.4199163234589,714.391852033601,"[45, 0, 209]",209,a,0.4497883668082068,1,colour,0.5,3.9
56,19,0,2,8,47,397,714.9043840188242,716.0878450042364,"[10, 0, 244]",244,a,0.6612147867126623,1,colour,0.5,3.9
56,19,0,2,8,48,398,716.6076198187948,717.8638481991075,"[16, 0, 238]",238,a,0.7341365692700492,1,colour,0.5,3.9
56,19,0,2,8,49,399,718.3733381172497,719.7118653613434,"[62, 0, 192]",192,l,0.8162259069504216,1,colour,0.5,3.9
56,19,0,2,8,50,400,720.2172927572101,721.3438335322862,"[69, 0, 185]",185,l,0.6043071794556454,1,colour,0.5,3.9
56,19,0,2,9,1,401,726.295084446494,728.5038464976969,"[63, 0, 191]",191,l,1.6856627818924608,1,colour,0.5,3.9
56,19,0,2,9,2,402,729.0148212155327,730.4318274103425,"[14, 0, 240]",240,a,0.894803713017609,1,colour,0.5,3.9
56,19,0,2,9,3,403,730.9368991631927,732.2558569834509,"[30, 0, 224]",224,a,0.79676912308787,1,colour,0.5,3.9
56,19,0,2,9,4,404,732.7652275662258,734.1278640978853,"[40, 0, 214]",214,a,0.8406754775205627,1,colour,0.5,3.9
56,19,0,2,9,5,405,734.6402712339041,737.5118533884233,"[60, 0, 194]",194,a,2.349279635833227,0,colour,0.5,3.9
56,19,0,2,9,6,406,738.0311654338584,739.2718636756908,"[51, 0, 203]",203,a,0.7184622831409797,0,colour,0.5,3.9
56,19,0,2,9,7,407,739.781333901512,740.975848177055,"[57, 0, 197]",197,a,0.6723618122050539,0,colour,0.5,3.9
56,19,0,2,9,8,408,741.484625627636,742.7598385703604,"[48, 0, 206]",206,a,0.7529718640289502,1,colour,0.5,3.9
56,19,0,2,9,9,409,743.2659603168577,745.1118581933551,"[46, 0, 208]",208,a,1.3239340654399712,1,colour,0.5,3.9
56,19,0,2,9,10,410,745.6255445414281,747.1998591606389,"[8, 0, 246]",246,a,1.0520940205169609,1,colour,0.5,3.9
56,19,0,2,9,11,411,747.7194784060121,749.6318354448013,"[74, 0, 180]",180,l,1.3901340770244133,1,colour,0.5,3.9
56,19,0,2,9,12,412,750.1415344951965,752.8078298962937,"[99, 0, 155]",155,l,2.1441015839227475,1,colour,0.5,3.9
56,19,0,2,9,13,413,753.3136574397649,755.9598324263643,"[64, 0, 190]",190,l,2.1239827448152937,1,colour,0.5,3.9
56,19,0,2,9,14,414,756.4701537535584,757.9918410846731,"[73, 0, 181]",181,l,0.9993414893542649,1,colour,0.5,3.9
56,19,0,2,9,15,415,758.5015558889136,760.1838441976433,"[11, 0, 243]",243,a,1.1601330884732306,1,colour,0.5,3.9
56,19,0,2,9,16,416,760.689244418114,762.2078384821507,"[0, 0, 254]",254,a,0.9963313238113187,1,colour,0.5,3.9
56,19,0,2,9,17,417,762.7206942088378,764.0638251197379,"[89, 0, 165]",165,l,0.8209343368071131,1,colour,0.5,3.9
56,19,0,2,9,18,418,764.5801557503582,766.5198866668507,"[79, 0, 175]",175,l,1.417511105479207,1,colour,0.5,3.9
56,19,0,2,9,19,419,767.0334501349425,768.5998354511103,"[27, 0, 227]",227,a,1.0440087544120615,1,colour,0.5,3.9
56,19,0,2,9,20,420,769.111825504122,776.5358527929347,"[53, 0, 201]",201,a,6.901872462403844,0,colour,0.5,3.9
56,19,0,2,9,21,421,777.0498916332435,778.6078600649053,"[82, 0, 172]",172,l,1.0359802021412179,1,colour,0.5,3.9
56,19,0,2,9,22,422,779.1281894147542,780.8238456469844,"[24, 0, 230]",230,a,1.173440753525938,1,colour,0.5,3.9
56,19,0,2,9,23,423,781.3315037870198,782.7118334598199,"[5, 0, 249]",249,a,0.8588136647304054,1,colour,0.5,3.9
56,19,0,2,9,24,424,783.2222323746973,784.8318151223502,"[13, 0, 241]",241,a,1.0873869612551061,1,colour,0.5,3.9
56,19,0,2,9,25,425,785.3474443131126,786.9198791050003,"[50, 0, 204]",204,a,1.0502051347284578,1,colour,0.5,3.9
56,19,0,2,9,26,426,787.4257176761603,788.9278324326733,"[10, 0, 244]",244,a,0.9799453578016255,1,colour,0.5,3.9
56,19,0,2,9,27,427,789.4414691561396,790.9598265186796,"[4, 0, 250]",250,a,0.9963671637960942,1,colour,0.5,3.9
56,19,0,2,9,28,428,791.4729244607151,792.8958541004977,"[85, 0, 169]",169,l,0.9007086472411174,1,colour,0.5,3.9
56,19,0,2,9,29,429,793.4105805960717,795.1198560256162,"[65, 0, 189]",189,a,1.1870378954627085,0,colour,0.5,3.9
56,19,0,2,9,30,430,795.6295188421791,796.8318296946527,"[33, 0, 221]",221,a,0.6801032506919,1,colour,0.5,3.9
56,19,0,2,9,31,431,797.3484119929199,798.8958320451202,"[76, 0, 178]",178,l,1.0253187888592947,1,colour,0.5,3.9
56,19,0,2,9,32,432,799.4110366698151,801.3758299813635,"[77, 0, 177]",177,l,1.4424967005470535,1,colour,0.5,3.9
56,19,0,2,9,33,433,801.895637091322,803.1198863517639,"[38, 0, 216]",216,a,0.7020125140552409,1,colour,0.5,3.9
56,19,0,2,9,34,434,803.6301568728231,805.0638326028129,"[15, 0, 239]",239,a,0.9114567066717427,1,colour,0.5,3.9
56,19,0,2,9,35,435,805.583397497423,807.0638239381951,"[1, 0, 253]",253,a,0.9584015835716855,1,colour,0.5,3.9
56,19,0,2,9,36,436,807.5835621250735,809.0078521092219,"[7, 0, 247]",247,a,0.9023360192368273,1,colour,0.5,3.9
56,19,0,2,9,37,437,809.5211812389025,811.0398391060007,"[70, 0, 184]",184,l,0.9963084807386622,1,colour,0.5,3.9
56,19,0,2,9,38,438,811.5526373311732,813.271832561848,"[17, 0, 237]",237,a,1.19695927198336,1,colour,0.5,3.9
56,19,0,2,9,39,439,813.7871659742086,815.2878187740862,"[58, 0, 196]",196,a,0.9784377150208456,0,colour,0.5,3.9
56,19,0,2,9,40,440,815.8029422664986,816.8398476130678,"[29, 0, 225]",225,a,0.5146020402025897,1,colour,0.5,3.9
56,19,0,2,9,41,441,817.3500117956864,818.9438292787527,"[83, 0, 171]",171,l,1.071906053533894,1,colour,0.5,3.9
56,19,0,2,9,42,442,819.4595171525871,820.4638337055803,"[9, 0, 245]",245,a,0.482175511206151,1,colour,0.5,3.9
56,19,0,2,9,43,443,820.9752995494782,822.1758581807517,"[88, 0, 166]",166,l,0.678377417178126,1,colour,0.5,3.9
56,19,0,2,9,44,444,822.6941281094623,823.6398387909139,"[6, 0, 248]",248,a,0.42339555970102083,1,colour,0.5,3.9
56,19,0,2,9,45,445,824.1473598725133,825.3118296001339,"[21, 0, 233]",233,a,0.6422656704526162,1,colour,0.5,3.9
56,19,0,2,9,46,446,825.8193959740165,826.9038196374022,"[41, 0, 213]",213,a,0.5621447754674591,1,colour,0.5,3.9
56,19,0,2,9,47,447,827.4132930139895,828.7198245967011,"[56, 0, 198]",198,a,0.784348793225945,0,colour,0.5,3.9
56,19,0,2,9,48,448,829.2259392539709,830.5598470774421,"[75, 0, 179]",179,l,0.8117183386202669,1,colour,0.5,3.9
56,19,0,2,9,49,449,831.0687600110687,840.415834896572,"[55, 0, 199]",199,a,8.824823566814302,0,colour,0.5,3.9
56,19,0,2,9,50,450,840.9298016630491,842.2078451775305,"[61, 0, 193]",193,l,0.7567583002091851,1,colour,0.5,3.9
56,19,0,2,10,1,451,863.5861532384151,865.3758610952063,"[28, 0, 226]",226,a,1.2665967721113702,1,colour,0.5,3.9
56,19,0,2,10,2,452,865.883984761298,866.9838007170329,"[19, 0, 235]",235,a,0.5781884892203379,1,colour,0.5,3.9
56,19,0,2,10,3,453,867.4934729858942,868.607812015689,"[13, 0, 241]",241,a,0.5920262711151736,1,colour,0.5,3.9
56,19,0,2,10,4,454,869.1185941427975,870.8718078283127,"[62, 0, 192]",192,l,1.230929283745354,1,colour,0.5,3.9
56,19,0,2,10,5,455,871.384335481227,872.5598395943671,"[51, 0, 203]",203,a,0.6533922159433132,0,colour,0.5,3.9
56,19,0,2,10,6,456,873.073197474805,874.1598538515973,"[74, 0, 180]",180,l,0.5645759872859344,1,colour,0.5,3.9
56,19,0,2,10,7,457,874.6669413086638,875.7278247920476,"[45, 0, 209]",209,a,0.5386585523810936,1,colour,0.5,3.9
56,19,0,2,10,8,458,876.2452278655546,877.3438437722798,"[6, 0, 248]",248,a,0.576332292650477,1,colour,0.5,3.9
56,19,0,2,10,9,459,877.8546723732288,879.2478260681091,"[57, 0, 197]",197,l,0.870781465433538,1,colour,0.5,3.9
56,19,0,2,10,10,460,879.7611091178114,880.7678056826408,"[22, 0, 232]",232,a,0.4845086553541478,1,colour,0.5,3.9
56,19,0,2,10,11,461,881.2768808808614,882.3758366767579,"[50, 0, 204]",204,a,0.5767592218180653,1,colour,0.5,3.9
56,19,0,2,10,12,462,882.8863246008405,883.9358724064659,"[99, 0, 155]",155,l,0.5272555269330041,1,colour,0.5,3.9
56,19,0,2,10,13,463,884.4490054008056,885.6318141771189,"[39, 0, 215]",215,a,0.6608733221655712,1,colour,0.5,3.9
56,19,0,2,10,14,464,886.1365905454004,889.2798571756575,"[24, 0, 230]",230,l,2.6208518654311774,0,colour,0.5,3.9
56,19,0,2,10,15,465,889.7931933945656,890.9918083954544,"[16, 0, 238]",238,a,0.6763538360391976,1,colour,0.5,3.9
56,19,0,2,10,16,466,891.5121231729863,892.8078137486154,"[38, 0, 216]",216,a,0.773510936909588,1,colour,0.5,3.9
56,19,0,2,10,17,467,893.3246859175997,894.5758151727641,"[85, 0, 169]",169,l,0.7289047180092894,1,colour,0.5,3.9
56,19,0,2,10,18,468,895.0904345421877,896.4558201194595,"[61, 0, 193]",193,l,0.8432130277942633,1,colour,0.5,3.9
56,19,0,2,10,19,469,896.9656085729221,898.1277888732875,"[34, 0, 220]",220,a,0.6400865200994303,1,colour,0.5,3.9
56,19,0,2,10,20,470,898.63757732675,899.9438442449027,"[91, 0, 163]",163,l,0.7839100487035466,1,colour,0.5,3.9
56,19,0,2,10,21,471,900.4503775605408,901.4318037795747,"[10, 0, 244]",244,a,0.4594710725941695,1,colour,0.5,3.9
56,19,0,2,10,22,472,901.9503521574661,903.255822718842,"[44, 0, 210]",210,a,0.7832798949821154,1,colour,0.5,3.9
56,19,0,2,10,23,473,903.7630799235776,904.7278515735816,"[98, 0, 156]",156,l,0.44308038042800035,1,colour,0.5,3.9
56,19,0,2,10,24,474,905.2474649112701,906.239815632769,"[35, 0, 219]",219,a,0.4700344182056142,1,colour,0.5,3.9
56,19,0,2,10,25,475,906.7477140189003,908.1438310116646,"[55, 0, 199]",199,a,0.8739452309673652,0,colour,0.5,3.9
56,19,0,2,10,26,476,908.6540755388851,909.9358176618698,"[37, 0, 217]",217,a,0.75961013964843,1,colour,0.5,3.9
56,19,0,2,10,27,477,910.4511368957756,911.6078135910648,"[90, 0, 164]",164,l,0.63452423196577,1,colour,0.5,3.9
56,19,0,2,10,28,478,912.1230950157478,913.3038333432341,"[63, 0, 191]",191,l,0.6585441164643271,1,colour,0.5,3.9
56,19,0,2,10,29,479,913.8107321480347,915.1598128915939,"[80, 0, 174]",174,l,0.8268144587054849,1,colour,0.5,3.9
56,19,0,2,10,30,480,915.6703094803088,920.5998299372586,"[68, 0, 186]",186,l,4.407341605940019,1,colour,0.5,3.9
56,19,0,2,10,31,481,921.1081142925541,922.0717942012416,"[89, 0, 165]",165,l,0.4414140176959336,1,colour,0.5,3.9
56,19,0,2,10,32,482,922.5769959233003,923.7038324767782,"[49, 0, 205]",205,a,0.6046171363268513,1,colour,0.5,3.9
56,19,0,2,10,33,483,924.2178086955682,925.3198061647126,"[32, 0, 222]",222,a,0.5798442181257997,1,colour,0.5,3.9
56,19,0,2,10,34,484,925.8272587170941,927.007835961529,"[26, 0, 228]",228,a,0.6583393165055895,1,colour,0.5,3.9
56,19,0,2,10,35,485,927.5148895478342,928.711819281365,"[5, 0, 249]",249,a,0.6747028332902119,1,colour,0.5,3.9
56,19,0,2,10,36,486,929.2181690647267,930.3198242816288,"[20, 0, 234]",234,a,0.5794491905107861,1,colour,0.5,3.9
56,19,0,2,10,37,487,930.8276482308574,931.9758442385937,"[79, 0, 175]",175,l,0.6259202705841744,1,colour,0.5,3.9
56,19,0,2,10,38,488,932.4840829077439,933.7838734210236,"[69, 0, 185]",185,l,0.7775462838180829,1,colour,0.5,3.9
56,19,0,2,10,39,489,934.2966976400348,935.6318126017286,"[36, 0, 218]",218,a,0.812946350677521,1,colour,0.5,3.9
56,19,0,2,10,40,490,936.1405853261531,937.5197925376415,"[3, 0, 251]",251,a,0.8569354127976112,1,colour,0.5,3.9
56,19,0,2,10,41,491,938.031382049201,939.447836859501,"[41, 0, 213]",213,a,0.8943204638926545,1,colour,0.5,3.9
56,19,0,2,10,42,492,939.953489141466,941.2237920051557,"[70, 0, 184]",184,l,0.7481003819120815,1,colour,0.5,3.9
56,19,0,2,10,43,493,941.7348088645231,942.9358318403247,"[87, 0, 167]",167,l,0.6788059217069531,1,colour,0.5,3.9
56,19,0,2,10,44,494,943.4537248583365,944.9038145173981,"[23, 0, 231]",231,a,0.9278501557419077,1,colour,0.5,3.9
56,19,0,2,10,45,495,945.4233297874016,946.6078313141479,"[97, 0, 157]",157,l,0.663047746362281,1,colour,0.5,3.9
56,19,0,2,10,46,496,947.1258275198343,948.18380323764,"[81, 0, 173]",173,l,0.5357937160151778,1,colour,0.5,3.9
56,19,0,2,10,47,497,948.7040301875095,949.951813720254,"[31, 0, 223]",223,a,0.7254526571487077,1,colour,0.5,3.9
56,19,0,2,10,48,498,950.4698233167001,951.7037887598708,"[76, 0, 178]",178,l,0.7116286598757142,1,colour,0.5,3.9
56,19,0,2,10,49,499,952.2200607074337,953.7917846071505,"[56, 0, 198]",198,a,1.0494926671817666,0,colour,0.5,3.9
56,19,0,2,10,50,500,954.2982509689609,955.407820128923,"[88, 0, 166]",166,l,0.5874009427934652,1,colour,0.5,3.9
56,19,0,2,11,1,501,979.8151451933227,981.3837931551825,"[72, 0, 182]",182,l,1.0458535294310423,1,colour,0.5,3.9
56,19,0,2,11,2,502,981.8943425192556,983.183793391494,"[28, 0, 226]",226,a,0.7674334980983986,1,colour,0.5,3.9
56,19,0,2,11,3,503,983.6912179807987,984.8477714022738,"[54, 0, 200]",200,a,0.6343111612368375,0,colour,0.5,3.9
56,19,0,2,11,4,504,985.3631717684766,986.6877856122446,"[77, 0, 177]",177,l,0.8023136881529354,1,colour,0.5,3.9
56,19,0,2,11,5,505,987.2071882422752,988.1518095454812,"[11, 0, 243]",243,a,0.42247592911007814,1,colour,0.5,3.9
56,19,0,2,11,6,506,988.6603731376381,989.8317733746662,"[65, 0, 189]",189,l,0.6491934229270555,1,colour,0.5,3.9
56,19,0,2,11,7,507,990.3480149960815,991.4797974685935,"[35, 0, 219]",219,a,0.609555572271347,1,colour,0.5,3.9
56,19,0,2,11,8,508,991.9888313129632,993.2397699466237,"[15, 0, 239]",239,a,0.7287586011079838,1,colour,0.5,3.9
56,19,0,2,11,9,509,993.7544594206556,995.0958006949804,"[89, 0, 165]",165,l,0.8189753464248497,1,colour,0.5,3.9
56,19,0,2,11,10,510,995.6140080021578,996.8557826253236,"[67, 0, 187]",187,l,0.7195366952364566,1,colour,0.5,3.9
56,19,0,2,11,11,511,997.3642520882713,998.5838232450333,"[29, 0, 225]",225,a,0.6974832841951866,1,colour,0.5,3.9
56,19,0,2,11,12,512,999.0986903436424,1000.3997714904981,"[81, 0, 173]",173,l,0.7788711820030585,1,colour,0.5,3.9
56,19,0,2,11,13,513,1000.9113940851385,1002.5198047468584,"[51, 0, 203]",203,a,1.0862369306996698,0,colour,0.5,3.9
56,19,0,2,11,14,514,1003.0365670327883,1004.2558042080782,"[95, 0, 159]",159,l,0.6970973150309874,1,colour,0.5,3.9
56,19,0,2,11,15,515,1004.7710332512361,1005.8878082190058,"[21, 0, 233]",233,a,0.5945165598386666,1,colour,0.5,3.9
56,19,0,2,11,16,516,1006.3961729189032,1007.6157708571991,"[37, 0, 217]",217,a,0.6973379549890524,1,colour,0.5,3.9
56,19,0,2,11,17,517,1008.1306867927196,1009.439780738001,"[32, 0, 222]",222,a,0.7869371496490203,1,colour,0.5,3.9
56,19,0,2,11,18,518,1009.9589970788365,1011.2397888512351,"[34, 0, 220]",220,a,0.7585412413900485,1,colour,0.5,3.9
56,19,0,2,11,19,519,1011.7559607619041,1013.095795968824,"[90, 0, 164]",164,l,0.8176618697470985,1,colour,0.5,3.9
56,19,0,2,11,20,520,1013.6154687772505,1014.8397735700128,"[45, 0, 209]",209,a,0.7021850186574738,1,colour,0.5,3.9
56,19,0,2,11,21,521,1015.3500889895222,1016.5837744081073,"[49, 0, 205]",205,a,0.7119043521088315,1,colour,0.5,3.9
56,19,0,2,11,22,522,1017.100104251047,1018.4717984547751,"[33, 0, 221]",221,a,0.8496500480687246,1,colour,0.5,3.9
56,19,0,2,11,23,523,1018.9908860079449,1020.9838278924144,"[8, 0, 246]",246,a,1.4706563011714024,1,colour,0.5,3.9
56,19,0,2,11,24,524,1021.4911402355792,1022.8237759362382,"[50, 0, 204]",204,a,0.8104753603984136,1,colour,0.5,3.9
56,19,0,2,11,25,525,1023.3350275278644,1024.607795080301,"[83, 0, 171]",171,l,0.7506339937099256,1,colour,0.5,3.9
56,19,0,2,11,26,526,1025.1163945124572,1026.7358033258643,"[93, 0, 161]",161,l,1.0974434269592166,1,colour,0.5,3.9
56,19,0,2,11,27,527,1027.2415682478022,1028.879765094447,"[61, 0, 193]",193,a,1.115899054100737,0,colour,0.5,3.9
56,19,0,2,11,28,528,1029.3980279339157,1030.735809627411,"[19, 0, 235]",235,a,0.8156044178613229,1,colour,0.5,3.9
56,19,0,2,11,29,529,1031.2417222416261,1032.839784991549,"[53, 0, 201]",201,a,1.0756716158648487,0,colour,0.5,3.9
56,19,0,2,11,30,530,1033.3513528415788,1036.4718012117082,"[68, 0, 186]",186,l,2.5981186760764103,1,colour,0.5,3.9
56,19,0,2,11,31,531,1036.976736693803,1038.7358001750981,"[46, 0, 208]",208,a,1.2368480025907047,1,colour,0.5,3.9
56,19,0,2,11,32,532,1039.2425162353175,1040.351807733794,"[13, 0, 241]",241,a,0.5870350597833749,1,colour,0.5,3.9
56,19,0,2,11,33,533,1040.8676933183597,1041.8877869513235,"[43, 0, 211]",211,a,0.49788800042006187,1,colour,0.5,3.9
56,19,0,2,11,34,534,1042.3993091152079,1044.3037663894065,"[97, 0, 157]",157,l,1.3826576969586313,1,colour,0.5,3.9
56,19,0,2,11,35,535,1044.8210958136915,1046.6077915356873,"[38, 0, 216]",216,a,1.2644290433090646,1,colour,0.5,3.9
56,19,0,2,11,36,536,1047.1181782413332,1048.1117821810622,"[14, 0, 240]",240,a,0.47144084254978225,1,colour,0.5,3.9
56,19,0,2,11,37,537,1048.6182572074758,1049.6557678954705,"[5, 0, 249]",249,a,0.5152881200629054,1,colour,0.5,3.9
56,19,0,2,11,38,538,1050.1652712043724,1051.2237801897718,"[30, 0, 224]",224,a,0.5342092732607853,1,colour,0.5,3.9
56,19,0,2,11,39,539,1051.7299243854795,1053.343781150761,"[64, 0, 190]",190,l,1.0915298281324795,1,colour,0.5,3.9
56,19,0,2,11,40,540,1053.8559547360492,1054.8797875436721,"[96, 0, 158]",158,l,0.5022785964829382,1,colour,0.5,3.9
56,19,0,2,11,41,541,1055.3865091177286,1057.0557871151686,"[60, 0, 194]",194,a,1.1471050541149452,0,colour,0.5,3.9
56,19,0,2,11,42,542,1057.574213006912,1058.335761263108,"[4, 0, 250]",250,a,0.23930638980527874,1,colour,0.5,3.9
56,19,0,2,11,43,543,1058.8554986622912,1059.5837685004226,"[36, 0, 218]",218,a,0.20604372558591422,1,colour,0.5,3.9
56,19,0,2,11,44,544,1060.0899753176636,1061.015779049194,"[73, 0, 181]",181,l,0.403532720534713,1,colour,0.5,3.9
56,19,0,2,11,45,545,1061.5276540991617,1063.0237560076202,"[17, 0, 237]",237,a,0.9738482266839128,1,colour,0.5,3.9
56,19,0,2,11,46,546,1063.5434713514405,1064.6797980199772,"[74, 0, 180]",180,l,0.6142234359722352,1,colour,0.5,3.9
56,19,0,2,11,47,547,1065.1997815729555,1066.223778614396,"[62, 0, 192]",192,l,0.5019524919334799,1,colour,0.5,3.9
56,19,0,2,11,48,548,1066.731143339086,1067.8557641145453,"[88, 0, 166]",166,l,0.6023221952345921,1,colour,0.5,3.9
56,19,0,2,11,49,549,1068.3719100313756,1073.7038931290735,"[76, 0, 178]",178,l,4.809632923643221,1,colour,0.5,3.9
56,19,0,2,11,50,550,1074.216134455899,1075.463793139439,"[39, 0, 215]",215,a,0.7257173217076343,1,colour,0.5,3.9
56,19,0,2,12,1,551,1113.8278349139,1115.1277585471398,"[71, 0, 183]",183,l,0.7768511454778491,1,colour,0.5,3.9
56,19,0,2,12,2,552,1115.641420870612,1116.9517983602564,"[22, 0, 232]",232,a,0.7882522017025622,1,colour,0.5,3.9
56,19,0,2,12,3,553,1117.4695834644517,1118.4477699056588,"[81, 0, 173]",173,l,0.45603240249329247,1,colour,0.5,3.9
56,19,0,2,12,4,554,1118.9540775475034,1119.9998247384938,"[21, 0, 233]",233,a,0.5234769676899305,1,colour,0.5,3.9
56,19,0,2,12,5,555,1120.5167575597734,1121.5039563807513,"[18, 0, 236]",236,a,0.465429963733186,1,colour,0.5,3.9
56,19,0,2,12,6,556,1122.0168810305186,1122.9437674449146,"[30, 0, 224]",224,a,0.4049430833401857,1,colour,0.5,3.9
56,19,0,2,12,7,557,1123.4545223966416,1124.6957684783702,"[63, 0, 191]",191,l,0.7191578153142473,1,colour,0.5,3.9
56,19,0,2,12,8,558,1125.2056101010385,1126.1277601225302,"[0, 0, 254]",254,a,0.3999896812310908,1,colour,0.5,3.9
56,19,0,2,12,9,559,1126.6432510733284,1127.7517816611798,"[25, 0, 229]",229,a,0.5863032937777461,1,colour,0.5,3.9
56,19,0,2,12,10,560,1128.2683040948468,1129.2317429697432,"[2, 0, 252]",252,a,0.4412194577307673,1,colour,0.5,3.9
56,19,0,2,12,11,561,1129.7372522855876,1130.6557596247003,"[1, 0, 253]",253,a,0.39627846964867786,1,colour,0.5,3.9
56,19,0,2,12,12,562,1131.1747676209634,1132.5437659482996,"[37, 0, 217]",217,a,0.8468064793996746,1,colour,0.5,3.9
56,19,0,2,12,13,563,1133.050019239381,1134.2557813650055,"[80, 0, 174]",174,l,0.6838022530282615,1,colour,0.5,3.9
56,19,0,2,12,14,564,1134.768810777823,1136.0957853349828,"[66, 0, 188]",188,l,0.8047212692326866,1,colour,0.5,3.9
56,19,0,2,12,15,565,1136.6127681747166,1137.5117966745893,"[91, 0, 163]",163,l,0.376853587324149,1,colour,0.5,3.9
56,19,0,2,12,16,566,1138.019167306993,1139.1677674008097,"[48, 0, 206]",206,a,0.6263826458889525,1,colour,0.5,3.9
56,19,0,2,12,17,567,1139.675503916209,1140.7357718181884,"[57, 0, 197]",197,a,0.5380784171284176,0,colour,0.5,3.9
56,19,0,2,12,18,568,1141.2538050454023,1142.3837549521122,"[50, 0, 204]",204,a,0.607767511086422,1,colour,0.5,3.9
56,19,0,2,12,19,569,1142.8944878484617,1143.975747352466,"[38, 0, 216]",216,a,0.5591613914293703,1,colour,0.5,3.9
56,19,0,2,12,20,570,1144.488291153073,1145.3677348691126,"[43, 0, 211]",211,a,0.35713174505508505,1,colour,0.5,3.9
56,19,0,2,12,21,571,1145.8790821653383,1147.10376465648,"[88, 0, 166]",166,l,0.7024189632065827,1,colour,0.5,3.9
56,19,0,2,12,22,572,1147.6136102176242,1148.375770510611,"[96, 0, 158]",158,l,0.24000231581158005,1,colour,0.5,3.9
56,19,0,2,12,23,573,1148.8949293499172,1149.7917928779207,"[94, 0, 160]",160,l,0.374557070856099,1,colour,0.5,3.9
56,19,0,2,12,24,574,1150.3013213929662,1151.119767016411,"[92, 0, 162]",162,l,0.29622463090345263,1,colour,0.5,3.9
56,19,0,2,12,25,575,1151.62946961142,1152.447788416437,"[85, 0, 169]",169,l,0.2959560278832214,1,colour,0.5,3.9
56,19,0,2,12,26,576,1152.957780094468,1153.7757397118548,"[56, 0, 198]",198,a,0.29573704945505597,0,colour,0.5,3.9
56,19,0,2,12,27,577,1154.2862607190036,1154.9997636923508,"[78, 0, 176]",176,l,0.19150214074761607,1,colour,0.5,3.9
56,19,0,2,12,28,578,1155.5048051190533,1156.4157620350452,"[8, 0, 246]",246,a,0.38868629884382244,1,colour,0.5,3.9
56,19,0,2,12,29,579,1156.9267777128698,1157.7597783119127,"[79, 0, 175]",175,l,0.3107591264997609,1,colour,0.5,3.9
56,19,0,2,12,30,580,1158.2691327469947,1159.1197878902458,"[29, 0, 225]",225,a,0.3283782245562179,1,colour,0.5,3.9
56,19,0,2,12,31,581,1159.6285988177406,1160.5437844590633,"[87, 0, 167]",167,l,0.3929079349327367,1,colour,0.5,3.9
56,19,0,2,12,32,582,1161.0505875592644,1161.8877467790298,"[42, 0, 212]",212,a,0.315243851771811,1,colour,0.5,3.9
56,19,0,2,12,33,583,1162.3944691407814,1163.5837515650346,"[84, 0, 170]",170,l,0.6670960901683429,1,colour,0.5,3.9
56,19,0,2,12,34,584,1164.0976840669173,1165.079744378134,"[54, 0, 200]",200,a,0.45978969406860415,0,colour,0.5,3.9
56,19,0,2,12,35,585,1165.5978272299544,1166.8717365421762,"[39, 0, 215]",215,a,0.7516422396729467,1,colour,0.5,3.9
56,19,0,2,12,36,586,1167.379242263778,1168.4637667517381,"[53, 0, 201]",201,a,0.5623137354123173,0,colour,0.5,3.9
56,19,0,2,12,37,587,1168.9730652606813,1169.8637387099006,"[28, 0, 226]",226,a,0.368703336614999,1,colour,0.5,3.9
56,19,0,2,12,38,588,1170.3794254022068,1171.4957529608364,"[17, 0, 237]",237,a,0.594049852254102,1,colour,0.5,3.9
56,19,0,2,12,39,589,1172.004595002174,1173.2637539911375,"[3, 0, 251]",251,a,0.7369982548698317,1,colour,0.5,3.9
56,19,0,2,12,40,590,1173.7691959592921,1174.4877637931786,"[44, 0, 210]",210,a,0.19630903212237172,1,colour,0.5,3.9
56,19,0,2,12,41,591,1175.0036363808176,1175.967784178647,"[13, 0, 241]",241,a,0.4418779683619505,1,colour,0.5,3.9
56,19,0,2,12,42,592,1176.4880576023425,1179.53577126679,"[51, 0, 203]",203,a,2.5261488194664707,0,colour,0.5,3.9
56,19,0,2,12,43,593,1180.0509305992018,1181.0077682200063,"[23, 0, 231]",231,a,0.4347083944012411,1,colour,0.5,3.9
56,19,0,2,12,44,594,1181.5198390114674,1182.343777999995,"[41, 0, 213]",213,a,0.30173729443049524,1,colour,0.5,3.9
56,19,0,2,12,45,595,1182.8636733314488,1184.0397473398625,"[70, 0, 184]",184,l,0.6538057543366449,1,colour,0.5,3.9
56,19,0,2,12,46,596,1184.5512572945154,1185.703794273708,"[86, 0, 168]",168,l,0.6302907804929418,1,colour,0.5,3.9
56,19,0,2,12,47,597,1186.2232142329594,1187.1277648486866,"[6, 0, 248]",248,a,0.3822957524098456,1,colour,0.5,3.9
56,19,0,2,12,48,598,1187.645261263693,1188.6077328526299,"[75, 0, 179]",179,l,0.44006509488099255,1,colour,0.5,3.9
56,19,0,2,12,49,599,1189.1141523467522,1190.0077477400046,"[82, 0, 172]",172,l,0.37137873301981017,1,colour,0.5,3.9
56,19,0,2,12,50,600,1190.5205562051706,1191.4557886117836,"[35, 0, 219]",219,a,0.4129692725255154,1,colour,0.5,3.9
56,19,0,2,13,1,601,1196.004498903727,1197.2317886558885,"[73, 0, 181]",181,l,0.7041952090221457,1,colour,0.5,3.9
56,19,0,2,13,2,602,1197.739847337376,1198.527734049916,"[30, 0, 224]",224,a,0.26565114768163767,1,colour,0.5,3.9
56,19,0,2,13,3,603,1199.036840361965,1200.1357536224968,"[64, 0, 190]",190,l,0.5766383110603783,1,colour,0.5,3.9
56,19,0,2,13,4,604,1200.64630298657,1201.615770069504,"[83, 0, 171]",171,l,0.44744695189001504,1,colour,0.5,3.9
56,19,0,2,13,5,605,1202.1318001955806,1203.047745172138,"[32, 0, 222]",222,a,0.39395911012252327,1,colour,0.5,3.9
56,19,0,2,13,6,606,1203.5537601863325,1204.7837473902764,"[57, 0, 197]",197,a,0.7077130421821494,0,colour,0.5,3.9
56,19,0,2,13,7,607,1205.29756173832,1206.1437995039887,"[50, 0, 204]",204,a,0.32395060698036104,1,colour,0.5,3.9
56,19,0,2,13,8,608,1206.6571790459711,1207.5837665311847,"[3, 0, 251]",251,a,0.4044350218900945,1,colour,0.5,3.9
56,19,0,2,13,9,609,1208.094660116738,1209.1917742883816,"[61, 0, 193]",193,l,0.574782508352655,1,colour,0.5,3.9
56,19,0,2,13,10,610,1209.7041786674818,1210.6237734156166,"[23, 0, 231]",231,a,0.39761557707970496,1,colour,0.5,3.9
56,19,0,2,13,11,611,1211.1418153074483,1212.09573925499,"[26, 0, 228]",228,a,0.4316489980847109,1,colour,0.5,3.9
56,19,0,2,13,12,612,1212.6106945751235,1213.591736400398,"[38, 0, 216]",216,a,0.45889172502211295,1,colour,0.5,3.9
56,19,0,2,13,13,613,1214.1107400643377,1215.2637681695924,"[79, 0, 175]",175,l,0.6307240111782448,1,colour,0.5,3.9
56,19,0,2,13,14,614,1215.7827970396902,1216.6717418984772,"[0, 0, 254]",254,a,0.36690858005022164,1,colour,0.5,3.9
56,19,0,2,13,15,615,1217.1891737227415,1218.1757545992295,"[93, 0, 161]",161,l,0.46444298546703067,1,colour,0.5,3.9
56,19,0,2,13,16,616,1218.6893113719416,1219.439755925705,"[21, 0, 233]",233,a,0.2264567677193554,1,colour,0.5,3.9
56,19,0,2,13,17,617,1219.9567442792759,1220.8237802685471,"[63, 0, 191]",191,l,0.34480711979267653,1,colour,0.5,3.9
56,19,0,2,13,18,618,1221.3318617931072,1222.3117496493796,"[94, 0, 160]",160,l,0.4576936452649534,1,colour,0.5,3.9
56,19,0,2,13,19,619,1222.8320234669227,1223.8237597885454,"[7, 0, 247]",247,a,0.4696236367453821,1,colour,0.5,3.9
56,19,0,2,13,20,620,1224.3321280330565,1225.3037596940267,"[12, 0, 242]",242,a,0.44947328994749114,1,colour,0.5,3.9
56,19,0,2,13,21,621,1225.8165898207226,1226.863730832978,"[16, 0, 238]",238,a,0.5250996135146124,1,colour,0.5,3.9
56,19,0,2,13,22,622,1227.3792450206965,1228.431729342672,"[81, 0, 173]",173,l,0.5302798709599301,1,colour,0.5,3.9
56,19,0,2,13,23,623,1228.9418088483799,1229.7357470058778,"[77, 0, 177]",177,l,0.27166754034988116,1,colour,0.5,3.9
56,19,0,2,13,24,624,1230.2545257837191,1231.1757553869247,"[46, 0, 208]",208,a,0.3990546906425152,1,colour,0.5,3.9
56,19,0,2,13,25,625,1231.692023789874,1232.7997595963534,"[70, 0, 184]",184,l,0.5854277739563258,1,colour,0.5,3.9
56,19,0,2,13,26,626,1233.3172107190621,1234.0797691904445,"[15, 0, 239]",239,a,0.24058048185543157,1,colour,0.5,3.9
56,19,0,2,13,27,627,1234.5985558452085,1235.3517451122607,"[47, 0, 207]",207,a,0.23103562218602747,1,colour,0.5,3.9
56,19,0,2,13,28,628,1235.8641817867465,1236.7838253717928,"[72, 0, 182]",182,l,0.3973591832909733,1,colour,0.5,3.9
56,19,0,2,13,29,629,1237.3019153128553,1238.5597769728338,"[45, 0, 209]",209,a,0.735709984350251,1,colour,0.5,3.9
56,19,0,2,13,30,630,1239.0676938697434,1240.6077269449306,"[54, 0, 200]",200,a,1.0178908518573735,0,colour,0.5,3.9
56,19,0,2,13,31,631,1241.114757688163,1241.9517345571949,"[92, 0, 162]",162,l,0.3148421287769452,1,colour,0.5,3.9
56,19,0,2,13,32,632,1242.4585404143145,1243.343755944603,"[86, 0, 168]",168,l,0.3630622792697977,1,colour,0.5,3.9
56,19,0,2,13,33,633,1243.8492849527538,1246.9357538587938,"[43, 0, 211]",211,a,2.5643684303940972,1,colour,0.5,3.9
56,19,0,2,13,34,634,1247.4433336234652,1248.263751628052,"[80, 0, 174]",174,l,0.29826120895450003,1,colour,0.5,3.9
56,19,0,2,13,35,635,1248.7714739649964,1251.1357437763363,"[88, 0, 166]",166,l,1.8419668988062767,1,colour,0.5,3.9
56,19,0,2,13,36,636,1251.646821287999,1252.8877715913259,"[33, 0, 221]",221,a,0.7187840553815477,1,colour,0.5,3.9
56,19,0,2,13,37,637,1253.3969291033718,1254.0957451626746,"[91, 0, 163]",163,l,0.17653441446600482,1,colour,0.5,3.9
56,19,0,2,13,38,638,1254.6157330479764,1256.0157920461206,"[65, 0, 189]",189,l,0.877917168661952,1,colour,0.5,3.9
56,19,0,2,13,39,639,1256.5221371033258,1257.3757649967738,"[36, 0, 218]",218,a,0.3312848086206941,1,colour,0.5,3.9
56,19,0,2,13,40,640,1257.881589783312,1259.2477622650476,"[8, 0, 246]",246,a,0.8446324490505503,1,colour,0.5,3.9
56,19,0,2,13,41,641,1259.7567661771172,1260.7517733904097,"[71, 0, 183]",183,l,0.47267397461109795,1,colour,0.5,3.9
56,19,0,2,13,42,642,1261.2568636540236,1262.0717859304714,"[44, 0, 210]",210,a,0.2927154623612296,1,colour,0.5,3.9
56,19,0,2,13,43,643,1262.585078432472,1264.423743719628,"[68, 0, 186]",186,l,1.316368676169077,1,colour,0.5,3.9
56,19,0,2,13,44,644,1264.929038389353,1265.8397215823206,"[19, 0, 235]",235,a,0.3884023358114064,1,colour,0.5,3.9
56,19,0,2,13,45,645,1266.351076755469,1267.1757345130754,"[6, 0, 248]",248,a,0.30251907889032736,1,colour,0.5,3.9
56,19,0,2,13,46,646,1267.6948882323923,1268.5757391604711,"[62, 0, 192]",192,a,0.3587024032167392,0,colour,0.5,3.9
56,19,0,2,13,47,647,1269.086140044572,1270.0237686106993,"[11, 0, 243]",243,a,0.4154245089594042,1,colour,0.5,3.9
56,19,0,2,13,48,648,1270.5394104045408,1271.3917326982337,"[27, 0, 227]",227,a,0.33014029190235306,1,colour,0.5,3.9
56,19,0,2,13,49,649,1271.8988965614408,1273.0237296199339,"[78, 0, 176]",176,l,0.6029610135738039,1,colour,0.5,3.9
56,19,0,2,13,50,650,1273.5396813706466,1274.4397618333896,"[28, 0, 226]",226,a,0.3778708917379845,1,colour,0.5,3.9
56,19,0,2,14,1,651,1280.3050148814655,1282.1517532254948,"[29, 0, 225]",225,a,1.3238797146768775,1,colour,0.5,3.9
56,19,0,2,14,2,652,1282.6654403612629,1283.6477176816697,"[88, 0, 166]",166,l,0.4595565371855628,1,colour,0.5,3.9
56,19,0,2,14,3,653,1284.1544758834207,1284.959706395617,"[18, 0, 236]",236,a,0.2830252734856913,1,colour,0.5,3.9
56,19,0,2,14,4,654,1285.4671148372436,1286.4957202716032,"[46, 0, 208]",208,a,0.5067046386830043,1,colour,0.5,3.9
56,19,0,2,14,5,655,1287.0139937449276,1287.9117264912202,"[49, 0, 205]",205,a,0.3753597291506594,1,colour,0.5,3.9
56,19,0,2,14,6,656,1288.4205827110127,1289.2077187529358,"[64, 0, 190]",190,a,0.26499736320693046,0,colour,0.5,3.9
56,19,0,2,14,7,657,1289.7174331633287,1290.4957545362122,"[56, 0, 198]",198,a,0.2563587433542125,0,colour,0.5,3.9
56,19,0,2,14,8,658,1291.0162414244842,1291.5757182866218,"[20, 0, 234]",234,a,0.037458700317074545,1,colour,0.5,3.9
56,19,0,2,14,9,659,1292.094434049097,1292.7117334229115,"[13, 0, 241]",241,a,0.09503190743271261,1,colour,0.5,3.9
56,19,0,2,14,10,660,1293.2195656429103,1293.9437516910693,"[44, 0, 210]",210,a,0.20192960946587846,1,colour,0.5,3.9
56,19,0,2,14,11,661,1294.4539717998268,1295.8317611654347,"[86, 0, 168]",168,l,0.8554647915443638,1,colour,0.5,3.9
56,19,0,2,14,12,662,1296.344761827495,1297.2237140236393,"[11, 0, 243]",243,a,0.35669536361820064,1,colour,0.5,3.9
56,19,0,2,14,13,663,1297.7355319659255,1298.9837325816625,"[57, 0, 197]",197,a,0.7259280293656047,0,colour,0.5,3.9
56,19,0,2,14,14,664,1299.5012581412884,1300.5597348313022,"[80, 0, 174]",174,l,0.5361304544203449,1,colour,0.5,3.9
56,19,0,2,14,15,665,1301.0795356397139,1302.1517477116577,"[9, 0, 245]",245,a,0.5500403101468692,1,colour,0.5,3.9
56,19,0,2,14,16,666,1302.6578631565935,1303.3677624383417,"[99, 0, 155]",155,l,0.1877602091844892,1,colour,0.5,3.9
56,19,0,2,14,17,667,1303.8765985719947,1304.8157469901198,"[5, 0, 249]",249,a,0.4168707117496524,1,colour,0.5,3.9
56,19,0,2,14,18,668,1305.3299378550291,1306.0877209427272,"[32, 0, 222]",222,a,0.23561802129552234,1,colour,0.5,3.9
56,19,0,2,14,19,669,1306.595737482683,1307.8717231514165,"[62, 0, 192]",192,l,0.7540376115211984,1,colour,0.5,3.9
56,19,0,2,14,20,670,1308.3769792242238,1309.5677188789705,"[45, 0, 209]",209,a,0.6684828222059878,1,colour,0.5,3.9
56,19,0,2,14,21,671,1310.0802618918824,1311.1597534208413,"[93, 0, 161]",161,l,0.5572591148811625,1,colour,0.5,3.9
56,19,0,2,14,22,672,1311.674118365714,1312.9117548481445,"[1, 0, 253]",253,a,0.7154466037318343,1,colour,0.5,3.9
56,19,0,2,14,23,673,1313.4242572949152,1314.2237112667062,"[22, 0, 232]",232,a,0.27720344079716597,1,colour,0.5,3.9
56,19,0,2,14,24,674,1314.7368533195113,1315.8317552577355,"[84, 0, 170]",170,l,0.5753189266979462,1,colour,0.5,3.9
56,19,0,2,14,25,675,1316.3456192304002,1317.4797482378344,"[33, 0, 221]",221,a,0.6119470056582941,1,colour,0.5,3.9
56,19,0,2,14,26,676,1317.9863492949953,1318.92771821731,"[37, 0, 217]",217,a,0.41920346206461545,1,colour,0.5,3.9
56,19,0,2,14,27,677,1319.439574756514,1320.3837569213501,"[12, 0, 242]",242,a,0.42201197844406124,1,colour,0.5,3.9
56,19,0,2,14,28,678,1320.8928061257175,1322.1917601099267,"[74, 0, 180]",180,l,0.7766869116749149,1,colour,0.5,3.9
56,19,0,2,14,29,679,1322.7054350364633,1323.751748184266,"[35, 0, 219]",219,a,0.5239263460534858,1,colour,0.5,3.9
56,19,0,2,14,30,680,1324.268098507193,1325.407760658156,"[91, 0, 163]",163,l,0.6174659707176033,1,colour,0.5,3.9
56,19,0,2,14,31,681,1325.9244555964106,1327.4557496210182,"[77, 0, 177]",177,l,1.0090210443740943,1,colour,0.5,3.9
56,19,0,2,14,32,682,1327.9714599440777,1329.1117258610757,"[71, 0, 183]",183,l,0.6180008136871038,1,colour,0.5,3.9
56,19,0,2,14,33,683,1329.627842239439,1330.7197474028799,"[50, 0, 204]",204,a,0.5695648355322191,1,colour,0.5,3.9
56,19,0,2,14,34,684,1331.2374375901563,1332.183707533055,"[55, 0, 199]",199,a,0.4240249257418327,0,colour,0.5,3.9
56,19,0,2,14,35,685,1332.6904740055616,1333.3597275845386,"[31, 0, 223]",223,a,0.14686402030929457,1,colour,0.5,3.9
56,19,0,2,14,36,686,1333.8782669039647,1334.6557206339494,"[36, 0, 218]",218,a,0.25527645435067825,1,colour,0.5,3.9
56,19,0,2,14,37,687,1335.175207153181,1336.2157236744388,"[16, 0, 238]",238,a,0.518248267180752,1,colour,0.5,3.9
56,19,0,2,14,38,688,1336.7222605346906,1337.8316961808305,"[79, 0, 175]",175,l,0.5872036259097513,1,colour,0.5,3.9
56,19,0,2,14,39,689,1338.3473576669785,1338.8877282682515,"[97, 0, 157]",157,l,0.018107467200024985,1,colour,0.5,3.9
56,19,0,2,14,40,690,1339.3942741869687,1340.295726809447,"[61, 0, 193]",193,l,0.3791658576374175,1,colour,0.5,3.9
56,19,0,2,14,41,691,1340.816268048482,1341.575706471238,"[75, 0, 179]",179,l,0.23732140556967352,1,colour,0.5,3.9
56,19,0,2,14,42,692,1342.0820389253786,1343.1437459409208,"[92, 0, 162]",162,l,0.5395766075962456,1,colour,0.5,3.9
56,19,0,2,14,43,693,1343.660303426892,1346.5037259808014,"[90, 0, 164]",164,l,2.3215150628384436,1,colour,0.5,3.9
56,19,0,2,14,44,694,1347.0198699283937,1348.1197347210255,"[47, 0, 207]",207,a,0.5776067785627674,1,colour,0.5,3.9
56,19,0,2,14,45,695,1348.6294235314272,1349.839698739248,"[69, 0, 185]",185,l,0.6880707568052458,1,colour,0.5,3.9
56,19,0,2,14,46,696,1350.3482733591081,1352.2237360790168,"[8, 0, 246]",246,a,1.3531617766129784,1,colour,0.5,3.9
56,19,0,2,14,47,697,1352.739233725195,1353.5837385681225,"[41, 0, 213]",213,a,0.32234017037262674,1,colour,0.5,3.9
56,19,0,2,14,48,698,1354.09851193137,1355.2957303540607,"[78, 0, 176]",176,l,0.6749946732306853,1,colour,0.5,3.9
56,19,0,2,14,49,699,1355.8018064144126,1357.4717070824845,"[30, 0, 224]",224,a,1.1476072078512516,1,colour,0.5,3.9
56,19,0,2,14,50,700,1357.9895351159066,1358.807740493241,"[95, 0, 159]",159,l,0.2960316463140771,1,colour,0.5,3.9
56,19,0,2,15,1,701,1377.4121256542276,1378.8317036639055,"[27, 0, 227]",227,a,0.8965185188426403,1,colour,0.5,3.8
56,19,0,2,15,2,702,1379.3505931124964,1381.3517281768873,"[83, 0, 171]",171,l,1.4791232041170588,1,colour,0.5,3.8
56,19,0,2,15,3,703,1381.866386930924,1382.3997427397408,"[29, 0, 225]",225,a,0.011341191609972157,1,colour,0.5,3.8
56,19,0,2,15,4,704,1382.9133680416708,1383.7757424687734,"[23, 0, 231]",231,a,0.3400982961029513,1,colour,0.5,3.8
56,19,0,2,15,5,705,1384.2883847308985,1384.9757359309297,"[10, 0, 244]",244,a,0.1650159921264276,1,colour,0.5,3.8
56,19,0,2,15,6,706,1385.491649872405,1386.511716330002,"[53, 0, 201]",201,a,0.4977418835333083,0,colour,0.5,3.8
56,19,0,2,15,7,707,1387.023065595451,1387.9037448066374,"[17, 0, 237]",237,a,0.35849208940635435,1,colour,0.5,3.8
56,19,0,2,15,8,708,1388.4137943800451,1389.0877355150296,"[26, 0, 228]",228,a,0.15167603167355992,1,colour,0.5,3.8
56,19,0,2,15,9,709,1389.6013805092662,1390.1277286148397,"[34, 0, 220]",220,a,0.004196429945295677,1,colour,0.5,3.8
56,19,0,2,15,10,710,1390.6483257800137,1391.2637390249874,"[91, 0, 163]",163,l,0.0932292739598779,1,colour,0.5,3.8
56,19,0,2,15,11,711,1391.773439256911,1392.5757045020146,"[56, 0, 198]",198,a,0.2800596125453012,0,colour,0.5,3.8
56,19,0,2,15,12,712,1393.0783336214954,1393.78374266412,"[15, 0, 239]",239,a,0.1831789916177513,1,colour,0.5,3.8
56,19,0,2,15,13,713,1394.2972828953061,1395.0877445734804,"[92, 0, 162]",162,l,0.2682922794629121,1,colour,0.5,3.8
56,19,0,2,15,14,714,1395.59429009835,1396.431733674981,"[42, 0, 212]",212,a,0.31528678099857643,1,colour,0.5,3.8
56,19,0,2,15,15,715,1396.9381996429292,1398.8237074070203,"[12, 0, 242]",242,a,1.3633545130578568,1,colour,0.5,3.8
56,19,0,2,15,16,716,1399.3289445752162,1400.2477024004475,"[22, 0, 232]",232,a,0.3965581003722036,1,colour,0.5,3.8
56,19,0,2,15,17,717,1400.7665414367366,1401.807725527091,"[5, 0, 249]",249,a,0.5191482054651715,1,colour,0.5,3.8
56,19,0,2,15,18,718,1402.31350108287,1403.1757140330883,"[45, 0, 209]",209,a,0.33993169921450317,1,colour,0.5,3.8
56,19,0,2,15,19,719,1403.6886083566933,1404.3117043570674,"[16, 0, 238]",238,a,0.10083956166636199,1,colour,0.5,3.8
56,19,0,2,15,20,720,1404.8293394059147,1405.5517429067258,"[90, 0, 164]",164,l,0.20011752366553992,1,colour,0.5,3.8
56,19,0,2,15,21,721,1406.0638192120387,1406.7357391289552,"[97, 0, 157]",157,l,0.14961227822641376,1,colour,0.5,3.8
56,19,0,2,15,22,722,1407.2514336981694,1407.991710327784,"[31, 0, 223]",223,a,0.21799498476320878,1,colour,0.5,3.8
56,19,0,2,15,23,723,1408.5014897227811,1409.3357403892587,"[33, 0, 221]",221,a,0.31208441853232216,1,colour,0.5,3.8
56,19,0,2,15,24,724,1409.8453071073745,1411.8877396897878,"[80, 0, 174]",174,a,1.5201119467965327,0,colour,0.5,3.8
56,19,0,2,15,25,725,1412.4081450519298,1413.5357318821916,"[4, 0, 250]",250,a,0.6054190069407923,1,colour,0.5,3.8
56,19,0,2,15,26,726,1414.048841639611,1414.9037554404931,"[98, 0, 156]",156,l,0.3327333744819043,1,colour,0.5,3.8
56,19,0,2,15,27,727,1415.423976876511,1416.2957358679123,"[68, 0, 186]",186,l,0.349606134230271,1,colour,0.5,3.8
56,19,0,2,15,28,728,1416.814646190338,1417.4717405594129,"[81, 0, 173]",173,l,0.1347520719282329,1,colour,0.5,3.8
56,19,0,2,15,29,729,1417.9866037195607,1419.0157172153558,"[62, 0, 192]",192,l,0.5068251555785537,1,colour,0.5,3.8
56,19,0,2,15,30,730,1419.5336381964444,1420.1837035945937,"[9, 0, 245]",245,a,0.12812876245880034,1,colour,0.5,3.8
56,19,0,2,15,31,731,1420.6900391995005,1421.5357354268053,"[74, 0, 180]",180,l,0.32355282244679984,1,colour,0.5,3.8
56,19,0,2,15,32,732,1422.0495155102399,1423.03978436139,"[1, 0, 253]",253,a,0.4682227262528613,1,colour,0.5,3.8
56,19,0,2,15,33,733,1423.5495865994599,1424.41570965352,"[52, 0, 202]",202,a,0.3443908244953491,0,colour,0.5,3.8
56,19,0,2,15,34,734,1424.9243957318104,1425.7196808428853,"[39, 0, 215]",215,a,0.2730842046876205,1,colour,0.5,3.8
56,19,0,2,15,35,735,1426.2369937256299,1427.4876968393364,"[50, 0, 204]",204,a,0.7410304509976413,1,colour,0.5,3.8
56,19,0,2,15,36,736,1428.005929352672,1428.8237026808638,"[28, 0, 226]",226,a,0.29558266179810744,1,colour,0.5,3.8
56,19,0,2,15,37,737,1429.3341323157365,1430.4397196918726,"[63, 0, 191]",191,a,0.5834959589556092,0,colour,0.5,3.8
56,19,0,2,15,38,738,1430.9593747772306,1431.7917251363979,"[46, 0, 208]",208,a,0.3198010447231354,1,colour,0.5,3.8
56,19,0,2,15,39,739,1432.3094759759697,1433.119715422581,"[94, 0, 160]",160,l,0.29357444065681193,1,colour,0.5,3.8
56,19,0,2,15,40,740,1433.6320831739868,1434.751706436582,"[30, 0, 224]",224,a,0.597460559263709,1,colour,0.5,3.8
56,19,0,2,15,41,741,1435.2572173278022,1436.5037177100312,"[57, 0, 197]",197,a,0.7243884850468021,0,colour,0.5,3.8
56,19,0,2,15,42,742,1437.022927355487,1437.8637095652957,"[78, 0, 176]",176,l,0.3185998141852906,1,colour,0.5,3.8
56,19,0,2,15,43,743,1438.3824186323764,1439.511714360764,"[6, 0, 248]",248,a,0.6071972219651798,1,colour,0.5,3.8
56,19,0,2,15,44,744,1440.023160906203,1440.8797048359847,"[64, 0, 190]",190,l,0.3343784695316572,1,colour,0.5,3.8
56,19,0,2,15,45,745,1441.3982488815673,1442.0237319830194,"[96, 0, 158]",158,l,0.10324477967515122,1,colour,0.5,3.8
56,19,0,2,15,46,746,1442.5398814444488,1443.687694239954,"[60, 0, 194]",194,l,0.6263507443509297,1,colour,0.5,3.8
56,19,0,2,15,47,747,1444.1953441092191,1445.047705787525,"[76, 0, 178]",178,l,0.33002607655362226,1,colour,0.5,3.8
56,19,0,2,15,48,748,1445.554898007642,1446.2956913633097,"[40, 0, 214]",214,a,0.2185388861980755,1,colour,0.5,3.8
56,19,0,2,15,49,749,1446.804879989184,1447.6877095999516,"[89, 0, 165]",165,l,0.36048573824518826,1,colour,0.5,3.8
56,19,0,2,15,50,750,1448.1956371307024,1449.1837256499712,"[58, 0, 196]",196,l,0.46576827751414385,1,colour,0.5,3.8
56,19,0,2,16,1,751,1454.4922607276676,1457.215722492896,"[14, 0, 240]",240,a,2.2004538682085695,1,colour,0.5,3.8
56,19,0,2,16,2,752,1457.7277566566772,1458.327675997003,"[24, 0, 230]",230,a,0.07775388007576112,1,colour,0.5,3.8
56,19,0,2,16,3,753,1458.8371537059138,1459.7357151043398,"[52, 0, 202]",202,a,0.37629787050536834,0,colour,0.5,3.8
56,19,0,2,16,4,754,1460.2435622904886,1461.6156806664512,"[97, 0, 157]",157,l,0.8499489772511879,1,colour,0.5,3.8
56,19,0,2,16,5,755,1462.1342837889388,1462.783676497973,"[26, 0, 228]",228,a,0.1273985718289623,1,colour,0.5,3.8
56,19,0,2,16,6,756,1463.2906387119874,1464.815873020867,"[91, 0, 163]",163,l,1.0031141409272095,1,colour,0.5,3.8
56,19,0,2,16,7,757,1465.32195971506,1466.1598826023546,"[66, 0, 188]",188,l,0.3148641841544304,1,colour,0.5,3.8
56,19,0,2,16,8,758,1466.6659177027032,1467.2479284680885,"[94, 0, 160]",160,l,0.055505909069324844,1,colour,0.5,3.8
56,19,0,2,16,9,759,1467.7596349519445,1468.8956922297657,"[65, 0, 189]",189,l,0.6123912640177878,1,colour,0.5,3.8
56,19,0,2,16,10,760,1469.4018305177888,1470.3756791383203,"[34, 0, 220]",220,a,0.45157603414554615,1,colour,0.5,3.8
56,19,0,2,16,11,761,1470.8739897355845,1471.6157499833498,"[63, 0, 191]",191,l,0.21954398138041142,1,colour,0.5,3.8
56,19,0,2,16,12,762,1472.1239748678927,1472.7277346012997,"[85, 0, 169]",169,l,0.0823729068506509,1,colour,0.5,3.8
56,19,0,2,16,13,763,1473.2334951909434,1473.9996987077466,"[51, 0, 203]",203,a,0.24405774885963183,0,colour,0.5,3.8
56,19,0,2,16,14,764,1474.514893092448,1475.1676898131263,"[99, 0, 155]",155,l,0.13064110657433048,1,colour,0.5,3.8
56,19,0,2,16,15,765,1475.686816357047,1476.6557198462542,"[82, 0, 172]",172,l,0.4466100289719179,1,colour,0.5,3.8
56,19,0,2,16,16,766,1477.1713285570295,1477.9997231262096,"[5, 0, 249]",249,a,0.306105047420715,1,colour,0.5,3.8
56,19,0,2,16,17,767,1478.5151727231569,1479.2076856698695,"[74, 0, 180]",180,l,0.17023760340816807,1,colour,0.5,3.8
56,19,0,2,16,18,768,1479.718452830828,1480.5357208545029,"[10, 0, 244]",244,a,0.2950474249810213,1,colour,0.5,3.8
56,19,0,2,16,19,769,1481.046692027725,1481.951698323348,"[13, 0, 241]",241,a,0.38276088461861946,1,colour,0.5,3.8
56,19,0,2,16,20,770,1482.4686212984816,1483.2156913790532,"[75, 0, 179]",179,l,0.22485696495277807,1,colour,0.5,3.8
56,19,0,2,16,21,771,1483.7343492461514,1484.4157183181233,"[22, 0, 232]",232,a,0.1591713163361419,1,colour,0.5,3.8
56,19,0,2,16,22,772,1484.9219538861362,1485.799708790204,"[16, 0, 238]",238,a,0.35391362877271604,1,colour,0.5,3.8
56,19,0,2,16,23,773,1486.3144069288537,1488.0477227228985,"[17, 0, 237]",237,a,1.2111184322711779,1,colour,0.5,3.8
56,19,0,2,16,24,774,1488.5646271872683,1490.0796797873772,"[72, 0, 182]",182,l,0.9934755458962172,1,colour,0.5,3.8
56,19,0,2,16,25,775,1490.595965519562,1491.767686347288,"[55, 0, 199]",199,l,0.6494734474981669,1,colour,0.5,3.8
56,19,0,2,16,26,776,1492.2835959564545,1493.2317142189859,"[30, 0, 224]",224,a,0.4260347222589189,1,colour,0.5,3.8
56,19,0,2,16,27,777,1493.7369730487117,1494.8717129114084,"[80, 0, 174]",174,l,0.6125779470603447,1,colour,0.5,3.8
56,19,0,2,16,28,778,1495.377576688712,1496.8237129208574,"[33, 0, 221]",221,l,0.9239030303579057,0,colour,0.5,3.8
56,19,0,2,16,29,779,1497.3309350732889,1504.199734705282,"[96, 0, 158]",158,a,6.346582577913068,0,colour,0.5,3.8
56,19,0,2,16,30,780,1504.7064806978015,1506.3516726445814,"[25, 0, 229]",229,a,1.1231245542148827,1,colour,0.5,3.8
56,19,0,2,16,31,781,1506.8628604331607,1507.5596710282407,"[36, 0, 218]",218,a,0.17456991023209412,1,colour,0.5,3.8
56,19,0,2,16,32,782,1508.0661598392762,1508.783821827179,"[29, 0, 225]",225,a,0.19562295224750414,1,colour,0.5,3.8
56,19,0,2,16,33,783,1509.288107069413,1510.215702406742,"[7, 0, 247]",247,a,0.4053436247922946,1,colour,0.5,3.8
56,19,0,2,16,34,784,1510.7258256293717,1511.6957038876135,"[73, 0, 181]",181,l,0.44770216415054165,1,colour,0.5,3.8
56,19,0,2,16,35,785,1512.2103315278073,1513.1677488900314,"[69, 0, 185]",185,l,0.4352125173609238,1,colour,0.5,3.8
56,19,0,2,16,36,786,1513.6687466990697,1514.559679299011,"[89, 0, 165]",165,l,0.368632838173653,1,colour,0.5,3.8
56,19,0,2,16,37,787,1515.0751674928906,1516.3676832752826,"[48, 0, 206]",206,a,0.7701805744873127,1,colour,0.5,3.8
56,19,0,2,16,38,788,1516.8877755297872,1517.6077076464717,"[49, 0, 205]",205,a,0.19756776416033972,1,colour,0.5,3.8
56,19,0,2,16,39,789,1518.1223522220535,1519.6877497722598,"[54, 0, 200]",200,a,1.0487376642558957,0,colour,0.5,3.8
56,19,0,2,16,40,790,1520.195355136908,1520.9756996970827,"[43, 0, 211]",211,a,0.2581468045391375,1,colour,0.5,3.8
56,19,0,2,16,41,791,1521.4923591891857,1522.4397137841734,"[45, 0, 209]",209,a,0.4251788947294699,1,colour,0.5,3.8
56,19,0,2,16,42,792,1522.945560232256,1524.0717193704913,"[28, 0, 226]",226,a,0.6039279056858504,1,colour,0.5,3.8
56,19,0,2,16,43,793,1524.5863115645334,1525.3916818920989,"[57, 0, 197]",197,a,0.2830709596455563,0,colour,0.5,3.8
56,19,0,2,16,44,794,1525.8989119214384,1526.7676914672775,"[60, 0, 194]",194,l,0.3465628855919931,1,colour,0.5,3.8
56,19,0,2,16,45,795,1527.2740613367932,1527.8156953962898,"[11, 0, 243]",243,a,0.019493411542498507,1,colour,0.5,3.8
56,19,0,2,16,46,796,1528.3210140906303,1528.8957044389972,"[20, 0, 234]",234,a,0.05328658643702511,1,colour,0.5,3.8
56,19,0,2,16,47,797,1529.4147939613904,1530.351684853813,"[27, 0, 227]",227,a,0.41459743220184464,1,colour,0.5,3.8
56,19,0,2,16,48,798,1530.8681604198064,1533.0877047950344,"[21, 0, 233]",233,a,1.697534484177595,1,colour,0.5,3.8
56,19,0,2,16,49,799,1533.6026628720865,1534.2797110587562,"[86, 0, 168]",168,l,0.15484570489206817,1,colour,0.5,3.8
56,19,0,2,16,50,800,1534.7904624658695,1535.9517156525835,"[62, 0, 192]",192,l,0.6391629510617349,1,colour,0.5,3.8
