id,age,condition,counterbalance,block,trialinblock,trial,tstart,tend,trialstim,trialintensity,response,RT,accuracy,trialtype,colourfreq,credits
48,19,1,1,Practice,1,NA,6.301539542619139e-06,1.3967246972606517,"[60, 0, 194]",194,a,0.3254629759103409,0,colour,0.5,4
48,19,1,1,Practice,2,NA,1.907193322891544,2.7646722432655224,"[66, 0, 188]",188,a,0.33421187264684704,0,colour,0.5,4
48,19,1,1,Practice,3,NA,4.1961719736791565,5.084704475626495,"[19, 0, 235]",235,a,0.3581841017730767,1,colour,0.5,4
48,19,1,1,Practice,4,NA,5.594997445907211,6.268764500920952,"[88, 0, 166]",166,l,0.14952011824789224,1,colour,0.5,4
48,19,1,1,Practice,5,NA,6.874509218559979,7.524745545895712,"[75, 0, 179]",179,a,0.12379684946790803,0,colour,0.5,4
48,19,1,1,Practice,6,NA,8.033988522536674,9.58869827176386,"[27, 0, 227]",227,a,1.0316104799276218,1,colour,0.5,4
48,19,1,1,Practice,7,NA,10.096677002500655,11.07668025566818,"[25, 0, 229]",229,a,0.45700047615900985,1,colour,0.5,4
48,19,1,1,Practice,8,NA,11.596814651704335,12.17274994752006,"[95, 0, 159]",159,l,0.05282933113630861,1,colour,0.5,4
48,19,1,1,Practice,9,NA,12.690669353221892,13.63684595459199,"[26, 0, 228]",228,a,0.42327189203206217,1,colour,0.5,4
48,19,1,1,Practice,10,NA,14.145097620657907,15.156702295294963,"[39, 0, 215]",215,a,0.48860032224547467,1,colour,0.5,4
48,19,1,1,1,1,1,5.399895945865865,6.4319794349321455,"[29, 0, 225]",225,a,0.5081110630198964,1,colour,0.5,4.0
48,19,1,1,1,2,2,6.947731111831672,7.999929895395326,"[19, 0, 235]",235,a,0.5318253229634138,1,colour,0.5,4.0
48,19,1,1,1,3,3,8.507943284588691,9.552155657420371,"[14, 0, 240]",240,a,0.5220953556490713,1,colour,0.5,4.0
48,19,1,1,1,4,4,10.070566976872215,11.16795526538408,"[58, 0, 196]",196,a,0.5741212407883722,0,colour,0.5,4.0
48,19,1,1,1,5,5,11.68254391481969,12.680018967625074,"[89, 0, 165]",165,l,0.4743982327345293,1,colour,0.5,4.0
48,19,1,1,1,6,6,13.197385413437587,14.21618841281088,"[39, 0, 215]",215,a,0.49616019767927355,1,colour,0.5,4.0
48,19,1,1,1,7,7,14.728866908775672,15.783988817922364,"[40, 0, 214]",214,a,0.5321632429004239,1,colour,0.5,4.0
48,19,1,1,1,8,8,16.29276390542509,17.52803297909486,"[15, 0, 239]",239,a,0.7124750350812974,1,colour,0.5,4.0
48,19,1,1,1,9,9,18.04278901311045,18.967984646304103,"[27, 0, 227]",227,a,0.40206840082464623,1,colour,0.5,4.0
48,19,1,1,1,10,10,19.4803031669544,20.496008173093287,"[20, 0, 234]",234,a,0.49290151524473913,1,colour,0.5,4.0
48,19,1,1,1,11,11,21.012302176037338,21.720003796675883,"[30, 0, 224]",224,a,0.1851115943172772,1,colour,0.5,4.0
48,19,1,1,1,12,12,22.23077056378679,22.792054785564687,"[80, 0, 174]",174,l,0.03857052779130754,1,colour,0.5,4.0
48,19,1,1,1,13,13,23.308836763797444,24.231987154314993,"[67, 0, 187]",187,a,0.40050640728441067,0,colour,0.5,4.0
48,19,1,1,1,14,14,24.74654705298599,25.712061890546465,"[65, 0, 189]",189,a,0.4425845282312366,0,colour,0.5,4.0
48,19,1,1,1,15,15,26.230829640695447,27.26397454493781,"[86, 0, 168]",168,l,0.5101819056872046,1,colour,0.5,4.0
48,19,1,1,1,16,16,27.778010628328047,28.77600949641419,"[23, 0, 231]",231,a,0.47552423866363824,1,colour,0.5,4.0
48,19,1,1,1,17,17,29.293531905273994,30.27999384024588,"[13, 0, 241]",241,a,0.46390696095477324,1,colour,0.5,4.0
48,19,1,1,1,18,18,30.793712483697163,31.759955542653188,"[43, 0, 211]",211,a,0.4433458326930122,1,colour,0.5,4.0
48,19,1,1,1,19,19,32.278431452861696,33.240042094268574,"[73, 0, 181]",181,l,0.439115925837541,1,colour,0.5,4.0
48,19,1,1,1,20,20,33.747232739005995,34.67198096305583,"[82, 0, 172]",172,l,0.40069505955761997,1,colour,0.5,4.0
48,19,1,1,1,21,21,35.186419557136105,36.11197713487127,"[93, 0, 161]",161,l,0.40370876973247505,1,colour,0.5,4.0
48,19,1,1,1,22,22,36.62258242509051,37.583988266535016,"[75, 0, 179]",179,l,0.43863464592868695,1,colour,0.5,4.0
48,19,1,1,1,23,23,38.09158063427094,38.99199350311392,"[84, 0, 170]",170,l,0.3782206270589086,1,colour,0.5,4.0
48,19,1,1,1,24,24,39.973357888320606,40.64000735704394,"[62, 0, 192]",192,a,0.1502046227287792,0,colour,0.5,4.0
48,19,1,1,1,25,25,41.15421279424481,41.97597538934497,"[36, 0, 218]",218,a,0.2986609627259895,1,colour,0.5,4.0
48,19,1,1,1,26,26,42.482526034207694,43.32798871079649,"[31, 0, 223]",223,a,0.3223771919037972,1,colour,0.5,4.0
48,19,1,1,1,27,27,43.84774619613381,44.69598509371281,"[25, 0, 229]",229,a,0.32504904368397547,1,colour,0.5,4.0
48,19,1,1,1,28,28,45.20726346687661,46.095950356488174,"[98, 0, 156]",156,l,0.3713141422631452,1,colour,0.5,4.0
48,19,1,1,1,29,29,46.60832165251486,47.44800739485072,"[96, 0, 158]",158,l,0.3164206638430187,1,colour,0.5,4.0
48,19,1,1,1,30,30,47.967821594029374,48.82396773927758,"[24, 0, 230]",230,a,0.33294802058662754,1,colour,0.5,4.0
48,19,1,1,1,31,31,49.375750818311644,50.32799304310174,"[97, 0, 157]",157,l,0.4313807888975134,1,colour,0.5,4.0
48,19,1,1,1,32,32,50.843107083201176,51.72793034280767,"[21, 0, 233]",233,a,0.3622737994301133,1,colour,0.5,4.0
48,19,1,1,1,33,33,52.23388234163576,53.23999207581437,"[69, 0, 185]",185,l,0.4841805815740372,1,colour,0.5,4.0
48,19,1,1,1,34,34,53.74945560625929,54.6560463446549,"[1, 0, 253]",253,a,0.38376243519815034,1,colour,0.5,4.0
48,19,1,1,1,35,35,55.17139551086075,56.04798423670218,"[32, 0, 222]",222,a,0.35373403495759703,1,colour,0.5,4.0
48,19,1,1,1,36,36,56.56244882462488,57.480086945459334,"[10, 0, 244]",244,a,0.39502722067118157,1,colour,0.5,4.0
48,19,1,1,1,37,37,57.999845612335776,58.69598154909909,"[48, 0, 206]",206,a,0.17325052588421386,1,colour,0.5,4.0
48,19,1,1,1,38,38,59.20319227998698,60.14395822395818,"[79, 0, 175]",175,l,0.4183090376245673,1,colour,0.5,4.0
48,19,1,1,1,39,39,60.65629761845048,61.88800159743914,"[61, 0, 193]",193,a,0.7092636141751427,0,colour,0.5,4.0
48,19,1,1,1,40,40,62.40630460921966,63.47205484857841,"[76, 0, 178]",178,l,0.543157062271348,1,colour,0.5,4.0
48,19,1,1,1,41,41,63.984756581463444,65.29601037863176,"[60, 0, 194]",194,a,0.7887988600523386,0,colour,0.5,4.0
48,19,1,1,1,42,42,65.81302708912699,66.82394253313032,"[4, 0, 250]",250,a,0.4884912268826156,1,colour,0.5,4.0
48,19,1,1,1,43,43,67.34441051679096,68.28805547558295,"[2, 0, 252]",252,a,0.42115496937549324,1,colour,0.5,4.0
48,19,1,1,1,44,44,68.79757178140062,69.68003393377512,"[83, 0, 171]",171,l,0.3594672522885958,1,colour,0.5,4.0
48,19,1,1,1,45,45,70.19102873776501,71.09599525494195,"[99, 0, 155]",155,l,0.38483172729684156,1,colour,0.5,4.0
48,19,1,1,1,46,46,71.7993448764355,72.68801758758855,"[26, 0, 228]",228,a,0.36574003874557093,1,colour,0.5,4.0
48,19,1,1,1,47,47,73.2053950610898,74.18400961299267,"[88, 0, 166]",166,l,0.45634432859515073,1,colour,0.5,4.0
48,19,1,1,1,48,48,74.69006873795297,75.64798667854848,"[53, 0, 201]",201,a,0.43582573571256944,0,colour,0.5,4.0
48,19,1,1,1,49,49,76.15879479949581,77.15994364850121,"[38, 0, 216]",216,a,0.4789298256873735,1,colour,0.5,4.0
48,19,1,1,1,50,50,77.67455474716189,78.65596915082278,"[94, 0, 160]",160,l,0.45855656200728845,1,colour,0.5,4.0
48,19,1,1,2,1,51,93.62944479912403,94.62396128020191,"[85, 0, 169]",169,l,0.47142981485740165,1,colour,0.5,4.0
48,19,1,1,2,2,52,95.1305977835109,96.11996039483711,"[96, 0, 158]",158,l,0.4673940741122351,1,colour,0.5,4.0
48,19,1,1,2,3,53,96.63074527886783,97.52802037601941,"[82, 0, 172]",172,l,0.37441016627053614,1,colour,0.5,4.0
48,19,1,1,2,4,54,98.03680649121088,99.00020676918939,"[92, 0, 162]",162,l,0.4406444424566871,1,colour,0.5,4.0
48,19,1,1,2,5,55,99.50568536503124,100.41604205960903,"[27, 0, 227]",227,a,0.38669934538847883,1,colour,0.5,4.0
48,19,1,1,2,6,56,100.92767765116514,102.60796719104474,"[65, 0, 189]",189,a,1.1570914152180194,0,colour,0.5,4.0
48,19,1,1,2,7,57,103.11535948497476,104.1039572472182,"[29, 0, 225]",225,a,0.46569187136992696,1,colour,0.5,4.0
48,19,1,1,2,8,58,104.6156586110701,105.62396915712452,"[10, 0, 244]",244,a,0.48530067981846514,1,colour,0.5,4.0
48,19,1,1,2,9,59,106.13123778338559,107.69596382602322,"[78, 0, 176]",176,l,1.0418898625175643,1,colour,0.5,4.0
48,19,1,1,2,10,60,108.20957652488141,109.18405608682951,"[60, 0, 194]",194,a,0.4516252649082162,0,colour,0.5,4.0
48,19,1,1,2,11,61,109.6940237402523,110.66398076770565,"[23, 0, 231]",231,a,0.44680301355037955,1,colour,0.5,4.0
48,19,1,1,2,12,62,111.17856232791382,112.08805965034844,"[5, 0, 249]",249,a,0.38625075470554293,1,colour,0.5,4.0
48,19,1,1,2,13,63,112.60057391249939,113.95208941250894,"[63, 0, 191]",191,a,0.8284918491590361,0,colour,0.5,4.0
48,19,1,1,2,14,64,114.46027294320811,115.51995637760774,"[11, 0, 243]",243,a,0.5371347619184235,1,colour,0.5,4.0
48,19,1,1,2,15,65,116.0384472539663,117.02401003834893,"[76, 0, 178]",178,l,0.463272081080504,1,colour,0.5,4.0
48,19,1,1,2,16,66,117.53841200474199,118.45591267329655,"[4, 0, 250]",250,a,0.3950323406716052,1,colour,0.5,4.0
48,19,1,1,2,17,67,118.97593679243073,119.94397342641605,"[53, 0, 201]",201,a,0.4452784353925381,0,colour,0.5,4.0
48,19,1,1,2,18,68,120.46064079544158,121.45610762710203,"[44, 0, 210]",210,a,0.4726601899965317,1,colour,0.5,4.0
48,19,1,1,2,19,69,121.97617703853757,123.50398710075024,"[69, 0, 185]",185,l,1.0046170575515134,1,colour,0.5,4.0
48,19,1,1,2,20,70,124.02332829079023,125.02392221067203,"[42, 0, 212]",212,a,0.4774718075132114,1,colour,0.5,4.0
48,19,1,1,2,21,71,125.53907878615064,126.45595954097735,"[35, 0, 219]",219,a,0.393715319391049,1,colour,0.5,4.0
48,19,1,1,2,22,72,126.96123294301651,127.88796339436885,"[51, 0, 203]",203,a,0.4044149357468996,0,colour,0.5,4.0
48,19,1,1,2,23,73,128.39869747225384,129.29596784325258,"[37, 0, 217]",217,a,0.3741974893855513,1,colour,0.5,4.0
48,19,1,1,2,24,74,129.8050335891603,130.71218595205937,"[13, 0, 241]",241,a,0.38492113035317743,1,colour,0.5,4.0
48,19,1,1,2,25,75,131.22698570299326,132.13632115469227,"[56, 0, 198]",198,a,0.38667256385451765,0,colour,0.5,4.0
48,19,1,1,2,26,76,132.64906109064395,133.56802686660376,"[52, 0, 202]",202,a,0.3950465191301191,0,colour,0.5,4.0
48,19,1,1,2,27,77,134.0878654842345,135.02399546604283,"[68, 0, 186]",186,l,0.4133627247538243,1,colour,0.5,4.0
48,19,1,1,2,28,78,135.54116695804623,136.4159818011576,"[40, 0, 214]",214,a,0.35336618272049236,1,colour,0.5,4.0
48,19,1,1,2,29,79,136.9306980567235,137.91206559269995,"[25, 0, 229]",229,a,0.45779250061968924,1,colour,0.5,4.0
48,19,1,1,2,30,80,138.4306427213487,139.2879357463753,"[32, 0, 222]",222,a,0.3346872448637441,1,colour,0.5,4.0
48,19,1,1,2,31,81,139.79331548685514,140.8160085039235,"[73, 0, 181]",181,l,0.4996784246795869,1,colour,0.5,4.0
48,19,1,1,2,32,82,141.32447166533166,142.47190518707066,"[55, 0, 199]",199,a,0.6243984493485186,0,colour,0.5,4.0
48,19,1,1,2,33,83,142.9808905883765,143.95198386176344,"[0, 0, 254]",254,a,0.44801015177654335,1,colour,0.5,4.0
48,19,1,1,2,34,84,144.46558553292925,145.3199534631458,"[2, 0, 252]",252,a,0.3314230485812004,1,colour,0.5,4.0
48,19,1,1,2,35,85,145.84048131141026,146.71196657979453,"[22, 0, 232]",232,a,0.3486605098005384,1,colour,0.5,4.0
48,19,1,1,2,36,86,147.2312857144534,148.12002774251596,"[49, 0, 205]",205,a,0.3661693309695693,1,colour,0.5,4.0
48,19,1,1,2,37,87,148.63997821243538,149.52801131755768,"[3, 0, 251]",251,a,0.36541432804006035,1,colour,0.5,4.0
48,19,1,1,2,38,88,150.04645650777456,150.91195964810322,"[87, 0, 167]",167,l,0.34270004328209325,1,colour,0.5,4.0
48,19,1,1,2,39,89,151.42159174467088,152.4081017288663,"[77, 0, 177]",177,l,0.46383685635373695,1,colour,0.5,4.0
48,19,1,1,2,40,90,152.92145173238896,154.7439602719569,"[61, 0, 193]",193,l,1.2997219840544858,1,colour,0.5,4.0
48,19,1,1,2,41,91,155.24972125543718,155.88795945590755,"[98, 0, 156]",156,l,0.11507788503149641,1,colour,0.5,4.0
48,19,1,1,2,42,92,156.40625104615174,157.24803953269293,"[93, 0, 161]",161,l,0.3190098079503514,1,colour,0.5,4.0
48,19,1,1,2,43,93,157.76699514741995,158.6479681677847,"[36, 0, 218]",218,a,0.3582305756099231,1,colour,0.5,4.0
48,19,1,1,2,44,94,159.1577239320177,160.05593441359815,"[21, 0, 233]",233,a,0.37529316917061806,1,colour,0.5,4.0
48,19,1,1,2,45,95,160.56438103347318,161.4159365088599,"[8, 0, 246]",246,a,0.32876025525911245,1,colour,0.5,4.0
48,19,1,1,2,46,96,161.92368523348705,162.80008688244197,"[84, 0, 170]",170,l,0.3532027365981776,1,colour,0.5,4.0
48,19,1,1,2,47,97,163.3146637164973,164.1839635330034,"[45, 0, 209]",209,a,0.34676729171405896,1,colour,0.5,4.0
48,19,1,1,2,48,98,164.68956343343962,165.56799693430003,"[1, 0, 253]",253,a,0.3560738744963601,1,colour,0.5,4.0
48,19,1,1,2,49,99,166.06876198030295,167.15200174237543,"[71, 0, 183]",183,l,0.5606072003756708,1,colour,0.5,4.0
48,19,1,1,2,50,100,167.66210842346118,168.50394338383921,"[72, 0, 182]",182,l,0.31871718031470664,1,colour,0.5,4.0
48,19,1,1,3,1,101,175.63202094630833,177.31994243545705,"[3, 0, 251]",251,a,1.1640455553897482,1,colour,0.5,4.0
48,19,1,1,3,2,102,177.83619390302556,178.79197089634908,"[92, 0, 162]",162,l,0.4334461177204503,1,colour,0.5,4.0
48,19,1,1,3,3,103,179.30490381687923,180.28795031867776,"[73, 0, 181]",181,l,0.460432057021535,1,colour,0.5,4.0
48,19,1,1,3,4,104,180.804987903015,181.71196539825905,"[55, 0, 199]",199,a,0.38383765979961026,0,colour,0.5,4.0
48,19,1,1,3,5,105,182.22708258912826,183.1839741668482,"[83, 0, 171]",171,l,0.43375292381460895,1,colour,0.5,4.0
48,19,1,1,3,6,106,183.69598627525193,184.56016845584236,"[87, 0, 167]",167,l,0.3416327204176923,1,colour,0.5,4.0
48,19,1,1,3,7,107,185.07118137675207,186.1439869747228,"[61, 0, 193]",193,a,0.5507193007833848,0,colour,0.5,4.0
48,19,1,1,3,8,108,186.66500673673727,187.56795282354142,"[80, 0, 174]",174,l,0.3800484667008277,1,colour,0.5,4.0
48,19,1,1,3,9,109,188.08697381671664,189.063959421248,"[24, 0, 230]",230,a,0.45414824287217925,1,colour,0.5,4.0
48,19,1,1,3,10,110,189.5715821151316,190.48799261774911,"[53, 0, 201]",201,a,0.39277245188714005,0,colour,0.5,4.0
48,19,1,1,3,11,111,190.99474333641774,191.98394525854383,"[97, 0, 157]",157,l,0.4661243143636966,1,colour,0.5,4.0
48,19,1,1,3,12,112,192.49478173641182,193.35215668141973,"[17, 0, 237]",237,a,0.3465022333039087,1,colour,0.5,4.0
48,19,1,1,3,13,113,193.8689083335048,194.71994393207206,"[21, 0, 233]",233,a,0.32810686462107697,1,colour,0.5,4.0
48,19,1,1,3,14,114,195.2283106011928,196.11197201487084,"[40, 0, 214]",214,a,0.359119486201962,1,colour,0.5,4.0
48,19,1,1,3,15,115,196.6203753116788,198.48832502383448,"[67, 0, 187]",187,l,1.3445649044515449,1,colour,0.5,4.0
48,19,1,1,3,16,116,198.99562279470774,199.85592047144746,"[30, 0, 224]",224,a,0.3373500381821941,1,colour,0.5,4.0
48,19,1,1,3,17,117,200.37072101007288,201.4399453656697,"[15, 0, 239]",239,a,0.5464578862338385,1,colour,0.5,4.0
48,19,1,1,3,18,118,201.94889689621414,202.87190235137678,"[84, 0, 170]",170,l,0.3997695212747203,1,colour,0.5,4.0
48,19,1,1,3,19,119,203.38647879158452,204.271982223363,"[7, 0, 247]",247,a,0.3622572578933614,1,colour,0.5,4.0
48,19,1,1,3,20,120,204.79302482845014,205.71223085051315,"[2, 0, 252]",252,a,0.39606697431372595,1,colour,0.5,4.0
48,19,1,1,3,21,121,206.23189538818042,207.07993460579746,"[32, 0, 222]",222,a,0.3248741760253324,1,colour,0.5,4.0
48,19,1,1,3,22,122,207.59132168047654,208.51191994842156,"[18, 0, 236]",236,a,0.39774633398337755,1,colour,0.5,4.0
48,19,1,1,3,23,123,209.05900798837683,209.96005140478883,"[89, 0, 165]",165,l,0.3769406273095228,1,colour,0.5,4.0
48,19,1,1,3,24,124,210.46649610505847,211.45608045172412,"[1, 0, 253]",253,a,0.46635510816486203,1,colour,0.5,4.0
48,19,1,1,3,25,125,211.96690156959448,213.84006934841454,"[59, 0, 195]",195,a,1.350227229493612,0,colour,0.5,4.0
48,19,1,1,3,26,126,214.34626592565837,215.4080686457928,"[43, 0, 211]",211,a,0.539385986088746,1,colour,0.5,4.0
48,19,1,1,3,27,127,215.9207762863698,216.85594922221208,"[42, 0, 212]",212,a,0.41275462641351623,1,colour,0.5,4.0
48,19,1,1,3,28,128,217.37373511409533,218.29598399094175,"[50, 0, 204]",204,a,0.39914960755049833,1,colour,0.5,4.0
48,19,1,1,3,29,129,218.81141940944144,219.73626215655167,"[85, 0, 169]",169,l,0.40245830843923613,1,colour,0.5,4.0
48,19,1,1,3,30,130,220.24908873864115,221.19193773450752,"[29, 0, 225]",225,a,0.41982337578519946,1,colour,0.5,4.0
48,19,1,1,3,31,131,221.7023437386124,222.63992622475052,"[99, 0, 155]",155,l,0.41454859528676025,1,colour,0.5,4.0
48,19,1,1,3,32,132,223.15548688630224,224.12005452404992,"[75, 0, 179]",179,l,0.4414415869177901,1,colour,0.5,4.0
48,19,1,1,3,33,133,224.6400538308808,225.5359402267677,"[58, 0, 196]",196,a,0.3726788189196668,0,colour,0.5,4.0
48,19,1,1,3,34,134,226.04764552907727,226.9919793246554,"[33, 0, 221]",221,a,0.4215287293009169,1,colour,0.5,4.0
48,19,1,1,3,35,135,227.50110099670565,228.4799364962564,"[82, 0, 172]",172,l,0.4560324025042064,1,colour,0.5,4.0
48,19,1,1,3,36,136,228.98543754132697,229.92800414956218,"[11, 0, 243]",243,a,0.4202014680231514,1,colour,0.5,4.0
48,19,1,1,3,37,137,230.43885086742375,231.3521216291192,"[34, 0, 220]",220,a,0.39067443383464706,1,colour,0.5,4.0
48,19,1,1,3,38,138,231.86097548583712,232.88816858817518,"[23, 0, 231]",231,a,0.505100109767227,1,colour,0.5,4.0
48,19,1,1,3,39,139,233.40752907667047,234.28808580173063,"[38, 0, 216]",216,a,0.3577642618583923,1,colour,0.5,4.0
48,19,1,1,3,40,140,234.79879979346515,235.66406820153497,"[20, 0, 234]",234,a,0.3428528555596131,1,colour,0.5,4.0
48,19,1,1,3,41,141,236.17380466731265,237.05611873356247,"[51, 0, 203]",203,a,0.35991741835459834,0,colour,0.5,4.0
48,19,1,1,3,42,142,237.5642762704192,238.46412633321597,"[64, 0, 190]",190,a,0.38756423137238016,0,colour,0.5,4.0
48,19,1,1,3,43,143,238.9748655311014,239.81593091624745,"[52, 0, 202]",202,a,0.3188420295227843,0,colour,0.5,4.0
48,19,1,1,3,44,144,240.3344280941419,241.2480804926854,"[44, 0, 210]",210,a,0.3908638737993897,1,colour,0.5,4.0
48,19,1,1,3,45,145,241.7563743002829,242.67198844613085,"[71, 0, 183]",183,l,0.3926684765210666,1,colour,0.5,4.0
48,19,1,1,3,46,146,243.17841778640286,244.07193283506422,"[63, 0, 191]",191,a,0.37110658538222197,0,colour,0.5,4.0
48,19,1,1,3,47,147,244.584708217164,245.45590361483482,"[98, 0, 156]",156,l,0.3493217773648212,1,colour,0.5,4.0
48,19,1,1,3,48,148,245.97534247870135,246.83206245768451,"[12, 0, 242]",242,a,0.33455294334999053,1,colour,0.5,4.0
48,19,1,1,3,49,149,247.35072386939282,248.207975540583,"[5, 0, 249]",249,a,0.334035823452723,1,colour,0.5,4.0
48,19,1,1,3,50,150,248.72584374629514,249.61598235254496,"[6, 0, 248]",248,a,0.3674698107133736,1,colour,0.5,4.0
48,19,1,1,4,1,151,254.60061132787814,257.0319460367864,"[75, 0, 179]",179,l,1.9077324981699348,1,colour,0.5,3.9
48,19,1,1,4,2,152,257.5403733582025,258.4639065671072,"[51, 0, 203]",203,a,0.401185791768512,0,colour,0.5,3.9
48,19,1,1,4,3,153,258.97814390584244,259.86393602679163,"[91, 0, 163]",163,l,0.36290749776526354,1,colour,0.5,3.9
48,19,1,1,4,4,154,260.38430909355156,261.33596251845665,"[97, 0, 157]",157,l,0.4294993861913099,1,colour,0.5,3.9
48,19,1,1,4,5,155,261.852995770485,262.68795575375407,"[83, 0, 171]",171,l,0.3120989908456977,1,colour,0.5,3.9
48,19,1,1,4,6,156,263.19693800429377,264.06393775971446,"[35, 0, 219]",219,a,0.34427188297195244,1,colour,0.5,3.9
48,19,1,1,4,7,157,264.57192673044847,265.4719642639793,"[27, 0, 227]",227,a,0.37638609203349915,1,colour,0.5,3.9
48,19,1,1,4,8,158,265.97913167180013,266.9600490417106,"[53, 0, 201]",201,a,0.4577086114040867,0,colour,0.5,3.9
48,19,1,1,4,9,159,267.65485220335177,268.4880146731266,"[14, 0, 240]",240,a,0.31424190734833246,1,colour,0.5,3.9
48,19,1,1,4,10,160,268.9950422655893,270.0559229920618,"[20, 0, 234]",234,a,0.5378031187101442,1,colour,0.5,3.9
48,19,1,1,4,11,161,270.5732567486484,271.42398239035174,"[32, 0, 222]",222,a,0.3275546924196533,1,colour,0.5,3.9
48,19,1,1,4,12,162,271.93275787170205,272.7521534518819,"[34, 0, 220]",220,a,0.29657791082718177,1,colour,0.5,3.9
48,19,1,1,4,13,163,273.26096792399403,273.98395707392774,"[42, 0, 212]",212,a,0.20006789906256017,1,colour,0.5,3.9
48,19,1,1,4,14,164,274.49688763137965,275.3122100554392,"[8, 0, 246]",246,a,0.2924177147215232,1,colour,0.5,3.9
48,19,1,1,4,15,165,275.82506735752395,276.73591675353964,"[80, 0, 174]",174,l,0.3885838988608157,1,colour,0.5,3.9
48,19,1,1,4,16,166,277.2470281359674,278.2879148725333,"[86, 0, 168]",168,l,0.5188043778362044,1,colour,0.5,3.9
48,19,1,1,4,17,167,278.79411460054325,280.56001958202614,"[60, 0, 194]",194,l,1.2433007767031086,1,colour,0.5,3.9
48,19,1,1,4,18,168,281.07550186820663,282.0959212118796,"[63, 0, 191]",191,a,0.49710109595616814,0,colour,0.5,3.9
48,19,1,1,4,19,169,282.60692704355824,283.5120160468614,"[40, 0, 214]",214,a,0.3831543368542043,1,colour,0.5,3.9
48,19,1,1,4,20,170,284.0289209050716,286.3200542877421,"[62, 0, 192]",192,l,1.7680475041379395,1,colour,0.5,3.9
48,19,1,1,4,21,171,286.82599880349517,287.8799395682581,"[66, 0, 188]",188,a,0.5310285723535344,0,colour,0.5,3.9
48,19,1,1,4,22,172,288.38871032345196,289.2879176294555,"[99, 0, 155]",155,l,0.3770221534468874,1,colour,0.5,3.9
48,19,1,1,4,23,173,289.7949692465263,290.71189489981043,"[9, 0, 245]",245,a,0.39409853162578656,1,colour,0.5,3.9
48,19,1,1,4,24,174,291.23260667419163,292.1119566548732,"[11, 0, 243]",243,a,0.3566158066969365,1,colour,0.5,3.9
48,19,1,1,4,25,175,292.62327008033753,293.5519449497697,"[74, 0, 180]",180,l,0.40582017854467267,1,colour,0.5,3.9
48,19,1,1,4,26,176,294.06099927414107,294.98393186777685,"[5, 0, 249]",249,a,0.4005906903439609,1,colour,0.5,3.9
48,19,1,1,4,27,177,295.4986571818008,296.40790756274873,"[24, 0, 230]",230,a,0.38717235452713794,1,colour,0.5,3.9
48,19,1,1,4,28,178,296.92049823104026,297.79992383016724,"[13, 0, 241]",241,a,0.3562302313875989,1,colour,0.5,3.9
48,19,1,1,4,29,179,298.3111482464192,299.2161100374433,"[44, 0, 210]",210,a,0.3822654262621654,1,colour,0.5,3.9
48,19,1,1,4,30,180,299.7330688525617,300.6079664033532,"[18, 0, 236]",236,a,0.3515261338543496,1,colour,0.5,3.9
48,19,1,1,4,31,181,301.12394611712807,302.00792693997573,"[92, 0, 162]",162,l,0.36130808884990984,1,colour,0.5,3.9
48,19,1,1,4,32,182,302.5147713940132,303.43192390263357,"[25, 0, 229]",229,a,0.39436201464559417,1,colour,0.5,3.9
48,19,1,1,4,33,183,303.95241394167533,304.8479060976424,"[95, 0, 159]",159,l,0.3713795207149815,1,colour,0.5,3.9
48,19,1,1,4,34,184,305.4730768791451,306.34391348304416,"[38, 0, 216]",216,a,0.35137332157682977,1,colour,0.5,3.9
48,19,1,1,4,35,185,306.8600901198588,307.82394962235776,"[29, 0, 225]",225,a,0.44103592545434367,1,colour,0.5,3.9
48,19,1,1,4,36,186,308.344626738286,309.27198694951585,"[84, 0, 170]",170,l,0.4042889050033409,1,colour,0.5,3.9
48,19,1,1,4,37,187,309.78216452289416,310.67991341687593,"[43, 0, 211]",211,a,0.37486427079420537,1,colour,0.5,3.9
48,19,1,1,4,38,188,311.1886983505319,312.07995154117816,"[98, 0, 156]",156,l,0.36794203216049937,1,colour,0.5,3.9
48,19,1,1,4,39,189,312.59491710130897,313.6719041630713,"[72, 0, 182]",182,l,0.5539086663084163,1,colour,0.5,3.9
48,19,1,1,4,40,190,314.18879208589715,315.07194543813966,"[61, 0, 193]",193,a,0.3603478921177157,0,colour,0.5,3.9
48,19,1,1,4,41,191,315.57952480895256,316.4479290194831,"[90, 0, 164]",164,l,0.3454660242787213,1,colour,0.5,3.9
48,19,1,1,4,42,192,316.95467776892474,317.87993602364077,"[1, 0, 253]",253,a,0.40294273911058553,1,colour,0.5,3.9
48,19,1,1,4,43,193,318.39231086428117,319.26392058802594,"[89, 0, 165]",165,l,0.3492103189237241,1,colour,0.5,3.9
48,19,1,1,4,44,194,319.7829403996657,320.72793546280445,"[77, 0, 177]",177,l,0.4220084338194283,1,colour,0.5,3.9
48,19,1,1,4,45,195,321.23617846425986,322.15994167927056,"[4, 0, 250]",250,a,0.40119878868426895,1,colour,0.5,3.9
48,19,1,1,4,46,196,322.6739604334325,323.5759640465767,"[76, 0, 178]",178,l,0.37931394376573735,1,colour,0.5,3.9
48,19,1,1,4,47,197,324.09582550728373,324.98398306776653,"[41, 0, 213]",213,a,0.3650409619585844,1,colour,0.5,3.9
48,19,1,1,4,48,198,325.5021675318785,326.3759115075118,"[22, 0, 232]",232,a,0.3504978017481335,1,colour,0.5,3.9
48,19,1,1,4,49,199,326.89292231031504,327.7999805440013,"[15, 0, 239]",239,a,0.3841850320350204,1,colour,0.5,3.9
48,19,1,1,4,50,200,328.31496776566564,329.21597297900735,"[79, 0, 175]",175,l,0.3782773408929643,1,colour,0.5,3.9
48,19,1,1,5,1,201,335.7214626025416,336.671997110745,"[94, 0, 160]",160,l,0.42635216219787253,1,colour,0.4,3.9
48,19,1,1,5,2,202,337.19168488532887,338.0879257426823,"[21, 0, 233]",233,a,0.3735330710551352,1,colour,0.4,3.9
48,19,1,1,5,3,203,338.59743023311967,339.4799329516427,"[15, 0, 239]",239,a,0.3592049508042692,1,colour,0.4,3.9
48,19,1,1,5,4,204,339.9883610607503,340.8879263728377,"[82, 0, 172]",172,l,0.37734077492496,1,colour,0.4,3.9
48,19,1,1,5,5,205,341.39462313459444,342.2639083787981,"[27, 0, 227]",227,a,0.3465392548350792,1,colour,0.4,3.9
48,19,1,1,5,6,206,342.7698351714789,343.64814933697926,"[41, 0, 213]",213,a,0.35534565310081234,1,colour,0.4,3.9
48,19,1,1,5,7,207,344.1607600914176,345.104072250273,"[93, 0, 161]",161,l,0.40535386478950386,1,colour,0.4,3.9
48,19,1,1,5,8,208,345.6136499960812,346.47193551321834,"[1, 0, 253]",253,a,0.3353449678106699,1,colour,0.4,3.9
48,19,1,1,5,9,209,346.98884509758136,347.8799502020993,"[77, 0, 177]",177,l,0.36825553363451036,1,colour,0.4,3.9
48,19,1,1,5,10,210,348.39521075294033,349.2479347696353,"[39, 0, 215]",215,a,0.3299839350183902,1,colour,0.4,3.9
48,19,1,1,5,11,211,349.75479970366723,350.6398754186084,"[51, 0, 203]",203,a,0.3626960024230357,0,colour,0.4,3.9
48,19,1,1,5,12,212,351.1608609160139,352.19996077293035,"[24, 0, 230]",230,a,0.5161203168281645,1,colour,0.4,3.9
48,19,1,1,5,13,213,352.707875700602,353.6319642324743,"[12, 0, 242]",242,a,0.4008073056866124,1,colour,0.4,3.9
48,19,1,1,5,14,214,354.1457258051487,355.0399009398352,"[71, 0, 183]",183,l,0.3713901545597764,1,colour,0.4,3.9
48,19,1,1,5,15,215,355.55189571901064,356.423971362663,"[43, 0, 211]",211,a,0.3488306513063435,1,colour,0.4,3.9
48,19,1,1,5,16,216,356.9426749159029,357.7999336763205,"[18, 0, 236]",236,a,0.33467030948304455,1,colour,0.4,3.9
48,19,1,1,5,17,217,358.31785268817475,359.25591724190963,"[50, 0, 204]",204,a,0.4153740966648911,1,colour,0.4,3.9
48,19,1,1,5,18,218,359.7711710973672,360.6159134294794,"[60, 0, 194]",194,a,0.3217001704942959,0,colour,0.4,3.9
48,19,1,1,5,19,219,361.13197742631746,361.9681059508948,"[81, 0, 173]",173,l,0.31309778449940495,1,colour,0.4,3.9
48,19,1,1,5,20,220,363.2908844719459,364.03996828751406,"[52, 0, 202]",202,a,0.22839921656122897,0,colour,0.4,3.9
48,19,1,1,5,21,221,364.55415009395074,365.4639975455502,"[83, 0, 171]",171,l,0.38671903769136406,1,colour,0.4,3.9
48,19,1,1,5,22,222,365.9766575307476,366.87192283137483,"[8, 0, 246]",246,a,0.37254609279261786,1,colour,0.4,3.9
48,19,1,1,5,23,223,367.42025739416204,368.34389812304653,"[78, 0, 176]",176,l,0.40717894750923733,1,colour,0.4,3.9
48,19,1,1,5,24,224,368.8512845092846,369.72802880432573,"[56, 0, 198]",198,a,0.3534926073116367,0,colour,0.4,3.9
48,19,1,1,5,25,225,370.24206646309904,371.1279082086585,"[84, 0, 170]",170,l,0.3625349193789589,1,colour,0.4,3.9
48,19,1,1,5,26,226,371.74322811210004,372.58386538656123,"[37, 0, 217]",217,a,0.31870733416144503,1,colour,0.4,3.9
48,19,1,1,5,27,227,373.10175682919,374.15190800700657,"[20, 0, 234]",234,a,0.5270609669787518,1,colour,0.4,3.9
48,19,1,1,5,28,228,374.6642915122611,375.5759750742691,"[55, 0, 199]",199,a,0.3890675418479077,0,colour,0.4,3.9
48,19,1,1,5,29,229,376.08633105991976,376.9678680678662,"[53, 0, 201]",201,a,0.35879220011702273,0,colour,0.4,3.9
48,19,1,1,5,30,230,377.9235044581401,378.77593584719943,"[97, 0, 157]",157,l,0.32266903184427065,1,colour,0.4,3.9
48,19,1,1,5,31,231,379.2896296783474,380.1999788898502,"[30, 0, 224]",224,a,0.387471677546273,1,colour,0.4,3.9
48,19,1,1,5,32,232,380.711638899862,382.3600166675642,"[66, 0, 188]",188,l,1.1257042460165394,1,colour,0.4,3.9
48,19,1,1,5,33,233,382.87020841940466,383.7759598718112,"[10, 0, 244]",244,a,0.3827541892424051,1,colour,0.4,3.9
48,19,1,1,5,34,234,384.29249490855364,385.1839934653035,"[85, 0, 169]",169,l,0.36911766269622603,1,colour,0.4,3.9
48,19,1,1,5,35,235,385.6974301149676,386.67207194149887,"[92, 0, 162]",162,l,0.4516851295156812,1,colour,0.4,3.9
48,19,1,1,5,36,236,387.1822325794965,388.10394779491253,"[74, 0, 180]",180,l,0.3990456321880629,1,colour,0.4,3.9
48,19,1,1,5,37,237,388.6212008130533,389.49595776079514,"[29, 0, 225]",225,a,0.3515253461628163,1,colour,0.4,3.9
48,19,1,1,5,38,238,390.0120670499309,390.94392892180986,"[95, 0, 159]",159,a,0.40875039335514884,0,colour,0.4,3.9
48,19,1,1,5,39,239,391.4650940130268,392.39990657971066,"[91, 0, 163]",163,a,0.41159829433308914,0,colour,0.4,3.9
48,19,1,1,5,40,240,392.9211138124556,394.00802855226357,"[59, 0, 195]",195,a,0.5665739684300206,0,colour,0.4,3.9
48,19,1,1,5,41,241,394.527834480672,395.4000140996868,"[88, 0, 166]",166,l,0.3493773096597579,1,colour,0.4,3.9
48,19,1,1,5,42,242,395.9185286068132,396.8479718699382,"[89, 0, 165]",165,l,0.40650901533444994,1,colour,0.4,3.9
48,19,1,1,5,43,243,397.3574338249964,398.5199067530011,"[61, 0, 193]",193,a,0.6390306187749957,0,colour,0.4,3.9
48,19,1,1,5,44,244,399.0295160064925,399.97590213397416,"[40, 0, 214]",214,a,0.4231836705112073,1,colour,0.4,3.9
48,19,1,1,5,45,245,400.48284347414665,401.391905202825,"[34, 0, 220]",220,a,0.3860286255221581,1,colour,0.4,3.9
48,19,1,1,5,46,246,401.90496100332894,402.8318745931065,"[76, 0, 178]",178,l,0.4038627635454759,1,colour,0.4,3.9
48,19,1,1,5,47,247,403.3424983940895,404.2158729421026,"[45, 0, 209]",209,a,0.35080815245601116,1,colour,0.4,3.9
48,19,1,1,5,48,248,404.73319291407824,405.6879080983781,"[5, 0, 249]",249,a,0.43176045651489403,1,colour,0.4,3.9
48,19,1,1,5,49,249,406.20209069250996,407.19192316220506,"[54, 0, 200]",200,a,0.46662804349398357,0,colour,0.4,3.9
48,19,1,1,5,50,250,407.70235909861003,408.63187679864495,"[80, 0, 174]",174,l,0.4064140984301048,1,colour,0.4,3.9
48,19,1,1,6,1,251,413.9221665630175,414.9921664015419,"[13, 0, 241]",241,a,0.5450715480474173,1,colour,0.28,3.9
48,19,1,1,6,2,252,415.5010175013376,416.463856548653,"[6, 0, 248]",248,a,0.43919311966601526,1,colour,0.28,3.9
48,19,1,1,6,3,253,416.9699629351453,417.84799353147173,"[67, 0, 187]",187,l,0.35440711790215573,1,colour,0.28,3.9
48,19,1,1,6,4,254,418.36075158434323,418.9840937385161,"[82, 0, 172]",172,l,0.09982619572838303,1,colour,0.28,3.9
48,19,1,1,6,5,255,419.5012569597493,420.50412849149507,"[64, 0, 190]",190,l,0.4794288286684605,1,colour,0.28,3.9
48,19,1,1,6,6,256,421.0695933893694,421.9519094248535,"[58, 0, 196]",196,a,0.36439662978227716,0,colour,0.28,3.9
48,19,1,1,6,7,257,422.47038612275355,423.4240820334089,"[27, 0, 227]",227,a,0.4306647767298273,1,colour,0.28,3.9
48,19,1,1,6,8,258,423.93931540887206,424.8399720684356,"[1, 0, 253]",253,a,0.37610291670716833,1,colour,0.28,3.9
48,19,1,1,6,9,259,425.3470996977994,426.19987964063694,"[50, 0, 204]",204,a,0.32925374439219013,1,colour,0.28,3.9
48,19,1,1,6,10,260,426.7069245623279,427.56793549431313,"[95, 0, 159]",159,l,0.33835237644962035,1,colour,0.28,3.9
48,19,1,1,6,11,261,428.0818207346565,428.9599234048146,"[92, 0, 162]",162,l,0.35510225622783764,1,colour,0.28,3.9
48,19,1,1,6,12,262,429.47254400540623,430.34389772919894,"[70, 0, 184]",184,l,0.3484399559965823,1,colour,0.28,3.9
48,19,1,1,6,13,263,430.8632022915517,431.76787578724907,"[7, 0, 247]",247,a,0.38145055873246747,1,colour,0.28,3.9
48,19,1,1,6,14,264,432.28519890999087,433.19992256986006,"[54, 0, 200]",200,a,0.3923778181160742,0,colour,0.28,3.9
48,19,1,1,6,15,265,433.7070761930663,434.6240361109594,"[94, 0, 160]",160,l,0.39388349166620173,1,colour,0.28,3.9
48,19,1,1,6,16,266,435.14480814379203,435.99190449390153,"[90, 0, 164]",164,l,0.3239293392871332,1,colour,0.28,3.9
48,19,1,1,6,17,267,436.5042533406995,437.39189496282415,"[60, 0, 194]",194,a,0.3655108203274722,0,colour,0.28,3.9
48,19,1,1,6,18,268,437.9107040668132,439.63211743859574,"[69, 0, 185]",185,l,1.1987067670233955,1,colour,0.28,3.9
48,19,1,1,6,19,269,440.1453733129092,441.1598731500526,"[71, 0, 183]",183,l,0.49157189088873565,1,colour,0.28,3.9
48,19,1,1,6,20,270,441.67656375599836,442.57591914812656,"[61, 0, 193]",193,a,0.3768815504008671,0,colour,0.28,3.9
48,19,1,1,6,21,271,443.08276990369995,444.0238973983687,"[24, 0, 230]",230,a,0.41910933285180363,1,colour,0.28,3.9
48,19,1,1,6,22,272,444.5362163128666,445.41602630576745,"[59, 0, 195]",195,a,0.35718688350971206,0,colour,0.28,3.9
48,19,1,1,6,23,273,445.92693013131066,446.75987480420736,"[76, 0, 178]",178,l,0.30985800667258445,1,colour,0.28,3.9
48,19,1,1,6,24,274,447.2706648082385,448.13589501323804,"[75, 0, 179]",179,l,0.34239205565245356,1,colour,0.28,3.9
48,19,1,1,6,25,275,448.64570276515224,449.52790458527306,"[15, 0, 239]",239,a,0.359915449123946,1,colour,0.28,3.9
48,19,1,1,6,26,276,450.03649023281105,450.7839750333078,"[98, 0, 156]",156,l,0.22412756201811135,1,colour,0.28,3.9
48,19,1,1,6,27,277,451.30231309738883,452.15990426389544,"[81, 0, 173]",173,l,0.33437177415544284,1,colour,0.28,3.9
48,19,1,1,6,28,278,452.6774499096682,453.5038760361567,"[80, 0, 174]",174,l,0.30399127551936544,1,colour,0.28,3.9
48,19,1,1,6,29,279,454.02134173117884,460.1039080164592,"[74, 0, 180]",180,a,5.5594335390633205,0,colour,0.28,3.9
48,19,1,1,6,30,280,460.61571847567393,461.53592014061724,"[93, 0, 161]",161,l,0.39761557708334294,1,colour,0.28,3.9
48,19,1,1,6,31,281,462.0531983649089,463.0399123613679,"[51, 0, 203]",203,a,0.46381361943349475,0,colour,0.28,3.9
48,19,1,1,6,32,282,463.55341045101886,464.5999213095529,"[38, 0, 216]",216,a,0.5238530906863161,1,colour,0.28,3.9
48,19,1,1,6,33,283,465.1161412694346,465.97591276781895,"[66, 0, 188]",188,l,0.33696525056802784,1,colour,0.28,3.9
48,19,1,1,6,34,284,466.49137969400545,467.303875484773,"[87, 0, 167]",167,l,0.28954972759675,1,colour,0.28,3.9
48,19,1,1,6,35,285,467.8197165647325,468.6959027798839,"[37, 0, 217]",217,a,0.35342841040255735,1,colour,0.28,3.9
48,19,1,1,6,36,286,469.2102220386005,474.8158868054852,"[72, 0, 182]",182,l,5.0835509004682535,1,colour,0.28,3.9
48,19,1,1,6,37,287,475.33699557671207,476.2478544250371,"[52, 0, 202]",202,a,0.38759219444546034,0,colour,0.28,3.9
48,19,1,1,6,38,288,476.7590300043739,477.58386656810035,"[84, 0, 170]",170,l,0.3017676205781754,1,colour,0.28,3.9
48,19,1,1,6,39,289,478.1029123735789,478.95187870485825,"[40, 0, 214]",214,a,0.3261518126964802,1,colour,0.28,3.9
48,19,1,1,6,40,290,479.4622984935777,480.2159292620927,"[29, 0, 225]",225,a,0.23039168386094389,1,colour,0.28,3.9
48,19,1,1,6,41,291,480.72808433662067,481.5758754312119,"[96, 0, 158]",158,l,0.32463353607454337,1,colour,0.28,3.9
48,19,1,1,6,42,292,482.08827941646086,484.1438790608954,"[68, 0, 186]",186,l,1.5325586643557472,1,colour,0.28,3.9
48,19,1,1,6,43,293,484.6521618408042,485.495852210046,"[45, 0, 209]",209,a,0.320498939963727,1,colour,0.28,3.9
48,19,1,1,6,44,294,486.0116038869455,487.2158745174893,"[63, 0, 191]",191,a,0.6811319766384258,0,colour,0.28,3.9
48,19,1,1,6,45,295,487.73047773922735,488.73604278428684,"[85, 0, 169]",169,l,0.482605197274097,1,colour,0.28,3.9
48,19,1,1,6,46,296,489.24623492997125,490.11190939334483,"[65, 0, 189]",189,a,0.3425783448437869,0,colour,0.28,3.9
48,19,1,1,6,47,297,490.6213252684138,491.4798833270361,"[78, 0, 176]",176,l,0.334161460348696,1,colour,0.28,3.9
48,19,1,1,6,48,298,491.997741292751,492.8479242145622,"[25, 0, 229]",229,a,0.3273782493779436,1,colour,0.28,3.9
48,19,1,1,6,49,299,493.3572337511905,494.19987176371797,"[57, 0, 197]",197,a,0.31952220169478096,0,colour,0.28,3.9
48,19,1,1,6,50,300,494.7166395634922,495.55986637590104,"[35, 0, 219]",219,a,0.3206371799351473,1,colour,0.28,3.9
48,19,1,1,7,1,301,500.21634555739365,501.21584616057226,"[62, 0, 192]",192,a,0.475563229429099,0,colour,0.14,3.9
48,19,1,1,7,2,302,501.73409915389857,502.59192623420313,"[17, 0, 237]",237,a,0.3346025679529703,1,colour,0.14,3.9
48,19,1,1,7,3,303,503.10925487079294,503.9438777218202,"[56, 0, 198]",198,a,0.3117614647599112,0,colour,0.14,3.9
48,19,1,1,7,4,304,504.4530754061634,505.2798701725769,"[74, 0, 180]",180,l,0.3036249986689654,1,colour,0.14,3.9
48,19,1,1,7,5,305,505.79692232922025,506.63996009551556,"[85, 0, 169]",169,l,0.3199601585329219,1,colour,0.14,3.9
48,19,1,1,7,6,306,507.15642069534806,508.03189562448824,"[86, 0, 168]",168,l,0.3522657767862256,1,colour,0.14,3.9
48,19,1,1,7,7,307,508.5485125812156,509.41586364733666,"[52, 0, 202]",202,a,0.34418838760757353,0,colour,0.14,3.9
48,19,1,1,7,8,308,509.92357968274155,510.83990078229544,"[83, 0, 171]",171,l,0.3931974118022481,1,colour,0.14,3.9
48,19,1,1,7,9,309,511.3612360150182,512.2399073989109,"[5, 0, 249]",249,a,0.3561888775511761,1,colour,0.14,3.9
48,19,1,1,7,10,310,512.7519616488426,513.6558478462321,"[77, 0, 177]",177,l,0.38063135889024124,1,colour,0.14,3.9
48,19,1,1,7,11,311,514.1740563349522,515.1518552316338,"[58, 0, 196]",196,a,0.4546117997088004,0,colour,0.14,3.9
48,19,1,1,7,12,312,515.6584555011032,516.5521568389595,"[81, 0, 173]",173,l,0.37043113936306327,1,colour,0.14,3.9
48,19,1,1,7,13,313,517.0648152487738,517.8959257804927,"[57, 0, 197]",197,a,0.30809987778775394,0,colour,0.14,3.9
48,19,1,1,7,14,314,518.4087279441264,519.3038573678532,"[60, 0, 194]",194,a,0.37202542827799334,0,colour,0.14,3.9
48,19,1,1,7,15,315,519.8149868672008,520.7438799273586,"[75, 0, 179]",179,l,0.4045354526460869,1,colour,0.14,3.9
48,19,1,1,7,16,316,521.253882633082,522.2239211866727,"[89, 0, 165]",165,l,0.4467380289497669,1,colour,0.14,3.9
48,19,1,1,7,17,317,522.7384393376597,523.7598688965154,"[72, 0, 182]",182,a,0.4982148926574155,0,colour,0.14,3.9
48,19,1,1,7,18,318,524.2697821991787,525.1759078053583,"[61, 0, 193]",193,a,0.3830932907148963,0,colour,0.14,3.9
48,19,1,1,7,19,319,525.6917295868589,526.5758805512087,"[68, 0, 186]",186,a,0.3608142058692465,0,colour,0.14,3.9
48,19,1,1,7,20,320,527.0826899529457,527.9839247785494,"[73, 0, 181]",181,l,0.3787991869430698,1,colour,0.14,3.9
48,19,1,1,7,21,321,528.5044975252677,529.5438915852028,"[34, 0, 220]",220,a,0.5166256213415181,1,colour,0.14,3.9
48,19,1,1,7,22,322,545.9297516446022,548.0958578026621,"[53, 0, 201]",201,a,1.6429777441553597,0,colour,0.14,3.9
48,19,1,1,7,23,323,548.6018535184012,549.4878535900825,"[82, 0, 172]",172,l,0.3635352884120948,1,colour,0.14,3.9
48,19,1,1,7,24,324,550.0082617091393,552.4399126764474,"[67, 0, 187]",187,l,1.9085698149283417,1,colour,0.14,3.9
48,19,1,1,7,25,325,552.9471293150236,553.8799186944161,"[55, 0, 199]",199,a,0.4101213715475751,0,colour,0.14,3.9
48,19,1,1,7,26,326,554.4000381242986,555.3678971337067,"[90, 0, 164]",164,l,0.44468136474097264,1,colour,0.14,3.9
48,19,1,1,7,27,327,555.8845778934956,556.7678962672435,"[54, 0, 200]",200,a,0.3591415415830852,0,colour,0.14,3.9
48,19,1,1,7,28,328,557.2766587516708,558.2159442282427,"[87, 0, 167]",167,l,0.41644653952971566,1,colour,0.14,3.9
48,19,1,1,7,29,329,558.7296620840025,559.6319406017101,"[91, 0, 163]",163,l,0.37943839912622934,1,colour,0.14,3.9
48,19,1,1,7,30,330,560.1882529106188,561.0641764304382,"[98, 0, 156]",156,l,0.35829240944440244,1,colour,0.14,3.9
48,19,1,1,7,31,331,561.5735966378124,562.4719047932231,"[93, 0, 161]",161,l,0.375484578366013,1,colour,0.14,3.9
48,19,1,1,7,32,332,562.9801095916082,563.9039051019972,"[65, 0, 189]",189,a,0.40072223493189085,0,colour,0.14,3.9
48,19,1,1,7,33,333,564.4176840038999,565.2958729263482,"[79, 0, 175]",175,l,0.35521804697054904,1,colour,0.14,3.9
48,19,1,1,7,34,334,565.8083706469661,566.719991587448,"[94, 0, 160]",160,l,0.3883712219831068,1,colour,0.14,3.9
48,19,1,1,7,35,335,567.2302959792651,568.1999718006191,"[8, 0, 246]",246,a,0.44618625059592887,1,colour,0.14,3.9
48,19,1,1,7,36,336,568.7148936438352,569.8878271236281,"[71, 0, 183]",183,l,0.6492560444567061,1,colour,0.14,3.9
48,19,1,1,7,37,337,570.4026985545424,571.3119075816539,"[97, 0, 157]",157,l,0.3862865947012324,1,colour,0.14,3.9
48,19,1,1,7,38,338,571.8246077391523,572.7199679566802,"[4, 0, 250]",250,a,0.37225307130938745,1,colour,0.14,3.9
48,19,1,1,7,39,339,573.230781197628,574.119958819454,"[80, 0, 174]",174,l,0.36590072794570005,1,colour,0.14,3.9
48,19,1,1,7,40,340,574.6372232591311,575.672046735348,"[59, 0, 195]",195,a,0.5115607607986021,0,colour,0.14,3.9
48,19,1,1,7,41,341,576.1840875945163,577.0879800934417,"[92, 0, 162]",162,l,0.3807447865619906,1,colour,0.14,3.9
48,19,1,1,7,42,342,577.6060794868026,578.5119183730349,"[96, 0, 158]",158,l,0.3823887000835384,1,colour,0.14,3.9
48,19,1,1,7,43,343,579.2992718179885,580.8640065252403,"[69, 0, 185]",185,l,1.0471579476361512,1,colour,0.14,3.9
48,19,1,1,7,44,344,581.3720975021097,582.3119241231907,"[18, 0, 236]",236,a,0.41662298257506336,1,colour,0.14,3.9
48,19,1,1,7,45,345,582.8254009451521,583.727928373577,"[88, 0, 166]",166,l,0.379682977541961,1,colour,0.14,3.9
48,19,1,1,7,46,346,584.2473542405205,585.6081680525422,"[50, 0, 204]",204,a,0.8377302965673152,1,colour,0.14,3.9
48,19,1,1,7,47,347,586.1225184251016,587.2639517018652,"[23, 0, 231]",231,a,0.6183060443945578,1,colour,0.14,3.9
48,19,1,1,7,48,348,587.7793237111473,588.7599118257385,"[95, 0, 159]",159,l,0.4578531529150496,1,colour,0.14,3.9
48,19,1,1,7,49,349,589.2791537665653,590.1680159176831,"[63, 0, 191]",191,a,0.3656667833784013,0,colour,0.14,3.9
48,19,1,1,7,50,350,590.6853603081108,592.0878847826934,"[70, 0, 184]",184,l,0.879218042246066,1,colour,0.14,3.9
48,19,1,1,8,1,351,597.0756641327898,598.0479346120992,"[85, 0, 169]",169,l,0.4486135239676514,1,colour,0.06,3.8
48,19,1,1,8,2,352,598.5622656861997,599.4479140533331,"[63, 0, 191]",191,a,0.36251759015067364,0,colour,0.06,3.8
48,19,1,1,8,3,353,599.9687951815285,600.9201599172593,"[56, 0, 198]",198,a,0.42905473396967864,0,colour,0.06,3.8
48,19,1,1,8,4,354,601.453299898425,602.3919126859,"[89, 0, 165]",165,l,0.41649537644480006,1,colour,0.06,3.8
48,19,1,1,8,5,355,602.9053221601825,603.919849960399,"[57, 0, 197]",197,a,0.49166050626081415,0,colour,0.06,3.8
48,19,1,1,8,6,356,604.4367583632229,606.0078619553751,"[72, 0, 182]",182,l,1.0491866487755033,1,colour,0.06,3.8
48,19,1,1,8,7,357,606.5148777324539,607.4318774287967,"[99, 0, 155]",155,l,0.3942481931298971,1,colour,0.06,3.8
48,19,1,1,8,8,358,607.9525147662716,608.8958552820441,"[51, 0, 203]",203,a,0.41962251428776653,0,colour,0.06,3.8
48,19,1,1,8,9,359,609.4058158462394,610.3838620782517,"[88, 0, 166]",166,l,0.45480005813078606,1,colour,0.06,3.8
48,19,1,1,8,10,360,610.8903461631307,611.7839328917762,"[98, 0, 156]",156,l,0.3705886777897831,1,colour,0.06,3.8
48,19,1,1,8,11,361,612.2966180831245,613.3118626832002,"[71, 0, 183]",183,l,0.4924422907170083,1,colour,0.06,3.8
48,19,1,1,8,12,362,613.8279215600378,614.679850401506,"[81, 0, 173]",173,l,0.3297858304431429,1,colour,0.06,3.8
48,19,1,1,8,13,363,615.1873801477159,616.1918735375984,"[70, 0, 184]",184,a,0.48168320360491634,0,colour,0.06,3.8
48,19,1,1,8,14,364,616.7031676646038,617.6081050371722,"[50, 0, 204]",204,a,0.3815423248670413,1,colour,0.06,3.8
48,19,1,1,8,15,365,618.1251347445868,619.087913927302,"[92, 0, 162]",162,l,0.43978625185627607,1,colour,0.06,3.8
48,19,1,1,8,16,366,619.5940915999308,620.5438329021345,"[84, 0, 170]",170,a,0.4262009252997814,0,colour,0.06,3.8
48,19,1,1,8,17,367,621.0621792369857,623.2638406372716,"[78, 0, 176]",176,l,1.6832504746816994,1,colour,0.06,3.8
48,19,1,1,8,18,368,623.7925084962444,624.7918661332915,"[48, 0, 206]",206,a,0.4618916505787638,1,colour,0.06,3.8
48,19,1,1,8,19,369,625.2871716849877,626.3039054170767,"[55, 0, 199]",199,a,0.49776196967286523,0,colour,0.06,3.8
48,19,1,1,8,20,370,626.8204203676687,627.7518655503991,"[34, 0, 220]",220,a,0.40832937189770746,1,colour,0.06,3.8
48,19,1,1,8,21,371,628.2580574014901,629.0958534703532,"[83, 0, 171]",171,l,0.3148956918339536,1,colour,0.06,3.8
48,19,1,1,8,22,372,629.6020016045259,630.5279632683378,"[60, 0, 194]",194,a,0.40290138527416275,0,colour,0.06,3.8
48,19,1,1,8,23,373,631.0395386014425,632.2958319663594,"[82, 0, 172]",172,l,0.7334686063331901,1,colour,0.06,3.8
48,19,1,1,8,24,374,632.8055377121382,635.2718884879941,"[67, 0, 187]",187,l,1.9441542017630127,1,colour,0.06,3.8
48,19,1,1,8,25,375,635.7899185644455,636.7998596332582,"[96, 0, 158]",158,l,0.4871403348406602,1,colour,0.06,3.8
48,19,1,1,8,26,376,637.3212673336566,638.2638540280386,"[86, 0, 168]",168,l,0.4197272773453733,1,colour,0.06,3.8
48,19,1,1,8,27,377,638.7745735336212,639.6638795492654,"[77, 0, 177]",177,l,0.3662957555607136,1,colour,0.06,3.8
48,19,1,1,8,28,378,640.1808616013041,641.0558520997693,"[76, 0, 178]",178,l,0.3522716844745446,1,colour,0.06,3.8
48,19,1,1,8,29,379,641.5717144474147,642.4478467056542,"[40, 0, 214]",214,a,0.3532137642905582,1,colour,0.06,3.8
48,19,1,1,8,30,380,642.9623869120223,643.919836569632,"[61, 0, 193]",193,a,0.43381515149667393,0,colour,0.06,3.8
48,19,1,1,8,31,381,644.4323976994638,645.4478612779567,"[79, 0, 175]",175,l,0.4922977492060454,1,colour,0.06,3.8
48,19,1,1,8,32,382,645.9638224809678,646.9038751696971,"[52, 0, 202]",202,a,0.4176001146879571,0,colour,0.06,3.8
48,19,1,1,8,33,383,647.4169439671241,648.7358887904702,"[91, 0, 163]",163,l,0.795689984850469,1,colour,0.06,3.8
48,19,1,1,8,34,384,649.2453192378453,650.1439070239685,"[74, 0, 180]",180,l,0.37582604291674215,1,colour,0.06,3.8
48,19,1,1,8,35,385,650.6517514531915,651.8958623712751,"[66, 0, 188]",188,a,0.7210892364637402,0,colour,0.06,3.8
48,19,1,1,8,36,386,652.4018285485618,653.2478780558013,"[68, 0, 186]",186,a,0.32334644709408167,0,colour,0.06,3.8
48,19,1,1,8,37,387,653.7612729577777,654.6718395723146,"[62, 0, 192]",192,a,0.38778439132875064,0,colour,0.06,3.8
48,19,1,1,8,38,388,655.1831876562319,656.0478282736585,"[87, 0, 167]",167,l,0.3419194403613801,1,colour,0.06,3.8
48,19,1,1,8,39,389,656.5583079269782,657.4238662057614,"[95, 0, 159]",159,l,0.3427370648169017,1,colour,0.06,3.8
48,19,1,1,8,40,390,657.9335498961627,659.0478668705728,"[69, 0, 185]",185,a,0.5911649297413533,0,colour,0.06,3.8
48,19,1,1,8,41,391,659.5586430899893,660.4158203242696,"[80, 0, 174]",174,l,0.3345497925838572,1,colour,0.06,3.8
48,19,1,1,8,42,392,660.9337353976625,661.7838300979529,"[65, 0, 189]",189,a,0.32745268628787016,0,colour,0.06,3.8
48,19,1,1,8,43,393,662.2932495176356,663.1519052500844,"[97, 0, 157]",157,l,0.335512746238237,1,colour,0.06,3.8
48,19,1,1,8,44,394,663.6683528530011,664.5598360497534,"[94, 0, 160]",160,l,0.3688990781229222,1,colour,0.06,3.8
48,19,1,1,8,45,395,665.0747374129751,666.2238684112999,"[53, 0, 201]",201,a,0.6260427567176521,0,colour,0.06,3.8
48,19,1,1,8,46,396,666.7322961265636,667.7438523581332,"[59, 0, 195]",195,a,0.4884833499600063,0,colour,0.06,3.8
48,19,1,1,8,47,397,668.2636224465459,669.4478537948817,"[73, 0, 181]",181,l,0.6615944543300429,1,colour,0.06,3.8
48,19,1,1,8,48,398,669.9669074772828,670.8798080236666,"[64, 0, 190]",190,a,0.38986468630173476,0,colour,0.06,3.8
48,19,1,1,8,49,399,671.3888824341884,672.2959213694157,"[90, 0, 164]",164,l,0.3838731059440761,1,colour,0.06,3.8
48,19,1,1,8,50,400,672.8108751141663,673.7358986366235,"[93, 0, 161]",161,l,0.40181712702906225,1,colour,0.06,3.8
48,19,1,1,9,1,401,678.7794312311271,680.4078669966038,"[55, 0, 199]",199,a,1.1051687177532585,0,colour,0.06,3.8
48,19,1,1,9,2,402,680.9208924709601,681.9519039110091,"[60, 0, 194]",194,a,0.5078609707597934,0,colour,0.06,3.8
48,19,1,1,9,3,403,682.4678725970953,683.3599126922018,"[77, 0, 177]",177,l,0.36876517046039226,1,colour,0.06,3.8
48,19,1,1,9,4,404,683.8741913847734,684.7278129766746,"[66, 0, 188]",188,a,0.33048530107407714,0,colour,0.06,3.8
48,19,1,1,9,5,405,685.2337157447437,686.159864879286,"[92, 0, 162]",162,l,0.40304592678512563,1,colour,0.06,3.8
48,19,1,1,9,6,406,686.6714138247044,687.5278238468272,"[83, 0, 171]",171,l,0.33326664206470014,1,colour,0.06,3.8
48,19,1,1,9,7,407,688.0465285816063,688.831812759272,"[98, 0, 156]",156,l,0.2622668283547682,1,colour,0.06,3.8
48,19,1,1,9,8,408,689.3434487446721,690.2080031098085,"[93, 0, 161]",161,l,0.3414117727697885,1,colour,0.06,3.8
48,19,1,1,9,9,409,690.7186296677137,691.5518638174763,"[97, 0, 157]",157,l,0.30979696052963845,1,colour,0.06,3.8
48,19,1,1,9,10,410,692.0623214154184,692.9278202234418,"[99, 0, 155]",155,l,0.3428847570903599,1,colour,0.06,3.8
48,19,1,1,9,11,411,693.4373609477188,694.3038384632418,"[68, 0, 186]",186,a,0.343174627803819,0,colour,0.06,3.8
48,19,1,1,9,12,412,694.8139900427814,695.7118976567326,"[71, 0, 183]",183,a,0.3756480244883278,0,colour,0.06,3.8
48,19,1,1,9,13,413,696.2205845227145,697.5678102512611,"[15, 0, 239]",239,a,0.825041363685159,1,colour,0.06,3.8
48,19,1,1,9,14,414,698.080038187316,698.9918552631425,"[80, 0, 174]",174,l,0.3887946065151482,1,colour,0.06,3.8
48,19,1,1,9,15,415,699.5019619442282,700.4238283965387,"[87, 0, 167]",167,l,0.39956038901073043,1,colour,0.06,3.8
48,19,1,1,9,16,416,700.9396222149662,701.8078629793745,"[69, 0, 185]",185,a,0.34517457818219555,0,colour,0.06,3.8
48,19,1,1,9,17,417,702.3149169595235,703.2238345405349,"[81, 0, 173]",173,l,0.38618931471864926,1,colour,0.06,3.8
48,19,1,1,9,18,418,703.7367647041428,704.5998606572575,"[86, 0, 168]",168,l,0.3387414963726769,1,colour,0.06,3.8
48,19,1,1,9,19,419,705.1137435345227,706.0478589936502,"[64, 0, 190]",190,a,0.409711771626462,0,colour,0.06,3.8
48,19,1,1,9,20,420,706.5688523679783,707.4398910149139,"[91, 0, 163]",163,l,0.34778577766701346,1,colour,0.06,3.8
48,19,1,1,9,21,421,707.9596071464148,709.0558127151598,"[75, 0, 179]",179,l,0.5725045026447333,1,colour,0.06,3.8
48,19,1,1,9,22,422,709.5697243431896,710.3998061489583,"[65, 0, 189]",189,a,0.3192551740539784,0,colour,0.06,3.8
48,19,1,1,9,23,423,710.9176393023699,711.7678994180133,"[61, 0, 193]",193,a,0.3264668895571958,0,colour,0.06,3.8
48,19,1,1,9,24,424,712.2763279209685,713.1838654653293,"[89, 0, 165]",165,l,0.38495854573193355,1,colour,0.06,3.8
48,19,1,1,9,25,425,713.6981977209689,715.007845807686,"[84, 0, 170]",170,l,0.78630345131387,1,colour,0.06,3.8
48,19,1,1,9,26,426,715.5276844253167,716.3758213167603,"[90, 0, 164]",164,l,0.325447615912708,1,colour,0.06,3.8
48,19,1,1,9,27,427,716.887118988383,717.7438330596742,"[79, 0, 175]",175,l,0.3337979404204816,1,colour,0.06,3.8
48,19,1,1,9,28,428,718.2622034191336,719.0878174350146,"[85, 0, 169]",169,l,0.30292552804166917,1,colour,0.06,3.8
48,19,1,1,9,29,429,719.596845371696,720.4798092839737,"[52, 0, 202]",202,a,0.36037939980087685,0,colour,0.06,3.8
48,19,1,1,9,30,430,720.9812761636858,721.8318761684895,"[88, 0, 166]",166,l,0.3280635415503639,1,colour,0.06,3.8
48,19,1,1,9,31,431,722.3408544805679,723.2158311944186,"[95, 0, 159]",159,l,0.3495214573231351,1,colour,0.06,3.8
48,19,1,1,9,32,432,723.7342066738784,724.5758088712246,"[74, 0, 180]",180,l,0.32806826770320185,1,colour,0.06,3.8
48,19,1,1,9,33,433,725.0842602172524,725.9918477800638,"[53, 0, 201]",201,a,0.3846541027123749,0,colour,0.06,3.8
48,19,1,1,9,34,434,726.4980494773044,727.3998636504875,"[82, 0, 172]",172,l,0.3762777843658114,1,colour,0.06,3.8
48,19,1,1,9,35,435,727.9067789968176,728.8318572638782,"[58, 0, 196]",196,a,0.40269382839323953,0,colour,0.06,3.8
48,19,1,1,9,36,436,729.3449276366882,730.2721724510156,"[57, 0, 197]",197,a,0.4053755263230414,0,colour,0.06,3.8
48,19,1,1,9,37,437,730.7817907629687,731.6477968447398,"[94, 0, 160]",160,l,0.3433936062247085,1,colour,0.06,3.8
48,19,1,1,9,38,438,732.1571756982776,733.1758380946012,"[51, 0, 203]",203,a,0.4950723948131781,0,colour,0.06,3.8
48,19,1,1,9,39,439,733.6884575136573,734.5838382111797,"[67, 0, 187]",187,a,0.37270756968064234,0,colour,0.06,3.8
48,19,1,1,9,40,440,735.0947030459647,735.855837763771,"[59, 0, 195]",195,a,0.23895074678875972,0,colour,0.06,3.8
48,19,1,1,9,41,441,736.3762951135905,737.1918353345282,"[2, 0, 252]",252,a,0.2925988839160709,1,colour,0.06,3.8
48,19,1,1,9,42,442,737.7044519966621,738.5521194235807,"[73, 0, 181]",181,l,0.32394391159323277,1,colour,0.06,3.8
48,19,1,1,9,43,443,739.0641350765982,739.895819442052,"[76, 0, 178]",178,l,0.32050287842503167,1,colour,0.06,3.8
48,19,1,1,9,44,444,740.412056731162,741.2718235033935,"[56, 0, 198]",198,a,0.33678408137348015,0,colour,0.06,3.8
48,19,1,1,9,45,445,741.7871899988277,742.6638775800348,"[63, 0, 191]",191,a,0.354108582574554,0,colour,0.06,3.8
48,19,1,1,9,46,446,743.1778419834372,743.9998278892635,"[47, 0, 207]",207,a,0.2992123472322419,1,colour,0.06,3.8
48,19,1,1,9,47,447,744.506233992619,746.4078902335204,"[62, 0, 192]",192,a,1.379262743776053,0,colour,0.06,3.8
48,19,1,1,9,48,448,746.9282550295102,747.9918273000694,"[96, 0, 158]",158,l,0.5407341212085157,1,colour,0.06,3.8
48,19,1,1,9,49,449,748.5065746694745,749.4478187425811,"[72, 0, 182]",182,l,0.4186083606437023,1,colour,0.06,3.8
48,19,1,1,9,50,450,749.9599671217293,751.0158617568741,"[54, 0, 200]",200,a,0.5336362272209954,0,colour,0.06,3.8
48,19,1,1,10,1,451,756.3512791923604,757.5037984484807,"[87, 0, 167]",167,l,0.6290753715038591,1,colour,0.06,3.7
48,19,1,1,10,2,452,758.0250493981439,759.1598369162166,"[57, 0, 197]",197,a,0.6122872886589903,0,colour,0.06,3.7
48,19,1,1,10,3,453,759.6684446191357,762.3198691800862,"[95, 0, 159]",159,l,2.1313606633630116,1,colour,0.06,3.7
48,19,1,1,10,4,454,762.8380004749779,763.8318517500338,"[81, 0, 173]",173,l,0.46750120024444186,1,colour,0.06,3.7
48,19,1,1,10,5,455,764.3320118484626,765.2398286296957,"[80, 0, 174]",174,l,0.39019788008590695,1,colour,0.06,3.7
48,19,1,1,10,6,456,765.7492645909115,767.0157810184282,"[74, 0, 180]",180,l,0.7486434956517769,1,colour,0.06,3.7
48,19,1,1,10,7,457,767.5258876995176,768.439844934921,"[59, 0, 195]",195,a,0.39107339991096524,0,colour,0.06,3.7
48,19,1,1,10,8,458,768.9479394564041,769.9838668831762,"[83, 0, 171]",171,l,0.5130313820482115,1,colour,0.06,3.7
48,19,1,1,10,9,459,770.4947462902637,771.879856466734,"[69, 0, 185]",185,l,0.8618269810540369,1,colour,0.06,3.7
48,19,1,1,10,10,460,772.4019734839167,773.3598776399012,"[73, 0, 181]",181,l,0.4344508190624765,1,colour,0.06,3.7
48,19,1,1,10,11,461,773.8584458124897,774.7522530949391,"[18, 0, 236]",236,a,0.3710774407736608,1,colour,0.06,3.7
48,19,1,1,10,12,462,775.2554454143101,776.2398829804515,"[96, 0, 158]",158,l,0.46168881985067856,1,colour,0.06,3.7
48,19,1,1,10,13,463,776.7462111022833,777.6718057015496,"[99, 0, 155]",155,l,0.40267807454802096,1,colour,0.06,3.7
48,19,1,1,10,14,464,778.1748168517261,779.0558316197748,"[72, 0, 182]",182,l,0.3579962371950387,1,colour,0.06,3.7
48,19,1,1,10,15,465,779.5653735255873,780.4238488765332,"[77, 0, 177]",177,l,0.3357140015832556,1,colour,0.06,3.7
48,19,1,1,10,16,466,780.9414268176879,781.8158576608766,"[27, 0, 227]",227,a,0.3586657755258784,1,colour,0.06,3.7
48,19,1,1,10,17,467,782.3249553083151,783.3038593370838,"[50, 0, 204]",204,a,0.45639080243199714,1,colour,0.06,3.7
48,19,1,1,10,18,468,783.8095250098158,784.7598744103634,"[97, 0, 157]",157,l,0.42726627894080593,1,colour,0.06,3.7
48,19,1,1,10,19,469,785.2782723390483,786.1358638993988,"[79, 0, 175]",175,l,0.3349822355739889,1,colour,0.06,3.7
48,19,1,1,10,20,470,786.6533780374884,787.5678649958645,"[88, 0, 166]",166,l,0.3913274306287349,1,colour,0.06,3.7
48,19,1,1,10,21,471,788.0754427912943,788.9197830065641,"[85, 0, 169]",169,l,0.3213512228721811,1,colour,0.06,3.7
48,19,1,1,10,22,472,789.4347548682308,790.3278351108238,"[82, 0, 172]",172,l,0.37044137935663457,1,colour,0.06,3.7
48,19,1,1,10,23,473,790.8427758586513,791.6638070815861,"[93, 0, 161]",161,l,0.29906938110434567,1,colour,0.06,3.7
48,19,1,1,10,24,474,792.1860473725937,793.0798507165819,"[64, 0, 190]",190,a,0.37127121304365573,0,colour,0.06,3.7
48,19,1,1,10,25,475,793.5923744310385,794.4878638300797,"[23, 0, 231]",231,a,0.37276940351512167,1,colour,0.06,3.7
48,19,1,1,10,26,476,794.9989031386758,795.8878188528579,"[52, 0, 202]",202,a,0.36604960176191526,0,colour,0.06,3.7
48,19,1,1,10,27,477,796.4053408678701,797.2799824187096,"[76, 0, 178]",178,l,0.35173684150504414,1,colour,0.06,3.7
48,19,1,1,10,28,478,797.7960007294023,798.640001449352,"[89, 0, 165]",165,l,0.321181081366376,1,colour,0.06,3.7
48,19,1,1,10,29,479,799.1553966955507,800.0158696337967,"[53, 0, 201]",201,a,0.3376477858182625,0,colour,0.06,3.7
48,19,1,1,10,30,480,800.5306162155066,805.6238206771523,"[67, 0, 187]",187,l,4.570155210800294,1,colour,0.06,3.7
48,19,1,1,10,31,481,806.1436486609418,807.2238723497576,"[58, 0, 196]",196,a,0.5578120747668436,0,colour,0.06,3.7
48,19,1,1,10,32,482,807.737479928619,808.5918151696096,"[86, 0, 168]",168,l,0.33132183013731265,1,colour,0.06,3.7
48,19,1,1,10,33,483,809.1126647901183,809.9597898909924,"[90, 0, 164]",164,l,0.32474302528135013,1,colour,0.06,3.7
48,19,1,1,10,34,484,810.4721623685582,811.3517986753359,"[60, 0, 194]",194,a,0.3568001266612555,0,colour,0.06,3.7
48,19,1,1,10,35,485,811.8628970608443,812.7678651534043,"[62, 0, 192]",192,a,0.38237964162544813,0,colour,0.06,3.7
48,19,1,1,10,36,486,813.2848739869769,814.1278759132801,"[71, 0, 183]",183,l,0.32037645383388735,1,colour,0.06,3.7
48,19,1,1,10,37,487,814.6443471469574,815.5278124252909,"[98, 0, 156]",156,l,0.36064367051949375,1,colour,0.06,3.7
48,19,1,1,10,38,488,816.0366158697107,817.0958578026621,"[68, 0, 186]",186,l,0.5368862450450251,1,colour,0.06,3.7
48,19,1,1,10,39,489,817.6148606789175,818.463820314817,"[94, 0, 160]",160,l,0.3264716157100338,1,colour,0.06,3.7
48,19,1,1,10,40,490,818.9742554635304,819.8478021222763,"[75, 0, 179]",179,l,0.35046629406133434,1,colour,0.06,3.7
48,19,1,1,10,41,491,820.364873183531,821.2158327698053,"[66, 0, 188]",188,a,0.32813364615503815,0,colour,0.06,3.7
48,19,1,1,10,42,492,821.7243928173484,822.591833680377,"[91, 0, 163]",163,l,0.3446082275258959,1,colour,0.06,3.7
48,19,1,1,10,43,493,823.0995902819268,824.0078064230765,"[61, 0, 193]",193,a,0.38527874258943484,0,colour,0.06,3.7
48,19,1,1,10,44,494,824.5219169433767,825.4398295749234,"[84, 0, 170]",170,l,0.39576292514175293,1,colour,0.06,3.7
48,19,1,1,10,45,495,825.9594905679769,826.6638492231177,"[55, 0, 199]",199,a,0.18210654875292676,0,colour,0.06,3.7
48,19,1,1,10,46,496,827.1783520141071,827.9598418786773,"[54, 0, 200]",200,a,0.2715938911351259,0,colour,0.06,3.7
48,19,1,1,10,47,497,828.4784737519294,829.0879194411464,"[65, 0, 189]",189,a,0.08637871529572294,0,colour,0.06,3.7
48,19,1,1,10,48,498,829.6007775309226,832.1358497209403,"[78, 0, 176]",176,l,2.011742914612114,1,colour,0.06,3.7
48,19,1,1,10,49,499,832.647979589321,833.5998275741877,"[51, 0, 203]",203,a,0.42883536170847947,0,colour,0.06,3.7
48,19,1,1,10,50,500,834.1167367647031,835.2077983098461,"[70, 0, 184]",184,l,0.5681505342690798,1,colour,0.06,3.7
48,19,1,1,11,1,501,839.8204648722749,841.0718461889264,"[49, 0, 205]",205,a,0.7282966196580674,1,colour,0.06,3.7
48,19,1,1,11,2,502,841.5869523521069,842.3598189568329,"[89, 0, 165]",165,l,0.25004302768138587,1,colour,0.06,3.7
48,19,1,1,11,3,503,842.8682762105527,843.6638551308097,"[79, 0, 175]",175,l,0.27264624784947955,1,colour,0.06,3.7
48,19,1,1,11,4,504,844.1809364320616,845.0078032723068,"[97, 0, 157]",157,l,0.3026222665575915,1,colour,0.06,3.7
48,19,1,1,11,5,505,845.5264505055602,846.343883944588,"[90, 0, 164]",164,l,0.29437000972393434,1,colour,0.06,3.7
48,19,1,1,11,6,506,846.8559244099088,847.7278322751336,"[62, 0, 192]",192,a,0.35165885998139856,0,colour,0.06,3.7
48,19,1,1,11,7,507,848.2441983519093,849.2957437448385,"[68, 0, 186]",186,a,0.5414627364516491,0,colour,0.06,3.7
48,19,1,1,11,8,508,849.8100889973975,850.6798535522721,"[76, 0, 178]",178,l,0.3466601655782142,1,colour,0.06,3.7
48,19,1,1,11,9,509,851.1870827939274,852.0638739566493,"[66, 0, 188]",188,a,0.35362533343868563,0,colour,0.06,3.7
48,19,1,1,11,10,510,852.5779699046434,853.4318116565046,"[60, 0, 194]",194,a,0.3308610302301531,0,colour,0.06,3.7
48,19,1,1,11,11,511,853.9530716646259,854.8158241839592,"[84, 0, 170]",170,l,0.3397115392581327,1,colour,0.06,3.7
48,19,1,1,11,12,512,855.3281056830783,856.9517959971818,"[69, 0, 185]",185,l,1.1005780478844827,1,colour,0.06,3.7
48,19,1,1,11,13,513,857.4702281904756,858.3517494445769,"[96, 0, 158]",158,l,0.3584137140351231,1,colour,0.06,3.7
48,19,1,1,11,14,514,858.8612240027105,859.7358907597009,"[75, 0, 179]",179,l,0.3525335921185615,1,colour,0.06,3.7
48,19,1,1,11,15,515,860.2516625227472,861.1358989516993,"[54, 0, 200]",200,a,0.3612765811631107,0,colour,0.06,3.7
48,19,1,1,11,16,516,861.6422266796835,862.5118459053592,"[58, 0, 196]",196,a,0.3465526456020598,0,colour,0.06,3.7
48,19,1,1,11,17,517,863.033661630292,863.8558393391577,"[81, 0, 173]",173,l,0.29915366416753386,1,colour,0.06,3.7
48,19,1,1,11,18,518,864.3618921625784,865.1838040253424,"[82, 0, 172]",172,l,0.2987235842520022,1,colour,0.06,3.7
48,19,1,1,11,19,519,865.6904929101802,866.5837850419593,"[38, 0, 216]",216,a,0.37048470242734766,1,colour,0.06,3.7
48,19,1,1,11,20,520,867.0974316115826,867.9599281309675,"[74, 0, 180]",180,l,0.3397647084784694,1,colour,0.06,3.7
48,19,1,1,11,21,521,868.4752292479534,869.3197565401097,"[99, 0, 155]",155,l,0.3213854874811659,1,colour,0.06,3.7
48,19,1,1,11,22,522,869.8348185925279,870.8318399346499,"[52, 0, 202]",202,a,0.47385118053352926,0,colour,0.06,3.7
48,19,1,1,11,23,523,871.3505533340431,872.191936552972,"[85, 0, 169]",169,l,0.31815043581082136,1,colour,0.06,3.7
48,19,1,1,11,24,524,872.7099961678759,873.3918571536014,"[64, 0, 190]",190,a,0.1587207564371056,0,colour,0.06,3.7
48,19,1,1,11,25,525,873.8982360815753,874.711910653652,"[80, 0, 174]",174,l,0.29032166590332054,1,colour,0.06,3.7
48,19,1,1,11,26,526,875.2267363984247,876.3118634708917,"[77, 0, 177]",177,l,0.562485452308465,1,colour,0.06,3.7
48,19,1,1,11,27,527,876.8089200622417,877.4798722993473,"[86, 0, 168]",168,l,0.15087376721203327,1,colour,0.06,3.7
48,19,1,1,11,28,528,877.9934397059042,878.5437856406061,"[59, 0, 195]",195,a,0.027150960806466173,0,colour,0.06,3.7
48,19,1,1,11,29,529,879.0560793489567,879.6717426861796,"[83, 0, 171]",171,l,0.09259045561339008,1,colour,0.06,3.7
48,19,1,1,11,30,530,880.1811636812454,880.7997532948175,"[56, 0, 198]",198,a,0.09577863960294053,0,colour,0.06,3.7
48,19,1,1,11,31,531,881.3062665243015,881.8477985776626,"[94, 0, 160]",160,l,0.016635270570986904,1,colour,0.06,3.7
48,19,1,1,11,32,532,882.3549348716406,883.1757845315369,"[92, 0, 162]",162,l,0.29776417521134135,1,colour,0.06,3.7
48,19,1,1,11,33,533,883.6821311641324,884.7517997781069,"[72, 0, 182]",182,l,0.5465961262088967,1,colour,0.06,3.7
48,19,1,1,11,34,534,885.2603771548784,886.1998201698807,"[63, 0, 191]",191,a,0.416628102571849,0,colour,0.06,3.7
48,19,1,1,11,35,535,886.7153312068258,887.991772555466,"[70, 0, 184]",184,a,0.7534555070124043,0,colour,0.06,3.7
48,19,1,1,11,36,536,888.5130589512737,889.4717685224823,"[87, 0, 167]",167,l,0.43558903422308504,1,colour,0.06,3.7
48,19,1,1,11,37,537,889.9819614558583,890.9037719820262,"[31, 0, 223]",223,a,0.39879514608401223,1,colour,0.06,3.7
48,19,1,1,11,38,538,891.4196087296768,892.2958630801986,"[71, 0, 183]",183,l,0.35314090276733623,1,colour,0.06,3.7
48,19,1,1,11,39,539,892.811870363199,893.703821842937,"[57, 0, 197]",197,a,0.36878210583745386,0,colour,0.06,3.7
48,19,1,1,11,40,540,894.2182159324111,895.2078664452201,"[53, 0, 201]",201,a,0.4664496312252595,0,colour,0.06,3.7
48,19,1,1,11,41,541,895.7183839077625,896.7997867717313,"[88, 0, 166]",166,l,0.5593681606151222,1,colour,0.06,3.7
48,19,1,1,11,42,542,897.3112404064013,898.1597951685326,"[93, 0, 161]",161,l,0.32381866854120744,1,colour,0.06,3.7
48,19,1,1,11,43,543,898.6722936768383,899.5997834634254,"[61, 0, 193]",193,a,0.40440981574647594,0,colour,0.06,3.7
48,19,1,1,11,44,544,900.1099307106597,901.031815673734,"[78, 0, 176]",176,l,0.3990153060403827,1,colour,0.06,3.7
48,19,1,1,11,45,545,901.5481356705204,902.4478148041198,"[50, 0, 204]",204,a,0.37681380887079285,1,colour,0.06,3.7
48,19,1,1,11,46,546,902.9545174735722,903.9837849631913,"[67, 0, 187]",187,l,0.5061666449400946,1,colour,0.06,3.7
48,19,1,1,11,47,547,904.5025204179656,905.3757476675419,"[98, 0, 156]",156,l,0.35004409106477397,1,colour,0.06,3.7
48,19,1,1,11,48,548,905.8932432948677,907.0957609165271,"[55, 0, 199]",199,a,0.680488432150014,0,colour,0.06,3.7
48,19,1,1,11,49,549,907.6110340704399,908.671818304625,"[51, 0, 203]",203,a,0.5376396725878294,0,colour,0.06,3.7
48,19,1,1,11,50,550,909.1768246790234,910.0797451658327,"[73, 0, 181]",181,l,0.37968849138269434,1,colour,0.06,3.7
48,19,1,1,12,1,551,915.2078735344476,916.6397938924711,"[98, 0, 156]",156,l,0.9081023196376918,1,colour,0.06,3.7
48,19,1,1,12,2,552,917.147560734018,917.8797954205911,"[50, 0, 204]",204,a,0.2093768449194613,1,colour,0.06,3.7
48,19,1,1,12,3,553,918.3852157272195,919.375893390592,"[83, 0, 171]",171,l,0.46754452331515495,1,colour,0.06,3.7
48,19,1,1,12,4,554,919.8966284018934,921.3197837154876,"[82, 0, 172]",172,l,0.9001332381267275,1,colour,0.06,3.7
48,19,1,1,12,5,555,921.8342849310939,924.4877622177919,"[62, 0, 192]",192,a,2.12895347614176,0,colour,0.06,3.7
48,19,1,1,12,6,556,925.0078690446026,926.6877915199402,"[72, 0, 182]",182,l,1.156842898344621,1,colour,0.06,3.7
48,19,1,1,12,7,557,927.1955800230244,928.1118148702881,"[87, 0, 167]",167,l,0.393219861027319,1,colour,0.06,3.7
48,19,1,1,12,8,558,928.618805047372,929.4878019962453,"[55, 0, 199]",199,a,0.34599653493933147,0,colour,0.06,3.7
48,19,1,1,12,9,559,929.9939371334985,930.9437859556856,"[76, 0, 178]",178,l,0.426823595949827,1,colour,0.06,3.7
48,19,1,1,12,10,560,931.4624820258468,932.4077693227773,"[60, 0, 194]",194,a,0.42228215684372117,0,colour,0.06,3.7
48,19,1,1,12,11,561,932.9156511673791,933.8237719977806,"[81, 0, 173]",173,l,0.3850692164814973,1,colour,0.06,3.7
48,19,1,1,12,12,562,934.3400065299647,936.3277850923732,"[71, 0, 183]",183,a,1.464769090016489,0,colour,0.06,3.7
48,19,1,1,12,13,563,936.8401461483991,937.759779887303,"[95, 0, 159]",159,l,0.39658488190252683,1,colour,0.06,3.7
48,19,1,1,12,14,564,938.2777918468346,939.1438125009081,"[85, 0, 169]",169,l,0.343054898596165,1,colour,0.06,3.7
48,19,1,1,12,15,565,939.652867612971,940.8797721836745,"[67, 0, 187]",187,a,0.7041239228819904,0,colour,0.06,3.7
48,19,1,1,12,16,566,941.3873066560373,942.3038148324777,"[91, 0, 163]",163,l,0.3932805133226793,1,colour,0.06,3.7
48,19,1,1,12,17,567,942.8249468406248,943.7118086475202,"[59, 0, 195]",195,a,0.3637353622179944,0,colour,0.06,3.7
48,19,1,1,12,18,568,944.2313333698294,947.7597633457699,"[68, 0, 186]",186,l,3.0055398389122274,1,colour,0.06,3.7
48,19,1,1,12,19,569,948.2785696928331,949.2157575452038,"[54, 0, 200]",200,a,0.414160263058875,0,colour,0.06,3.7
48,19,1,1,12,20,570,949.7317585266683,950.7038265690899,"[99, 0, 155]",155,l,0.44920350538450293,1,colour,0.06,3.7
48,19,1,1,12,21,571,951.2184286092925,952.1357595301888,"[58, 0, 196]",196,a,0.39459438383346424,0,colour,0.06,3.7
48,19,1,1,12,22,572,952.6559813600506,953.6397497817088,"[75, 0, 179]",179,l,0.46065458005614346,1,colour,0.06,3.7
48,19,1,1,12,23,573,954.1560823815707,955.0477628952067,"[63, 0, 191]",191,a,0.3686151151014201,0,colour,0.06,3.7
48,19,1,1,12,24,574,955.5625114461509,956.3918287966844,"[88, 0, 166]",166,l,0.30672614267678,1,colour,0.06,3.7
48,19,1,1,12,25,575,956.9079034273636,957.823765696241,"[61, 0, 193]",193,a,0.3928342857179814,0,colour,0.06,3.7
48,19,1,1,12,26,576,958.3298153688957,959.1677445577334,"[43, 0, 211]",211,a,0.3148090456961654,1,colour,0.06,3.7
48,19,1,1,12,27,577,959.6736603227255,960.5437612221504,"[73, 0, 181]",181,l,0.3470110824346193,1,colour,0.06,3.7
48,19,1,1,12,28,578,961.0644032857781,961.9597705925371,"[79, 0, 175]",175,l,0.3727355327537225,1,colour,0.06,3.7
48,19,1,1,12,29,579,962.4707114396115,963.3517856784165,"[39, 0, 215]",215,a,0.3578260956892336,1,colour,0.06,3.7
48,19,1,1,12,30,580,963.8643401128684,965.0477947967411,"[51, 0, 203]",203,a,0.6605527314604842,0,colour,0.06,3.7
48,19,1,1,12,31,581,965.5675684297712,966.6797558784456,"[94, 0, 160]",160,l,0.5890137424685236,1,colour,0.06,3.7
48,19,1,1,12,32,582,967.1927108543568,968.1117699718343,"[89, 0, 165]",165,l,0.39590274049987784,1,colour,0.06,3.7
48,19,1,1,12,33,583,968.6303238635664,969.7198076613276,"[70, 0, 184]",184,l,0.566442029990867,1,colour,0.06,3.7
48,19,1,1,12,34,584,970.2398286296957,971.2238018513126,"[35, 0, 219]",219,a,0.46082669079260086,1,colour,0.06,3.7
48,19,1,1,12,35,585,971.7399603712074,972.7437550781506,"[93, 0, 161]",161,l,0.48064778227126226,1,colour,0.06,3.7
48,19,1,1,12,36,586,973.2453889485987,974.1997536098934,"[90, 0, 164]",164,l,0.43132919506024336,1,colour,0.06,3.7
48,19,1,1,12,37,587,974.7146644254171,975.6157838541221,"[84, 0, 170]",170,l,0.378208417831047,1,colour,0.06,3.7
48,19,1,1,12,38,588,976.1320680109129,977.0638593843469,"[74, 0, 180]",180,l,0.40880395641943323,1,colour,0.06,3.7
48,19,1,1,12,39,589,977.5713525028696,978.5997511680471,"[56, 0, 198]",198,a,0.5052911251113983,0,colour,0.06,3.7
48,19,1,1,12,40,590,979.1183097859321,980.1357504717271,"[57, 0, 197]",197,a,0.49392078888922697,0,colour,0.06,3.7
48,19,1,1,12,41,591,980.6526155514839,981.6478019647402,"[80, 0, 174]",174,l,0.4719989224395249,1,colour,0.06,3.7
48,19,1,1,12,42,592,982.1667504902398,983.631759038668,"[52, 0, 202]",202,a,0.9418840729849762,0,colour,0.06,3.7
48,19,1,1,12,43,593,984.1512546163685,985.1677575546564,"[92, 0, 162]",162,l,0.49327094286491047,1,colour,0.06,3.7
48,19,1,1,12,44,594,985.6849826097241,986.8317430485185,"[53, 0, 201]",201,a,0.6236068187390629,0,colour,0.06,3.7
48,19,1,1,12,45,595,987.3414263450723,988.3037494540295,"[96, 0, 158]",158,l,0.43917185198006337,1,colour,0.06,3.7
48,19,1,1,12,46,596,988.810248111211,989.9117599681449,"[66, 0, 188]",188,a,0.5784511845522502,0,colour,0.06,3.7
48,19,1,1,12,47,597,990.419791868102,993.4078083135391,"[65, 0, 189]",189,l,2.468039981678885,1,colour,0.06,3.7
48,19,1,1,12,48,598,993.9203651110656,995.0877776565576,"[64, 0, 190]",190,a,0.6442364762115176,0,colour,0.06,3.7
48,19,1,1,12,49,599,995.6080995233278,996.9278131342144,"[69, 0, 185]",185,l,0.7966159169736784,1,colour,0.06,3.7
48,19,1,1,12,50,600,997.4363184371541,998.3997458905105,"[97, 0, 157]",157,l,0.4402399625359976,1,colour,0.06,3.7
48,19,1,1,13,1,601,1003.9528956154281,1004.9917808262326,"[79, 0, 175]",175,l,0.5151987170065695,1,colour,0.06,3.6
48,19,1,1,13,2,602,1005.5025920979497,1006.847754466904,"[61, 0, 193]",193,a,0.8219429766031681,0,colour,0.06,3.6
48,19,1,1,13,3,603,1007.3621552517579,1008.3597586983851,"[98, 0, 156]",156,l,0.47450969117562636,1,colour,0.06,3.6
48,19,1,1,13,4,604,1008.8778750271231,1010.447754939516,"[72, 0, 182]",182,a,1.045393517211778,0,colour,0.06,3.6
48,19,1,1,13,5,605,1010.9575347283608,1012.0077591615482,"[62, 0, 192]",192,a,0.5270684500537755,0,colour,0.06,3.6
48,19,1,1,13,6,606,1012.5201347898801,1013.4237823165458,"[76, 0, 178]",178,l,0.38054707583069103,1,colour,0.06,3.6
48,19,1,1,13,7,607,1013.9421258944712,1014.8717345729492,"[8, 0, 246]",246,a,0.40643457842452335,1,colour,0.06,3.6
48,19,1,1,13,8,608,1015.3797117283029,1016.7197946644083,"[71, 0, 183]",183,l,0.8169139560523035,1,colour,0.06,3.6
48,19,1,1,13,9,609,1017.2393221436396,1018.1837484930438,"[78, 0, 176]",176,l,0.42133495702728396,1,colour,0.06,3.6
48,19,1,1,13,10,610,1018.6926240112989,1019.6157889741189,"[77, 0, 177]",177,l,0.40016336735061486,1,colour,0.06,3.6
48,19,1,1,13,11,611,1020.1301054759169,1020.9838011108804,"[88, 0, 166]",166,l,0.33064953488792526,1,colour,0.06,3.6
48,19,1,1,13,12,612,1021.5051619435981,1022.4957399639134,"[51, 0, 203]",203,a,0.4675000187053229,0,colour,0.06,3.6
48,19,1,1,13,13,613,1023.0053118020296,1023.9597682294589,"[57, 0, 197]",197,a,0.4314087519669556,0,colour,0.06,3.6
48,19,1,1,13,14,614,1024.4741776789306,1025.4397708918586,"[55, 0, 199]",199,a,0.4424746451732062,0,colour,0.06,3.6
48,19,1,1,13,15,615,1025.9587635281205,1026.847796214588,"[56, 0, 198]",198,a,0.3663166294027178,0,colour,0.06,3.6
48,19,1,1,13,16,616,1027.365806598733,1028.2317697512808,"[52, 0, 202]",202,a,0.3438067507595406,0,colour,0.06,3.6
48,19,1,1,13,17,617,1028.7402065250026,1029.6797436692177,"[87, 0, 167]",167,l,0.4164796225995815,1,colour,0.06,3.6
48,19,1,1,13,18,618,1030.1946080109083,1031.1597766577652,"[89, 0, 165]",165,l,0.4420807990973117,1,colour,0.06,3.6
48,19,1,1,13,19,619,1031.6791017001124,1032.5437411359999,"[93, 0, 161]",161,l,0.341506295826548,1,colour,0.06,3.6
48,19,1,1,13,20,620,1033.0517281375032,1034.0237497060916,"[70, 0, 184]",184,l,0.4489037885250582,1,colour,0.06,3.6
48,19,1,1,13,21,621,1034.5361832297967,1035.6157759771995,"[68, 0, 186]",186,l,0.5564434596526553,1,colour,0.06,3.6
48,19,1,1,13,22,622,1036.132581980044,1037.0078261153794,"[53, 0, 201]",201,a,0.3530369274012628,0,colour,0.06,3.6
48,19,1,1,13,23,623,1037.5232020631229,1039.3597673629993,"[65, 0, 189]",189,a,1.313283285999205,0,colour,0.06,3.6
48,19,1,1,13,24,624,1039.8674774907122,1040.8077700317008,"[59, 0, 195]",195,a,0.4173421455088828,0,colour,0.06,3.6
48,19,1,1,13,25,625,1041.3214973397662,1042.231800471276,"[82, 0, 172]",172,l,0.3872625452786451,1,colour,0.06,3.6
48,19,1,1,13,26,626,1042.7434628443625,1043.607790748003,"[84, 0, 170]",170,l,0.3417260619389708,1,colour,0.06,3.6
48,19,1,1,13,27,627,1044.118448419751,1045.0557682105537,"[64, 0, 190]",190,a,0.4147912044718396,0,colour,0.06,3.6
48,19,1,1,13,28,628,1045.5717593458685,1046.4797927424406,"[83, 0, 171]",171,l,0.3847935242265521,1,colour,0.06,3.6
48,19,1,1,13,29,629,1046.9939233488876,1047.9277776880663,"[81, 0, 173]",173,l,0.4109082760041929,1,colour,0.06,3.6
48,19,1,1,13,30,630,1048.4477927487424,1049.3037183401902,"[99, 0, 155]",155,l,0.3333694358916546,1,colour,0.06,3.6
48,19,1,1,13,31,631,1049.8226971918375,1050.7597700411534,"[66, 0, 188]",188,a,0.4137400292966049,0,colour,0.06,3.6
48,19,1,1,13,32,632,1051.2760896440923,1053.1037489026457,"[50, 0, 204]",204,a,1.3045174538819992,1,colour,0.06,3.6
48,19,1,1,13,33,633,1053.6217415637184,1054.607790748003,"[60, 0, 194]",194,a,0.46300150882598246,0,colour,0.06,3.6
48,19,1,1,13,34,634,1055.1221497851766,1056.0797250796822,"[85, 0, 169]",169,l,0.43483915129036177,1,colour,0.06,3.6
48,19,1,1,13,35,635,1056.5907411513617,1057.5197523653405,"[74, 0, 180]",180,l,0.405945421600336,1,colour,0.06,3.6
48,19,1,1,13,36,636,1058.0283742467182,1059.0317349352881,"[34, 0, 220]",220,a,0.480264176196215,1,colour,0.06,3.6
48,19,1,1,13,37,637,1059.545630021781,1060.4237330857868,"[24, 0, 230]",230,a,0.3549462931805465,1,colour,0.06,3.6
48,19,1,1,13,38,638,1060.9364178832875,1061.8477450145947,"[73, 0, 181]",181,l,0.38965240326797357,1,colour,0.06,3.6
48,19,1,1,13,39,639,1062.3569651481666,1063.3757630275395,"[69, 0, 185]",185,l,0.4956911270019191,1,colour,0.06,3.6
48,19,1,1,13,40,640,1063.8908045999633,1064.8157462024355,"[58, 0, 196]",196,a,0.40192543469675,0,colour,0.06,3.6
48,19,1,1,13,41,641,1065.3283951599442,1066.1917049714793,"[92, 0, 162]",162,l,0.3402416560747952,1,colour,0.06,3.6
48,19,1,1,13,42,642,1066.703487861465,1067.5837184819757,"[97, 0, 157]",157,l,0.35707581891620066,1,colour,0.06,3.6
48,19,1,1,13,43,643,1068.0942721783576,1071.231757935897,"[67, 0, 187]",187,a,2.614632248194539,0,colour,0.06,3.6
48,19,1,1,13,44,644,1071.7508285536824,1072.855746391484,"[94, 0, 160]",160,l,0.5798261012059811,1,colour,0.06,3.6
48,19,1,1,13,45,645,1073.3621993625202,1074.42377601501,"[90, 0, 164]",164,l,0.538774343134719,1,colour,0.06,3.6
48,19,1,1,13,46,646,1074.9405906824686,1075.82377002855,"[80, 0, 174]",174,l,0.3601777506119106,1,colour,0.06,3.6
48,19,1,1,13,47,647,1076.3312233686192,1077.231787080509,"[63, 0, 191]",191,a,0.37767121178330854,0,colour,0.06,3.6
48,19,1,1,13,48,648,1077.7532589778166,1078.7197580367247,"[86, 0, 168]",168,l,0.44367390647676075,1,colour,0.06,3.6
48,19,1,1,13,49,649,1079.2376278178199,1080.1517358962737,"[95, 0, 159]",159,l,0.3904562431125669,1,colour,0.06,3.6
48,19,1,1,13,50,650,1080.6600757838605,1081.5677432974262,"[75, 0, 179]",179,l,0.3844729335178272,1,colour,0.06,3.6
48,19,1,1,14,1,651,1086.3181090819708,1088.0317688060495,"[74, 0, 180]",180,l,1.189654214958864,1,colour,0.06,3.6
48,19,1,1,14,2,652,1088.5377767310201,1089.5117202684596,"[33, 0, 221]",221,a,0.4508009450728423,1,colour,0.06,3.6
48,19,1,1,14,3,653,1090.0222330048528,1090.9517479479618,"[56, 0, 198]",198,a,0.4063262707531976,0,colour,0.06,3.6
48,19,1,1,14,4,654,1091.4611846968728,1092.359755941463,"[91, 0, 163]",163,l,0.3755267198976071,1,colour,0.06,3.6
48,19,1,1,14,5,655,1092.8684294166778,1093.8317584085125,"[58, 0, 196]",196,a,0.440228934847255,0,colour,0.06,3.6
48,19,1,1,14,6,656,1094.3529955735612,1095.3917945320754,"[52, 0, 202]",202,a,0.5157162307514227,0,colour,0.06,3.6
48,19,1,1,14,7,657,1095.899895748942,1096.8717345729492,"[51, 0, 203]",203,a,0.44881438546508434,0,colour,0.06,3.6
48,19,1,1,14,8,658,1097.3843472966182,1098.399808118189,"[67, 0, 187]",187,l,0.4923241368960589,1,colour,0.06,3.6
48,19,1,1,14,9,659,1098.915755930433,1099.9437383003096,"[75, 0, 179]",179,l,0.5045885037143307,1,colour,0.06,3.6
48,19,1,1,14,10,660,1100.4637899886693,1101.423729935017,"[54, 0, 200]",200,a,0.4367378832248505,0,colour,0.06,3.6
48,19,1,1,14,11,661,1101.9328531824503,1102.983733369354,"[84, 0, 170]",170,l,0.5277509853040101,1,colour,0.06,3.6
48,19,1,1,14,12,662,1103.4954244932087,1104.5197952945637,"[86, 0, 168]",168,l,0.5011903997656191,1,colour,0.06,3.6
48,19,1,1,14,13,663,1105.026868179324,1106.0477561998268,"[93, 0, 161]",161,l,0.4978320742739015,1,colour,0.06,3.6
48,19,1,1,14,14,664,1106.558185834696,1107.559842351293,"[83, 0, 171]",171,l,0.47853282884534565,1,colour,0.06,3.6
48,19,1,1,14,15,665,1108.0739646869733,1109.3517415676542,"[62, 0, 192]",192,a,0.7547114821463765,0,colour,0.06,3.6
48,19,1,1,14,16,666,1109.8709425484885,1110.9198034865622,"[77, 0, 177]",177,l,0.5255962534210994,1,colour,0.06,3.6
48,19,1,1,14,17,667,1111.4336450099872,1112.4638305548142,"[57, 0, 197]",197,a,0.5071095124476415,0,colour,0.06,3.6
48,19,1,1,14,18,668,1112.9805731484412,1114.0157451784362,"[59, 0, 195]",195,a,0.5124748775415355,0,colour,0.06,3.6
48,19,1,1,14,19,669,1114.527597385335,1115.5117135730761,"[76, 0, 178]",178,l,0.46098777383667766,1,colour,0.06,3.6
48,19,1,1,14,20,670,1116.0277019514651,1117.0797305935303,"[60, 0, 194]",194,a,0.5288730527790904,0,colour,0.06,3.6
48,19,1,1,14,21,671,1117.5903453360552,1120.167752434656,"[69, 0, 185]",185,a,2.054337367761036,0,colour,0.06,3.6
48,19,1,1,14,22,672,1120.6865489355696,1121.7277546874575,"[53, 0, 201]",201,a,0.5180647349043284,0,colour,0.06,3.6
48,19,1,1,14,23,673,1122.2336007416889,1123.3037533924908,"[70, 0, 184]",184,l,0.5470033630517719,1,colour,0.06,3.6
48,19,1,1,14,24,674,1123.8118234955182,1124.7518427073264,"[87, 0, 167]",167,l,0.41726101321546594,1,colour,0.06,3.6
48,19,1,1,14,25,675,1125.265098187796,1126.3277327108444,"[55, 0, 199]",199,a,0.5396998814139806,0,colour,0.06,3.6
48,19,1,1,14,26,676,1126.8446005475234,1128.0477695905902,"[98, 0, 156]",156,l,0.6800449614675017,1,colour,0.06,3.6
48,19,1,1,14,27,677,1128.5634992121086,1129.6557403262523,"[90, 0, 164]",164,l,0.5692111617536284,1,colour,0.06,3.6
48,19,1,1,14,28,678,1130.1729523844006,1131.8237440347075,"[63, 0, 191]",191,l,1.1276270025591657,1,colour,0.06,3.6
48,19,1,1,14,29,679,1132.3306975841078,1133.3198821770056,"[85, 0, 169]",169,l,0.46622828972613206,1,colour,0.06,3.6
48,19,1,1,14,30,680,1133.8307714302464,1135.8077247393994,"[64, 0, 190]",190,l,1.4539725875256408,1,colour,0.06,3.6
48,19,1,1,14,31,681,1136.3153238025188,1137.31177643091,"[61, 0, 193]",193,l,0.4734553652269824,1,colour,0.06,3.6
48,19,1,1,14,32,682,1137.8309518117494,1138.9597520817697,"[92, 0, 162]",162,l,0.6059625145171594,1,colour,0.06,3.6
48,19,1,1,14,33,683,1139.4719185778376,1140.423768531935,"[73, 0, 181]",181,l,0.4288274847858702,1,colour,0.06,3.6
48,19,1,1,14,34,684,1140.9407797285821,1141.8477576176701,"[96, 0, 158]",158,l,0.38399125976866344,1,colour,0.06,3.6
48,19,1,1,14,35,685,1142.3626869439613,1143.3037045555757,"[50, 0, 204]",204,a,0.4179711176911951,1,colour,0.06,3.6
48,19,1,1,14,36,686,1143.8159915685428,1144.7517651196504,"[80, 0, 174]",174,l,0.41268018950358965,1,colour,0.06,3.6
48,19,1,1,14,37,687,1145.2691618916106,1146.2237845220843,"[66, 0, 188]",188,l,0.4321795087416831,1,colour,0.06,3.6
48,19,1,1,14,38,688,1146.7391970975114,1147.6557694708608,"[81, 0, 173]",173,l,0.3933730671487865,1,colour,0.06,3.6
48,19,1,1,14,39,689,1148.1769475590008,1149.2237632543947,"[44, 0, 210]",210,a,0.5237814106985752,1,colour,0.06,3.6
48,19,1,1,14,40,690,1149.7395976389707,1150.7037273198803,"[15, 0, 239]",239,a,0.44142701461169054,1,colour,0.06,3.6
48,19,1,1,14,41,691,1151.2240547004913,1152.2477539942884,"[78, 0, 176]",176,l,0.5006031752673152,1,colour,0.06,3.6
48,19,1,1,14,42,692,1152.7553759004768,1153.7757176564737,"[94, 0, 160]",160,l,0.4972661174615496,1,colour,0.06,3.6
48,19,1,1,14,43,693,1154.2867951681365,1155.1597431808477,"[72, 0, 182]",182,l,0.3498865526380541,1,colour,0.06,3.6
48,19,1,1,14,44,694,1155.67748890043,1156.6397556894008,"[68, 0, 186]",186,a,0.4390993843007891,0,colour,0.06,3.6
48,19,1,1,14,45,695,1157.1463453250253,1158.1037378749534,"[99, 0, 155]",155,l,0.4343157298571896,1,colour,0.06,3.6
48,19,1,1,14,46,696,1158.6151891465452,1159.5037720607943,"[79, 0, 175]",175,l,0.36562424799922155,1,colour,0.06,3.6
48,19,1,1,14,47,697,1160.021580008055,1160.9517589756506,"[82, 0, 172]",172,l,0.40682684911735123,1,colour,0.06,3.6
48,19,1,1,14,48,698,1161.4604344200961,1162.407746085857,"[97, 0, 157]",157,l,0.42416828570276266,1,colour,0.06,3.6
48,19,1,1,14,49,699,1162.9137362877555,1163.9517097448916,"[65, 0, 189]",189,a,0.5150498431903543,0,colour,0.06,3.6
48,19,1,1,14,50,700,1164.4482417332692,1165.7758165118394,"[71, 0, 183]",183,l,0.8047212692254107,1,colour,0.06,3.6
48,19,1,1,15,1,701,1170.9137185646832,1171.8158170947318,"[74, 0, 180]",180,l,0.376903999625938,1,colour,0.06,3.5
48,19,1,1,15,2,702,1172.3221593950184,1173.3117425601486,"[81, 0, 173]",173,l,0.46652288659242913,1,colour,0.06,3.5
48,19,1,1,15,3,703,1173.8222706565357,1174.8397322161727,"[58, 0, 196]",196,a,0.4955489485655562,0,colour,0.06,3.5
48,19,1,1,15,4,704,1175.3524745152026,1176.3198758754697,"[51, 0, 203]",203,l,0.44433162942368654,1,colour,0.06,3.5
48,19,1,1,15,5,705,1176.8391556255192,1178.551709035968,"[68, 0, 186]",186,a,1.1894037288548134,0,colour,0.06,3.5
48,19,1,1,15,6,706,1179.058045822414,1180.0717430012555,"[97, 0, 157]",157,l,0.4905593126277381,1,colour,0.06,3.5
48,19,1,1,15,7,707,1180.589401680856,1181.5757167112424,"[76, 0, 178]",178,l,0.4631342349530314,1,colour,0.06,3.5
48,19,1,1,15,8,708,1182.0895220008315,1183.3677608629623,"[88, 0, 166]",166,l,0.7551061159174424,1,colour,0.06,3.5
48,19,1,1,15,9,709,1183.8877491421044,1185.4317124072913,"[56, 0, 198]",198,a,1.020687946693215,0,colour,0.06,3.5
48,19,1,1,15,10,710,1185.9504923666718,1187.0957364980677,"[94, 0, 160]",160,l,0.622161403633072,1,colour,0.06,3.5
48,19,1,1,15,11,711,1187.606902231255,1188.663720435452,"[77, 0, 177]",177,l,0.5337228733587835,1,colour,0.06,3.5
48,19,1,1,15,12,712,1189.1851045050862,1190.3517683491882,"[62, 0, 192]",192,a,0.6435169194301125,0,colour,0.06,3.5
48,19,1,1,15,13,713,1190.8731216988308,1191.9117111312298,"[52, 0, 202]",202,l,0.5154736215663434,1,colour,0.06,3.5
48,19,1,1,15,14,714,1192.4201955603276,1193.6317503740538,"[75, 0, 179]",179,l,0.6884795690384635,1,colour,0.06,3.5
48,19,1,1,15,15,715,1194.1389618926332,1195.0797262612214,"[29, 0, 225]",225,a,0.4176414685243799,1,colour,0.06,3.5
48,19,1,1,15,16,716,1195.5922531264478,1196.5757257697005,"[86, 0, 168]",168,l,0.4603599831898464,1,colour,0.06,3.5
48,19,1,1,15,17,717,1197.0937660861491,1198.1597833531487,"[69, 0, 185]",185,l,0.5429014561668737,1,colour,0.06,3.5
48,19,1,1,15,18,718,1198.6719447292162,1199.6317361955953,"[14, 0, 240]",240,a,0.436772541681421,1,colour,0.06,3.5
48,19,1,1,15,19,719,1200.1409007968687,1201.2797453233725,"[53, 0, 201]",201,a,0.6157519525913813,0,colour,0.06,3.5
48,19,1,1,15,20,720,1201.797313418374,1202.9518078125657,"[87, 0, 167]",167,l,0.6315227310224145,1,colour,0.06,3.5
48,19,1,1,15,21,721,1203.4691486583833,1204.4477561210551,"[91, 0, 163]",163,l,0.45532544879824854,1,colour,0.06,3.5
48,19,1,1,15,22,722,1204.9538676275442,1205.8477970022795,"[65, 0, 189]",189,a,0.3709250223400886,0,colour,0.06,3.5
48,19,1,1,15,23,723,1206.360083621399,1207.3117390155348,"[85, 0, 169]",169,l,0.4284974417751073,1,colour,0.06,3.5
48,19,1,1,15,24,724,1207.8289754921389,1208.8557578130203,"[60, 0, 194]",194,a,0.5037157408078201,0,colour,0.06,3.5
48,19,1,1,15,25,725,1209.3759315936622,1210.3597996583776,"[63, 0, 191]",191,a,0.4732588360348018,0,colour,0.06,3.5
48,19,1,1,15,26,726,1210.8792680606966,1213.0077457707812,"[66, 0, 188]",188,a,1.6057167545659468,0,colour,0.06,3.5
48,19,1,1,15,27,727,1213.523751084551,1214.5037389777244,"[93, 0, 161]",161,l,0.4569323407886259,1,colour,0.06,3.5
48,19,1,1,15,28,728,1215.023922210672,1216.7756924503228,"[67, 0, 187]",187,l,1.2286788472738408,1,colour,0.06,3.5
48,19,1,1,15,29,729,1217.2861323251927,1218.3597508214625,"[84, 0, 170]",170,l,0.5511580453094211,1,colour,0.06,3.5
48,19,1,1,15,30,730,1218.8800541774654,1219.8957261005307,"[95, 0, 159]",159,l,0.49266402605644544,1,colour,0.06,3.5
48,19,1,1,15,31,731,1220.411397432832,1221.367714782973,"[98, 0, 156]",156,l,0.4330160378085566,1,colour,0.06,3.5
48,19,1,1,15,32,732,1221.88025031281,1222.791719228706,"[83, 0, 171]",171,l,0.38842754196957685,1,colour,0.06,3.5
48,19,1,1,15,33,733,1223.3022122727925,1224.4796769516943,"[70, 0, 184]",184,l,0.654346898838412,1,colour,0.06,3.5
48,19,1,1,15,34,734,1224.989969921975,1225.9117772973732,"[80, 0, 174]",174,l,0.3988128691598831,1,colour,0.06,3.5
48,19,1,1,15,35,735,1226.4320239395383,1227.3117082955396,"[90, 0, 164]",164,l,0.35659847746865125,1,colour,0.06,3.5
48,19,1,1,15,36,736,1227.8229315302524,1228.7197521290327,"[32, 0, 222]",222,a,0.3771418826545414,1,colour,0.06,3.5
48,19,1,1,15,37,737,1229.2258821462856,1230.1437219163126,"[54, 0, 200]",200,a,0.3946904822769284,0,colour,0.06,3.5
48,19,1,1,15,38,738,1230.6649866505868,1231.5517125805854,"[59, 0, 195]",195,a,0.36383342989211087,0,colour,0.06,3.5
48,19,1,1,15,39,739,1232.0728311979656,1233.0077067800194,"[99, 0, 155]",155,l,0.4116577650893305,1,colour,0.06,3.5
48,19,1,1,15,40,740,1233.5261685117694,1234.63173855867,"[50, 0, 204]",204,a,0.5832131774586742,1,colour,0.06,3.5
48,19,1,1,15,41,741,1235.150577201115,1236.031732178366,"[96, 0, 158]",158,l,0.3580974556352885,1,colour,0.06,3.5
48,19,1,1,15,42,742,1236.541663597949,1237.415715561212,"[55, 0, 199]",199,a,0.3509696293476736,0,colour,0.06,3.5
48,19,1,1,15,43,743,1237.9340508683708,1240.9597505063866,"[64, 0, 190]",190,a,2.502614547178382,0,colour,0.06,3.5
48,19,1,1,15,44,744,1241.4831687910046,1242.4717173224926,"[79, 0, 175]",175,l,0.4654027883516392,1,colour,0.06,3.5
48,19,1,1,15,45,745,1242.9833214063583,1243.975733961699,"[57, 0, 197]",197,a,0.469326676808123,0,colour,0.06,3.5
48,19,1,1,15,46,746,1244.4833999786533,1245.4877515839507,"[61, 0, 193]",193,a,0.48115860063626315,0,colour,0.06,3.5
48,19,1,1,15,47,747,1245.9991406278605,1246.935696751123,"[92, 0, 162]",162,l,0.41208902654398116,1,colour,0.06,3.5
48,19,1,1,15,48,748,1247.4536961075792,1248.4717271686422,"[82, 0, 172]",172,l,0.4948798040859401,1,colour,0.06,3.5
48,19,1,1,15,49,749,1248.9850862306266,1249.943751297229,"[73, 0, 181]",181,l,0.43552680654102005,1,colour,0.06,3.5
48,19,1,1,15,50,750,1250.4543963659016,1251.4397082703326,"[71, 0, 183]",183,l,0.46212086899686255,1,colour,0.06,3.5
48,19,1,1,16,1,751,1256.783589851846,1257.951735738734,"[57, 0, 197]",197,a,0.6442518362091505,0,colour,0.06,3.5
48,19,1,1,16,2,752,1258.4720698147285,1259.5596879636287,"[99, 0, 155]",155,l,0.5645303011369833,1,colour,0.06,3.5
48,19,1,1,16,3,753,1260.065955827009,1261.095740042685,"[53, 0, 201]",201,a,0.5067207863685326,0,colour,0.06,3.5
48,19,1,1,16,4,754,1261.6129229562248,1262.551679103668,"[82, 0, 172]",172,l,0.4156809027590498,1,colour,0.06,3.5
48,19,1,1,16,5,755,1263.0661681100464,1264.2557254388703,"[83, 0, 171]",171,l,0.666512410287396,1,colour,0.06,3.5
48,19,1,1,16,6,756,1264.7694066669465,1265.7197028982737,"[78, 0, 176]",176,l,0.427133552810119,1,colour,0.06,3.5
48,19,1,1,16,7,757,1266.238273725383,1267.375718916781,"[86, 0, 168]",168,l,0.6142911774950335,1,colour,0.06,3.5
48,19,1,1,16,8,758,1267.894675713047,1268.9517459787312,"[40, 0, 214]",214,a,0.5339958086879051,1,colour,0.06,3.5
48,19,1,1,16,9,759,1269.4728421468863,1270.511719874612,"[74, 0, 180]",180,l,0.5156748769113619,1,colour,0.06,3.5
48,19,1,1,16,10,760,1271.0199246729971,1273.3837360475081,"[69, 0, 185]",185,l,1.8406805975282623,1,colour,0.06,3.5
48,19,1,1,16,11,761,1273.8964877988437,1275.551714549816,"[68, 0, 186]",186,a,1.1321534755152243,0,colour,0.06,3.5
48,19,1,1,16,12,762,1276.0684394203672,1277.1037599303345,"[51, 0, 203]",203,a,0.5121586191453389,0,colour,0.06,3.5
48,19,1,1,16,13,763,1277.615496346487,1278.6076820464841,"[98, 0, 156]",156,l,0.46931171065807575,1,colour,0.06,3.5
48,19,1,1,16,14,764,1279.115578069548,1280.1277329471523,"[84, 0, 170]",170,l,0.48953452513887896,1,colour,0.06,3.5
48,19,1,1,16,15,765,1280.6468886356888,1281.7197808797973,"[63, 0, 191]",191,a,0.549689393294102,0,colour,0.06,3.5
48,19,1,1,16,16,766,1282.2408325433425,1283.2237435620918,"[92, 0, 162]",162,l,0.4598511340591358,1,colour,0.06,3.5
48,19,1,1,16,17,767,1283.740937897168,1284.6636826262256,"[88, 0, 166]",166,l,0.3996856320591178,1,colour,0.06,3.5
48,19,1,1,16,18,768,1285.179854930735,1286.1037268472646,"[37, 0, 217]",217,a,0.40058793342177523,1,colour,0.06,3.5
48,19,1,1,16,19,769,1286.61752859224,1287.5837574727339,"[77, 0, 177]",177,l,0.4431768727263261,1,colour,0.06,3.5
48,19,1,1,16,20,770,1288.1020392168284,1289.1757093069355,"[56, 0, 198]",198,a,0.550557036196551,0,colour,0.06,3.5
48,19,1,1,16,21,771,1289.6958602445047,1290.6397501755564,"[89, 0, 165]",165,l,0.4207292217652139,1,colour,0.06,3.5
48,19,1,1,16,22,772,1291.1491436013966,1292.2717057434165,"[65, 0, 189]",189,a,0.5995648788557446,0,colour,0.06,3.5
48,19,1,1,16,23,773,1292.7898449152308,1295.943758780304,"[70, 0, 184]",184,l,2.6307952973184,1,colour,0.06,3.5
48,19,1,1,16,24,774,1296.463224425701,1297.4797033393806,"[64, 0, 190]",190,a,0.4933382905437611,0,colour,0.06,3.5
48,19,1,1,16,25,775,1297.9936638043218,1298.9917489247018,"[85, 0, 169]",169,l,0.47492519878505846,1,colour,0.06,3.5
48,19,1,1,16,26,776,1299.5101783610698,1300.5516980082793,"[22, 0, 232]",232,a,0.5169237628215342,1,colour,0.06,3.5
48,19,1,1,16,27,777,1301.0586657361382,1302.039710712179,"[94, 0, 160]",160,l,0.45792010674995254,1,colour,0.06,3.5
48,19,1,1,16,28,778,1302.5587403699683,1303.5197157376533,"[90, 0, 164]",164,l,0.43828136599768186,1,colour,0.06,3.5
48,19,1,1,16,29,779,1304.0276412991698,1304.9597453863862,"[79, 0, 175]",175,l,0.40901033176487545,1,colour,0.06,3.5
48,19,1,1,16,30,780,1305.480930169906,1306.4317435211306,"[60, 0, 194]",194,a,0.4278775280472473,0,colour,0.06,3.5
48,19,1,1,16,31,781,1306.9522670370898,1307.975685912479,"[59, 0, 195]",195,a,0.5003109414756182,0,colour,0.06,3.5
48,19,1,1,16,32,782,1308.4836713385994,1309.5677173035874,"[67, 0, 187]",187,a,0.5609915941422514,0,colour,0.06,3.5
48,19,1,1,16,33,783,1310.0774762185865,1311.3117252309203,"[95, 0, 159]",159,l,0.7110764876633766,1,colour,0.06,3.5
48,19,1,1,16,34,784,1311.825232772877,1312.831729263904,"[61, 0, 193]",193,a,0.4788266380164714,0,colour,0.06,3.5
48,19,1,1,16,35,785,1313.3455262827265,1314.3676915460528,"[97, 0, 157]",157,l,0.49731101591532934,1,colour,0.06,3.5
48,19,1,1,16,36,786,1314.8787982023277,1315.9436847372417,"[66, 0, 188]",188,a,0.5417758440817124,0,colour,0.06,3.5
48,19,1,1,16,37,787,1316.451026225026,1320.887745597487,"[80, 0, 174]",174,l,3.9136291616232484,1,colour,0.06,3.5
48,19,1,1,16,38,788,1321.3891896341265,1322.3357108508135,"[58, 0, 196]",196,a,0.423421159695863,0,colour,0.06,3.5
48,19,1,1,16,39,789,1322.842390283342,1323.9197195973466,"[91, 0, 163]",163,l,0.5542418600889505,1,colour,0.06,3.5
48,19,1,1,16,40,790,1324.428664826355,1325.399800635114,"[87, 0, 167]",167,l,0.4481342132894497,1,colour,0.06,3.5
48,19,1,1,16,41,791,1325.9131018017251,1326.8957197989948,"[75, 0, 179]",179,l,0.46755791408213554,1,colour,0.06,3.5
48,19,1,1,16,42,792,1327.4075633412795,1328.4076692858725,"[72, 0, 182]",182,l,0.47775773976536584,1,colour,0.06,3.5
48,19,1,1,16,43,793,1328.9233126551007,1329.8716534406594,"[73, 0, 181]",181,l,0.43766578458598815,1,colour,0.06,3.5
48,19,1,1,16,44,794,1330.3797995559762,1331.3756661414045,"[52, 0, 202]",202,a,0.4727692853593908,0,colour,0.06,3.5
48,19,1,1,16,45,795,1331.8954429252044,1332.8637241376055,"[54, 0, 200]",200,a,0.44517682310470263,0,colour,0.06,3.5
48,19,1,1,16,46,796,1333.3799098328782,1334.3037077063454,"[96, 0, 158]",158,l,0.40067969955998706,1,colour,0.06,3.5
48,19,1,1,16,47,797,1334.8175827066916,1335.7917125333224,"[50, 0, 204]",204,a,0.4510577327127976,1,colour,0.06,3.5
48,19,1,1,16,48,798,1336.3021201128104,1337.3037151894205,"[93, 0, 161]",161,l,0.4784859611609136,1,colour,0.06,3.5
48,19,1,1,16,49,799,1337.8185255741955,1338.855679437649,"[55, 0, 199]",199,a,0.5140754679960082,0,colour,0.06,3.5
48,19,1,1,16,50,800,1339.3654749803354,1340.3357108508135,"[71, 0, 183]",183,l,0.4473555795993889,1,colour,0.06,3.5
