id,age,condition,counterbalance,block,trialinblock,trial,tstart,tend,trialstim,trialintensity,response,RT,accuracy,trialtype,colourfreq,credits
62,21,0,1,Practice,1,NA,5.907611921429634e-06,1.7877492844127119,"[98, 0, 156]",156,l,1.2320627097506076,1,colour,0.5,4
62,21,0,1,Practice,2,NA,2.2977387765422463,2.8437174586579204,"[57, 0, 197]",197,a,0.02336487267166376,0,colour,0.5,4
62,21,0,1,Practice,3,NA,3.360095909330994,4.091698607429862,"[20, 0, 234]",234,a,0.20823191804811358,1,colour,0.5,4
62,21,0,1,Practice,4,NA,4.61011954001151,7.307684158207849,"[52, 0, 202]",202,a,2.174297025660053,0,colour,0.5,4
62,21,0,1,Practice,5,NA,7.829200320877135,9.803711046697572,"[31, 0, 223]",223,a,1.451476683607325,1,colour,0.5,4
62,21,0,1,Practice,6,NA,10.31322083529085,11.939688499784097,"[58, 0, 196]",196,a,1.1030413520056754,0,colour,0.5,4
62,21,0,1,Practice,7,NA,12.453829515492544,14.107681637629867,"[45, 0, 209]",209,a,1.1309098456986248,1,colour,0.5,4
62,21,0,1,Practice,8,NA,14.625663038576022,16.099696424091235,"[40, 0, 214]",214,a,0.9506259777117521,1,colour,0.5,4
62,21,0,1,Practice,9,NA,16.610065977089107,17.99569093855098,"[26, 0, 228]",228,a,0.8629453799221665,1,colour,0.5,4
62,21,0,1,Practice,10,NA,18.516290229279548,20.027689687674865,"[91, 0, 163]",163,l,0.9880877549294382,1,colour,0.5,4
62,21,0,1,1,1,1,4.3671603123657405,5.736002344172448,"[23, 0, 231]",231,a,0.8446811980102211,1,colour,0.5,4.0
62,21,0,1,1,2,2,6.242853283183649,7.615924819605425,"[72, 0, 182]",182,l,0.8496810640208423,1,colour,0.5,4.0
62,21,0,1,1,3,3,8.1335174953565,9.359903318807483,"[80, 0, 174]",174,l,0.703023707959801,1,colour,0.5,4.0
62,21,0,1,1,4,4,9.867849541595206,11.103925928706303,"[12, 0, 242]",242,a,0.7126347147859633,1,colour,0.5,4.0
62,21,0,1,1,5,5,11.617959818337113,13.007917472161353,"[46, 0, 208]",208,a,0.8666211382951587,1,colour,0.5,4.0
62,21,0,1,1,6,6,13.524149412289262,14.807923222193494,"[56, 0, 198]",198,a,0.7604298111982644,0,colour,0.5,4.0
62,21,0,1,1,7,7,15.321041421499103,16.679914440959692,"[43, 0, 211]",211,a,0.8355577716138214,1,colour,0.5,4.0
62,21,0,1,1,8,8,17.195962455589324,18.59995163581334,"[98, 0, 156]",156,l,0.8806971691083163,1,colour,0.5,4.0
62,21,0,1,1,9,9,19.117833000142127,20.49586698738858,"[47, 0, 207]",207,a,0.8546817179303616,1,colour,0.5,4.0
62,21,0,1,1,10,10,21.008360154228285,22.39196311403066,"[51, 0, 203]",203,a,0.8608359445352107,0,colour,0.5,4.0
62,21,0,1,1,11,11,22.8990964400582,24.18390370020643,"[86, 0, 168]",168,l,0.7614443567581475,1,colour,0.5,4.0
62,21,0,1,1,12,12,24.696090061450377,26.26395315141417,"[89, 0, 165]",165,l,1.0445285437162966,1,colour,0.5,4.0
62,21,0,1,1,13,13,26.77406709874049,28.14390989136882,"[64, 0, 190]",190,a,0.8466346706263721,0,colour,0.5,4.0
62,21,0,1,1,14,14,28.664587951265275,29.967911060201004,"[58, 0, 196]",196,a,0.7799349997658283,0,colour,0.5,4.0
62,21,0,1,1,15,15,30.477123495656997,31.735910184448585,"[78, 0, 176]",176,l,0.7361555499956012,1,colour,0.5,4.0
62,21,0,1,1,16,16,32.24281783704646,33.49590479652397,"[0, 0, 254]",254,a,0.729697274742648,1,colour,0.5,4.0
62,21,0,1,1,17,17,34.00841332320124,35.327888815896586,"[71, 0, 183]",183,l,0.7961165278684348,1,colour,0.5,4.0
62,21,0,1,1,18,18,35.836478975834325,37.32789787440561,"[67, 0, 187]",187,l,0.9679654110223055,1,colour,0.5,4.0
62,21,0,1,1,19,19,37.836494729621336,39.255875778151676,"[20, 0, 234]",234,a,0.8959748223423958,1,colour,0.5,4.0
62,21,0,1,1,20,20,39.77411120920442,41.15198175073601,"[37, 0, 217]",217,a,0.8546880192589015,1,colour,0.5,4.0
62,21,0,1,1,21,21,41.66462260950357,42.959931360557675,"[68, 0, 186]",186,l,0.7719907460268587,1,colour,0.5,4.0
62,21,0,1,1,22,22,43.47711364948191,44.73585622757673,"[4, 0, 250]",250,a,0.7355206713546067,1,colour,0.5,4.0
62,21,0,1,1,23,23,45.24273709882982,46.519854923244566,"[49, 0, 205]",205,a,0.7537450750824064,1,colour,0.5,4.0
62,21,0,1,1,24,24,47.03955467115156,48.37588792433962,"[13, 0, 241]",241,a,0.8129195438232273,1,colour,0.5,4.0
62,21,0,1,1,25,25,48.883304031332955,50.11188317928463,"[32, 0, 222]",222,a,0.705407653702423,1,colour,0.5,4.0
62,21,0,1,1,26,26,50.63337846798822,51.79984151665121,"[15, 0, 239]",239,a,0.6432246004696935,1,colour,0.5,4.0
62,21,0,1,1,27,27,52.320799600565806,53.575825854204595,"[97, 0, 157]",157,l,0.7317291225772351,1,colour,0.5,4.0
62,21,0,1,1,28,28,54.08635491458699,55.679852213477716,"[63, 0, 191]",191,a,1.0700229376088828,0,colour,0.5,4.0
62,21,0,1,1,29,29,56.195817520376295,57.552080921130255,"[50, 0, 204]",204,a,0.8313960083760321,1,colour,0.5,4.0
62,21,0,1,1,30,30,58.07304412475787,59.29581523616798,"[99, 0, 155]",155,l,0.6995503862854093,1,colour,0.5,4.0
62,21,0,1,1,31,31,59.80734899570234,61.015796741237864,"[84, 0, 170]",170,l,0.6851214698981494,1,colour,0.5,4.0
62,21,0,1,1,32,32,61.526050897315145,63.54380504973233,"[57, 0, 197]",197,a,1.494412516709417,0,colour,0.5,4.0
62,21,0,1,1,33,33,64.05724068824202,65.43200260889716,"[31, 0, 223]",223,a,0.8513781435322016,1,colour,0.5,4.0
62,21,0,1,1,34,34,65.94794270978309,67.11182449618354,"[45, 0, 209]",209,a,0.6407079289201647,1,colour,0.5,4.0
62,21,0,1,1,35,35,67.61967028840445,68.95185477496125,"[2, 0, 252]",252,a,0.8087065804284066,1,colour,0.5,4.0
62,21,0,1,1,36,36,69.46353543899022,70.73581802449189,"[90, 0, 164]",164,l,0.7491343279834837,1,colour,0.5,4.0
62,21,0,1,1,37,37,71.24472089763731,72.33580510644242,"[96, 0, 158]",158,l,0.5677118534222245,1,colour,0.5,4.0
62,21,0,1,1,38,38,72.85410985443741,74.39181620976888,"[54, 0, 200]",200,a,1.0143745657987893,0,colour,0.5,4.0
62,21,0,1,1,39,39,74.90107157430612,76.17576528084464,"[21, 0, 233]",233,a,0.7514505323488265,1,colour,0.5,4.0
62,21,0,1,1,40,40,76.68226254661568,77.99198170355521,"[30, 0, 224]",224,a,0.786383822793141,1,colour,0.5,4.0
62,21,0,1,1,41,41,78.51033134991303,79.75981501862407,"[3, 0, 251]",251,a,0.7261636946350336,1,colour,0.5,4.0
62,21,0,1,1,42,42,80.27596740215085,81.61579918302596,"[5, 0, 249]",249,a,0.8165385881438851,1,colour,0.5,4.0
62,21,0,1,1,43,43,82.13534533139318,83.37576898303814,"[35, 0, 219]",219,a,0.7171056466177106,1,colour,0.5,4.0
62,21,0,1,1,44,44,83.88534060539678,85.09575757710263,"[26, 0, 228]",228,a,0.687028074869886,1,colour,0.5,4.0
62,21,0,1,1,45,45,85.60407046996988,86.83973371330649,"[11, 0, 243]",243,a,0.7123539031017572,1,colour,0.5,4.0
62,21,0,1,1,46,46,87.35409016232006,88.67181501234882,"[88, 0, 166]",166,l,0.7944592267740518,1,colour,0.5,4.0
62,21,0,1,1,47,47,89.1821979561355,90.42379920510575,"[16, 0, 238]",238,a,0.7184100623708218,1,colour,0.5,4.0
62,21,0,1,1,48,48,90.93218495929614,92.21591505222023,"[76, 0, 178]",178,l,0.7604707709979266,1,colour,0.5,4.0
62,21,0,1,1,49,49,92.72903640242293,93.7677210692782,"[18, 0, 236]",236,a,0.515464729629457,1,colour,0.5,4.0
62,21,0,1,1,50,50,94.27592171612196,95.55978453508578,"[81, 0, 173]",173,l,0.7605755340773612,1,colour,0.5,4.0
62,21,0,1,2,1,51,108.10319022578187,109.35976547305472,"[99, 0, 155]",155,l,0.7324612811207771,1,colour,0.5,4.0
62,21,0,1,2,2,52,109.86956749483943,111.27173277758993,"[55, 0, 199]",199,a,0.8787618135102093,0,colour,0.5,4.0
62,21,0,1,2,3,53,111.79145143018104,113.11171382572502,"[0, 0, 254]",254,a,0.7976367706432939,1,colour,0.5,4.0
62,21,0,1,2,4,54,113.61956631322391,114.96776691288687,"[73, 0, 181]",181,l,0.8248534500598907,1,colour,0.5,4.0
62,21,0,1,2,5,55,115.4789828392677,116.6957261483185,"[22, 0, 232]",232,a,0.6935332177672535,1,colour,0.5,4.0
62,21,0,1,2,6,56,117.2132565965876,118.45572312362492,"[3, 0, 251]",251,a,0.7192867619451135,1,colour,0.5,4.0
62,21,0,1,2,7,57,118.9633125225082,120.23967770859599,"[53, 0, 201]",201,a,0.7532464668620378,0,colour,0.5,4.0
62,21,0,1,2,8,58,120.76019980548881,122.36770815122873,"[66, 0, 188]",188,l,1.0842395713552833,1,colour,0.5,4.0
62,21,0,1,2,9,59,122.88512202119455,124.1836697559338,"[86, 0, 168]",168,l,0.7754475262481719,1,colour,0.5,4.0
62,21,0,1,2,10,60,124.69772294396535,127.38369236281142,"[62, 0, 192]",192,a,2.162691979901865,0,colour,0.5,4.0
62,21,0,1,2,11,61,127.90080769802444,129.1436936701648,"[11, 0, 243]",243,a,0.7195463059470057,1,colour,0.5,4.0
62,21,0,1,2,12,62,129.65085929166526,130.8556604234036,"[37, 0, 217]",217,a,0.6814961237832904,1,colour,0.5,4.0
62,21,0,1,2,13,63,131.3694158643484,132.58363698795438,"[63, 0, 191]",191,a,0.6907636974938214,0,colour,0.5,4.0
62,21,0,1,2,14,64,133.10383298131637,134.3836935441941,"[98, 0, 156]",156,l,0.7565976963378489,1,colour,0.5,4.0
62,21,0,1,2,15,65,134.90074980258942,136.3356944359839,"[14, 0, 240]",240,a,0.9116337175946683,1,colour,0.5,4.0
62,21,0,1,2,16,66,136.85384912882,138.1116567181889,"[89, 0, 165]",165,l,0.7345269997604191,1,colour,0.5,4.0
62,21,0,1,2,17,67,138.61940404912457,139.75967087130994,"[70, 0, 184]",184,l,0.6168326330371201,1,colour,0.5,4.0
62,21,0,1,2,18,68,140.27564169210382,141.32775727147236,"[9, 0, 245]",245,a,0.5294135485310107,1,colour,0.5,4.0
62,21,0,1,2,19,69,141.83816148294136,142.61564164492302,"[15, 0, 239]",239,a,0.25411371421068907,1,colour,0.5,4.0
62,21,0,1,2,20,70,143.1350601874292,144.0316435007844,"[43, 0, 211]",211,a,0.3732101700734347,1,colour,0.5,4.0
62,21,0,1,2,21,71,144.54132264270447,145.73563173576258,"[67, 0, 187]",187,l,0.6713845394551754,1,colour,0.5,4.0
62,21,0,1,2,22,72,146.24434713833034,147.20761043019593,"[80, 0, 174]",174,l,0.43990078242495656,1,colour,0.5,4.0
62,21,0,1,2,23,73,147.72883475362323,148.60759499156848,"[5, 0, 249]",249,a,0.3555517222266644,1,colour,0.5,4.0
62,21,0,1,2,24,74,149.1193587568123,149.98357940791175,"[97, 0, 157]",157,l,0.34080103412270546,1,colour,0.5,4.0
62,21,0,1,2,25,75,150.49441842432134,151.1996228536591,"[41, 0, 213]",213,a,0.1818293167743832,1,colour,0.5,4.0
62,21,0,1,2,26,76,151.71307976008393,152.5916466198396,"[45, 0, 209]",209,a,0.35532526089809835,1,colour,0.5,4.0
62,21,0,1,2,27,77,153.10384519048966,153.98361958004534,"[30, 0, 224]",224,a,0.356537910643965,1,colour,0.5,4.0
62,21,0,1,2,28,78,154.49427033867687,155.42360385786742,"[39, 0, 215]",215,a,0.4059221730567515,1,colour,0.5,4.0
62,21,0,1,2,29,79,155.93191990139894,158.14365704264492,"[47, 0, 207]",207,a,1.6884321332909167,1,colour,0.5,4.0
62,21,0,1,2,30,80,158.65057926764712,159.7676218203269,"[10, 0, 244]",244,a,0.5937489662319422,1,colour,0.5,4.0
62,21,0,1,2,31,81,160.2755790706724,161.25558393867686,"[57, 0, 197]",197,a,0.4567057676613331,0,colour,0.5,4.0
62,21,0,1,2,32,82,161.77558340295218,162.72762643615715,"[4, 0, 250]",250,a,0.4286533484701067,1,colour,0.5,4.0
62,21,0,1,2,33,83,163.24433847377077,164.19957007840276,"[96, 0, 158]",158,l,0.4324078755453229,1,colour,0.5,4.0
62,21,0,1,2,34,84,164.71309157530777,165.57557339943014,"[17, 0, 237]",237,a,0.33924376987852156,1,colour,0.5,4.0
62,21,0,1,2,35,85,166.0880594770424,166.9435974145308,"[84, 0, 170]",170,l,0.3320765730459243,1,colour,0.5,4.0
62,21,0,1,2,36,86,167.463038406102,168.38363486132585,"[93, 0, 161]",161,l,0.39740605605766177,1,colour,0.5,4.0
62,21,0,1,2,37,87,168.900515464833,170.44757013209164,"[88, 0, 166]",166,l,1.0236712840851396,1,colour,0.5,4.0
62,21,0,1,2,38,88,170.96307424618863,171.63157780724578,"[32, 0, 222]",222,a,0.14545337110757828,1,colour,0.5,4.0
62,21,0,1,2,39,89,172.15049577248283,173.34367098473012,"[65, 0, 189]",189,a,0.6697595338337123,0,colour,0.5,4.0
62,21,0,1,2,40,90,173.85361045855097,175.4316032496281,"[71, 0, 183]",183,a,1.054584989324212,0,colour,0.5,4.0
62,21,0,1,2,41,91,175.94740826170892,176.63157189963385,"[74, 0, 180]",180,l,0.16101262345910072,1,colour,0.5,4.0
62,21,0,1,2,42,92,177.15052373544313,177.8315574848093,"[82, 0, 172]",172,l,0.15779687650501728,1,colour,0.5,4.0
62,21,0,1,2,43,93,178.33802206162363,179.49559484026395,"[76, 0, 178]",178,l,0.6342520168982446,1,colour,0.5,4.0
62,21,0,1,2,44,94,180.00985361565836,181.0315812730696,"[34, 0, 220]",220,a,0.49882594705559313,1,colour,0.5,4.0
62,21,0,1,2,45,95,181.5412359968759,182.35154001391493,"[31, 0, 223]",223,a,0.28710062126629055,1,colour,0.5,4.0
62,21,0,1,2,46,96,182.86924020946026,184.2395843672566,"[38, 0, 216]",216,a,0.8471112234983593,1,colour,0.5,4.0
62,21,0,1,2,47,97,184.75988039700314,185.33556170994416,"[6, 0, 248]",248,a,0.052331800339743495,1,colour,0.5,4.0
62,21,0,1,2,48,98,185.85361951706,186.68768855347298,"[7, 0, 247]",247,a,0.31072464399039745,1,colour,0.5,4.0
62,21,0,1,2,49,99,187.1972912894562,188.07955911383033,"[90, 0, 164]",164,l,0.35902228695340455,1,colour,0.5,4.0
62,21,0,1,2,50,100,188.58795038168319,189.4635362266563,"[33, 0, 221]",221,a,0.3522020678501576,1,colour,0.5,4.0
62,21,0,1,3,1,101,205.35263569140807,206.7995473141782,"[11, 0, 243]",243,a,0.9227039213292301,1,colour,0.5,4.0
62,21,0,1,3,2,102,207.30666055413894,208.93546884134412,"[57, 0, 197]",197,a,1.1054772853385657,0,colour,0.5,4.0
62,21,0,1,3,3,103,209.4472924710717,210.63952324236743,"[84, 0, 170]",170,l,0.6690163477323949,1,colour,0.5,4.0
62,21,0,1,3,4,104,211.1504489048384,212.33550696563907,"[2, 0, 252]",252,a,0.6618440309539437,1,colour,0.5,4.0
62,21,0,1,3,5,105,212.85338596673682,213.99951596418396,"[41, 0, 213]",213,a,0.6227111681364477,1,colour,0.5,4.0
62,21,0,1,3,6,106,214.50970395444892,215.57549147959799,"[31, 0, 223]",223,a,0.5426916491705924,1,colour,0.5,4.0
62,21,0,1,3,7,107,216.08781253593042,217.3355187808629,"[96, 0, 158]",158,l,0.7244138401001692,1,colour,0.5,4.0
62,21,0,1,3,8,108,217.8534470128361,219.79956228029914,"[52, 0, 202]",202,l,1.4227519703563303,1,colour,0.5,4.0
62,21,0,1,3,9,109,220.30664598196745,221.3354628549423,"[22, 0, 232]",232,a,0.5056245047599077,1,colour,0.5,4.0
62,21,0,1,3,10,110,221.85338084679097,222.79148411937058,"[12, 0, 242]",242,a,0.41472855396568775,1,colour,0.5,4.0
62,21,0,1,3,11,111,223.30664401268587,224.33547388250008,"[59, 0, 195]",195,a,0.5054661789909005,0,colour,0.5,4.0
62,21,0,1,3,12,112,224.85334185604006,225.7594530750066,"[20, 0, 234]",234,a,0.38263803883455694,1,colour,0.5,4.0
62,21,0,1,3,13,113,226.27536560664885,227.23147666780278,"[66, 0, 188]",188,a,0.4328434686176479,0,colour,0.5,4.0
62,21,0,1,3,14,114,227.744080505101,228.7194793522358,"[77, 0, 177]",177,l,0.4520048301201314,1,colour,0.5,4.0
62,21,0,1,3,15,115,229.2283455976285,230.19141944986768,"[90, 0, 164]",164,l,0.4397586041595787,1,colour,0.5,4.0
62,21,0,1,3,16,116,230.7128568436019,231.66342138149776,"[47, 0, 207]",207,a,0.42727646534331143,1,colour,0.5,4.0
62,21,0,1,3,17,117,232.18152369302697,233.2874070329126,"[82, 0, 172]",172,l,0.5825649411417544,1,colour,0.5,4.0
62,21,0,1,3,18,118,233.80651995143853,234.4795082290657,"[36, 0, 218]",218,a,0.14960568211972713,1,colour,0.5,4.0
62,21,0,1,3,19,119,234.99396983464248,235.87148749059997,"[93, 0, 161]",161,l,0.3541074914392084,1,colour,0.5,4.0
62,21,0,1,3,20,120,236.38466082839295,237.48747571953572,"[15, 0, 239]",239,a,0.5794456864241511,1,colour,0.5,4.0
62,21,0,1,3,21,121,237.9939020932652,239.00747006386518,"[29, 0, 225]",225,a,0.49016174441203475,1,colour,0.5,4.0
62,21,0,1,3,22,122,239.52519428380765,240.38361831987277,"[25, 0, 229]",229,a,0.3351115449331701,1,colour,0.5,4.0
62,21,0,1,3,23,123,240.9001547023654,241.87146385991946,"[18, 0, 236]",236,a,0.4480624385178089,1,colour,0.5,4.0
62,21,0,1,3,24,124,242.38462735153735,243.50347292795777,"[9, 0, 245]",245,a,0.5955842854455113,1,colour,0.5,4.0
62,21,0,1,3,25,125,244.0251923147589,245.071436842205,"[81, 0, 173]",173,l,0.522876110393554,1,colour,0.5,4.0
62,21,0,1,3,26,126,245.58767784084193,246.68741561868228,"[58, 0, 196]",196,a,0.5764603391289711,0,colour,0.5,4.0
62,21,0,1,3,27,127,247.19700102554634,248.26343366946094,"[87, 0, 167]",167,l,0.5432469709776342,1,colour,0.5,4.0
62,21,0,1,3,28,128,248.77525651152246,249.82343797013164,"[85, 0, 169]",169,l,0.5249130784068257,1,colour,0.5,4.0
62,21,0,1,3,29,129,250.33770934841596,251.43938957131468,"[94, 0, 160]",160,l,0.5784319285303354,1,colour,0.5,4.0
62,21,0,1,3,30,130,251.94703332078643,253.51946934848092,"[78, 0, 176]",176,l,1.0492783177178353,1,colour,0.5,4.0
62,21,0,1,3,31,131,254.04081300692633,255.15951207303442,"[13, 0, 241]",241,a,0.5953487658407539,1,colour,0.5,4.0
62,21,0,1,3,32,132,255.66576554859057,256.7993700837251,"[45, 0, 209]",209,a,0.6102286349050701,1,colour,0.5,4.0
62,21,0,1,3,33,133,257.30633208714426,258.3754389404785,"[43, 0, 211]",211,a,0.5456982639152557,1,colour,0.5,4.0
62,21,0,1,3,34,134,258.8846147484146,259.9353940107394,"[1, 0, 253]",253,a,0.5276672386098653,1,colour,0.5,4.0
62,21,0,1,3,35,135,260.4469183180481,261.51139867072925,"[5, 0, 249]",249,a,0.5416696204338223,1,colour,0.5,4.0
62,21,0,1,3,36,136,262.0250859763473,262.91939247003756,"[37, 0, 217]",217,a,0.3709428026340902,1,colour,0.5,4.0
62,21,0,1,3,37,137,263.4312783272471,264.5913705343846,"[53, 0, 201]",201,a,0.6367072483990341,0,colour,0.5,4.0
62,21,0,1,3,38,138,265.1031685641501,266.0953515227884,"[44, 0, 210]",210,a,0.46880863374099135,1,colour,0.5,4.0
62,21,0,1,3,39,139,266.60318471188657,267.49538846546784,"[8, 0, 246]",246,a,0.36879437672905624,1,colour,0.5,4.0
62,21,0,1,3,40,140,268.00949285319075,268.9433725287672,"[80, 0, 174]",174,l,0.41065067960880697,1,colour,0.5,4.0
62,21,0,1,3,41,141,269.46259099803865,270.36739346873946,"[46, 0, 208]",208,a,0.3816175856627524,1,colour,0.5,4.0
62,21,0,1,3,42,142,270.8844564226456,271.7593215305824,"[95, 0, 159]",159,l,0.35168928117491305,1,colour,0.5,4.0
62,21,0,1,3,43,143,272.27510173013434,273.1513567182701,"[97, 0, 157]",157,l,0.35306498291902244,1,colour,0.5,4.0
62,21,0,1,3,44,144,273.6656690565869,275.6713483056519,"[74, 0, 180]",180,l,1.48235730570741,1,colour,0.5,4.0
62,21,0,1,3,45,145,276.181332284119,277.76732722390443,"[64, 0, 190]",190,a,1.0626993840560317,0,colour,0.5,4.0
62,21,0,1,3,46,146,278.27501705358736,279.2873518944252,"[92, 0, 162]",162,l,0.48895421461202204,1,colour,0.5,4.0
62,21,0,1,3,47,147,279.8062186597381,280.68737859721296,"[33, 0, 221]",221,a,0.3577828558627516,1,colour,0.5,4.0
62,21,0,1,3,48,148,281.1968872041907,282.0873430722859,"[75, 0, 179]",179,l,0.3673966194037348,1,colour,0.5,4.0
62,21,0,1,3,49,149,282.6030870382674,283.4633849901147,"[26, 0, 228]",228,a,0.3368885749951005,1,colour,0.5,4.0
62,21,0,1,3,50,150,283.97806202899665,284.8952978022862,"[88, 0, 166]",166,l,0.39393155300058424,1,colour,0.5,4.0
62,21,0,1,4,1,151,310.96157881547697,312.00725581194274,"[98, 0, 156]",156,l,0.5216158055700362,1,colour,0.5,3.9
62,21,0,1,4,2,152,312.5250076011289,313.41526063904166,"[91, 0, 163]",163,l,0.36713274335488677,1,colour,0.5,3.9
62,21,0,1,4,3,153,313.931143238442,315.0072833811864,"[28, 0, 226]",226,a,0.5527417934499681,1,colour,0.5,3.9
62,21,0,1,4,4,154,315.5249130784068,316.85527957510203,"[69, 0, 185]",185,a,0.807109538000077,0,colour,0.5,3.9
62,21,0,1,4,5,155,317.36859430302866,318.3992602797225,"[41, 0, 213]",213,a,0.5073310364969075,1,colour,0.5,3.9
62,21,0,1,4,6,156,318.91553357383236,319.9912652990315,"[97, 0, 157]",157,l,0.5524318374227732,1,colour,0.5,3.9
62,21,0,1,4,7,157,320.5092805705499,321.15124801709317,"[96, 0, 158]",158,l,0.11869355221278965,1,colour,0.5,3.9
62,21,0,1,4,8,158,321.6654370815959,323.0472535591107,"[23, 0, 231]",231,a,0.8582456239964813,1,colour,0.5,3.9
62,21,0,1,4,9,159,323.5663026748225,324.4872732828371,"[8, 0, 246]",246,a,0.3976659937761724,1,colour,0.5,3.9
62,21,0,1,4,10,160,325.0037706748117,326.7753195266705,"[66, 0, 188]",188,a,1.2482213946059346,0,colour,0.5,3.9
62,21,0,1,4,11,161,327.2850837393198,328.4792230851017,"[99, 0, 155]",155,l,0.670890657696873,1,colour,0.5,3.9
62,21,0,1,4,12,162,328.9881751886569,330.02324120514095,"[30, 0, 224]",224,a,0.5116948424838483,1,colour,0.5,3.9
62,21,0,1,4,13,163,330.53503293334506,331.9032156681642,"[7, 0, 247]",247,a,0.8448438560590148,1,colour,0.5,3.9
62,21,0,1,4,14,164,332.40999059495516,333.7352508872282,"[47, 0, 207]",207,a,0.8020269640255719,1,colour,0.5,3.9
62,21,0,1,4,15,165,334.25367103214376,335.2551853673067,"[13, 0, 241]",241,a,0.47816167189739645,1,colour,0.5,3.9
62,21,0,1,4,16,166,335.76926454901695,336.7272696122527,"[45, 0, 209]",209,a,0.4345224311109632,1,colour,0.5,3.9
62,21,0,1,4,17,167,337.23807751503773,338.14322617580183,"[86, 0, 168]",168,l,0.3818542866501957,1,colour,0.5,3.9
62,21,0,1,4,18,168,338.6599145827349,339.5431788356509,"[59, 0, 195]",195,a,0.3605393790639937,0,colour,0.5,3.9
62,21,0,1,4,19,169,340.050558708841,340.8792151294183,"[42, 0, 212]",212,a,0.305244286544621,1,colour,0.5,3.9
62,21,0,1,4,20,170,341.3943576933816,342.2712058124598,"[27, 0, 227]",227,a,0.3536175477784127,1,colour,0.5,3.9
62,21,0,1,4,21,171,342.78494471195154,343.63143129693344,"[63, 0, 191]",191,a,0.3238684432581067,0,colour,0.5,3.9
62,21,0,1,4,22,172,344.1443143703509,344.7912151229102,"[88, 0, 166]",166,l,0.12356384308077395,1,colour,0.5,3.9
62,21,0,1,4,23,173,345.30043897987343,347.0232530203648,"[73, 0, 181]",181,l,1.1993321957997978,1,colour,0.5,3.9
62,21,0,1,4,24,174,347.534929352114,348.43930134992115,"[72, 0, 182]",182,l,0.3810346946120262,1,colour,0.5,3.9
62,21,0,1,4,25,175,348.9567380629014,349.8791883478407,"[39, 0, 215]",215,a,0.3990783232729882,1,colour,0.5,3.9
62,21,0,1,4,26,176,350.39424741687253,351.24718558136374,"[75, 0, 179]",179,l,0.3295988920144737,1,colour,0.5,3.9
62,21,0,1,4,27,177,351.75360289681703,352.60719051235355,"[57, 0, 197]",197,a,0.3305149762891233,0,colour,0.5,3.9
62,21,0,1,4,28,178,353.12867792439647,353.9911715637427,"[31, 0, 223]",223,a,0.3392902435734868,1,colour,0.5,3.9
62,21,0,1,4,29,179,354.5035950199235,355.183197141625,"[43, 0, 211]",211,a,0.15618250472471118,1,colour,0.5,3.9
62,21,0,1,4,30,180,355.6911165828351,356.5431619002484,"[90, 0, 164]",164,l,0.32905223476700485,1,colour,0.5,3.9
62,21,0,1,4,31,181,357.0503562723752,357.7192052358296,"[4, 0, 250]",250,a,0.14536633109673858,1,colour,0.5,3.9
62,21,0,1,4,32,182,358.23793651838787,359.07915384694934,"[33, 0, 221]",221,a,0.31785757606849074,1,colour,0.5,3.9
62,21,0,1,4,33,183,359.5973869152367,360.4871992401313,"[51, 0, 203]",203,a,0.3665726953186095,0,colour,0.5,3.9
62,21,0,1,4,34,184,361.00360841071233,362.06317278626375,"[82, 0, 172]",172,l,0.5362763029988855,1,colour,0.5,3.9
62,21,0,1,4,35,185,362.5816957245115,363.4151621775236,"[36, 0, 218]",218,a,0.3101019742898643,1,colour,0.5,3.9
62,21,0,1,4,36,186,363.92546792770736,364.7031465875916,"[15, 0, 239]",239,a,0.2544075227342546,1,colour,0.5,3.9
62,21,0,1,4,37,187,365.22236741986126,366.01511066267267,"[58, 0, 196]",196,a,0.2695209423545748,0,colour,0.5,3.9
62,21,0,1,4,38,188,366.53482892154716,367.3351930708159,"[16, 0, 238]",238,a,0.27699533849954605,1,colour,0.5,3.9
62,21,0,1,4,39,189,367.84735304443166,368.75913051562384,"[29, 0, 225]",225,a,0.38856344134546816,1,colour,0.5,3.9
62,21,0,1,4,40,190,369.26911764475517,370.56718331295997,"[94, 0, 160]",160,l,0.7746913435403258,1,colour,0.5,3.9
62,21,0,1,4,41,191,371.08153227879666,371.94310747087,"[24, 0, 230]",230,a,0.3380228492897004,1,colour,0.5,3.9
62,21,0,1,4,42,192,372.4566128200386,373.319141905522,"[71, 0, 183]",183,l,0.33955766446888447,1,colour,0.5,3.9
62,21,0,1,4,43,193,373.8316642169375,374.7111345580779,"[46, 0, 208]",208,a,0.3561318563297391,1,colour,0.5,3.9
62,21,0,1,4,44,194,375.22233158000745,376.09509709873237,"[89, 0, 165]",165,l,0.3494581477716565,1,colour,0.5,3.9
62,21,0,1,4,45,195,376.61293947231025,377.41543983854353,"[32, 0, 222]",222,a,0.2793863732367754,1,colour,0.5,3.9
62,21,0,1,4,46,196,377.9254242107272,378.7031296521891,"[77, 0, 177]",177,l,0.2547182666603476,1,colour,0.5,3.9
62,21,0,1,4,47,197,379.222411530558,380.0230986329261,"[84, 0, 170]",170,l,0.2774561373516917,1,colour,0.5,3.9
62,21,0,1,4,48,198,380.53485688450746,381.3031049189158,"[44, 0, 210]",210,a,0.24495405401103199,1,colour,0.5,3.9
62,21,0,1,4,49,199,381.816033678595,382.71919696521945,"[26, 0, 228]",228,a,0.3798196818679571,1,colour,0.5,3.9
62,21,0,1,4,50,200,383.2379467585124,384.00713135674596,"[74, 0, 180]",180,l,0.24595914711244404,1,colour,0.5,3.9
62,21,0,1,5,1,201,399.61201590509154,400.4550709158648,"[12, 0, 242]",242,a,0.3190111489966512,1,colour,0.5,3.9
62,21,0,1,5,2,202,400.9722083064262,401.7911154802423,"[73, 0, 181]",181,l,0.2956789657473564,1,colour,0.5,3.9
62,21,0,1,5,3,203,402.3002849863842,403.3671110817231,"[55, 0, 199]",199,a,0.5434907611925155,0,colour,0.5,3.9
62,21,0,1,5,4,204,403.8783750573639,404.583093481604,"[2, 0, 252]",252,a,0.18170092348009348,1,colour,0.5,3.9
62,21,0,1,5,5,205,405.09718014649116,405.86307889339514,"[71, 0, 183]",183,l,0.24272173875942826,1,colour,0.5,3.9
62,21,0,1,5,6,206,406.37840026337653,407.16707429662347,"[92, 0, 162]",162,l,0.2660212330520153,1,colour,0.5,3.9
62,21,0,1,5,7,207,407.6752658849582,408.3270570146851,"[11, 0, 243]",243,a,0.12848336482420564,1,colour,0.5,3.9
62,21,0,1,5,8,208,408.84712146339007,409.71112589351833,"[25, 0, 229]",229,a,0.34090816020034254,1,colour,0.5,3.9
62,21,0,1,5,9,209,410.2220972420182,411.0551281021908,"[88, 0, 166]",166,l,0.30969985853880644,1,colour,0.5,3.9
62,21,0,1,5,10,210,411.5659308847971,413.25507587823085,"[66, 0, 188]",188,l,1.1658687361050397,1,colour,0.5,3.9
62,21,0,1,5,11,211,413.7689821620006,414.5751086620148,"[3, 0, 251]",251,a,0.28288332582451403,1,colour,0.5,3.9
62,21,0,1,5,12,212,415.0815125864465,415.6151481566485,"[20, 0, 234]",234,a,0.010294722160324454,1,colour,0.5,3.9
62,21,0,1,5,13,213,416.1283719064668,416.71103373356164,"[95, 0, 159]",159,l,0.059429680462926626,1,colour,0.5,3.9
62,21,0,1,5,14,214,417.22206297749653,418.2233736945782,"[58, 0, 196]",196,a,0.47793718008324504,0,colour,0.5,3.9
62,21,0,1,5,15,215,418.7377537742723,419.78309009457007,"[18, 0, 236]",236,a,0.5220246170647442,1,colour,0.5,3.9
62,21,0,1,5,16,216,420.3001274482813,421.39911140617914,"[36, 0, 218]",218,a,0.575528894783929,1,colour,0.5,3.9
62,21,0,1,5,17,217,421.909543186659,422.96717378194444,"[87, 0, 167]",167,l,0.5342381536029279,1,colour,0.5,3.9
62,21,0,1,5,18,218,423.487717540469,424.34302980452776,"[45, 0, 209]",209,a,0.3320427022408694,1,colour,0.5,3.9
62,21,0,1,5,19,219,424.8626673251856,425.67901726136915,"[13, 0, 241]",241,a,0.29304059594869614,1,colour,0.5,3.9
62,21,0,1,5,20,220,426.1907711806707,427.3030442665331,"[69, 0, 185]",185,l,0.5890968653839082,1,colour,0.5,3.9
62,21,0,1,5,21,221,427.815786737483,428.7510314807296,"[77, 0, 177]",177,l,0.41187671991065145,1,colour,0.5,3.9
62,21,0,1,5,22,222,429.268957743654,430.08701736223884,"[51, 0, 203]",203,a,0.2947510660160333,0,colour,0.5,3.9
62,21,0,1,5,23,223,430.5970517527312,431.4069890999235,"[57, 0, 197]",197,a,0.2867859387770295,0,colour,0.5,3.9
62,21,0,1,5,24,224,431.92515797144733,432.6951034788508,"[96, 0, 158]",158,l,0.24663931806571782,1,colour,0.5,3.9
62,21,0,1,5,25,225,433.2063721807208,433.9990149929654,"[41, 0, 213]",213,a,0.2692420999519527,1,colour,0.5,3.9
62,21,0,1,5,26,226,434.51892032823525,435.3590234683361,"[99, 0, 155]",155,l,0.31680364604108036,1,colour,0.5,3.9
62,21,0,1,5,27,227,435.8783006204758,436.67100290348753,"[44, 0, 210]",210,a,0.2696064068004489,1,colour,0.5,3.9
62,21,0,1,5,28,228,437.1907420360949,437.9830197535921,"[1, 0, 253]",253,a,0.2689939772244543,1,colour,0.5,3.9
62,21,0,1,5,29,229,438.50322086689994,439.3991220400203,"[35, 0, 219]",219,a,0.37247486086562276,1,colour,0.5,3.9
62,21,0,1,5,30,230,439.9095707559027,440.67899244930595,"[30, 0, 224]",224,a,0.2461863961070776,1,colour,0.5,3.9
62,21,0,1,5,31,231,441.190774331335,441.9272910375148,"[0, 0, 254]",254,a,0.21325265802443027,1,colour,0.5,3.9
62,21,0,1,5,32,232,442.4407357345335,443.1910051247105,"[29, 0, 225]",225,a,0.22667411831207573,1,colour,0.5,3.9
62,21,0,1,5,33,233,443.70635406370275,444.47096926905215,"[82, 0, 172]",172,l,0.241567378398031,1,colour,0.5,3.9
62,21,0,1,5,34,234,444.98757536220364,445.74297773838043,"[78, 0, 176]",176,l,0.23217259254306555,1,colour,0.5,3.9
62,21,0,1,5,35,235,446.25313540245406,446.991001422517,"[42, 0, 212]",212,a,0.21441410784609616,1,colour,0.5,3.9
62,21,0,1,5,36,236,447.5031637593638,448.3510142304003,"[94, 0, 160]",160,l,0.324402891099453,1,colour,0.5,3.9
62,21,0,1,5,37,237,448.86251293774694,449.6310295746662,"[16, 0, 238]",238,a,0.24530221335589886,1,colour,0.5,3.9
62,21,0,1,5,38,238,450.1438216699753,450.8949732736219,"[83, 0, 171]",171,l,0.2278107558377087,1,colour,0.5,3.9
62,21,0,1,5,39,239,451.40948214079253,452.21498715272173,"[9, 0, 245]",245,a,0.2821515609975904,1,colour,0.5,3.9
62,21,0,1,5,40,240,452.7220105959568,453.67895148927346,"[56, 0, 198]",198,a,0.433720561908558,0,colour,0.5,3.9
62,21,0,1,5,41,241,454.19070265162736,455.0391379829962,"[49, 0, 205]",205,a,0.32519373251125216,1,colour,0.5,3.9
62,21,0,1,5,42,242,455.5500108702108,456.2869804983493,"[52, 0, 202]",202,a,0.21364453411661088,0,colour,0.5,3.9
62,21,0,1,5,43,243,456.8000573439058,457.43097309721634,"[47, 0, 207]",207,a,0.10766548989340663,1,colour,0.5,3.9
62,21,0,1,5,44,244,457.94062900240533,458.838932632003,"[75, 0, 179]",179,l,0.3749478154350072,1,colour,0.5,3.9
62,21,0,1,5,45,245,459.3469103623647,460.36697796196677,"[74, 0, 180]",180,l,0.49697093572467566,1,colour,0.5,3.9
62,21,0,1,5,46,246,460.8781454456039,461.6869390658103,"[48, 0, 206]",206,a,0.2858265317045152,1,colour,0.5,3.9
62,21,0,1,5,47,247,462.206254420802,462.98295122454874,"[50, 0, 204]",204,a,0.2533350819721818,1,colour,0.5,3.9
62,21,0,1,5,48,248,463.5031468239613,464.51896365126595,"[21, 0, 233]",233,a,0.4924444716889411,1,colour,0.5,3.9
62,21,0,1,5,49,249,465.03436851641163,465.8309580523055,"[7, 0, 247]",247,a,0.27328767883591354,1,colour,0.5,3.9
62,21,0,1,5,50,250,466.346955654677,467.102913352428,"[79, 0, 175]",175,l,0.23282519401982427,1,colour,0.5,3.9
62,21,0,1,6,1,251,489.7054108043667,490.6549210182857,"[46, 0, 208]",208,a,0.4253615892957896,1,colour,0.5,3.9
62,21,0,1,6,2,252,491.17514930665493,492.00695727718994,"[99, 0, 155]",155,l,0.3086782235186547,1,colour,0.5,3.9
62,21,0,1,6,3,253,492.51873876550235,493.4069233278278,"[43, 0, 211]",211,a,0.3655762665439397,1,colour,0.5,3.9
62,21,0,1,6,4,254,493.92503706086427,494.9748978759162,"[70, 0, 184]",184,l,0.5266550560481846,1,colour,0.5,3.9
62,21,0,1,6,5,255,495.487463116413,496.41488294140436,"[74, 0, 180]",180,l,0.40419713081791997,1,colour,0.5,3.9
62,21,0,1,6,6,256,496.9249196948949,497.7829242856242,"[22, 0, 232]",232,a,0.3346472012344748,1,colour,0.5,3.9
62,21,0,1,6,7,257,498.2999061073642,499.14285753667355,"[31, 0, 223]",223,a,0.319659024477005,1,colour,0.5,3.9
62,21,0,1,6,8,258,499.65924977185205,500.630922842538,"[56, 0, 198]",198,l,0.4483326165936887,1,colour,0.5,3.9
62,21,0,1,6,9,259,501.143657830311,501.9508268388454,"[21, 0, 233]",233,a,0.28385218512266874,1,colour,0.5,3.9
62,21,0,1,6,10,260,502.47181406710297,503.3190438381862,"[10, 0, 244]",244,a,0.3239649352617562,1,colour,0.5,3.9
62,21,0,1,6,11,261,503.83115655044094,504.72689348994754,"[44, 0, 210]",210,a,0.3723649778403342,1,colour,0.5,3.9
62,21,0,1,6,12,262,505.2374099472072,506.0548898256384,"[42, 0, 212]",212,a,0.2942709685303271,1,colour,0.5,3.9
62,21,0,1,6,13,263,506.5655275871977,507.32684709504247,"[82, 0, 172]",172,l,0.23797590285539627,1,colour,0.5,3.9
62,21,0,1,6,14,264,507.8467784242239,508.6468586111441,"[55, 0, 199]",199,a,0.2769591046962887,0,colour,0.5,3.9
62,21,0,1,6,15,265,509.15928443032317,509.95082014333457,"[9, 0, 245]",245,a,0.26822204049676657,1,colour,0.5,3.9
62,21,0,1,6,16,266,510.4718247009441,511.2308543922845,"[20, 0, 234]",234,a,0.23580739088356495,1,colour,0.5,3.9
62,21,0,1,6,17,267,511.7374130981043,512.5588593925349,"[68, 0, 186]",186,l,0.2983067014720291,1,colour,0.5,3.9
62,21,0,1,6,18,268,513.0654626027681,513.8947964371182,"[98, 0, 156]",156,l,0.3060024387668818,1,colour,0.5,3.9
62,21,0,1,6,19,269,514.4092111750506,515.4868435976095,"[71, 0, 183]",183,l,0.554506614105776,1,colour,0.5,3.9
62,21,0,1,6,20,270,516.002911698306,517.1428268167656,"[76, 0, 178]",178,a,0.6165057413745672,0,colour,0.5,3.9
62,21,0,1,6,21,271,517.6592812796589,519.5350286010653,"[77, 0, 177]",177,a,1.3525360487401485,0,colour,0.5,3.9
62,21,0,1,6,22,272,520.0498726305086,521.0628577100579,"[41, 0, 213]",213,a,0.48974663158878684,1,colour,0.5,3.9
62,21,0,1,6,23,273,521.5811537934933,522.3671335307881,"[86, 0, 168]",168,l,0.26278067380189896,1,colour,0.5,3.9
62,21,0,1,6,24,274,522.8781773468945,523.7027799177449,"[75, 0, 179]",179,l,0.3014688855037093,1,colour,0.5,3.9
62,21,0,1,6,25,275,524.222070066724,525.0148239433765,"[81, 0, 173]",173,l,0.26942917658016086,1,colour,0.5,3.9
62,21,0,1,6,26,276,525.5345847373828,526.3428616325837,"[3, 0, 251]",251,a,0.28497346257790923,1,colour,0.5,3.9
62,21,0,1,6,27,277,526.8627019836567,527.6388631577138,"[2, 0, 252]",252,a,0.25286719389259815,1,colour,0.5,3.9
62,21,0,1,6,28,278,528.1594935622998,528.934854836436,"[18, 0, 236]",236,a,0.25199640169739723,1,colour,0.5,3.9
62,21,0,1,6,29,279,529.4407420360949,530.2948105367832,"[87, 0, 167]",167,l,0.3306595175527036,1,colour,0.5,3.9
62,21,0,1,6,30,280,530.8158158820588,531.5907998525072,"[39, 0, 215]",215,a,0.25166990398429334,1,colour,0.5,3.9
62,21,0,1,6,31,281,532.0970820789225,532.822793639265,"[91, 0, 163]",163,l,0.20254794275388122,1,colour,0.5,3.9
62,21,0,1,6,32,282,533.331433423562,534.1188518779818,"[1, 0, 253]",253,a,0.26400356367230415,1,colour,0.5,3.9
62,21,0,1,6,33,283,534.6283329159487,535.4068441649433,"[64, 0, 190]",190,l,0.25516370590776205,1,colour,0.5,3.9
62,21,0,1,6,34,284,535.9252363466658,536.7027905515861,"[59, 0, 195]",195,a,0.2542318678461015,0,colour,0.5,3.9
62,21,0,1,6,35,285,537.222179555567,538.1027999250218,"[52, 0, 202]",202,a,0.35736222891137004,0,colour,0.5,3.9
62,21,0,1,6,36,286,538.6127059219871,539.3507932831999,"[50, 0, 204]",204,a,0.21487845154479146,1,colour,0.5,3.9
62,21,0,1,6,37,287,539.8627043466549,540.5588546663057,"[35, 0, 219]",219,a,0.17293353308923542,1,colour,0.5,3.9
62,21,0,1,6,38,288,541.0659411249217,541.7828659964725,"[4, 0, 250]",250,a,0.19375416496768594,1,colour,0.5,3.9
62,21,0,1,6,39,289,542.300179829821,542.9267790385056,"[28, 0, 226]",226,a,0.10316620115190744,1,colour,0.5,3.9
62,21,0,1,6,40,290,543.4408054451924,545.0467569201719,"[48, 0, 206]",206,a,1.0825980240479112,1,colour,0.5,3.9
62,21,0,1,6,41,291,545.5658485712484,546.2067290043924,"[7, 0, 247]",247,a,0.11748287151567638,1,colour,0.5,3.9
62,21,0,1,6,42,292,546.7220421035308,547.5188907899428,"[13, 0, 241]",241,a,0.2735208352096379,1,colour,0.5,3.9
62,21,0,1,6,43,293,548.0345524421427,549.0627620054875,"[62, 0, 192]",192,l,0.5050668197218329,1,colour,0.5,3.9
62,21,0,1,6,44,294,549.5814318482298,550.3108164097648,"[15, 0, 239]",239,a,0.2060641935095191,1,colour,0.5,3.9
62,21,0,1,6,45,295,550.8313641068526,551.6227667001076,"[90, 0, 164]",164,l,0.2680259053595364,1,colour,0.5,3.9
62,21,0,1,6,46,296,552.1439106790349,552.7107454389334,"[94, 0, 160]",160,l,0.04384837276302278,1,colour,0.5,3.9
62,21,0,1,6,47,297,553.2220468297601,554.0467734618578,"[95, 0, 159]",159,l,0.30146731017157435,1,colour,0.5,3.9
62,21,0,1,6,48,298,554.5657497160137,555.3747217482887,"[83, 0, 171]",171,l,0.2856630857568234,1,colour,0.5,3.9
62,21,0,1,6,49,299,555.8938456946053,556.598747650627,"[40, 0, 214]",214,a,0.1815288127399981,1,colour,0.5,3.9
62,21,0,1,6,50,300,557.1126629929058,557.9108271223959,"[26, 0, 228]",228,a,0.27490480756387115,1,colour,0.5,3.9
62,21,0,1,7,1,301,564.518043628661,566.7426874742378,"[25, 0, 229]",229,a,1.7005286978092045,1,colour,0.5,3.9
62,21,0,1,7,2,302,567.2531499746256,568.1347199052107,"[81, 0, 173]",173,l,0.35805263998918235,1,colour,0.5,3.9
62,21,0,1,7,3,303,568.643818519311,569.4626847330946,"[44, 0, 210]",210,a,0.2955844427924603,1,colour,0.5,3.9
62,21,0,1,7,4,304,569.9718550271355,570.8067223879043,"[62, 0, 192]",192,a,0.31139969476498663,0,colour,0.5,3.9
62,21,0,1,7,5,305,571.3156744916923,572.5107279522344,"[59, 0, 195]",195,l,0.6717508158180863,1,colour,0.5,3.9
62,21,0,1,7,6,306,573.0187966607045,573.8467161967419,"[47, 0, 207]",207,a,0.3045952294487506,1,colour,0.5,3.9
62,21,0,1,7,7,307,574.3625684699509,575.1587976375595,"[79, 0, 175]",175,l,0.272981267189607,1,colour,0.5,3.9
62,21,0,1,7,8,308,575.6750516330358,576.4227102228906,"[93, 0, 161]",161,l,0.22436421550810337,1,colour,0.5,3.9
62,21,0,1,7,9,309,576.940718799131,577.7267020812724,"[3, 0, 251]",251,a,0.26270978176034987,1,colour,0.5,3.9
62,21,0,1,7,10,310,578.2375292824581,579.9907147032209,"[74, 0, 180]",180,l,1.229834333062172,1,colour,0.5,3.9
62,21,0,1,7,11,311,580.5031023193151,581.2706437953748,"[2, 0, 252]",252,a,0.24408404994755983,1,colour,0.5,3.9
62,21,0,1,7,12,312,581.7844185347203,582.5826795501634,"[71, 0, 183]",183,l,0.2757629966363311,1,colour,0.5,3.9
62,21,0,1,7,13,313,583.0969367499929,583.8626708697993,"[75, 0, 179]",179,l,0.2425929515156895,1,colour,0.5,3.9
62,21,0,1,7,14,314,584.3783541833982,585.1266811287496,"[84, 0, 170]",170,l,0.22524288459680974,1,colour,0.5,3.9
62,21,0,1,7,15,315,585.6437421131413,586.454741661204,"[70, 0, 184]",184,a,0.28767839237116277,0,colour,0.5,3.9
62,21,0,1,7,16,316,586.9719227685127,587.7347125008237,"[91, 0, 163]",163,l,0.23960721027106047,1,colour,0.5,3.9
62,21,0,1,7,17,317,588.2530526949558,589.0466801205184,"[0, 0, 254]",254,a,0.2702613715082407,1,colour,0.5,3.9
62,21,0,1,7,18,318,589.5656382578891,590.3906480646692,"[95, 0, 159]",159,l,0.301852097036317,1,colour,0.5,3.9
62,21,0,1,7,19,319,590.9093265717383,591.53468910628,"[21, 0, 233]",233,a,0.10204374184831977,1,colour,0.5,3.9
62,21,0,1,7,20,320,592.0499336763751,592.8306433698162,"[23, 0, 231]",231,a,0.25740665453486145,1,colour,0.5,3.9
62,21,0,1,7,21,321,593.3468902762979,594.3346554720774,"[57, 0, 197]",197,a,0.4645830674562603,0,colour,0.5,3.9
62,21,0,1,7,22,322,594.8469229654875,595.6386729304213,"[41, 0, 213]",213,a,0.26867338735610247,1,colour,0.5,3.9
62,21,0,1,7,23,323,596.1593253903557,596.9506444884464,"[50, 0, 204]",204,a,0.2679904594551772,1,colour,0.5,3.9
62,21,0,1,7,24,324,597.4719393099658,598.2466483765747,"[10, 0, 244]",244,a,0.25144068617373705,1,colour,0.5,3.9
62,21,0,1,7,25,325,598.7530818395317,599.4706069312524,"[97, 0, 157]",157,l,0.19413501326926053,1,colour,0.5,3.9
62,21,0,1,7,26,326,599.9875072271097,600.8306532159913,"[43, 0, 211]",211,a,0.31984413182362914,1,colour,0.5,3.9
62,21,0,1,7,27,327,601.3468067811336,602.4866435243748,"[48, 0, 206]",206,a,0.616678245831281,1,colour,0.5,3.9
62,21,0,1,7,28,328,603.0030743563548,603.7427048035897,"[73, 0, 181]",181,l,0.21622776566073298,1,colour,0.5,3.9
62,21,0,1,7,29,329,604.2531101964414,605.014760534279,"[87, 0, 167]",167,l,0.2391428668051958,1,colour,0.5,3.9
62,21,0,1,7,30,330,605.5344283808954,606.8306043792982,"[66, 0, 188]",188,a,0.7730159256607294,0,colour,0.5,3.9
62,21,0,1,7,31,331,607.3470103989821,609.246644044295,"[60, 0, 194]",194,a,1.3766003905329853,0,colour,0.5,3.9
62,21,0,1,7,32,332,609.7530341842212,610.5346394819207,"[29, 0, 225]",225,a,0.2581403886433691,1,colour,0.5,3.9
62,21,0,1,7,33,333,611.0500092946459,612.2066254231613,"[51, 0, 203]",203,a,0.6333721664268523,0,colour,0.5,3.9
62,21,0,1,7,34,334,612.7218660546932,613.5746258075815,"[16, 0, 238]",238,a,0.32941732951439917,1,colour,0.5,3.9
62,21,0,1,7,35,335,614.081212870311,615.50273761875,"[49, 0, 205]",205,a,0.8982358882203698,1,colour,0.5,3.9
62,21,0,1,7,36,336,616.0186907164752,616.9346811508294,"[5, 0, 249]",249,a,0.39276734623126686,1,colour,0.5,3.9
62,21,0,1,7,37,337,617.4561614734121,618.414629698731,"[34, 0, 220]",220,a,0.43516203574836254,1,colour,0.5,3.9
62,21,0,1,7,38,338,618.9248653443065,619.6866035095882,"[32, 0, 222]",222,a,0.23835990205407143,1,colour,0.5,3.9
62,21,0,1,7,39,339,620.2061295718886,621.0545845956076,"[58, 0, 196]",196,l,0.32508581900037825,1,colour,0.5,3.9
62,21,0,1,7,40,340,621.5655701225623,622.5266570253298,"[86, 0, 168]",168,l,0.43775629485026,1,colour,0.5,3.9
62,21,0,1,7,41,341,623.0342550887726,623.8547916007228,"[6, 0, 248]",248,a,0.2971507655456662,1,colour,0.5,3.9
62,21,0,1,7,42,342,624.3624526795465,625.126560612116,"[8, 0, 246]",246,a,0.24128538509830832,1,colour,0.5,3.9
62,21,0,1,7,43,343,625.6436282920185,626.3585803925525,"[83, 0, 171]",171,l,0.19195547350682318,1,colour,0.5,3.9
62,21,0,1,7,44,344,626.8779993287753,627.6226241281256,"[22, 0, 232]",232,a,0.22167307045310736,1,colour,0.5,3.9
62,21,0,1,7,45,345,628.1436550733633,628.9265836912673,"[40, 0, 214]",214,a,0.25959800998680294,1,colour,0.5,3.9
62,21,0,1,7,46,346,629.4405073041562,630.6546279974282,"[30, 0, 224]",224,a,0.6907991436310112,1,colour,0.5,3.9
62,21,0,1,7,47,347,631.1749433255754,631.9026189923752,"[17, 0, 237]",237,a,0.2044683324638754,1,colour,0.5,3.9
62,21,0,1,7,48,348,632.4093214517925,633.1905588980298,"[18, 0, 236]",236,a,0.25805689324624836,1,colour,0.5,3.9
62,21,0,1,7,49,349,633.7061071228236,634.5106342169456,"[55, 0, 199]",199,l,0.2812138155568391,1,colour,0.5,3.9
62,21,0,1,7,50,350,635.0186564519536,635.7425708961673,"[52, 0, 202]",202,l,0.20072798384353518,1,colour,0.5,3.9
62,21,0,1,8,1,351,651.6271407462191,652.6066040766891,"[65, 0, 189]",189,l,0.45532258274033666,1,colour,0.5,3.9
62,21,0,1,8,2,352,653.1279690028168,653.8465464492328,"[79, 0, 175]",175,l,0.19537759525701404,1,colour,0.5,3.9
62,21,0,1,8,3,353,654.3623128645122,655.1345214070752,"[55, 0, 199]",199,a,0.24909573118202388,0,colour,0.5,3.9
62,21,0,1,8,4,354,655.6434833568055,656.4225400816649,"[80, 0, 174]",174,l,0.2557245413772762,1,colour,0.5,3.9
62,21,0,1,8,5,355,656.9403422831092,657.7025065890048,"[71, 0, 183]",183,l,0.23882267042063177,1,colour,0.5,3.9
62,21,0,1,8,6,356,658.2216084799729,658.9665971924551,"[23, 0, 231]",231,a,0.22161281225271523,1,colour,0.5,3.9
62,21,0,1,8,7,357,659.4872433505952,660.2865437238943,"[28, 0, 226]",226,a,0.27608398045413196,1,colour,0.5,3.9
62,21,0,1,8,8,358,660.7996902801096,661.4625555519015,"[62, 0, 192]",192,l,0.13953545154072344,1,colour,0.5,3.9
62,21,0,1,8,9,359,661.9715998154134,662.6065012831241,"[20, 0, 234]",234,a,0.1116846811491996,1,colour,0.5,3.9
62,21,0,1,8,10,360,663.1279209535569,663.8785361400805,"[38, 0, 216]",216,a,0.22749371035024524,1,colour,0.5,3.9
62,21,0,1,8,11,361,664.393419947708,665.4465382574126,"[97, 0, 157]",157,l,0.5297463480383158,1,colour,0.5,3.9
62,21,0,1,8,12,362,665.9559736091178,666.7745007222984,"[4, 0, 250]",250,a,0.2952236805576831,1,colour,0.5,3.9
62,21,0,1,8,13,363,667.2840711630415,668.078546537552,"[27, 0, 227]",227,a,0.2710990805644542,1,colour,0.5,3.9
62,21,0,1,8,14,364,668.5965515694115,669.6784946287517,"[47, 0, 207]",207,a,0.5588802662678063,1,colour,0.5,3.9
62,21,0,1,8,15,365,670.1902879325207,670.9825046041515,"[2, 0, 252]",252,a,0.2688781868200749,1,colour,0.5,3.9
62,21,0,1,8,16,366,671.5027065048926,672.3185519252438,"[63, 0, 191]",191,l,0.29243368026800454,1,colour,0.5,3.9
62,21,0,1,8,17,367,672.830935209291,673.6465600763913,"[98, 0, 156]",156,l,0.29232694837264717,1,colour,0.5,3.9
62,21,0,1,8,18,368,674.159099716926,674.9664451680146,"[82, 0, 172]",172,l,0.28395261568948627,1,colour,0.5,3.9
62,21,0,1,8,19,369,675.4879841736984,676.0384664766025,"[85, 0, 169]",169,l,0.02802406228147447,1,colour,0.5,3.9
62,21,0,1,8,20,370,676.5497076092288,677.4224581618328,"[58, 0, 196]",196,a,0.3495101351290941,0,colour,0.5,3.9
62,21,0,1,8,21,371,677.9403123508673,679.4945298826788,"[57, 0, 197]",197,l,1.0309845975134522,1,colour,0.5,3.9
62,21,0,1,8,22,372,680.002747464925,680.8384344177321,"[48, 0, 206]",206,a,0.31229451135732234,1,colour,0.5,3.9
62,21,0,1,8,23,373,681.3465358153917,682.134463511873,"[15, 0, 239]",239,a,0.2648586016148329,1,colour,0.5,3.9
62,21,0,1,8,24,374,682.6434242799878,683.4384301642422,"[68, 0, 186]",186,l,0.27175916521809995,1,colour,0.5,3.9
62,21,0,1,8,25,375,683.9559275293723,684.806462449953,"[90, 0, 164]",164,l,0.32730474323034286,1,colour,0.5,3.9
62,21,0,1,8,26,376,685.3153247570153,686.1504414218944,"[52, 0, 202]",202,a,0.31187427835538983,0,colour,0.5,3.9
62,21,0,1,8,27,377,686.6590276432689,687.4225121187046,"[92, 0, 162]",162,l,0.24018183047883213,1,colour,0.5,3.9
62,21,0,1,8,28,378,687.9403588245623,688.7424846440554,"[21, 0, 233]",233,a,0.27886610361747444,1,colour,0.5,3.9
62,21,0,1,8,29,379,689.2527809415478,690.0624894646462,"[13, 0, 241]",241,a,0.28707265807315707,1,colour,0.5,3.9
62,21,0,1,8,30,380,690.5809151232243,691.3504470931366,"[33, 0, 221]",221,a,0.24625177425332367,1,colour,0.5,3.9
62,21,0,1,8,31,381,691.8621376033407,692.5984538421035,"[67, 0, 187]",187,l,0.21327156270854175,1,colour,0.5,3.9
62,21,0,1,8,32,382,693.1121139724273,694.150459932629,"[46, 0, 208]",208,a,0.5150830936618149,1,colour,0.5,3.9
62,21,0,1,8,33,383,694.6590871138033,695.4864725954831,"[31, 0, 223]",223,a,0.3041297043673694,1,colour,0.5,3.9
62,21,0,1,8,34,384,696.0027959079016,697.0305517616216,"[54, 0, 200]",200,a,0.5045654547866434,0,colour,0.5,3.9
62,21,0,1,8,35,385,697.5496418371331,698.5183748526033,"[14, 0, 240]",240,a,0.4454642413184047,1,colour,0.5,3.9
62,21,0,1,8,36,386,699.0339809725992,699.9746091873385,"[59, 0, 195]",195,l,0.41723656095564365,1,colour,0.5,3.9
62,21,0,1,8,37,387,700.4871204709634,701.5744477894623,"[37, 0, 217]",217,a,0.5641471594572067,1,colour,0.5,3.9
62,21,0,1,8,38,388,702.0808528955095,702.9744079322554,"[0, 0, 254]",254,a,0.37029059464111924,1,colour,0.5,3.9
62,21,0,1,8,39,389,703.4870956586674,704.3984406876843,"[66, 0, 188]",188,l,0.38817432220093906,1,colour,0.5,3.9
62,21,0,1,8,40,390,704.9089965294115,705.6944599356502,"[17, 0, 237]",237,a,0.262262373464182,1,colour,0.5,3.9
62,21,0,1,8,41,391,706.2058696339373,707.0945327184163,"[7, 0, 247]",247,a,0.36532066110521555,1,colour,0.5,3.9
62,21,0,1,8,42,392,707.612085221801,708.3984458076302,"[32, 0, 222]",222,a,0.2631599467713386,1,colour,0.5,3.9
62,21,0,1,8,43,393,708.9090170094278,709.6863979224581,"[76, 0, 178]",178,l,0.25456584873609245,1,colour,0.5,3.9
62,21,0,1,8,44,394,710.2057940156665,711.5984436022118,"[84, 0, 170]",170,l,0.8693272492382675,1,colour,0.5,3.9
62,21,0,1,8,45,395,712.1120655294508,712.9344231821597,"[77, 0, 177]",177,l,0.29912550607696176,1,colour,0.5,3.9
62,21,0,1,8,46,396,713.4557719603181,714.3344242847525,"[36, 0, 218]",218,a,0.3552972979377955,1,colour,0.5,3.9
62,21,0,1,8,47,397,714.8463944250252,715.7664012936875,"[6, 0, 248]",248,a,0.3969314724672586,1,colour,0.5,3.9
62,21,0,1,8,48,398,716.2839215018321,717.1664149994031,"[69, 0, 185]",185,l,0.35908884671516716,1,colour,0.5,3.9
62,21,0,1,8,49,399,717.6745057634544,718.454416738823,"[26, 0, 228]",228,a,0.25689583737403154,1,colour,0.5,3.9
62,21,0,1,8,50,400,718.9714253419079,719.7583983570803,"[10, 0, 244]",244,a,0.26374835171736777,1,colour,0.5,3.9
62,21,0,1,9,1,401,743.0173516424838,743.8863421538845,"[68, 0, 186]",186,l,0.3449360157828778,1,colour,0.5,3.9
62,21,0,1,9,2,402,744.3931860036682,745.1983097735792,"[98, 0, 156]",156,l,0.2818191556725651,1,colour,0.5,3.9
62,21,0,1,9,3,403,745.705659320578,746.4544005910866,"[89, 0, 165]",165,l,0.22547407168895006,1,colour,0.5,3.9
62,21,0,1,9,4,404,746.9712780436967,747.7743329443038,"[30, 0, 224]",224,a,0.27983378153294325,1,colour,0.5,3.9
62,21,0,1,9,5,405,748.2837446653284,749.134392225882,"[9, 0, 245]",245,a,0.32727284193970263,1,colour,0.5,3.9
62,21,0,1,9,6,406,749.6431832467206,750.7023585031275,"[3, 0, 251]",251,a,0.5366378528997302,1,colour,0.5,3.9
62,21,0,1,9,7,407,751.2212378715631,752.4063498890027,"[81, 0, 173]",173,l,0.6618495448492467,1,colour,0.5,3.9
62,21,0,1,9,8,408,752.9243702806998,754.1183288514148,"[56, 0, 198]",198,l,0.6707185471896082,1,colour,0.5,3.9
62,21,0,1,9,9,409,754.6275491637643,755.4223250420764,"[49, 0, 205]",205,a,0.2716236824635416,1,colour,0.5,3.9
62,21,0,1,9,10,410,755.939981126925,756.7823595113587,"[58, 0, 196]",196,a,0.319122213171795,0,colour,0.5,3.9
62,21,0,1,9,11,411,757.2993401514832,758.0863438867964,"[40, 0, 214]",214,a,0.2637148748617619,1,colour,0.5,3.9
62,21,0,1,9,12,412,758.5961707208771,759.3502930996474,"[20, 0, 234]",234,a,0.231038318015635,1,colour,0.5,3.9
62,21,0,1,9,13,413,759.861806773115,760.630257243989,"[47, 0, 207]",207,a,0.24519745050929487,1,colour,0.5,3.9
62,21,0,1,9,14,414,761.143032010179,762.0063771430869,"[96, 0, 158]",158,l,0.3399920759256929,1,colour,0.5,3.9
62,21,0,1,9,15,415,762.5180967976339,763.3022648468614,"[92, 0, 162]",162,l,0.2608520134817809,1,colour,0.5,3.9
62,21,0,1,9,16,416,763.8149502100423,764.5902807645034,"[54, 0, 200]",200,a,0.2521338539663702,0,colour,0.5,3.9
62,21,0,1,9,17,417,765.0962116809096,765.8942966475151,"[38, 0, 216]",216,a,0.2750245367642492,1,colour,0.5,3.9
62,21,0,1,9,18,418,766.4086641240865,767.1822700297926,"[24, 0, 230]",230,a,0.25027175317518413,1,colour,0.5,3.9
62,21,0,1,9,19,419,767.6899082656018,768.4703213935718,"[45, 0, 209]",209,a,0.25711008929647505,1,colour,0.5,3.9
62,21,0,1,9,20,420,768.9868116963189,769.7503075932618,"[31, 0, 223]",223,a,0.24026493192650378,1,colour,0.5,3.9
62,21,0,1,9,21,421,770.2680452039931,771.1422565288376,"[41, 0, 213]",213,a,0.35090355994179845,1,colour,0.5,3.9
62,21,0,1,9,22,422,771.658631434897,772.4062801783439,"[7, 0, 247]",247,a,0.22437603073194623,1,colour,0.5,3.9
62,21,0,1,9,23,423,772.9242663055193,773.7343178677838,"[77, 0, 177]",177,l,0.28684265236370265,1,colour,0.5,3.9
62,21,0,1,9,24,424,774.2523162041325,775.054290787084,"[15, 0, 239]",239,a,0.27861955645494163,1,colour,0.5,3.9
62,21,0,1,9,25,425,775.5648919208907,776.3422519601882,"[0, 0, 254]",254,a,0.2540467604994774,1,colour,0.5,3.9
62,21,0,1,9,26,426,776.8617701455951,777.6462702061981,"[25, 0, 229]",229,a,0.2612994215451181,1,colour,0.5,3.9
62,21,0,1,9,27,427,778.158638917841,778.9422284082975,"[12, 0, 242]",242,a,0.26036797766573727,1,colour,0.5,3.9
62,21,0,1,9,28,428,779.4554427056573,780.7262920881622,"[78, 0, 176]",176,l,0.7475672175642103,1,colour,0.5,3.9
62,21,0,1,9,29,429,781.2368061824236,782.1982640875503,"[53, 0, 201]",201,l,0.43837817665189505,1,colour,0.5,3.9
62,21,0,1,9,30,430,782.7054655486718,783.5582438122947,"[62, 0, 192]",192,l,0.3294744370505214,1,colour,0.5,3.9
62,21,0,1,9,31,431,784.0647847950459,784.9182853708044,"[32, 0, 222]",222,a,0.330173512455076,1,colour,0.5,3.9
62,21,0,1,9,32,432,785.4242190441582,786.2542204463389,"[76, 0, 178]",178,l,0.30668812338262796,1,colour,0.5,3.9
62,21,0,1,9,33,433,786.7680026686285,787.6062299236655,"[55, 0, 199]",199,l,0.31503882515244186,1,colour,0.5,3.9
62,21,0,1,9,34,434,788.1280395011418,790.2141963113099,"[16, 0, 238]",238,a,1.5635945943649858,1,colour,0.5,3.9
62,21,0,1,9,35,435,790.7210507949349,791.934204991674,"[90, 0, 164]",164,l,0.6898558840621263,1,colour,0.5,3.9
62,21,0,1,9,36,436,792.4553785088938,793.270249950001,"[80, 0, 174]",174,l,0.2915613129734993,1,colour,0.5,3.9
62,21,0,1,9,37,437,793.7835690104403,794.566223511938,"[70, 0, 184]",184,l,0.26005802140571177,1,colour,0.5,3.9
62,21,0,1,9,38,438,795.0803759489208,795.8542591219302,"[88, 0, 166]",166,l,0.25069198617711663,1,colour,0.5,3.9
62,21,0,1,9,39,439,796.3617122503929,797.2461958483327,"[74, 0, 180]",180,l,0.3612888667266816,1,colour,0.5,3.9
62,21,0,1,9,40,440,797.7522138045169,799.3582212056499,"[29, 0, 225]",225,a,1.0826090518385172,1,colour,0.5,3.9
62,21,0,1,9,41,441,799.8772132135928,800.7741793445311,"[42, 0, 212]",212,a,0.3741979340557009,1,colour,0.5,3.9
62,21,0,1,9,42,442,801.283555225702,802.1022264861967,"[87, 0, 167]",167,l,0.2953902769368142,1,colour,0.5,3.9
62,21,0,1,9,43,443,802.61155471229,803.3742511032615,"[22, 0, 232]",232,a,0.23937169089913368,1,colour,0.5,3.9
62,21,0,1,9,44,444,803.892855567392,804.6783201552462,"[11, 0, 243]",243,a,0.2621261030435562,1,colour,0.5,3.9
62,21,0,1,9,45,445,805.1897204013076,806.0541749964468,"[43, 0, 211]",211,a,0.34114998090080917,1,colour,0.5,3.9
62,21,0,1,9,46,446,806.5647284751758,807.3581952117383,"[66, 0, 188]",188,l,0.2702428607735783,1,colour,0.5,3.9
62,21,0,1,9,47,447,807.87724865973,808.7901911253575,"[86, 0, 168]",168,l,0.39014473045244813,1,colour,0.5,3.9
62,21,0,1,9,48,448,809.2991077827755,810.3502285089344,"[94, 0, 160]",160,l,0.5278834595810622,1,colour,0.5,3.9
62,21,0,1,9,49,449,810.8615909458604,811.7741730429698,"[95, 0, 159]",159,l,0.3893148982897401,1,colour,0.5,3.9
62,21,0,1,9,50,450,812.2834693675395,813.1501818776596,"[26, 0, 228]",228,a,0.3434583081398159,1,colour,0.5,3.9
62,21,0,1,10,1,451,828.0638277509715,829.014196941629,"[25, 0, 229]",229,a,0.4262717659585178,1,colour,0.5,3.9
62,21,0,1,10,2,452,829.5334445552435,830.8861397174187,"[33, 0, 221]",221,a,0.829456320265308,1,colour,0.5,3.9
62,21,0,1,10,3,453,831.3926944846753,832.3182407876011,"[20, 0, 234]",234,a,0.40228146710433066,1,colour,0.5,3.9
62,21,0,1,10,4,454,832.8303259306122,833.6461536281276,"[58, 0, 196]",196,l,0.292765298159793,1,colour,0.5,3.9
62,21,0,1,10,5,455,834.1583801615052,834.9501490311231,"[64, 0, 190]",190,l,0.26854105526581407,1,colour,0.5,3.9
62,21,0,1,10,6,456,835.4708877431694,836.262124133762,"[34, 0, 220]",220,a,0.2680302378721535,1,colour,0.5,3.9
62,21,0,1,10,7,457,836.7833366417326,837.5901346479077,"[8, 0, 246]",246,a,0.2840959755703807,1,colour,0.5,3.9
62,21,0,1,10,8,458,838.1115322629921,839.2460930545349,"[41, 0, 213]",213,l,0.6113503063097596,0,colour,0.5,3.9
62,21,0,1,10,9,459,839.7520901369862,840.646142600337,"[87, 0, 167]",167,l,0.3707139785401523,1,colour,0.5,3.9
62,21,0,1,10,10,460,841.1583069062326,842.0861256965436,"[46, 0, 208]",208,a,0.40457522217184305,1,colour,0.5,3.9
62,21,0,1,10,11,461,842.5957961741369,843.4222061007749,"[45, 0, 209]",209,a,0.3032715152949095,1,colour,0.5,3.9
62,21,0,1,10,12,462,843.9396491153166,844.8221260714345,"[40, 0, 214]",214,a,0.3592436278704554,1,colour,0.5,3.9
62,21,0,1,10,13,463,845.3301821770146,846.1581907218788,"[69, 0, 185]",185,l,0.3051816651131958,1,colour,0.5,3.9
62,21,0,1,10,14,464,846.6741142813116,847.48617839301,"[71, 0, 183]",183,l,0.2881285573821515,1,colour,0.5,3.9
62,21,0,1,10,15,465,848.0020956508815,848.7902470512781,"[76, 0, 178]",178,l,0.2639287328347564,1,colour,0.5,3.9
62,21,0,1,10,16,466,849.2989561525173,850.1421108059585,"[78, 0, 176]",176,l,0.3200957989320159,1,colour,0.5,3.9
62,21,0,1,10,17,467,850.658275004942,851.5021180999465,"[15, 0, 239]",239,a,0.32062630844302475,1,colour,0.5,3.9
62,21,0,1,10,18,468,852.0176521462854,852.8140837503597,"[85, 0, 169]",169,l,0.2730943006463349,1,colour,0.5,3.9
62,21,0,1,10,19,469,853.3301624848973,854.2220873958431,"[54, 0, 200]",200,a,0.3689137117471546,0,colour,0.5,3.9
62,21,0,1,10,20,470,854.736454478465,855.9181912417989,"[62, 0, 192]",192,l,0.6585345489438623,1,colour,0.5,3.9
62,21,0,1,10,21,471,856.4394919711631,857.2861597246956,"[50, 0, 204]",204,a,0.3234178840648383,1,colour,0.5,3.9
62,21,0,1,10,22,472,857.7988293343224,858.5180971915834,"[88, 0, 166]",166,l,0.19603610457852483,1,colour,0.5,3.9
62,21,0,1,10,23,473,859.0331527157687,859.8300738695543,"[31, 0, 223]",223,a,0.2736055119894445,1,colour,0.5,3.9
62,21,0,1,10,24,474,860.3456547835376,861.3020817087963,"[27, 0, 227]",227,a,0.43307032343000174,1,colour,0.5,3.9
62,21,0,1,10,25,475,861.8144311220385,862.5981281320564,"[98, 0, 156]",156,l,0.26023722090758383,1,colour,0.5,3.9
62,21,0,1,10,26,476,863.1113310081419,863.9100575486664,"[2, 0, 252]",252,a,0.27545304014347494,1,colour,0.5,3.9
62,21,0,1,10,27,477,864.4239346878603,865.6461205449887,"[19, 0, 235]",235,a,0.6990887995343655,1,colour,0.5,3.9
62,21,0,1,10,28,478,866.158265946433,866.9901869504247,"[63, 0, 191]",191,l,0.3086612883489579,1,colour,0.5,3.9
62,21,0,1,10,29,479,867.502054690849,868.2540731481276,"[24, 0, 230]",230,a,0.22884420584887266,1,colour,0.5,3.9
62,21,0,1,10,30,480,868.7675962203648,869.6061495793983,"[61, 0, 193]",193,l,0.31523141567595303,1,colour,0.5,3.9
62,21,0,1,10,31,481,870.126932795858,870.9820851588156,"[38, 0, 216]",216,a,0.3318843764718622,1,colour,0.5,3.9
62,21,0,1,10,32,482,871.5019349618815,872.2300631569233,"[14, 0, 240]",240,a,0.2048424854874611,1,colour,0.5,3.9
62,21,0,1,10,33,483,872.7362492850516,873.4460664307699,"[0, 0, 254]",254,a,0.18649874697439373,1,colour,0.5,3.9
62,21,0,1,10,34,484,873.9550374390092,874.7340520222206,"[6, 0, 248]",248,a,0.25571942143142223,1,colour,0.5,3.9
62,21,0,1,10,35,485,875.2519310235512,876.1020067206118,"[65, 0, 189]",189,l,0.3267785659991205,1,colour,0.5,3.9
62,21,0,1,10,36,486,876.6112833528314,877.414066106081,"[74, 0, 180]",180,l,0.2795584835112095,1,colour,0.5,3.9
62,21,0,1,10,37,487,877.9237448545173,878.7181052260567,"[97, 0, 157]",157,l,0.2711424035951495,1,colour,0.5,3.9
62,21,0,1,10,38,488,879.2362083252519,880.0380344283767,"[53, 0, 201]",201,a,0.27843838767148554,0,colour,0.5,3.9
62,21,0,1,10,39,489,880.5487769527826,881.3500004725065,"[32, 0, 222]",222,a,0.27796419779770076,1,colour,0.5,3.9
62,21,0,1,10,40,490,881.8612640544306,882.6140079745091,"[55, 0, 199]",199,l,0.2294664813671261,1,colour,0.5,3.9
62,21,0,1,10,41,491,883.1268154298887,883.8540771652479,"[4, 0, 250]",250,a,0.20399296120740473,1,colour,0.5,3.9
62,21,0,1,10,42,492,884.3612857158296,886.0220206785016,"[51, 0, 203]",203,l,1.137488637585193,1,colour,0.5,3.9
62,21,0,1,10,43,493,886.5331121499185,887.350041432539,"[11, 0, 243]",243,a,0.29360537021420896,1,colour,0.5,3.9
62,21,0,1,10,44,494,887.8611844975967,888.5899932573084,"[68, 0, 186]",186,l,0.20555337611585855,1,colour,0.5,3.9
62,21,0,1,10,45,495,889.1112868974451,889.8620615911204,"[96, 0, 158]",158,l,0.22786707570776343,1,colour,0.5,3.9
62,21,0,1,10,46,496,890.376852451358,891.1820010333322,"[59, 0, 195]",195,l,0.28184908791445196,1,colour,0.5,3.9
62,21,0,1,10,47,497,891.6893423099536,892.4940438775811,"[43, 0, 211]",211,a,0.2814769041724503,1,colour,0.5,3.9
62,21,0,1,10,48,498,893.0018227160908,893.822000434855,"[39, 0, 215]",215,a,0.2968396279029548,1,colour,0.5,3.9
62,21,0,1,10,49,499,894.3300167620182,895.3500449771527,"[13, 0, 241]",241,a,0.4969815695658326,1,colour,0.5,3.9
62,21,0,1,10,50,500,895.861180952983,896.6060416656546,"[84, 0, 170]",170,l,0.22158012306317687,1,colour,0.5,3.9
62,21,0,1,11,1,501,909.4227905671578,910.7099731082562,"[50, 0, 204]",204,l,0.7630654240492731,0,colour,0.5,3.9
62,21,0,1,11,2,502,911.2205246177036,912.2221744356211,"[6, 0, 248]",248,a,0.47845902503468096,1,colour,0.5,3.9
62,21,0,1,11,3,503,912.7360370026436,913.4939391147345,"[38, 0, 216]",216,l,0.23450139979831874,0,colour,0.5,3.9
62,21,0,1,11,4,504,914.0017707285006,915.2299587880261,"[82, 0, 172]",172,l,0.7049980543088168,1,colour,0.5,3.9
62,21,0,1,11,5,505,915.7360728424974,916.9419924949761,"[47, 0, 207]",207,l,0.6825512354262173,0,colour,0.5,3.9
62,21,0,1,11,6,506,917.4548338209279,918.3419829637278,"[57, 0, 197]",197,l,0.3637992364820093,1,colour,0.5,3.9
62,21,0,1,11,7,507,918.861101396149,919.6459783669561,"[64, 0, 190]",190,l,0.26195359881967306,1,colour,0.5,3.9
62,21,0,1,11,8,508,920.1580067961477,920.829949808307,"[89, 0, 165]",165,l,0.14869550545699894,1,colour,0.5,3.9
62,21,0,1,11,9,509,921.3454503777903,922.0780254802667,"[14, 0, 240]",240,a,0.2094043956603855,1,colour,0.5,3.9
62,21,0,1,11,10,510,922.5954523470718,923.237939669285,"[95, 0, 159]",159,l,0.11933040013536811,1,colour,0.5,3.9
62,21,0,1,11,11,511,923.7517014117911,924.4939292685594,"[94, 0, 160]",160,l,0.21896144561469555,1,colour,0.5,3.9
62,21,0,1,11,12,512,925.0017167716287,925.7819873276167,"[24, 0, 230]",230,a,0.25719949207268655,1,colour,0.5,3.9
62,21,0,1,11,13,513,926.298552854918,927.6379328949843,"[46, 0, 208]",208,a,0.8160793643910438,1,colour,0.5,3.9
62,21,0,1,11,14,514,928.1578669811133,929.0059529717546,"[15, 0, 239]",239,a,0.3247400226537138,1,colour,0.5,3.9
62,21,0,1,11,15,515,929.5172622394748,930.3499205219559,"[27, 0, 227]",227,a,0.30932885594666004,1,colour,0.5,3.9
62,21,0,1,11,16,516,930.8610328671057,931.6059562012088,"[33, 0, 221]",221,a,0.22168212896212935,1,colour,0.5,3.9
62,21,0,1,11,17,517,932.1266169319861,932.9419271165971,"[0, 0, 254]",254,a,0.2920000567100942,1,colour,0.5,3.9
62,21,0,1,11,18,518,933.4547353596427,934.2859336575493,"[12, 0, 242]",242,a,0.30791692063212395,1,colour,0.5,3.9
62,21,0,1,11,19,519,934.7985335565172,935.6219254466705,"[68, 0, 186]",186,l,0.3001782544888556,1,colour,0.5,3.9
62,21,0,1,11,20,520,936.1421998150181,936.9899782123975,"[86, 0, 168]",168,l,0.3244489710777998,1,colour,0.5,3.9
62,21,0,1,11,21,521,937.5016490302514,938.3179639142472,"[53, 0, 201]",201,a,0.29300318052992225,0,colour,0.5,3.9
62,21,0,1,11,22,522,938.8297339810524,939.6459074746817,"[77, 0, 177]",177,l,0.2931957710534334,1,colour,0.5,3.9
62,21,0,1,11,23,523,940.1578346858732,940.9738754534628,"[26, 0, 228]",228,a,0.29277475038543344,1,colour,0.5,3.9
62,21,0,1,11,24,524,941.4858889167663,942.5418909615837,"[58, 0, 196]",196,a,0.5326316584832966,0,colour,0.5,3.9
62,21,0,1,11,25,525,943.0484402151778,944.1419327878393,"[81, 0, 173]",173,l,0.570154087850824,1,colour,0.5,3.9
62,21,0,1,11,26,526,944.6578555596061,945.5819107641,"[29, 0, 225]",225,a,0.4008415685966611,1,colour,0.5,3.9
62,21,0,1,11,27,527,946.0953133197036,947.4938820071984,"[41, 0, 213]",213,a,0.8753452054224908,1,colour,0.5,3.9
62,21,0,1,11,28,528,948.0017057440709,948.7978900130838,"[75, 0, 179]",179,l,0.272955666994676,1,colour,0.5,3.9
62,21,0,1,11,29,529,949.314048698172,950.181936442852,"[91, 0, 163]",163,l,0.34451223840005696,1,colour,0.5,3.9
62,21,0,1,11,30,530,950.6890591350384,951.4379232851788,"[52, 0, 202]",202,a,0.2256450003478676,0,colour,0.5,3.9
62,21,0,1,11,31,531,951.9546585597564,952.7898921966553,"[4, 0, 250]",250,a,0.311844346113503,1,colour,0.5,3.9
62,21,0,1,11,32,532,953.2984461227898,954.1419193972833,"[78, 0, 176]",176,l,0.3202600325457752,1,colour,0.5,3.9
62,21,0,1,11,33,533,954.6578019966837,955.5819355763961,"[18, 0, 236]",236,a,0.4008321163710207,1,colour,0.5,3.9
62,21,0,1,11,34,534,956.0952420337126,957.1258623243775,"[66, 0, 188]",188,l,0.507420833222568,1,colour,0.5,3.9
62,21,0,1,11,35,535,957.6420403076336,958.3978830026463,"[13, 0, 241]",241,a,0.23263102839700878,1,colour,0.5,3.9
62,21,0,1,11,36,536,958.9077283474617,959.997887413716,"[62, 0, 192]",192,l,0.5668245197739452,1,colour,0.5,3.9
62,21,0,1,11,37,537,960.51717913826,961.2698541353457,"[16, 0, 238]",238,a,0.2294727829284966,1,colour,0.5,3.9
62,21,0,1,11,38,538,961.7826986121945,962.5738140924368,"[2, 0, 252]",252,a,0.26849143067374825,1,colour,0.5,3.9
62,21,0,1,11,39,539,963.0953145013191,963.8378554650117,"[5, 0, 249]",249,a,0.21942933392710984,1,colour,0.5,3.9
62,21,0,1,11,40,540,964.345240064431,965.6778258793056,"[8, 0, 246]",246,a,0.8093599698040634,1,colour,0.5,3.9
62,21,0,1,11,41,541,966.1889472829644,967.3658992196433,"[80, 0, 174]",174,l,0.6536886761896312,1,colour,0.5,3.9
62,21,0,1,11,42,542,967.8764349753037,968.8698963555507,"[85, 0, 169]",169,l,0.470612051198259,1,colour,0.5,3.9
62,21,0,1,11,43,543,969.3764586059842,970.1098418789916,"[79, 0, 175]",175,l,0.2100786587689072,1,colour,0.5,3.9
62,21,0,1,11,44,544,970.6264546676539,971.4698696529958,"[25, 0, 229]",229,a,0.3201143096666783,1,colour,0.5,3.9
62,21,0,1,11,45,545,971.9857987260912,972.9658603076823,"[35, 0, 219]",219,a,0.4567742967046797,1,colour,0.5,3.9
62,21,0,1,11,46,546,973.4857731261291,974.2858107779175,"[97, 0, 157]",157,l,0.27671570843085647,1,colour,0.5,3.9
62,21,0,1,11,47,547,974.7983748367988,975.5178782136645,"[17, 0, 237]",237,a,0.19629367953166366,1,colour,0.5,3.9
62,21,0,1,11,48,548,976.0326710431837,976.805883103516,"[84, 0, 170]",170,l,0.24997558165341616,1,colour,0.5,3.9
62,21,0,1,11,49,549,977.3139262122568,978.3738025133498,"[60, 0, 194]",194,l,0.5365819269791245,1,colour,0.5,3.9
62,21,0,1,11,50,550,978.8920592123177,979.629829528043,"[11, 0, 243]",243,a,0.21447082166559994,1,colour,0.5,3.9
62,21,0,1,12,1,551,1001.7973437497858,1002.5977709144354,"[56, 0, 198]",198,l,0.276384090539068,1,colour,0.5,3.9
62,21,0,1,12,2,552,1003.1107457538601,1003.8777968923096,"[81, 0, 173]",173,l,0.2438623148482293,1,colour,0.5,3.9
62,21,0,1,12,3,553,1004.391952874139,1005.2698021477554,"[43, 0, 211]",211,a,0.35450094286352396,1,colour,0.5,3.9
62,21,0,1,12,4,554,1005.7825217756908,1006.5737703756895,"[69, 0, 185]",185,l,0.26857847068458796,1,colour,0.5,3.9
62,21,0,1,12,5,555,1007.0950525940862,1007.8857659581117,"[45, 0, 209]",209,a,0.26750287879258394,1,colour,0.5,3.9
62,21,0,1,12,6,556,1008.3919465725776,1009.2057822004426,"[40, 0, 214]",214,a,0.2906393213197589,1,colour,0.5,3.9
62,21,0,1,12,7,557,1009.7200720894616,1011.0537535820622,"[73, 0, 181]",181,l,0.810500152176246,1,colour,0.5,3.9
62,21,0,1,12,8,558,1011.563795061782,1012.4217803541105,"[9, 0, 245]",245,a,0.3347649611532688,1,colour,0.5,3.9
62,21,0,1,12,9,559,1012.9387255480979,1013.8137466188055,"[72, 0, 182]",182,l,0.3516613182146102,1,colour,0.5,3.9
62,21,0,1,12,10,560,1014.3294224494603,1015.2457547415979,"[88, 0, 166]",166,l,0.39337701885960996,1,colour,0.5,3.9
62,21,0,1,12,11,561,1015.7669318034314,1016.549734784523,"[26, 0, 228]",228,a,0.2595046686474234,1,colour,0.5,3.9
62,21,0,1,12,12,562,1017.063755283365,1017.8617248532828,"[7, 0, 247]",247,a,0.2746799218002707,1,colour,0.5,3.9
62,21,0,1,12,13,563,1018.3762360834517,1018.9177647074685,"[82, 0, 172]",172,l,0.018216132884845138,1,colour,0.5,3.9
62,21,0,1,12,14,564,1019.4386944342405,1021.4138766664546,"[94, 0, 160]",160,l,1.4519032179377973,1,colour,0.5,3.9
62,21,0,1,12,15,565,1021.9230776804034,1022.7337653029244,"[28, 0, 226]",226,a,0.28745823283679783,1,colour,0.5,3.9
62,21,0,1,12,16,566,1023.2511996526737,1024.3497744053602,"[51, 0, 203]",203,l,0.5753197630401701,1,colour,0.5,3.9
62,21,0,1,12,17,567,1024.8605421360116,1025.6857409884688,"[60, 0, 194]",194,l,0.3018607615958899,1,colour,0.5,3.9
62,21,0,1,12,18,568,1026.2043092190288,1028.9657189173158,"[99, 0, 155]",155,l,2.2381192627362907,1,colour,0.5,3.9
62,21,0,1,12,19,569,1029.485512006795,1031.1897298535332,"[30, 0, 224]",224,a,1.1808927527163178,1,colour,0.5,3.9
62,21,0,1,12,20,570,1031.7042824374512,1032.7976946658455,"[50, 0, 204]",204,l,0.5700540512334555,0,colour,0.5,3.9
62,21,0,1,12,21,571,1033.3136351606809,1034.1337112672627,"[17, 0, 237]",237,a,0.29672344331629574,1,colour,0.5,3.9
62,21,0,1,12,22,572,1034.6417850959115,1035.4697424408514,"[96, 0, 158]",158,l,0.3047488289885223,1,colour,0.5,3.9
62,21,0,1,12,23,573,1035.985456474591,1036.8216948108748,"[44, 0, 210]",210,l,0.3128813407383859,0,colour,0.5,3.9
62,21,0,1,12,24,574,1037.329244431341,1038.2617153222673,"[79, 0, 175]",175,l,0.4093541409820318,1,colour,0.5,3.9
62,21,0,1,12,25,575,1038.7823725084309,1039.5898270546459,"[98, 0, 156]",156,l,0.2848651553504169,1,colour,0.5,3.9
62,21,0,1,12,26,576,1040.1104617915116,1040.9977385401726,"[12, 0, 242]",242,a,0.3638728854712099,1,colour,0.5,3.9
62,21,0,1,12,27,577,1041.5167600868735,1042.8536793815438,"[41, 0, 213]",213,a,0.8137131419498473,1,colour,0.5,3.9
62,21,0,1,12,28,578,1043.3604724253528,1044.3017835677601,"[15, 0, 239]",239,a,0.41801676829345524,1,colour,0.5,3.9
62,21,0,1,12,29,579,1044.8136398866773,1045.6776545566972,"[33, 0, 221]",221,a,0.3408861046191305,1,colour,0.5,3.9
62,21,0,1,12,30,580,1046.1884561579209,1046.9656767759006,"[35, 0, 219]",219,a,0.2537895794957876,1,colour,0.5,3.9
62,21,0,1,12,31,581,1047.4854013363365,1048.2857095594518,"[91, 0, 163]",163,l,0.2769445322919637,1,colour,0.5,3.9
62,21,0,1,12,32,582,1048.7979861113708,1049.8856682844926,"[68, 0, 186]",186,l,0.5644118234049529,1,colour,0.5,3.9
62,21,0,1,12,33,583,1050.391684271628,1051.173705469817,"[89, 0, 165]",165,l,0.259484582580626,1,colour,0.5,3.9
62,21,0,1,12,34,584,1051.688562102383,1052.4457068499178,"[38, 0, 216]",216,a,0.23386494582518935,1,colour,0.5,3.9
62,21,0,1,12,35,585,1052.9542103637941,1053.7577366970945,"[5, 0, 249]",249,a,0.28011616854928434,1,colour,0.5,3.9
62,21,0,1,12,36,586,1054.2666758038104,1055.2457326862495,"[90, 0, 164]",164,l,0.45574124064296484,1,colour,0.5,3.9
62,21,0,1,12,37,587,1055.7666502038483,1056.5496245077811,"[13, 0, 241]",241,a,0.25956610846333206,1,colour,0.5,3.9
62,21,0,1,12,38,588,1057.0635063732043,1058.133706934983,"[46, 0, 208]",208,a,0.5469057937152684,1,colour,0.5,3.9
62,21,0,1,12,39,589,1058.6416570963338,1059.5496438064147,"[57, 0, 197]",197,l,0.3846738252323121,1,colour,0.5,3.9
62,21,0,1,12,40,590,1060.0635430007242,1061.085654657567,"[22, 0, 232]",232,a,0.49886848242022097,1,colour,0.5,3.9
62,21,0,1,12,41,591,1061.594803289976,1062.357619409915,"[70, 0, 184]",184,l,0.23959893942810595,1,colour,0.5,3.9
62,21,0,1,12,42,592,1062.8760371915996,1063.7097277427092,"[74, 0, 180]",180,l,0.3105852226726711,1,colour,0.5,3.9
62,21,0,1,12,43,593,1064.2198141207919,1065.1256917892024,"[24, 0, 230]",230,a,0.38267624168656766,1,colour,0.5,3.9
62,21,0,1,12,44,594,1065.6416311024223,1066.7496018223464,"[42, 0, 212]",212,a,0.5846932812128216,1,colour,0.5,3.9
62,21,0,1,12,45,595,1067.2666549300775,1067.8616204843856,"[86, 0, 168]",168,l,0.07171253394335508,1,colour,0.5,3.9
62,21,0,1,12,46,596,1068.3759497578721,1069.181643028045,"[67, 0, 187]",187,l,0.28235951135866344,1,colour,0.5,3.9
62,21,0,1,12,47,597,1069.6884679733776,1070.35763358837,"[62, 0, 192]",192,l,0.14588148100301623,1,colour,0.5,3.9
62,21,0,1,12,48,598,1070.8760249824263,1071.5576238997746,"[21, 0, 233]",233,a,0.1586271026171744,1,colour,0.5,3.9
62,21,0,1,12,49,599,1072.0634921947494,1072.613655876834,"[23, 0, 231]",231,a,0.026931141735985875,1,colour,0.5,3.9
62,21,0,1,12,50,600,1073.1259836286772,1073.885597392451,"[20, 0, 234]",234,a,0.2364048541057855,1,colour,0.5,3.9
62,21,0,1,13,1,601,1092.8125607506372,1093.925596714951,"[52, 0, 202]",202,l,0.5890956837683916,1,colour,0.5,3.8
62,21,0,1,13,2,602,1094.4383529704064,1095.2855851044878,"[73, 0, 181]",181,l,0.32398580899462104,1,colour,0.5,3.8
62,21,0,1,13,3,603,1095.7978108501993,1096.5655807564035,"[39, 0, 215]",215,a,0.24455469497479498,1,colour,0.5,3.8
62,21,0,1,13,4,604,1097.0789388073608,1097.8855674602091,"[88, 0, 166]",166,l,0.28334845695644617,1,colour,0.5,3.8
62,21,0,1,13,5,605,1098.4071123735048,1099.1255385833792,"[97, 0, 157]",157,l,0.19514443865045905,1,colour,0.5,3.8
62,21,0,1,13,6,606,1099.6414857734926,1101.4215499544516,"[85, 0, 169]",169,l,1.2570943352766335,1,colour,0.5,3.8
62,21,0,1,13,7,607,1101.938299407484,1102.7097198658157,"[22, 0, 232]",232,a,0.24808433651924133,1,colour,0.5,3.8
62,21,0,1,13,8,608,1103.2195258259308,1103.9895386812277,"[45, 0, 209]",209,a,0.24663419811986387,1,colour,0.5,3.8
62,21,0,1,13,9,609,1104.5008377090562,1107.4056023706216,"[28, 0, 226]",226,a,2.381504945922643,1,colour,0.5,3.8
62,21,0,1,13,10,610,1107.9227236134466,1108.6537997405976,"[77, 0, 177]",177,l,0.2078136543277651,1,colour,0.5,3.8
62,21,0,1,13,11,611,1109.1727114042733,1111.293523450382,"[44, 0, 210]",210,l,1.597558237845078,0,colour,0.5,3.8
62,21,0,1,13,12,612,1111.81330590602,1112.581560241757,"[67, 0, 187]",187,l,0.2450804782565683,1,colour,0.5,3.8
62,21,0,1,13,13,613,1113.0945138137322,1113.909584540408,"[72, 0, 182]",182,l,0.2917542972136289,1,colour,0.5,3.8
62,21,0,1,13,14,614,1114.4226952567697,1115.2295531274285,"[60, 0, 194]",194,l,0.28356310282833874,1,colour,0.5,3.8
62,21,0,1,13,15,615,1115.750857795123,1116.6055190330371,"[38, 0, 216]",216,a,0.3313416577875614,1,colour,0.5,3.8
62,21,0,1,13,16,616,1117.1258186073974,1117.9015028348658,"[63, 0, 191]",191,l,0.2524280562065542,1,colour,0.5,3.8
62,21,0,1,13,17,617,1118.4226680812426,1119.0615139098372,"[94, 0, 160]",160,l,0.11566291260533035,1,colour,0.5,3.8
62,21,0,1,13,18,618,1119.5788915459998,1120.7335041833576,"[87, 0, 167]",167,l,0.6313863983377814,1,colour,0.5,3.8
62,21,0,1,13,19,619,1121.2507845398504,1121.9574895198457,"[48, 0, 206]",206,a,0.18346456275321543,1,colour,0.5,3.8
62,21,0,1,13,20,620,1122.469465961447,1123.1735258763656,"[11, 0, 243]",243,a,0.18082382972352207,1,colour,0.5,3.8
62,21,0,1,13,21,621,1123.6882501768414,1124.4216039113235,"[20, 0, 234]",234,a,0.210131827974692,1,colour,0.5,3.8
62,21,0,1,13,22,622,1124.938190706307,1125.5415274424013,"[31, 0, 223]",223,a,0.08004393754526973,1,colour,0.5,3.8
62,21,0,1,13,23,623,1126.0476119583473,1126.893539282959,"[37, 0, 217]",217,a,0.3226829688064754,1,colour,0.5,3.8
62,21,0,1,13,24,624,1127.4070017030463,1128.2135125959758,"[89, 0, 165]",165,l,0.28324684500694275,1,colour,0.5,3.8
62,21,0,1,13,25,625,1128.7351449429989,1129.5416223590728,"[99, 0, 155]",155,l,0.2832401494961232,1,colour,0.5,3.8
62,21,0,1,13,26,626,1130.0632649459876,1130.765473394189,"[18, 0, 236]",236,a,0.17921103327535093,1,colour,0.5,3.8
62,21,0,1,13,27,627,1131.2819636969361,1132.045481255278,"[46, 0, 208]",208,a,0.24031061795540154,1,colour,0.5,3.8
62,21,0,1,13,28,628,1132.5631215863395,1133.2378573555034,"[74, 0, 180]",180,l,0.15150913642719388,1,colour,0.5,3.8
62,21,0,1,13,29,629,1133.7507313706446,1134.4614937449805,"[83, 0, 171]",171,l,0.1875014768447727,1,colour,0.5,3.8
62,21,0,1,13,30,630,1134.9693675001618,1135.725474071689,"[78, 0, 176]",176,l,0.23275705892592669,1,colour,0.5,3.8
62,21,0,1,13,31,631,1136.2350173371378,1136.7894991389476,"[84, 0, 170]",170,l,0.03113898471929133,1,colour,0.5,3.8
62,21,0,1,13,32,632,1137.2976218045224,1137.9895174135454,"[96, 0, 158]",158,l,0.16851025656796992,1,colour,0.5,3.8
62,21,0,1,13,33,633,1138.5007585459389,1139.2294838104863,"[98, 0, 156]",156,l,0.20540725952014327,1,colour,0.5,3.8
62,21,0,1,13,34,634,1139.7507266446482,1140.5255125109106,"[54, 0, 200]",200,a,0.25140012009069324,0,colour,0.5,3.8
62,21,0,1,13,35,635,1141.0319699984975,1141.8214852851816,"[19, 0, 235]",235,a,0.2662201249040663,1,colour,0.5,3.8
62,21,0,1,13,36,636,1142.3290746840648,1143.1014809370972,"[35, 0, 219]",219,a,0.24929659231565893,1,colour,0.5,3.8
62,21,0,1,13,37,637,1143.6100856692065,1144.373487437144,"[17, 0, 237]",237,a,0.24006682774052024,1,colour,0.5,3.8
62,21,0,1,13,38,638,1144.8913333553355,1145.6214894598816,"[13, 0, 241]",241,a,0.20690269023180008,1,colour,0.5,3.8
62,21,0,1,13,39,639,1146.1413416261785,1146.9494897341356,"[47, 0, 207]",207,a,0.28481671237386763,1,colour,0.5,3.8
62,21,0,1,13,40,640,1147.469452570891,1148.165440232493,"[66, 0, 188]",188,l,0.17262003221549094,1,colour,0.5,3.8
62,21,0,1,13,41,641,1148.6726298783906,1149.3497409285046,"[93, 0, 161]",161,l,0.15421839826740324,1,colour,0.5,3.8
62,21,0,1,13,42,642,1149.8600517986342,1150.5655043504667,"[16, 0, 238]",238,a,0.18212194391526282,1,colour,0.5,3.8
62,21,0,1,13,43,643,1151.0789616503753,1151.81342287804,"[25, 0, 229]",229,a,0.21161504928022623,1,colour,0.5,3.8
62,21,0,1,13,44,644,1152.3289234475233,1153.005433095852,"[90, 0, 164]",164,l,0.15325544634833932,1,colour,0.5,3.8
62,21,0,1,13,45,645,1153.516456431942,1154.2214978095144,"[9, 0, 245]",245,a,0.18184979702346027,1,colour,0.5,3.8
62,21,0,1,13,46,646,1154.7351390351541,1155.485454899259,"[2, 0, 252]",252,a,0.22705024061724544,1,colour,0.5,3.8
62,21,0,1,13,47,647,1156.0007754813414,1156.7414669475984,"[36, 0, 218]",218,a,0.21731911064125597,1,colour,0.5,3.8
62,21,0,1,13,48,648,1157.2507735120598,1157.8614704292268,"[33, 0, 221]",221,a,0.08738127537071705,1,colour,0.5,3.8
62,21,0,1,13,49,649,1158.375728416955,1159.2134342207573,"[62, 0, 192]",192,l,0.31437165127135813,1,colour,0.5,3.8
62,21,0,1,13,50,650,1159.7195226752665,1160.2854204771575,"[4, 0, 250]",250,a,0.04255498480051756,1,colour,0.5,3.8
62,21,0,1,14,1,651,1173.0624544124585,1173.7814320058096,"[82, 0, 172]",172,l,0.19483487657271326,1,colour,0.5,3.8
62,21,0,1,14,2,652,1174.2977186904754,1175.253394946456,"[39, 0, 215]",215,l,0.43245868175290525,0,colour,0.5,3.8
62,21,0,1,14,3,653,1175.7664725796785,1176.421383751789,"[18, 0, 236]",236,a,0.13160655787214637,1,colour,0.5,3.8
62,21,0,1,14,4,654,1176.9382411183324,1177.6213992694393,"[84, 0, 170]",170,l,0.15982636157423258,1,colour,0.5,3.8
62,21,0,1,14,5,655,1178.141390856821,1178.7173974860925,"[98, 0, 156]",156,l,0.05272919056005776,1,colour,0.5,3.8
62,21,0,1,14,6,656,1179.2350988630205,1180.1893939035945,"[67, 0, 187]",187,l,0.4309837310574949,1,colour,0.5,3.8
62,21,0,1,14,7,657,1180.703781860182,1181.4374164063483,"[43, 0, 211]",211,a,0.21014246181584895,1,colour,0.5,3.8
62,21,0,1,14,8,658,1181.9538295154925,1182.7093795833644,"[59, 0, 195]",195,l,0.2321970108896494,1,colour,0.5,3.8
62,21,0,1,14,9,659,1183.2194364231545,1183.9733933869284,"[44, 0, 210]",210,a,0.23055467614904046,1,colour,0.5,3.8
62,21,0,1,14,10,660,1184.4852229242679,1185.1894037497696,"[29, 0, 225]",225,a,0.18092662352137268,1,colour,0.5,3.8
62,21,0,1,14,11,661,1185.7038645676803,1186.4853792809881,"[1, 0, 253]",253,a,0.2581266041379422,1,colour,0.5,3.8
62,21,0,1,14,12,662,1187.0007546076085,1187.8053974923678,"[10, 0, 244]",244,a,0.28121617855504155,1,colour,0.5,3.8
62,21,0,1,14,13,663,1188.3135914437007,1189.189377755858,"[22, 0, 232]",232,a,0.3528834201861173,1,colour,0.5,3.8
62,21,0,1,14,14,664,1189.703849995276,1190.533350426238,"[93, 0, 161]",161,l,0.3060823893174529,1,colour,0.5,3.8
62,21,0,1,14,15,665,1191.0476174722426,1191.8213797346689,"[36, 0, 218]",218,a,0.25040329759940505,1,colour,0.5,3.8
62,21,0,1,14,16,666,1192.3288958782796,1193.0933700869791,"[62, 0, 192]",192,l,0.24125072662718594,1,colour,0.5,3.8
62,21,0,1,14,17,667,1193.6101475029718,1194.3894019380677,"[51, 0, 203]",203,l,0.25589586421847343,1,colour,0.5,3.8
62,21,0,1,14,18,668,1194.9071623918135,1195.5653294830117,"[71, 0, 183]",183,l,0.1349463660735637,1,colour,0.5,3.8
62,21,0,1,14,19,669,1196.0789226598572,1196.6213724878617,"[74, 0, 180]",180,l,0.019297238206490874,1,colour,0.5,3.8
62,21,0,1,14,20,670,1197.1413798290305,1197.965340038063,"[60, 0, 194]",194,l,0.30068867770023644,1,colour,0.5,3.8
62,21,0,1,14,21,671,1198.485160696786,1199.1493307780474,"[8, 0, 246]",246,a,0.14089776249602437,1,colour,0.5,3.8
62,21,0,1,14,22,672,1199.6569788600318,1200.2773395592812,"[85, 0, 169]",169,l,0.09704545140266418,1,colour,0.5,3.8
62,21,0,1,14,23,673,1200.7975985675585,1201.453344298061,"[26, 0, 228]",228,a,0.13240921474061906,1,colour,0.5,3.8
62,21,0,1,14,24,674,1201.9694947123062,1202.7413476125803,"[24, 0, 230]",230,a,0.2485478923190385,1,colour,0.5,3.8
62,21,0,1,14,25,675,1203.2507589398883,1203.9333574366756,"[80, 0, 174]",174,l,0.15925528574734926,1,colour,0.5,3.8
62,21,0,1,14,26,676,1204.4537991893012,1205.7253326810896,"[50, 0, 204]",204,a,0.7481213579885662,1,colour,0.5,3.8
62,21,0,1,14,27,677,1206.235153213609,1206.9813329142053,"[96, 0, 158]",158,l,0.22290423093363643,1,colour,0.5,3.8
62,21,0,1,14,28,678,1207.5007199491374,1208.2853145326953,"[30, 0, 224]",224,a,0.2610859575215727,1,colour,0.5,3.8
62,21,0,1,14,29,679,1208.7976446475368,1209.5573387558106,"[65, 0, 189]",189,l,0.23637689114548266,1,colour,0.5,3.8
62,21,0,1,14,30,680,1210.0788868197706,1210.7733400601428,"[12, 0, 242]",242,a,0.1712392105255276,1,colour,0.5,3.8
62,21,0,1,14,31,681,1211.2819912661798,1212.557321032742,"[94, 0, 160]",160,l,0.7520200326107442,1,colour,0.5,3.8
62,21,0,1,14,32,682,1213.0788056878373,1213.6532885294873,"[79, 0, 175]",175,l,0.05117586441338062,1,colour,0.5,3.8
62,21,0,1,14,33,683,1214.1725597737823,1215.1253270884044,"[92, 0, 162]",162,l,0.4297966812737286,1,colour,0.5,3.8
62,21,0,1,14,34,684,1215.6413270537741,1216.477345624473,"[41, 0, 213]",213,a,0.3127273472491652,1,colour,0.5,3.8
62,21,0,1,14,35,685,1216.9850937430747,1217.8053478677757,"[61, 0, 193]",193,l,0.2969526613596827,1,colour,0.5,3.8
62,21,0,1,14,36,686,1218.3132145337295,1218.9972879812121,"[17, 0, 237]",237,a,0.1608771407045424,1,colour,0.5,3.8
62,21,0,1,14,37,687,1219.516274869442,1220.2612954832148,"[20, 0, 234]",234,a,0.22168409824371338,1,colour,0.5,3.8
62,21,0,1,14,38,688,1220.7818888663314,1221.5492893455084,"[33, 0, 221]",221,a,0.24478076212108135,1,colour,0.5,3.8
62,21,0,1,14,39,689,1222.0632334384136,1222.7972909745295,"[78, 0, 176]",176,l,0.2109616599045694,1,colour,0.5,3.8
62,21,0,1,14,40,690,1223.3131460046861,1224.3173113125376,"[56, 0, 198]",198,a,0.48102886555716395,0,colour,0.5,3.8
62,21,0,1,14,41,691,1224.8287332202308,1225.90932854102,"[46, 0, 208]",208,a,0.5572710144333541,1,colour,0.5,3.8
62,21,0,1,14,42,692,1226.4225522908382,1227.3492978524882,"[87, 0, 167]",167,l,0.40316840657033026,1,colour,0.5,3.8
62,21,0,1,14,43,693,1227.8600852754898,1228.6212815095205,"[35, 0, 219]",219,a,0.23785262927412987,1,colour,0.5,3.8
62,21,0,1,14,44,694,1229.141365256859,1229.9332885136828,"[58, 0, 196]",196,a,0.26866905484348536,0,colour,0.5,3.8
62,21,0,1,14,45,695,1230.453865749063,1231.1734096920118,"[6, 0, 248]",248,a,0.19628580240532756,1,colour,0.5,3.8
62,21,0,1,14,46,696,1231.6882722321898,1232.2692700629123,"[11, 0, 243]",243,a,0.05766485980711877,1,colour,0.5,3.8
62,21,0,1,14,47,697,1232.7819278570823,1233.7732723187655,"[27, 0, 227]",227,a,0.46862470800988376,1,colour,0.5,3.8
62,21,0,1,14,48,698,1234.2819361276925,1235.0692419423722,"[70, 0, 184]",184,l,0.2639405482914299,1,colour,0.5,3.8
62,21,0,1,14,49,699,1235.5788328631315,1236.3253036153037,"[32, 0, 222]",222,a,0.22326853778213263,1,colour,0.5,3.8
62,21,0,1,14,50,700,1236.8443661218043,1237.853287899401,"[31, 0, 223]",223,a,0.4855277605820447,1,colour,0.5,3.8
62,21,0,1,15,1,701,1261.8279703417793,1262.8772163644899,"[40, 0, 214]",214,l,0.5253439452499151,0,colour,0.5,3.8
62,21,0,1,15,2,702,1263.3911722726189,1264.1972022806294,"[83, 0, 171]",171,l,0.28269034158438444,1,colour,0.5,3.8
62,21,0,1,15,3,703,1264.7036881248932,1265.6132151640486,"[64, 0, 190]",190,l,0.38627913873642683,1,colour,0.5,3.8
62,21,0,1,15,4,704,1266.125487383455,1267.0372042024974,"[42, 0, 212]",212,a,0.38835194637067616,1,colour,0.5,3.8
62,21,0,1,15,5,705,1267.547436303459,1268.5651802157518,"[89, 0, 165]",165,l,0.4944066090974957,1,colour,0.5,3.8
62,21,0,1,15,6,706,1269.0786603589077,1269.8451707477216,"[60, 0, 194]",194,l,0.24321365170180798,1,colour,0.5,3.8
62,21,0,1,15,7,707,1270.3598702359013,1270.9652084938716,"[6, 0, 248]",248,a,0.0819623579736799,1,colour,0.5,3.8
62,21,0,1,15,8,708,1271.4849590479862,1272.2292415958364,"[94, 0, 160]",160,l,0.22111814259551466,1,colour,0.5,3.8
62,21,0,1,15,9,709,1272.7505631987005,1273.4371840376407,"[20, 0, 234]",234,a,0.16326975100673735,1,colour,0.5,3.8
62,21,0,1,15,10,710,1273.9536664634943,1274.5572044544388,"[99, 0, 155]",155,l,0.08026409684680402,1,colour,0.5,3.8
62,21,0,1,15,11,711,1275.0787414910737,1275.8371997126378,"[72, 0, 182]",182,l,0.23511658608913422,1,colour,0.5,3.8
62,21,0,1,15,12,712,1276.3443873894867,1277.0931692258455,"[91, 0, 163]",163,l,0.22549376380629838,1,colour,0.5,3.8
62,21,0,1,15,13,713,1277.6098907159176,1278.357184998691,"[32, 0, 222]",222,a,0.22406095475889742,1,colour,0.5,3.8
62,21,0,1,15,14,714,1278.8755247988738,1279.8372355524916,"[56, 0, 198]",198,l,0.4387413018848747,1,colour,0.5,3.8
62,21,0,1,15,15,715,1280.3442747495137,1281.1172091492917,"[23, 0, 231]",231,a,0.2499586462508887,1,colour,0.5,3.8
62,21,0,1,15,16,716,1281.6262801941484,1282.3891309725586,"[63, 0, 191]",191,l,0.24034251947887242,1,colour,0.5,3.8
62,21,0,1,15,17,717,1282.906804780243,1283.7091704516206,"[66, 0, 188]",188,l,0.279062632471323,1,colour,0.5,3.8
62,21,0,1,15,18,718,1284.2192284727935,1284.973155898042,"[17, 0, 237]",237,a,0.23052907595410943,1,colour,0.5,3.8
62,21,0,1,15,19,719,1285.485035453923,1286.1491224339698,"[22, 0, 232]",232,a,0.1408556210808456,1,colour,0.5,3.8
62,21,0,1,15,20,720,1286.6569898875896,1287.4131267850753,"[86, 0, 168]",168,l,0.23305362439714372,1,colour,0.5,3.8
62,21,0,1,15,21,721,1287.9224676140584,1289.5891803605482,"[37, 0, 217]",217,a,1.1433600832242519,1,colour,0.5,3.8
62,21,0,1,15,22,722,1290.1099486111198,1290.8851641626097,"[11, 0, 243]",243,a,0.25179869146086276,1,colour,0.5,3.8
62,21,0,1,15,23,723,1291.391176998848,1292.1731596002355,"[53, 0, 201]",201,l,0.2585996121633798,1,colour,0.5,3.8
62,21,0,1,15,24,724,1292.688085549511,1293.437174585415,"[44, 0, 210]",210,l,0.2257706371601671,0,colour,0.5,3.8
62,21,0,1,15,25,725,1293.9537598048337,1294.6531447758898,"[5, 0, 249]",249,a,0.1761358892545104,1,colour,0.5,3.8
62,21,0,1,15,26,726,1295.172477854183,1295.9331065572333,"[50, 0, 204]",204,l,0.2374020703136921,0,colour,0.5,3.8
62,21,0,1,15,27,727,1296.4536581926513,1297.3091890409123,"[70, 0, 184]",184,l,0.33219039416871965,1,colour,0.5,3.8
62,21,0,1,15,28,728,1297.8287407031748,1298.6131415148266,"[1, 0, 253]",253,a,0.2613104493357241,1,colour,0.5,3.8
62,21,0,1,15,29,729,1299.1255555187818,1299.8451467230916,"[97, 0, 157]",157,l,0.19631219003349543,1,colour,0.5,3.8
62,21,0,1,15,30,730,1300.3599324633833,1300.9410815306474,"[87, 0, 167]",167,l,0.05784484697505832,1,colour,0.5,3.8
62,21,0,1,15,31,731,1301.4536412572488,1302.1331279824954,"[71, 0, 183]",183,l,0.15615651104599237,1,colour,0.5,3.8
62,21,0,1,15,32,732,1302.6411632141098,1303.2611174650956,"[92, 0, 162]",162,l,0.09658977226354182,1,colour,0.5,3.8
62,21,0,1,15,33,733,1303.781779771205,1304.533444949193,"[24, 0, 230]",230,a,0.22899307939223945,1,colour,0.5,3.8
62,21,0,1,15,34,734,1305.0474485126324,1305.7894873237237,"[65, 0, 189]",189,l,0.21873222780413926,1,colour,0.5,3.8
62,21,0,1,15,35,735,1306.2974815955386,1307.1411171343643,"[90, 0, 164]",164,l,0.3204534105025232,1,colour,0.5,3.8
62,21,0,1,15,36,736,1307.656789814122,1308.4531150800176,"[41, 0, 213]",213,a,0.27301750099286437,1,colour,0.5,3.8
62,21,0,1,15,37,737,1308.9692792787682,1309.669416100718,"[62, 0, 192]",192,l,0.17700668121688068,1,colour,0.5,3.8
62,21,0,1,15,38,738,1310.1880823988467,1311.029129192233,"[55, 0, 199]",199,l,0.317799286916852,1,colour,0.5,3.8
62,21,0,1,15,39,739,1311.547355171293,1312.7251113401726,"[38, 0, 216]",216,a,0.6544342255219817,1,colour,0.5,3.8
62,21,0,1,15,40,740,1313.2348601927515,1313.9571106405929,"[15, 0, 239]",239,a,0.19897143356502056,1,colour,0.5,3.8
62,21,0,1,15,41,741,1314.469213900622,1315.269090469461,"[16, 0, 238]",238,a,0.27653020713478327,1,colour,0.5,3.8
62,21,0,1,15,42,742,1315.7817443250678,1316.4210832477547,"[34, 0, 220]",220,a,0.11673495941795409,1,colour,0.5,3.8
62,21,0,1,15,43,743,1316.9379599129315,1317.701115527423,"[3, 0, 251]",251,a,0.2398478495888412,1,colour,0.5,3.8
62,21,0,1,15,44,744,1318.2191934206057,1318.8930572161917,"[77, 0, 177]",177,l,0.15051546460017562,1,colour,0.5,3.8
62,21,0,1,15,45,745,1319.4066433038097,1320.0450921361335,"[18, 0, 236]",236,a,0.11500125238671899,1,colour,0.5,3.8
62,21,0,1,15,46,746,1320.5629234821536,1321.1730469604954,"[12, 0, 242]",242,a,0.08699136856012046,1,colour,0.5,3.8
62,21,0,1,15,47,747,1321.6879028051626,1322.4531217752956,"[7, 0, 247]",247,a,0.24185134074650705,1,colour,0.5,3.8
62,21,0,1,15,48,748,1322.9690910207573,1324.061040901579,"[46, 0, 208]",208,a,0.5684306209441274,1,colour,0.5,3.8
62,21,0,1,15,49,749,1324.5785737128463,1325.3091327210423,"[48, 0, 206]",206,a,0.20735797542147338,1,colour,0.5,3.8
62,21,0,1,15,50,750,1325.8285788327921,1326.5811533995438,"[95, 0, 159]",159,l,0.22944285068660975,1,colour,0.5,3.8
62,21,0,1,16,1,751,1336.5933200686704,1337.525036351988,"[42, 0, 212]",212,l,0.4076070433948189,0,colour,0.5,3.8
62,21,0,1,16,2,752,1338.0316021470353,1339.5010889822152,"[15, 0, 239]",239,a,0.9462042765226215,1,colour,0.5,3.8
62,21,0,1,16,3,753,1340.016046045348,1340.7011218289845,"[58, 0, 196]",196,l,0.1618200063239783,1,colour,0.5,3.8
62,21,0,1,16,4,754,1341.2190488793422,1341.8690361974295,"[76, 0, 178]",178,l,0.12669924553483725,1,colour,0.5,3.8
62,21,0,1,16,5,755,1342.3754338205326,1343.5971714816988,"[40, 0, 214]",214,l,0.6985252068843693,0,colour,0.5,3.8
62,21,0,1,16,6,756,1344.1097737436648,1345.0049888384528,"[6, 0, 248]",248,a,0.37186124990694225,1,colour,0.5,3.8
62,21,0,1,16,7,757,1345.5160232021008,1346.2850345086772,"[63, 0, 191]",191,l,0.2457322923000902,1,colour,0.5,3.8
62,21,0,1,16,8,758,1346.7972315037623,1347.9011196233332,"[34, 0, 220]",220,a,0.5805795670021325,1,colour,0.5,3.8
62,21,0,1,16,9,759,1348.4222202792298,1349.1810246908572,"[46, 0, 208]",208,l,0.23548680054955184,0,colour,0.5,3.8
62,21,0,1,16,10,760,1349.6878764175344,1350.4210458325688,"[44, 0, 210]",210,l,0.20982344704680145,0,colour,0.5,3.8
62,21,0,1,16,11,761,1350.937809464056,1351.58101319056,"[59, 0, 195]",195,l,0.11986642330884933,1,colour,0.5,3.8
62,21,0,1,16,12,762,1352.0941195746418,1352.7810042898636,"[66, 0, 188]",188,l,0.1636261809617281,1,colour,0.5,3.8
62,21,0,1,16,13,763,1353.2972563160583,1353.9090504862834,"[26, 0, 228]",228,a,0.08848246675916016,1,colour,0.5,3.8
62,21,0,1,16,14,764,1354.4222974728327,1355.7170099422801,"[67, 0, 187]",187,l,0.7714113998226821,1,colour,0.5,3.8
62,21,0,1,16,15,765,1356.2347274669446,1356.9410523860715,"[69, 0, 185]",185,l,0.18303251429460943,1,colour,0.5,3.8
62,21,0,1,16,16,766,1357.4533939224202,1358.0770278701093,"[13, 0, 241]",241,a,0.10034666256979108,1,colour,0.5,3.8
62,21,0,1,16,17,767,1358.5940636484884,1359.3170119901188,"[25, 0, 229]",229,a,0.19965908746235073,1,colour,0.5,3.8
62,21,0,1,16,18,768,1359.8284717069473,1360.509054897353,"[52, 0, 202]",202,a,0.15736482851207256,0,colour,0.5,3.8
62,21,0,1,16,19,769,1361.0159184392542,1361.66896278481,"[49, 0, 205]",205,l,0.12973894365131855,0,colour,0.5,3.8
62,21,0,1,16,20,770,1362.187759839464,1362.9810166566167,"[41, 0, 213]",213,a,0.26996480603702366,1,colour,0.5,3.8
62,21,0,1,16,21,771,1363.5002886885777,1364.3170612209942,"[23, 0, 231]",231,a,0.2934446814469993,1,colour,0.5,3.8
62,21,0,1,16,22,772,1364.8284086917993,1365.6609941127244,"[37, 0, 217]",217,a,0.30943283112719655,1,colour,0.5,3.8
62,21,0,1,16,23,773,1366.1722356393002,1366.96497691283,"[8, 0, 246]",246,a,0.26957568689249456,1,colour,0.5,3.8
62,21,0,1,16,24,774,1367.4846821746323,1368.0769632793963,"[2, 0, 252]",252,a,0.06906786258332431,1,colour,0.5,3.8
62,21,0,1,16,25,775,1368.5940325348638,1369.1889776091557,"[71, 0, 183]",183,l,0.07168260170146823,1,colour,0.5,3.8
62,21,0,1,16,26,776,1369.7034226732794,1370.6531219328754,"[80, 0, 174]",174,l,0.42651161761023104,1,colour,0.5,3.8
62,21,0,1,16,27,777,1371.1721375717316,1371.9650139342993,"[9, 0, 245]",245,a,0.26958277611993253,1,colour,0.5,3.8
62,21,0,1,16,28,778,1372.4846928084735,1373.301092369249,"[84, 0, 170]",170,l,0.29317962331697345,1,colour,0.5,3.8
62,21,0,1,16,29,779,1373.8127273472492,1374.604991280241,"[14, 0, 240]",240,a,0.2690443894825876,1,colour,0.5,3.8
62,21,0,1,16,30,780,1375.1252542270813,1375.901052669622,"[17, 0, 237]",237,a,0.25248319446109235,1,colour,0.5,3.8
62,21,0,1,16,31,781,1376.4221462362912,1377.2210732442327,"[7, 0, 247]",247,a,0.2756464183330536,1,colour,0.5,3.8
62,21,0,1,16,32,782,1377.7346057686955,1378.5970521466807,"[91, 0, 163]",163,l,0.33919060067273676,1,colour,0.5,3.8
62,21,0,1,16,33,783,1379.1095717011485,1379.9249161502812,"[27, 0, 227]",227,a,0.29195712762884796,1,colour,0.5,3.8
62,21,0,1,16,34,784,1380.4377031256445,1381.2050638266373,"[10, 0, 244]",244,a,0.24401552067138255,1,colour,0.5,3.8
62,21,0,1,16,35,785,1381.71887401212,1382.5809686861467,"[73, 0, 181]",181,l,0.33861558651551604,1,colour,0.5,3.8
62,21,0,1,16,36,786,1383.0939364365768,1384.0609581940807,"[97, 0, 157]",157,l,0.44371202355250716,1,colour,0.5,3.8
62,21,0,1,16,37,787,1384.578300384339,1385.348944179481,"[29, 0, 225]",225,a,0.2473895933944732,1,colour,0.5,3.8
62,21,0,1,16,38,788,1385.8595898179337,1386.5649730530567,"[96, 0, 158]",158,l,0.18200024566613138,1,colour,0.5,3.8
62,21,0,1,16,39,789,1387.0783610364888,1387.8929622995201,"[81, 0, 173]",173,l,0.29169206973165274,1,colour,0.5,3.8
62,21,0,1,16,40,790,1388.406432596501,1389.164938867325,"[11, 0, 243]",243,a,0.23513627843931317,1,colour,0.5,3.8
62,21,0,1,16,41,791,1389.6720446243417,1390.557092208648,"[61, 0, 193]",193,l,0.3617343057412654,1,colour,0.5,3.8
62,21,0,1,16,42,792,1391.078283842653,1391.9409247802105,"[65, 0, 189]",189,l,0.33932765875943005,1,colour,0.5,3.8
62,21,0,1,16,43,793,1392.4532304767054,1393.3729266014416,"[78, 0, 176]",176,l,0.396427744301036,1,colour,0.5,3.8
62,21,0,1,16,44,794,1393.8907374674454,1394.7169095117133,"[98, 0, 156]",156,l,0.3028339531738311,1,colour,0.5,3.8
62,21,0,1,16,45,795,1395.2345226674806,1396.1249493907671,"[50, 0, 204]",204,l,0.3672095430083573,0,colour,0.5,3.8
62,21,0,1,16,46,796,1396.6407358921133,1397.4369611211587,"[54, 0, 200]",200,l,0.2734180416446179,1,colour,0.5,3.8
62,21,0,1,16,47,797,1397.9532568643335,1398.7809605728835,"[99, 0, 155]",155,l,0.3044376913458109,1,colour,0.5,3.8
62,21,0,1,16,48,798,1399.297005436616,1400.0530115775764,"[92, 0, 162]",162,l,0.23275469592772424,1,colour,0.5,3.8
62,21,0,1,16,49,799,1400.5626387319062,1401.3329044356942,"[20, 0, 234]",234,a,0.24707884923554957,1,colour,0.5,3.8
62,21,0,1,16,50,800,1401.8439451011363,1402.612909933785,"[62, 0, 192]",192,l,0.245772858383134,1,colour,0.5,3.8
