id,age,condition,counterbalance,block,trialinblock,trial,tstart,tend,trialstim,trialintensity,response,RT,accuracy,trialtype,colourfreq,credits
47,21,1,2,Practice,1,NA,5.90769195696339e-06,1.3907890430436964,"[40, 0, 214]",214,a,0.8665822785806085,1,colour,0.5,4
47,21,1,2,Practice,2,NA,1.9073831567002344,2.5828161806148273,"[46, 0, 208]",208,a,0.15214982850011438,1,colour,0.5,4
47,21,1,2,Practice,3,NA,3.0963315994922596,3.9027924868350965,"[56, 0, 198]",198,a,0.28370032567181624,0,colour,0.5,4
47,21,1,2,Practice,4,NA,4.408901236400197,5.0548371584318375,"[95, 0, 159]",159,l,0.1224766774193995,1,colour,0.5,4
47,21,1,2,Practice,5,NA,5.565764614741056,6.270821952823098,"[2, 0, 252]",252,a,0.1820037549296103,1,colour,0.5,4
47,21,1,2,Practice,6,NA,6.784159747119702,10.02279699243445,"[50, 0, 204]",204,a,2.7154568437254056,1,colour,0.5,4
47,21,1,2,Practice,7,NA,10.535865002168066,11.134796576532608,"[22, 0, 232]",232,a,0.0760292281047441,1,colour,0.5,4
47,21,1,2,Practice,8,NA,11.645231331400282,14.070783986060633,"[48, 0, 206]",206,a,1.9020630839004298,1,colour,0.5,4
47,21,1,2,Practice,9,NA,14.583104082095815,15.17479794711653,"[85, 0, 169]",169,l,0.06848116805304016,1,colour,0.5,4
47,21,1,2,Practice,10,NA,15.692494435939807,16.4547961196713,"[60, 0, 194]",194,a,0.23892002679713187,0,colour,0.5,4
47,21,1,2,1,1,1,4.2207672672939225,4.7519959134533565,"[92, 0, 162]",162,l,0.007089623219144414,1,colour,0.5,4.0
47,21,1,2,1,2,2,5.268559700960395,6.071971431980273,"[56, 0, 198]",198,a,0.2801698894436413,0,colour,0.5,4.0
47,21,1,2,1,3,3,6.581003307124774,7.496002265403149,"[98, 0, 156]",156,l,0.39160194134638004,1,colour,0.5,4.0
47,21,1,2,1,4,4,8.003105082465481,8.94399587564294,"[27, 0, 227]",227,a,0.41527799822142697,1,colour,0.5,4.0
47,21,1,2,1,5,5,9.458497485094995,10.543951843652394,"[20, 0, 234]",234,a,0.5620203200942342,1,colour,0.5,4.0
47,21,1,2,1,6,6,11.052445331210038,12.063982658170062,"[99, 0, 155]",155,l,0.49030410037266847,1,colour,0.5,4.0
47,21,1,2,1,7,7,12.581657879303748,13.551996543606947,"[89, 0, 165]",165,l,0.44730713653007115,1,colour,0.5,4.0
47,21,1,2,1,8,8,14.066152750048786,15.023976167585715,"[90, 0, 164]",164,l,0.4345366775069124,1,colour,0.5,4.0
47,21,1,2,1,9,9,15.53497924234216,16.51999221760161,"[74, 0, 180]",180,a,0.46183099828522245,0,colour,0.5,4.0
47,21,1,2,1,10,10,17.035181876148272,18.031961790627975,"[5, 0, 249]",249,a,0.47358572827761236,1,colour,0.5,4.0
47,21,1,2,1,11,11,18.550811854609492,19.519990642216726,"[38, 0, 216]",216,a,0.44565967839298537,1,colour,0.5,4.0
47,21,1,2,1,12,12,20.03545047917214,20.9919911400375,"[0, 0, 254]",254,a,0.43345517618035956,1,colour,0.5,4.0
47,21,1,2,1,13,13,21.504262793007,22.51202510532312,"[70, 0, 184]",184,a,0.4842703784815967,0,colour,0.5,4.0
47,21,1,2,1,14,14,23.01999635298489,24.16795841615567,"[83, 0, 171]",171,a,0.6245599262401811,0,colour,0.5,4.0
47,21,1,2,1,15,15,24.67633335604478,25.65596954467037,"[66, 0, 188]",188,a,0.4565577931698499,0,colour,0.5,4.0
47,21,1,2,1,16,16,26.17632134373889,27.159977913112016,"[37, 0, 217]",217,a,0.46021583552646916,1,colour,0.5,4.0
47,21,1,2,1,17,17,27.676516888315746,28.6159870786978,"[52, 0, 202]",202,a,0.41607553652647766,0,colour,0.5,4.0
47,21,1,2,1,18,18,29.129824663665204,30.095985802636278,"[71, 0, 183]",183,a,0.4428314697197493,0,colour,0.5,4.0
47,21,1,2,1,19,19,30.61470510971958,31.527990443719318,"[45, 0, 209]",209,a,0.39024435392275336,1,colour,0.5,4.0
47,21,1,2,1,20,20,32.03669897123473,33.07997517194235,"[46, 0, 208]",208,a,0.5200595652804623,1,colour,0.5,4.0
47,21,1,2,1,21,21,33.59927973429512,34.55998256049497,"[77, 0, 177]",177,l,0.4372699692758033,1,colour,0.5,4.0
47,21,1,2,1,22,22,35.06815545734753,35.968116978585385,"[53, 0, 201]",201,a,0.3766090089138743,0,colour,0.5,4.0
47,21,1,2,1,23,23,36.47464556806881,37.399983379695186,"[16, 0, 238]",238,a,0.40201405006519053,1,colour,0.5,4.0
47,21,1,2,1,24,24,37.91222155574724,38.89597816202149,"[67, 0, 187]",187,a,0.4604875893182907,0,colour,0.5,4.0
47,21,1,2,1,25,25,39.4122611372768,40.36834651207937,"[97, 0, 157]",157,l,0.4329360870524397,1,colour,0.5,4.0
47,21,1,2,1,26,26,40.881241623384994,41.90392440045798,"[95, 0, 159]",159,l,0.497307865145558,1,colour,0.5,4.0
47,21,1,2,1,27,27,42.414621062966035,43.36797669061343,"[58, 0, 196]",196,a,0.43019097990145383,0,colour,0.5,4.0
47,21,1,2,1,28,28,43.88342983218536,44.807975619352874,"[35, 0, 219]",219,a,0.40115940408031747,1,colour,0.5,4.0
47,21,1,2,1,29,29,45.321050718315746,46.20792985443768,"[41, 0, 213]",213,a,0.3635376514885138,1,colour,0.5,4.0
47,21,1,2,1,30,30,46.728760964182584,47.679952407639576,"[86, 0, 168]",168,l,0.4278724080504617,1,colour,0.5,4.0
47,21,1,2,1,31,31,48.197494508800446,49.12795586403263,"[7, 0, 247]",247,a,0.40738177823914157,1,colour,0.5,4.0
47,21,1,2,1,32,32,49.635123271851626,50.55197842668713,"[47, 0, 207]",207,a,0.39355463019273884,1,colour,0.5,4.0
47,21,1,2,1,33,33,51.05866770536886,51.952377313993566,"[49, 0, 205]",205,a,0.3703543393767177,1,colour,0.5,4.0
47,21,1,2,1,34,34,52.46496995151392,53.42398002727714,"[3, 0, 251]",251,a,0.4355405911555863,1,colour,0.5,4.0
47,21,1,2,1,35,35,53.933938228392435,54.87199057289945,"[43, 0, 211]",211,a,0.41474709371141216,1,colour,0.5,4.0
47,21,1,2,1,36,36,55.3870994930021,56.37597846134486,"[62, 0, 192]",192,a,0.46533859144074086,0,colour,0.5,4.0
47,21,1,2,1,37,37,56.88723359759024,57.83200141154339,"[13, 0, 241]",241,a,0.42131053857156076,1,colour,0.5,4.0
47,21,1,2,1,38,38,58.34055082524537,59.279950517178804,"[2, 0, 252]",252,a,0.4160483611467498,1,colour,0.5,4.0
47,21,1,2,1,39,39,59.79365419448004,60.80003962091541,"[84, 0, 170]",170,l,0.4829108218273177,1,colour,0.5,4.0
47,21,1,2,1,40,40,61.309511815972655,62.287966466368744,"[76, 0, 178]",178,l,0.4550462119295844,1,colour,0.5,4.0
47,21,1,2,1,41,41,62.7939779359549,63.775968536423534,"[9, 0, 245]",245,a,0.4586573866017716,1,colour,0.5,4.0
47,21,1,2,1,42,42,64.29403996671135,65.21595131747381,"[24, 0, 230]",230,a,0.3985478107479139,1,colour,0.5,4.0
47,21,1,2,1,43,43,65.73169196668096,66.68796008606296,"[15, 0, 239]",239,a,0.4338687145609583,1,colour,0.5,4.0
47,21,1,2,1,44,44,67.2005542989682,68.04793933825204,"[25, 0, 229]",229,a,0.32422393615343026,1,colour,0.5,4.0
47,21,1,2,1,45,45,68.56002903433182,69.48798316544344,"[23, 0, 231]",231,a,0.40441966189973755,1,colour,0.5,4.0
47,21,1,2,1,46,46,69.99762353277583,70.80795592704817,"[18, 0, 236]",236,a,0.28739893417332496,1,colour,0.5,4.0
47,21,1,2,1,47,47,71.32644522802184,72.31200052932945,"[82, 0, 172]",172,l,0.46286169346785755,1,colour,0.5,4.0
47,21,1,2,1,48,48,72.82602952348861,73.7440362842517,"[75, 0, 179]",179,l,0.39455106076638913,1,colour,0.5,4.0
47,21,1,2,1,49,49,74.26577678458489,75.2319584035522,"[4, 0, 250]",250,a,0.4433481957712502,1,colour,0.5,4.0
47,21,1,2,1,50,50,75.75019012919256,76.77592481951069,"[68, 0, 186]",186,l,0.502560590266512,1,colour,0.5,4.0
47,21,1,2,2,1,51,98.48644519651498,99.41602236730614,"[29, 0, 225]",225,a,0.40538497863235534,1,colour,0.5,4.0
47,21,1,2,2,2,52,99.9249215163236,100.81602780238245,"[89, 0, 165]",165,l,0.36833666592792724,1,colour,0.5,4.0
47,21,1,2,2,3,53,101.33125211938386,102.5519681866881,"[55, 0, 199]",199,a,0.6973481949826237,0,colour,0.5,4.0
47,21,1,2,2,4,54,103.06565965476148,104.08799190882564,"[84, 0, 170]",170,l,0.49884150176694675,1,colour,0.5,4.0
47,21,1,2,2,5,55,104.59840185139183,105.87995807902371,"[62, 0, 192]",192,a,0.7579847368888295,0,colour,0.5,4.0
47,21,1,2,2,6,56,106.39457154076081,107.40810330424938,"[41, 0, 213]",213,a,0.49048330033474485,1,colour,0.5,4.0
47,21,1,2,2,7,57,107.92595260535018,108.84798014070475,"[22, 0, 232]",232,a,0.3986655707230966,1,colour,0.5,4.0
47,21,1,2,2,8,58,109.36359475916834,110.3121974523674,"[42, 0, 212]",212,a,0.4252584516416391,1,colour,0.5,4.0
47,21,1,2,2,9,59,110.83242676530608,111.85592598529365,"[58, 0, 196]",196,a,0.5007425967760355,0,colour,0.5,4.0
47,21,1,2,2,10,60,112.36386690680774,113.25595229421197,"[18, 0, 236]",236,a,0.3688360627529619,1,colour,0.5,4.0
47,21,1,2,2,11,61,113.77010653142497,114.73598685814432,"[88, 0, 166]",166,l,0.44262627591342607,1,colour,0.5,4.0
47,21,1,2,2,12,62,115.25478178367302,116.327979258489,"[10, 0, 244]",244,a,0.5502738608684012,1,colour,0.5,4.0
47,21,1,2,2,13,63,116.83419316495929,117.75194235038725,"[19, 0, 235]",235,a,0.394330506964252,1,colour,0.5,4.0
47,21,1,2,2,14,64,118.27181129416567,119.41596210885655,"[71, 0, 183]",183,l,0.6211539453724981,1,colour,0.5,4.0
47,21,1,2,2,15,65,119.92820343567655,120.9279895772579,"[6, 0, 248]",248,a,0.4767353153511067,1,colour,0.5,4.0
47,21,1,2,2,16,66,121.44390785104588,122.33595385384251,"[17, 0, 237]",237,a,0.36858754587774456,1,colour,0.5,4.0
47,21,1,2,2,17,67,122.85029871255574,123.8319399715565,"[50, 0, 204]",204,a,0.45824345437722513,1,colour,0.5,4.0
47,21,1,2,2,18,68,124.35032372178284,125.3759386828915,"[63, 0, 191]",191,a,0.5028587317447091,0,colour,0.5,4.0
47,21,1,2,2,19,69,125.89743618019747,126.82393623159442,"[99, 0, 155]",155,l,0.40305656062992057,1,colour,0.5,4.0
47,21,1,2,2,20,70,127.33492237096834,128.2880050632848,"[96, 0, 158]",158,l,0.42997200148238335,1,colour,0.5,4.0
47,21,1,2,2,21,71,128.8037910047915,129.84799707608545,"[61, 0, 193]",193,a,0.5208515897393227,0,colour,0.5,4.0
47,21,1,2,2,22,72,130.36650016167368,131.19995644062328,"[2, 0, 252]",252,a,0.30999545895429037,1,colour,0.5,4.0
47,21,1,2,2,23,73,131.71179958906032,132.62389590175553,"[83, 0, 171]",171,l,0.38872962191089755,1,colour,0.5,4.0
47,21,1,2,2,24,74,133.13380762903398,134.0159558860887,"[95, 0, 159]",159,l,0.35884103702846915,1,colour,0.5,4.0
47,21,1,2,2,25,75,134.52496846277427,135.47197292859528,"[85, 0, 169]",169,l,0.43618649872041715,1,colour,0.5,4.0
47,21,1,2,2,26,76,135.98858870378535,136.92794861726543,"[80, 0, 174]",174,l,0.4222140214715182,1,colour,0.5,4.0
47,21,1,2,2,27,77,137.4427755435754,138.47196111321318,"[25, 0, 229]",229,a,0.5109495116903418,1,colour,0.5,4.0
47,21,1,2,2,28,78,138.98471286454878,139.90395905891273,"[11, 0, 243]",243,a,0.40132206250927993,1,colour,0.5,4.0
47,21,1,2,2,29,79,140.4162582811059,141.44800857639166,"[28, 0, 226]",226,a,0.49972765543861897,1,colour,0.5,4.0
47,21,1,2,2,30,80,141.96789366786106,142.87992460210626,"[5, 0, 249]",249,a,0.38872410806652624,1,colour,0.5,4.0
47,21,1,2,2,31,81,143.389819394004,144.4159900719278,"[69, 0, 185]",185,l,0.5027366394606361,1,colour,0.5,4.0
47,21,1,2,2,32,82,144.9368826216596,145.88808509280716,"[78, 0, 176]",176,l,0.42811383569460304,1,colour,0.5,4.0
47,21,1,2,2,33,83,146.40561222781798,147.49595736694937,"[20, 0, 234]",234,a,0.5667803437718248,1,colour,0.5,4.0
47,21,1,2,2,34,84,148.01518316008696,149.04790113518175,"[56, 0, 198]",198,a,0.5091866566526733,0,colour,0.5,4.0
47,21,1,2,2,35,85,149.56376702744274,150.4559855348216,"[53, 0, 201]",201,a,0.3685438289649028,0,colour,0.5,4.0
47,21,1,2,2,36,86,150.97029888584802,151.9279683095683,"[7, 0, 247]",247,a,0.4346520744056761,1,colour,0.5,4.0
47,21,1,2,2,37,87,152.43867757515181,153.52790655450372,"[9, 0, 245]",245,a,0.5657677655090083,1,colour,0.5,4.0
47,21,1,2,2,38,88,154.04808466745453,155.0239580506659,"[92, 0, 162]",162,l,0.4531403907658387,1,colour,0.5,4.0
47,21,1,2,2,39,89,155.53394185177785,156.61608081406303,"[93, 0, 161]",161,l,0.5594780436713336,1,colour,0.5,4.0
47,21,1,2,2,40,90,157.12774515638193,158.14396688857232,"[14, 0, 240]",240,a,0.4927065614356252,1,colour,0.5,4.0
47,21,1,2,2,41,91,158.65907029482878,159.51993668530486,"[45, 0, 209]",209,a,0.33737642587038863,1,colour,0.5,4.0
47,21,1,2,2,42,92,160.03436819015405,161.03993717367302,"[47, 0, 207]",207,a,0.4822865757960244,1,colour,0.5,4.0
47,21,1,2,2,43,93,161.55002573784077,162.4799459485639,"[31, 0, 223]",223,a,0.40714901520732383,1,colour,0.5,4.0
47,21,1,2,2,44,94,162.98768679627028,163.919967720376,"[1, 0, 253]",253,a,0.40894455947091046,1,colour,0.5,4.0
47,21,1,2,2,45,95,164.44084372857105,165.3919796397331,"[46, 0, 208]",208,a,0.4280850849318085,1,colour,0.5,4.0
47,21,1,2,2,46,96,165.90973835623663,167.0239033060625,"[70, 0, 184]",184,l,0.5910424436115136,1,colour,0.5,4.0
47,21,1,2,2,47,97,167.53629271900718,168.59193923112616,"[86, 0, 168]",168,l,0.5323865536229277,1,colour,0.5,4.0
47,21,1,2,2,48,98,169.0990455928022,170.26395327725186,"[8, 0, 246]",246,a,0.6416047967304621,1,colour,0.5,4.0
47,21,1,2,2,49,99,170.77088477127108,171.8159994454636,"[15, 0, 239]",239,a,0.5218574726186489,1,colour,0.5,4.0
47,21,1,2,2,50,100,172.33357187277397,173.3680542782913,"[52, 0, 202]",202,a,0.5110637270536245,0,colour,0.5,4.0
47,21,1,2,3,1,101,178.14579157744447,179.12792947634625,"[98, 0, 156]",156,l,0.4583037128268188,1,colour,0.5,4.0
47,21,1,2,3,2,102,179.64803590930933,180.63197880477856,"[12, 0, 242]",242,a,0.46070499235247553,1,colour,0.5,4.0
47,21,1,2,3,3,103,181.14814520159598,182.1439369562704,"[42, 0, 212]",212,a,0.472477839266503,1,colour,0.5,4.0
47,21,1,2,3,4,104,182.66376533390394,183.7039585075272,"[30, 0, 224]",224,a,0.5169269135894865,1,colour,0.5,4.0
47,21,1,2,3,5,105,184.21083131848172,185.4399363072116,"[40, 0, 214]",214,a,0.7057638979422336,1,colour,0.5,4.0
47,21,1,2,3,6,106,185.96093165077036,187.1201096625009,"[49, 0, 205]",205,a,0.6358700040127587,1,colour,0.5,4.0
47,21,1,2,3,7,107,187.63299020150225,188.7039049444611,"[31, 0, 223]",223,a,0.5482498858818872,1,colour,0.5,4.0
47,21,1,2,3,8,108,189.21116687533868,190.10391786261243,"[37, 0, 217]",217,a,0.36929410573793575,1,colour,0.5,4.0
47,21,1,2,3,9,109,190.61760972453158,191.49592743464746,"[5, 0, 249]",249,a,0.3552660961941001,1,colour,0.5,4.0
47,21,1,2,3,10,110,192.0096102381067,192.871959852906,"[24, 0, 230]",230,a,0.3390463332343643,1,colour,0.5,4.0
47,21,1,2,3,11,111,193.3847336596209,194.4239477318988,"[69, 0, 185]",185,l,0.5158733753360139,1,colour,0.5,4.0
47,21,1,2,3,12,112,194.93172008729198,195.77594726873576,"[48, 0, 206]",206,a,0.3208904229632026,1,colour,0.5,4.0
47,21,1,2,3,13,113,196.29118930881123,197.09591136572817,"[81, 0, 173]",173,l,0.2811651384781726,1,colour,0.5,4.0
47,21,1,2,3,14,114,197.6038266872456,198.53593943907617,"[46, 0, 208]",208,a,0.4087074641320214,1,colour,0.5,4.0
47,21,1,2,3,15,115,199.05702300415578,199.95994742942457,"[25, 0, 229]",229,a,0.37986493442622304,1,colour,0.5,4.0
47,21,1,2,3,16,116,200.478963302603,201.6080424156462,"[50, 0, 204]",204,a,0.6056171115087636,1,colour,0.5,4.0
47,21,1,2,3,17,117,202.11981073332936,203.1599215931219,"[26, 0, 228]",228,a,0.5168540520644456,1,colour,0.5,4.0
47,21,1,2,3,18,118,203.6667648656221,204.54397823133877,"[83, 0, 171]",171,l,0.3537202503430308,1,colour,0.5,4.0
47,21,1,2,3,19,119,205.05759250558185,205.83990708383317,"[78, 0, 176]",176,l,0.2589593090051494,1,colour,0.5,4.0
47,21,1,2,3,20,120,206.3545122748037,207.07994208887249,"[51, 0, 203]",203,a,0.20211944327456877,0,colour,0.5,4.0
47,21,1,2,3,21,121,207.58893576094852,208.511964059182,"[8, 0, 246]",246,a,0.3998116628063144,1,colour,0.5,4.0
47,21,1,2,3,22,122,209.0266338409092,209.8479521776335,"[13, 0, 241]",241,a,0.2980473505376722,1,colour,0.5,4.0
47,21,1,2,3,23,123,210.35477181936767,211.1679840161505,"[68, 0, 186]",186,l,0.2897931244715437,1,colour,0.5,4.0
47,21,1,2,3,24,124,211.68308663471544,212.47194299629336,"[85, 0, 169]",169,l,0.26547234156714694,1,colour,0.5,4.0
47,21,1,2,3,25,125,212.98006036084917,213.81595533470318,"[94, 0, 160]",160,l,0.31256609229421883,1,colour,0.5,4.0
47,21,1,2,3,26,126,214.323881683913,215.13590958554414,"[71, 0, 183]",183,a,0.2885300601046765,0,colour,0.5,4.0
47,21,1,2,3,27,127,215.65349028361925,216.27993515718117,"[56, 0, 198]",198,a,0.10318649044893391,0,colour,0.5,4.0
47,21,1,2,3,28,128,216.79422684667406,217.39193710435575,"[93, 0, 161]",161,l,0.07453970224378281,1,colour,0.5,4.0
47,21,1,2,3,29,129,217.9035864805246,218.58394258039334,"[75, 0, 179]",179,a,0.15738364900789747,0,colour,0.5,4.0
47,21,1,2,3,30,130,219.0912072681931,219.87193937290976,"[28, 0, 226]",226,a,0.2574433954578126,1,colour,0.5,4.0
47,21,1,2,3,31,131,220.38820698816744,221.05595607513533,"[23, 0, 231]",231,a,0.14426975620699523,1,colour,0.5,4.0
47,21,1,2,3,32,132,221.5771719724944,222.2159670713172,"[16, 0, 238]",238,a,0.11538862958514073,1,colour,0.5,4.0
47,21,1,2,3,33,133,222.73348239094412,223.47195520552305,"[58, 0, 196]",196,a,0.21543301603924192,0,colour,0.5,4.0
47,21,1,2,3,34,134,223.9835872524618,224.63193666324878,"[59, 0, 195]",195,a,0.12487992617752752,0,colour,0.5,4.0
47,21,1,2,3,35,135,225.1399492647488,225.95195511099882,"[32, 0, 222]",222,a,0.28854305702407146,1,colour,0.5,4.0
47,21,1,2,3,36,136,226.4681821601116,227.1519328193117,"[18, 0, 236]",236,a,0.1605454453092534,1,colour,0.5,4.0
47,21,1,2,3,37,137,227.67138271086515,228.4399221287531,"[0, 0, 254]",254,a,0.2450565425115201,1,colour,0.5,4.0
47,21,1,2,3,38,138,228.9527014493142,229.69589726603772,"[95, 0, 159]",159,l,0.22002565513321315,1,colour,0.5,4.0
47,21,1,2,3,39,139,230.20289059389142,230.96798228322768,"[96, 0, 158]",158,l,0.2420353492598224,1,colour,0.5,4.0
47,21,1,2,3,40,140,231.48422469233628,232.07191471814622,"[38, 0, 216]",216,a,0.06411577814469638,1,colour,0.5,4.0
47,21,1,2,3,41,141,232.5935583323444,233.25592236191005,"[80, 0, 174]",174,l,0.1389465326374193,1,colour,0.5,4.0
47,21,1,2,3,42,142,233.76807507336343,234.55992308973873,"[10, 0, 244]",244,a,0.2684951102055493,1,colour,0.5,4.0
47,21,1,2,3,43,143,235.08066085796236,235.6719447292162,"[57, 0, 197]",197,a,0.06779863280280551,0,colour,0.5,4.0
47,21,1,2,3,44,144,236.19016385178293,236.82394607774586,"[55, 0, 199]",199,a,0.11231820557441097,0,colour,0.5,4.0
47,21,1,2,3,45,145,237.34500995052076,238.07997792886636,"[44, 0, 210]",210,a,0.21154221065080492,1,colour,0.5,4.0
47,21,1,2,3,46,146,238.59520067048288,239.45589928252957,"[47, 0, 207]",207,a,0.33737957663834095,1,colour,0.5,4.0
47,21,1,2,3,47,147,239.97258161770696,240.81594548855173,"[66, 0, 188]",188,l,0.3200562569727481,1,colour,0.5,4.0
47,21,1,2,3,48,148,241.33081258716265,242.0959464180287,"[87, 0, 167]",167,l,0.24180810007419495,1,colour,0.5,4.0
47,21,1,2,3,49,149,242.61208130715931,243.224147254321,"[64, 0, 190]",190,a,0.0885771640951134,0,colour,0.5,4.0
47,21,1,2,3,50,150,243.7372483471263,244.54390103750848,"[79, 0, 175]",175,l,0.28339470111677656,1,colour,0.5,4.0
47,21,1,2,4,1,151,250.31504417180622,251.61605797099037,"[98, 0, 156]",156,l,0.7768988008556335,1,colour,0.5,3.9
47,21,1,2,4,2,152,252.12917245456265,252.8799226328756,"[16, 0, 238]",238,a,0.22742090290739725,1,colour,0.5,3.9
47,21,1,2,4,3,153,253.3949118237706,254.27997099717504,"[13, 0, 241]",241,a,0.36171453800125164,1,colour,0.5,3.9
47,21,1,2,4,4,154,254.8011624760784,256.07188675507496,"[34, 0, 220]",220,a,0.7473556189834198,1,colour,0.5,3.9
47,21,1,2,4,5,155,256.58261177450004,258.1919369468178,"[14, 0, 240]",240,a,1.0860337061349128,1,colour,0.5,3.9
47,21,1,2,4,6,156,258.709150580351,259.6639650138641,"[63, 0, 191]",191,a,0.4315095765632577,0,colour,0.5,3.9
47,21,1,2,4,7,157,260.1780526910916,261.1519147023919,"[39, 0, 215]",215,a,0.45039607130638615,1,colour,0.5,3.9
47,21,1,2,4,8,158,261.66246327877525,262.3439119076593,"[71, 0, 183]",183,l,0.1581677965441486,1,colour,0.5,3.9
47,21,1,2,4,9,159,262.8500572849116,263.6479189370257,"[35, 0, 219]",219,a,0.2743484505899687,1,colour,0.5,3.9
47,21,1,2,4,10,160,264.16268166642476,265.0959617780263,"[38, 0, 216]",216,a,0.40985119313700125,1,colour,0.5,3.9
47,21,1,2,4,11,161,265.61605560791395,266.5678957158598,"[84, 0, 170]",170,l,0.4286065371361474,1,colour,0.5,3.9
47,21,1,2,4,12,162,267.0862538660913,267.9999401353962,"[27, 0, 227]",227,a,0.39032233544457995,1,colour,0.5,3.9
47,21,1,2,4,13,163,268.5083591860457,269.38391524747567,"[25, 0, 229]",229,a,0.3526781336277054,1,colour,0.5,3.9
47,21,1,2,4,14,164,269.899017472193,270.7039325136866,"[64, 0, 190]",190,l,0.2814392553464131,1,colour,0.5,3.9
47,21,1,2,4,15,165,271.2115855337179,272.08001022424287,"[86, 0, 168]",168,l,0.3449855320632196,1,colour,0.5,3.9
47,21,1,2,4,16,166,272.5866865060052,273.4799498870252,"[54, 0, 200]",200,a,0.3700085425225552,0,colour,0.5,3.9
47,21,1,2,4,17,167,273.99316558903774,274.98390863086024,"[57, 0, 197]",197,a,0.4674563017924811,0,colour,0.5,3.9
47,21,1,2,4,18,168,275.4932866967065,277.39207967663606,"[82, 0, 172]",172,l,1.3755231752820691,1,colour,0.5,3.9
47,21,1,2,4,19,169,277.8996759828333,278.8799478390247,"[78, 0, 176]",176,l,0.4569256454051356,1,colour,0.5,3.9
47,21,1,2,4,20,170,279.3996466412991,280.5359193529257,"[60, 0, 194]",194,a,0.6128000762473675,0,colour,0.5,3.9
47,21,1,2,4,21,171,281.0560529612685,282.04790625518035,"[48, 0, 206]",206,a,0.4669076742084144,1,colour,0.5,3.9
47,21,1,2,4,22,172,282.55776245016386,283.62392071405884,"[21, 0, 233]",233,a,0.5428498623314226,1,colour,0.5,3.9
47,21,1,2,4,23,173,284.1358650809361,285.1359430624598,"[5, 0, 249]",249,a,0.47710474296945904,1,colour,0.5,3.9
47,21,1,2,4,24,174,285.65165850551966,286.5680063866075,"[51, 0, 203]",203,a,0.3931899287254055,0,colour,0.5,3.9
47,21,1,2,4,25,175,287.075028465224,288.11192632872735,"[2, 0, 252]",252,a,0.5135654373279976,1,colour,0.5,3.9
47,21,1,2,4,26,176,288.62190579753224,289.95191178792993,"[66, 0, 188]",188,a,0.8065239027146163,0,colour,0.5,3.9
47,21,1,2,4,27,177,290.4657986036582,291.61595478331947,"[18, 0, 236]",236,a,0.6266441596762888,1,colour,0.5,3.9
47,21,1,2,4,28,178,292.1221714467101,292.9439048971999,"[23, 0, 231]",231,a,0.2986022796594625,1,colour,0.5,3.9
47,21,1,2,4,29,179,293.4504649943701,294.61596817408645,"[67, 0, 187]",187,a,0.6421175843224773,0,colour,0.5,3.9
47,21,1,2,4,30,180,295.1224632866524,296.3839329705479,"[81, 0, 173]",173,l,0.738067546964885,1,colour,0.5,3.9
47,21,1,2,4,31,181,296.8897034063357,297.90395236352924,"[68, 0, 186]",186,l,0.49127650633272424,1,colour,0.5,3.9
47,21,1,2,4,32,182,298.42110928322654,299.4959266469559,"[90, 0, 164]",164,l,0.551436494486552,1,colour,0.5,3.9
47,21,1,2,4,33,183,300.01486138784276,301.15994601157945,"[99, 0, 155]",155,l,0.621547397602626,1,colour,0.5,3.9
47,21,1,2,4,34,184,301.6714315477784,302.7038974613861,"[40, 0, 214]",214,a,0.5092866935556231,1,colour,0.5,3.9
47,21,1,2,4,35,185,303.2183549600777,304.04792988594636,"[74, 0, 180]",180,a,0.3062972442985483,0,colour,0.5,3.9
47,21,1,2,4,36,186,304.56227238158317,305.5039386576864,"[10, 0, 244]",244,a,0.4183964714557078,1,colour,0.5,3.9
47,21,1,2,4,37,187,306.01539820004473,306.8559330745229,"[92, 0, 162]",162,l,0.3171347067782335,1,colour,0.5,3.9
47,21,1,2,4,38,188,307.3750383507613,308.19189953144087,"[79, 0, 175]",175,l,0.2936654190943955,1,colour,0.5,3.9
47,21,1,2,4,39,189,308.70324879689906,309.6079821571966,"[28, 0, 226]",226,a,0.3816947432969755,1,colour,0.5,3.9
47,21,1,2,4,40,190,310.12513198766646,310.9359212433883,"[41, 0, 213]",213,a,0.28736348802704015,1,colour,0.5,3.9
47,21,1,2,4,41,191,311.45334991687923,312.27197670951864,"[29, 0, 225]",225,a,0.29515652033842343,1,colour,0.5,3.9
47,21,1,2,4,42,192,312.7816474029987,313.6799023891872,"[85, 0, 169]",169,l,0.37484536618285347,1,colour,0.5,3.9
47,21,1,2,4,43,193,314.1879803691354,314.9519015479327,"[91, 0, 163]",163,l,0.23817171925293223,1,colour,0.5,3.9
47,21,1,2,4,44,194,315.4718130270885,316.15992750081386,"[47, 0, 207]",207,a,0.16553468740312383,1,colour,0.5,3.9
47,21,1,2,4,45,195,316.6738103780808,317.472034368584,"[26, 0, 228]",228,a,0.2751117242860346,1,colour,0.5,3.9
47,21,1,2,4,46,196,317.98655527649316,318.72793309972985,"[30, 0, 224]",224,a,0.21866846155535313,1,colour,0.5,3.9
47,21,1,2,4,47,197,319.23658058110414,320.1439085993534,"[94, 0, 160]",160,l,0.38433902585347823,1,colour,0.5,3.9
47,21,1,2,4,48,198,320.6586295810703,321.35989457528194,"[12, 0, 242]",242,a,0.17773682653751166,1,colour,0.5,3.9
47,21,1,2,4,49,199,321.87756585795614,322.58395557731274,"[17, 0, 237]",237,a,0.18316402546952304,1,colour,0.5,3.9
47,21,1,2,4,50,200,323.09635759333287,323.863884432958,"[95, 0, 159]",159,l,0.24400733656511875,1,colour,0.5,3.9
47,21,1,2,5,1,201,329.0023788303006,329.95994270327174,"[80, 0, 174]",174,l,0.43227993948858057,1,colour,0.4,3.9
47,21,1,2,5,2,202,330.47332618371365,331.23993654351943,"[54, 0, 200]",200,a,0.24331298593097017,0,colour,0.4,3.9
47,21,1,2,5,3,203,331.7543932545195,332.52794948372684,"[41, 0, 213]",213,a,0.2500800492161943,1,colour,0.4,3.9
47,21,1,2,5,4,204,333.03573956219225,333.65594748928925,"[93, 0, 161]",161,l,0.09760923616158834,1,colour,0.4,3.9
47,21,1,2,5,5,205,334.17647179294,334.71996638129895,"[52, 0, 202]",202,a,0.020364992913528113,0,colour,0.4,3.9
47,21,1,2,5,6,206,335.2409499094738,335.9678995755512,"[83, 0, 171]",171,l,0.20370821834694652,1,colour,0.4,3.9
47,21,1,2,5,7,207,336.47533046639546,337.2559530819035,"[82, 0, 172]",172,l,0.2570499432258657,1,colour,0.4,3.9
47,21,1,2,5,8,208,337.77218328178424,338.407993421195,"[94, 0, 160]",160,l,0.11282351008958358,1,colour,0.4,3.9
47,21,1,2,5,9,209,338.9287114971157,339.7839277717794,"[57, 0, 197]",197,l,0.3317664823589439,1,colour,0.4,3.9
47,21,1,2,5,10,210,340.3038459463187,341.63987896322396,"[99, 0, 155]",155,l,0.8125954338283918,1,colour,0.4,3.9
47,21,1,2,5,11,211,342.1491695952409,343.12790308865806,"[59, 0, 195]",195,a,0.45529787957093504,0,colour,0.4,3.9
47,21,1,2,5,12,212,343.64927494906624,344.6879084922275,"[66, 0, 188]",188,a,0.5153097816018999,0,colour,0.4,3.9
47,21,1,2,5,13,213,345.1963058813417,346.2398916450675,"[90, 0, 164]",164,l,0.520488463658694,1,colour,0.4,3.9
47,21,1,2,5,14,214,346.7588574997935,347.80798349627366,"[55, 0, 199]",199,a,0.5257443395457813,0,colour,0.4,3.9
47,21,1,2,5,15,215,348.32158162282576,349.43993591336584,"[72, 0, 182]",182,a,0.5949954766783776,0,colour,0.4,3.9
47,21,1,2,5,16,216,349.94660983205176,351.0158916891778,"[62, 0, 192]",192,a,0.5442141451385396,0,colour,0.4,3.9
47,21,1,2,5,17,217,351.5262854840548,352.3119320001115,"[27, 0, 227]",227,a,0.26211795453673403,1,colour,0.4,3.9
47,21,1,2,5,18,218,352.82327732710837,353.5039016361552,"[1, 0, 253]",253,a,0.15704966753582994,1,colour,0.4,3.9
47,21,1,2,5,19,219,354.01086030555416,355.4639652501719,"[75, 0, 179]",179,l,0.9297095030724449,1,colour,0.4,3.9
47,21,1,2,5,20,220,355.9798874624212,356.7519013903948,"[22, 0, 232]",232,a,0.2473711759030266,1,colour,0.4,3.9
47,21,1,2,5,21,221,357.26259647751976,358.0239005491385,"[58, 0, 196]",196,a,0.23789208853668242,0,colour,0.4,3.9
47,21,1,2,5,22,222,358.54384274828953,359.3359105307736,"[77, 0, 177]",177,l,0.26875780553564255,1,colour,0.4,3.9
47,21,1,2,5,23,223,359.8565923728547,360.43994379028845,"[42, 0, 212]",212,a,0.06004301587017835,1,colour,0.4,3.9
47,21,1,2,5,24,224,360.9502076159588,361.6398809324546,"[63, 0, 191]",191,a,0.16607622575793357,0,colour,0.4,3.9
47,21,1,2,5,25,225,362.1535550712997,362.7919854686552,"[98, 0, 156]",156,l,0.11505661734372552,1,colour,0.4,3.9
47,21,1,2,5,26,226,363.3099159020476,364.78389705178597,"[6, 0, 248]",248,a,0.9506577820247912,1,colour,0.4,3.9
47,21,1,2,5,27,227,365.2943719789546,365.87197206213386,"[35, 0, 219]",219,a,0.05414438318257453,1,colour,0.4,3.9
47,21,1,2,5,28,228,366.38833380660435,367.04792988594636,"[76, 0, 178]",178,l,0.13646372697439801,1,colour,0.4,3.9
47,21,1,2,5,29,229,367.56026573582494,368.59993745724205,"[73, 0, 181]",181,l,0.5165409444343823,1,colour,0.4,3.9
47,21,1,2,5,30,230,369.10853767708795,369.85591692683374,"[24, 0, 230]",230,a,0.22381878669330035,1,colour,0.4,3.9
47,21,1,2,5,31,231,370.37430776628935,371.8558826622266,"[11, 0, 243]",243,a,0.9582491651453893,1,colour,0.4,3.9
47,21,1,2,5,32,232,372.37440859088565,373.0719068412236,"[5, 0, 249]",249,a,0.1739409380534198,1,colour,0.4,3.9
47,21,1,2,5,33,233,373.5933988246834,374.4240135041946,"[64, 0, 190]",190,l,0.30744412407329946,1,colour,0.4,3.9
47,21,1,2,5,34,234,374.9378688122342,375.4639270471034,"[85, 0, 169]",169,l,0.003306731656266493,1,colour,0.4,3.9
47,21,1,2,5,35,235,375.9841394246614,377.0639149166436,"[70, 0, 184]",184,a,0.5563938350478566,0,colour,0.4,3.9
47,21,1,2,5,36,236,377.5780124400226,378.839925200753,"[38, 0, 216]",216,a,0.7384369745850563,1,colour,0.4,3.9
47,21,1,2,5,37,237,379.35928884001623,380.14389717781705,"[84, 0, 170]",170,l,0.2610841085861466,1,colour,0.4,3.9
47,21,1,2,5,38,238,380.65636378459203,381.32791703081057,"[14, 0, 240]",240,a,0.14826965695647232,1,colour,0.4,3.9
47,21,1,2,5,39,239,381.84396330457275,382.7519391996175,"[20, 0, 234]",234,a,0.3846785211699171,1,colour,0.4,3.9
47,21,1,2,5,40,240,383.26622458757447,384.0479094059501,"[51, 0, 203]",203,a,0.25816373993075103,0,colour,0.4,3.9
47,21,1,2,5,41,241,384.5632518767743,385.23993221121236,"[86, 0, 168]",168,l,0.15327268366309,1,colour,0.4,3.9
47,21,1,2,5,42,242,385.75083012906725,386.3279422369578,"[16, 0, 238]",238,a,0.054136506261784234,1,colour,0.4,3.9
47,21,1,2,5,43,243,386.8446237844437,387.42388038421996,"[25, 0, 229]",229,a,0.055829650544183096,1,colour,0.4,3.9
47,21,1,2,5,44,244,387.93859742747554,388.5679311620079,"[45, 0, 209]",209,a,0.1062955113757198,1,colour,0.4,3.9
47,21,1,2,5,45,245,389.07925797823737,389.6319323309417,"[96, 0, 158]",158,l,0.027701557621185202,1,colour,0.4,3.9
47,21,1,2,5,46,246,390.1433899040712,390.9039464558373,"[81, 0, 173]",173,l,0.23707997792917013,1,colour,0.4,3.9
47,21,1,2,5,47,247,391.42495322093237,392.05592693052495,"[44, 0, 210]",210,a,0.10772911109415872,1,colour,0.4,3.9
47,21,1,2,5,48,248,392.56555548247525,393.27990837564903,"[4, 0, 250]",250,a,0.19097044854788692,1,colour,0.4,3.9
47,21,1,2,5,49,249,393.799982119388,394.5919360803564,"[19, 0, 235]",235,a,0.26856324557411426,1,colour,0.4,3.9
47,21,1,2,5,50,250,395.11255845168125,396.5438616529009,"[47, 0, 207]",207,a,0.907826233535161,1,colour,0.4,3.9
47,21,1,2,6,1,251,402.59973895882104,403.55989394512835,"[84, 0, 170]",170,l,0.43589308339323907,1,colour,0.28,3.9
47,21,1,2,6,2,252,404.06935865711057,404.7119976936374,"[13, 0, 241]",241,a,0.1194598164765921,1,colour,0.28,3.9
47,21,1,2,6,3,253,405.22571948785844,407.47991404703134,"[69, 0, 185]",185,l,1.7307490991752275,1,colour,0.28,3.9
47,21,1,2,6,4,254,407.99159926319226,412.06390703972284,"[53, 0, 201]",201,a,3.5490466364954045,0,colour,0.28,3.9
47,21,1,2,6,5,255,412.57010086004084,413.36788492447704,"[20, 0, 234]",234,a,0.2745784566977818,1,colour,0.28,3.9
47,21,1,2,6,6,256,413.88260590619393,414.68791715683983,"[78, 0, 176]",176,l,0.2822293105764402,1,colour,0.28,3.9
47,21,1,2,6,7,257,415.19523343847686,416.1200119886744,"[70, 0, 184]",184,l,0.40171039474080317,1,colour,0.28,3.9
47,21,1,2,6,8,258,416.6328811061394,417.47188037476735,"[45, 0, 209]",209,a,0.3156140670780587,1,colour,0.28,3.9
47,21,1,2,6,9,259,417.99231527535994,419.0559115705273,"[73, 0, 181]",181,l,0.5401047551786178,1,colour,0.28,3.9
47,21,1,2,6,10,260,419.5705774137932,420.31188946473594,"[41, 0, 213]",213,a,0.2179969539956801,1,colour,0.28,3.9
47,21,1,2,6,11,261,420.82064131532024,421.95189839716477,"[56, 0, 198]",198,a,0.6078569141463959,0,colour,0.28,3.9
47,21,1,2,6,12,262,422.46290225961275,423.23186624357004,"[52, 0, 202]",202,a,0.24551143473036063,0,colour,0.28,3.9
47,21,1,2,6,13,263,423.7441556196118,424.47190636860796,"[96, 0, 158]",158,l,0.20427141823529382,1,colour,0.28,3.9
47,21,1,2,6,14,264,424.97869922881,425.8079756193529,"[94, 0, 160]",160,l,0.3046360015487153,1,colour,0.28,3.9
47,21,1,2,6,15,265,426.32394903159184,427.39188747975095,"[18, 0, 236]",236,a,0.5444551789387333,1,colour,0.28,3.9
47,21,1,2,6,16,266,427.909948276194,428.7198990336201,"[54, 0, 200]",200,a,0.29523528955360234,0,colour,0.28,3.9
47,21,1,2,6,17,267,429.2295902070964,429.95990843866457,"[25, 0, 229]",229,a,0.20702755307866028,1,colour,0.28,3.9
47,21,1,2,6,18,268,430.4795182317248,431.3438591322865,"[79, 0, 175]",175,l,0.34120382204127964,1,colour,0.28,3.9
47,21,1,2,6,19,269,431.8560650129584,432.6959027798839,"[90, 0, 164]",164,l,0.3170602698719449,1,colour,0.28,3.9
47,21,1,2,6,20,270,433.2155393544781,434.43189987802543,"[76, 0, 178]",178,l,0.6931490081187803,1,colour,0.28,3.9
47,21,1,2,6,21,271,434.95009024982755,435.9598749617471,"[65, 0, 189]",189,a,0.48642589805785974,0,colour,0.28,3.9
47,21,1,2,6,22,272,436.48152842209856,437.2479532804027,"[7, 0, 247]",247,a,0.24299357676500222,1,colour,0.28,3.9
47,21,1,2,6,23,273,437.7627384590287,438.77588228413333,"[60, 0, 194]",194,a,0.4897263281764026,0,colour,0.28,3.9
47,21,1,2,6,24,274,439.2941935666822,440.2478544250371,"[83, 0, 171]",171,l,0.4306190905845142,1,colour,0.28,3.9
47,21,1,2,6,25,275,440.76298658205815,441.5281578283011,"[28, 0, 226]",226,a,0.2416277185711806,1,colour,0.28,3.9
47,21,1,2,6,26,276,442.0457641263729,443.16791942539385,"[72, 0, 182]",182,l,0.5986988113327243,1,colour,0.28,3.9
47,21,1,2,6,27,277,443.68652609249875,444.53589375293086,"[58, 0, 196]",196,a,0.32628453882352915,0,colour,0.28,3.9
47,21,1,2,6,28,278,445.04603391093406,445.78391477486,"[57, 0, 197]",197,a,0.21440625931791146,0,colour,0.28,3.9
47,21,1,2,6,29,279,446.29619391090273,447.2159202036346,"[82, 0, 172]",172,l,0.39636905425504665,1,colour,0.28,3.9
47,21,1,2,6,30,280,447.73388214471197,448.6239278032881,"[74, 0, 180]",180,l,0.3667309554748499,1,colour,0.28,3.9
47,21,1,2,6,31,281,449.1400756893381,450.2078573867602,"[23, 0, 231]",231,a,0.5436166806412075,1,colour,0.28,3.9
47,21,1,2,6,32,282,450.7197525228785,451.7198883997753,"[87, 0, 167]",167,l,0.47699013376222865,1,colour,0.28,3.9
47,21,1,2,6,33,283,452.2350918429347,453.1919330083583,"[81, 0, 173]",173,l,0.43347605002418277,1,colour,0.28,3.9
47,21,1,2,6,34,284,453.7039325136866,454.47984473012184,"[16, 0, 238]",238,a,0.25296418403013377,1,colour,0.28,3.9
47,21,1,2,6,35,285,455.0009893413426,455.82391969005766,"[46, 0, 208]",208,a,0.2983722735498304,1,colour,0.28,3.9
47,21,1,2,6,36,286,456.3305538302902,457.23189893279414,"[77, 0, 177]",177,l,0.3778728609722748,1,colour,0.28,3.9
47,21,1,2,6,37,287,457.7525646271861,458.87196024675177,"[86, 0, 168]",168,l,0.5955027504242025,1,colour,0.28,3.9
47,21,1,2,6,38,288,459.39338567022605,460.0399312659829,"[92, 0, 162]",162,l,0.1231340065223776,1,colour,0.28,3.9
47,21,1,2,6,39,289,460.54969884559796,462.6158913741001,"[59, 0, 195]",195,a,1.5428439546394657,0,colour,0.28,3.9
47,21,1,2,6,40,290,463.1281460916871,464.5998886203288,"[62, 0, 192]",192,a,0.9483529947847273,0,colour,0.28,3.9
47,21,1,2,6,41,291,465.1127321378008,466.2318784527997,"[85, 0, 169]",169,l,0.5958213719004561,1,colour,0.28,3.9
47,21,1,2,6,42,292,466.7376449501244,467.92806598339666,"[2, 0, 252]",252,a,0.6670381947988062,1,colour,0.28,3.9
47,21,1,2,6,43,293,468.44085199933943,469.6799374414895,"[63, 0, 191]",191,a,0.7155218283278373,0,colour,0.28,3.9
47,21,1,2,6,44,294,470.19103228238055,471.43983272569494,"[93, 0, 161]",161,l,0.7257342570865148,1,colour,0.28,3.9
47,21,1,2,6,45,295,471.9568072946586,473.10406043489274,"[66, 0, 188]",188,a,0.6239593109748967,0,colour,0.28,3.9
47,21,1,2,6,46,296,473.6168767769832,476.9759214324331,"[40, 0, 214]",214,a,2.835592500066923,1,colour,0.28,3.9
47,21,1,2,6,47,297,477.4922453676809,478.79203509326,"[80, 0, 174]",174,l,0.7767034532025718,1,colour,0.28,3.9
47,21,1,2,6,48,298,479.30489593995844,480.6398809324546,"[99, 0, 155]",155,l,0.8118487016672589,1,colour,0.28,3.9
47,21,1,2,6,49,299,481.1487060384079,482.1518871331664,"[51, 0, 203]",203,a,0.48002589931820694,0,colour,0.28,3.9
47,21,1,2,6,50,300,482.66598701961993,483.7598964657427,"[9, 0, 245]",245,a,0.5705297584190703,1,colour,0.28,3.9
47,21,1,2,7,1,301,488.4325064009827,489.56784372817856,"[67, 0, 187]",187,a,0.6111833381055476,0,colour,0.14,3.9
47,21,1,2,7,2,302,490.0740174623461,491.5838775957891,"[66, 0, 188]",188,a,0.9864142795977386,0,colour,0.14,3.9
47,21,1,2,7,3,303,492.089837077694,492.6478913678002,"[55, 0, 199]",199,a,0.03464703317877138,0,colour,0.14,3.9
47,21,1,2,7,4,304,493.16802812691094,494.1198520871676,"[82, 0, 172]",172,l,0.42836235256982036,1,colour,0.14,3.9
47,21,1,2,7,5,305,494.63697080379643,495.42386856883786,"[53, 0, 201]",201,a,0.26387844649798353,0,colour,0.14,3.9
47,21,1,2,7,6,306,495.93385197610223,496.9119127804224,"[89, 0, 165]",165,l,0.4546137689376337,1,colour,0.14,3.9
47,21,1,2,7,7,307,497.4184563360577,498.3278768585096,"[99, 0, 155]",155,l,0.38616489626292605,1,colour,0.14,3.9
47,21,1,2,7,8,308,498.84042026527095,499.86394547909913,"[76, 0, 178]",178,a,0.5002538337957958,0,colour,0.14,3.9
47,21,1,2,7,9,309,500.37174461602444,501.1919054391328,"[79, 0, 175]",175,a,0.29681776308825647,0,colour,0.14,3.9
47,21,1,2,7,10,310,501.70004997906653,502.59186597575535,"[64, 0, 190]",190,a,0.3804675189239788,0,colour,0.14,3.9
47,21,1,2,7,11,311,503.09988251571485,504.48791621161035,"[83, 0, 171]",171,l,0.8728999634913635,1,colour,0.14,3.9
47,21,1,2,7,12,312,504.9980500680758,505.6398836893768,"[90, 0, 164]",164,l,0.11838107207222492,1,colour,0.14,3.9
47,21,1,2,7,13,313,506.1544778526568,507.92787890651016,"[86, 0, 168]",168,l,1.2506656983314315,1,colour,0.14,3.9
47,21,1,2,7,14,314,508.43576468957144,509.4321818718163,"[68, 0, 186]",186,a,0.47328679910606297,0,colour,0.14,3.9
47,21,1,2,7,15,315,509.9529515415725,510.70387579985254,"[14, 0, 240]",240,a,0.22777890899124031,1,colour,0.14,3.9
47,21,1,2,7,16,316,511.21861056618036,512.3759355321235,"[73, 0, 181]",181,a,0.6340279859141447,0,colour,0.14,3.9
47,21,1,2,7,17,317,512.8906297323065,513.8878802928484,"[93, 0, 161]",161,l,0.4745951557724766,1,colour,0.14,3.9
47,21,1,2,7,18,318,514.4064452122693,515.3198916293131,"[63, 0, 191]",191,a,0.3900304955022875,0,colour,0.14,3.9
47,21,1,2,7,19,319,515.8284378922453,516.6638882138795,"[88, 0, 166]",166,l,0.3120733908526745,1,colour,0.14,3.9
47,21,1,2,7,20,320,517.1723139599126,517.9839176893202,"[38, 0, 216]",216,a,0.2883016293799301,1,colour,0.14,3.9
47,21,1,2,7,21,321,518.5015633719995,519.3039042355376,"[15, 0, 239]",239,a,0.27962756339547923,1,colour,0.14,3.9
47,21,1,2,7,22,322,519.8135127013393,520.7279051366586,"[75, 0, 179]",179,a,0.39097769531508675,0,colour,0.14,3.9
47,21,1,2,7,23,323,521.2362532950137,522.0079474199738,"[16, 0, 238]",238,a,0.24859603719960432,1,colour,0.14,3.9
47,21,1,2,7,24,324,522.5175641565402,523.3118579570491,"[81, 0, 173]",173,l,0.2708219528230984,1,colour,0.14,3.9
47,21,1,2,7,25,325,523.8301782980561,524.5839118603981,"[71, 0, 183]",183,a,0.23044170231332828,0,colour,0.14,3.9
47,21,1,2,7,26,326,525.0960677226194,525.847890343799,"[74, 0, 180]",180,a,0.22846026270235598,0,colour,0.14,3.9
47,21,1,2,7,27,327,526.3617259595358,527.1598699992865,"[57, 0, 197]",197,a,0.2750164135341038,0,colour,0.14,3.9
47,21,1,2,7,28,328,527.6755952884978,528.2798878956528,"[22, 0, 232]",232,a,0.08081012562615797,1,colour,0.14,3.9
47,21,1,2,7,29,329,528.8007623284648,529.5918746403695,"[60, 0, 194]",194,a,0.2678818918629986,0,colour,0.14,3.9
47,21,1,2,7,30,330,530.1133666238293,530.9118730019691,"[94, 0, 160]",160,l,0.27512984120585315,1,colour,0.14,3.9
47,21,1,2,7,31,331,531.4258870299782,532.1919141037451,"[95, 0, 159]",159,l,0.24263635837269248,1,colour,0.14,3.9
47,21,1,2,7,32,332,532.7073562176283,533.4958529977393,"[87, 0, 167]",167,l,0.2657578799735347,1,colour,0.14,3.9
47,21,1,2,7,33,333,534.0042050945558,534.8238704592986,"[77, 0, 177]",177,a,0.29642824931761425,0,colour,0.14,3.9
47,21,1,2,7,34,334,535.3325262114413,536.223853445148,"[98, 0, 156]",156,l,0.3680263152182306,1,colour,0.14,3.9
47,21,1,2,7,35,335,536.7403195588286,537.7598614134422,"[84, 0, 170]",170,a,0.4961086038438225,0,colour,0.14,3.9
47,21,1,2,7,36,336,538.2717195280311,539.0558532813084,"[96, 0, 158]",158,l,0.26070837943007064,1,colour,0.14,3.9
47,21,1,2,7,37,337,539.5686322080237,540.3998994904814,"[52, 0, 202]",202,a,0.3079521855106577,0,colour,0.14,3.9
47,21,1,2,7,38,338,540.9124854326183,541.7678793318628,"[72, 0, 182]",182,a,0.33190235925576417,0,colour,0.14,3.9
47,21,1,2,7,39,339,542.2876750202722,543.0878548503915,"[59, 0, 195]",195,a,0.2768611885567225,0,colour,0.14,3.9
47,21,1,2,7,40,340,543.6001993648842,544.3278768585096,"[69, 0, 185]",185,a,0.20412018134265963,0,colour,0.14,3.9
47,21,1,2,7,41,341,544.834629152565,545.5998976787887,"[49, 0, 205]",205,a,0.24267574298028194,1,colour,0.14,3.9
47,21,1,2,7,42,342,546.116062894067,546.8078940932137,"[85, 0, 169]",169,l,0.16852200988978439,1,colour,0.14,3.9
47,21,1,2,7,43,343,547.3192205155992,548.0879174719175,"[91, 0, 163]",163,l,0.2457284439187788,1,colour,0.14,3.9
47,21,1,2,7,44,344,548.6019523737687,549.351878626092,"[61, 0, 193]",193,a,0.2268116230279702,0,colour,0.14,3.9
47,21,1,2,7,45,345,549.8932169071813,550.6318464724973,"[17, 0, 237]",237,a,0.20982898021793517,1,colour,0.14,3.9
47,21,1,2,7,46,346,551.1491731398546,552.0158991722528,"[70, 0, 184]",184,a,0.3434715877465351,0,colour,0.14,3.9
47,21,1,2,7,47,347,552.5241488690899,553.2718554049261,"[65, 0, 189]",189,a,0.22430715582777339,0,colour,0.14,3.9
47,21,1,2,7,48,348,553.7895995491253,554.5519236820819,"[51, 0, 203]",203,a,0.23874555298425548,0,colour,0.14,3.9
47,21,1,2,7,49,349,555.0712195798205,555.8318966484876,"[92, 0, 162]",162,l,0.23724657481943723,1,colour,0.14,3.9
47,21,1,2,7,50,350,556.3525485582668,557.0878729673113,"[50, 0, 204]",204,l,0.21197504748852225,0,colour,0.14,3.9
47,21,1,2,8,1,351,563.9461273706092,564.8718381544677,"[95, 0, 159]",159,l,0.40169070243609895,1,colour,0.06,3.8
47,21,1,2,8,2,352,565.3845603673471,566.2558774634581,"[54, 0, 200]",200,a,0.3480374453101831,0,colour,0.06,3.8
47,21,1,2,8,3,353,566.7752072319581,568.9198794988533,"[76, 0, 178]",178,a,1.621227988434839,0,colour,0.06,3.8
47,21,1,2,8,4,354,569.43174391498,570.6398773878391,"[65, 0, 189]",189,a,0.6847860805337405,0,colour,0.06,3.8
47,21,1,2,8,5,355,571.1505882288075,571.8558338253115,"[55, 0, 199]",199,a,0.18189899187200353,0,colour,0.06,3.8
47,21,1,2,8,6,356,572.3696158779821,573.2318567912644,"[97, 0, 157]",157,l,0.33915661013452336,1,colour,0.06,3.8
47,21,1,2,8,7,357,573.744560887224,574.567887838939,"[80, 0, 174]",174,l,0.29994687016551325,1,colour,0.06,3.8
47,21,1,2,8,8,358,575.0883617302916,575.9198475973226,"[92, 0, 162]",162,l,0.30831176697938645,1,colour,0.06,3.8
47,21,1,2,8,9,359,576.432209047196,577.2478256742743,"[57, 0, 197]",197,a,0.2921644716971059,0,colour,0.06,3.8
47,21,1,2,8,10,360,577.7604978687013,578.6318901894119,"[90, 0, 164]",164,l,0.34791614071764343,1,colour,0.06,3.8
47,21,1,2,8,11,361,579.1510242164131,579.9119691004125,"[60, 0, 194]",194,a,0.23718513483254355,0,colour,0.06,3.8
47,21,1,2,8,12,362,580.4325737486615,581.4878713131566,"[53, 0, 201]",201,a,0.5321183444430062,0,colour,0.06,3.8
47,21,1,2,8,13,363,581.9964203330128,583.1679107607797,"[79, 0, 175]",175,l,0.6478177185836103,1,colour,0.06,3.8
47,21,1,2,8,14,364,583.6841693175793,584.5759128465888,"[82, 0, 172]",172,l,0.3683717182284454,1,colour,0.06,3.8
47,21,1,2,8,15,365,585.0904841667962,585.9998696369476,"[12, 0, 242]",242,a,0.38593725322971295,1,colour,0.06,3.8
47,21,1,2,8,16,366,586.5123303360324,587.2398967650661,"[3, 0, 251]",251,a,0.20461209509085165,1,colour,0.06,3.8
47,21,1,2,8,17,367,587.7481350403668,588.9358885541624,"[73, 0, 181]",181,a,0.6642076230473322,0,colour,0.06,3.8
47,21,1,2,8,18,368,589.4515015972429,590.2078243036904,"[75, 0, 179]",179,l,0.23305644641368417,1,colour,0.06,3.8
47,21,1,2,8,19,369,590.7172378156829,591.5038941530784,"[83, 0, 171]",171,l,0.2635554927146586,1,colour,0.06,3.8
47,21,1,2,8,20,370,592.0142631356521,592.8878574497758,"[61, 0, 193]",193,l,0.35032175255219045,1,colour,0.06,3.8
47,21,1,2,8,21,371,593.4049686833296,594.1198733548554,"[93, 0, 161]",161,l,0.19151395613334898,1,colour,0.06,3.8
47,21,1,2,8,22,372,594.6393315171772,595.4079969658087,"[96, 0, 158]",158,l,0.24502464097895427,1,colour,0.06,3.8
47,21,1,2,8,23,373,595.9209168894195,596.7278464535921,"[85, 0, 169]",169,l,0.2960832401549851,1,colour,0.06,3.8
47,21,1,2,8,24,374,597.2367192149231,597.9838822431739,"[72, 0, 182]",182,a,0.22396962974198686,0,colour,0.06,3.8
47,21,1,2,8,25,375,598.5024239256763,599.2238798328362,"[59, 0, 195]",195,a,0.19820421943040856,0,colour,0.06,3.8
47,21,1,2,8,26,376,599.734648569176,600.423832728844,"[66, 0, 188]",188,a,0.1657438196689327,0,colour,0.06,3.8
47,21,1,2,8,27,377,600.9379223753003,601.7118405490528,"[81, 0, 173]",173,a,0.2504825599044125,0,colour,0.06,3.8
47,21,1,2,8,28,378,602.2219322639885,602.9278757557404,"[98, 0, 156]",156,l,0.18291196398058673,1,colour,0.06,3.8
47,21,1,2,8,29,379,603.4407180916733,604.2958437817415,"[87, 0, 167]",167,l,0.331681805453627,1,colour,0.06,3.8
47,21,1,2,8,30,380,604.815848208571,605.5841217803572,"[71, 0, 183]",183,a,0.24551143473036063,0,colour,0.06,3.8
47,21,1,2,8,31,381,606.0971232301054,606.7759575087348,"[64, 0, 190]",190,a,0.1555030339932273,0,colour,0.06,3.8
47,21,1,2,8,32,382,607.2848672915952,607.9438477895183,"[56, 0, 198]",198,a,0.13584893324696168,0,colour,0.06,3.8
47,21,1,2,8,33,383,608.4570855469119,609.1998638867954,"[68, 0, 186]",186,a,0.21959163675637683,0,colour,0.06,3.8
47,21,1,2,8,34,384,609.7068434300363,610.4638856932652,"[20, 0, 234]",234,a,0.23371180628419097,1,colour,0.06,3.8
47,21,1,2,8,35,385,610.9725705900164,611.7758452626022,"[86, 0, 168]",168,l,0.27988041257776786,1,colour,0.06,3.8
47,21,1,2,8,36,386,612.2851993038366,613.0158782984108,"[62, 0, 192]",192,a,0.20809763286706584,0,colour,0.06,3.8
47,21,1,2,8,37,387,613.5352021592207,614.5518559405573,"[78, 0, 176]",176,l,0.49325558286727755,1,colour,0.06,3.8
47,21,1,2,8,38,388,615.0666403314917,615.7838879933261,"[58, 0, 196]",196,a,0.19380456491126097,0,colour,0.06,3.8
47,21,1,2,8,39,389,616.301112260704,617.1278471625155,"[89, 0, 165]",165,l,0.3033816017959907,1,colour,0.06,3.8
47,21,1,2,8,40,390,617.6450340145166,618.3838376597978,"[52, 0, 202]",202,a,0.21550981602194952,0,colour,0.06,3.8
47,21,1,2,8,41,391,618.8950750729691,619.7118933244274,"[91, 0, 163]",163,l,0.2933861822257313,1,colour,0.06,3.8
47,21,1,2,8,42,392,620.2235572728987,621.0241663952402,"[94, 0, 160]",160,l,0.2773495576911955,1,colour,0.06,3.8
47,21,1,2,8,43,393,621.5359520421498,622.271851072619,"[51, 0, 203]",203,a,0.21288049961731303,0,colour,0.06,3.8
47,21,1,2,8,44,394,622.7861317344232,623.7678785441713,"[69, 0, 185]",185,a,0.45852308509165596,0,colour,0.06,3.8
47,21,1,2,8,45,395,624.2860756113569,625.0478889259539,"[74, 0, 180]",180,a,0.23864354685247235,0,colour,0.06,3.8
47,21,1,2,8,46,396,625.5673671744262,626.1038879303105,"[63, 0, 191]",191,a,0.013037880509727984,0,colour,0.06,3.8
47,21,1,2,8,47,397,626.6156948449097,627.2398908573741,"[77, 0, 177]",177,a,0.10080372168704343,0,colour,0.06,3.8
47,21,1,2,8,48,398,627.756427863349,628.4318148072725,"[67, 0, 187]",187,a,0.15200449929761817,0,colour,0.06,3.8
47,21,1,2,8,49,399,628.9443011063522,629.9118844235054,"[88, 0, 166]",166,l,0.44443009094356967,1,colour,0.06,3.8
47,21,1,2,8,50,400,630.4285880263706,631.7037978183289,"[99, 0, 155]",155,l,0.7518765780914691,1,colour,0.06,3.8
47,21,1,2,9,1,401,645.7129311088374,647.4159006688678,"[66, 0, 188]",188,a,1.17876949094898,0,colour,0.06,3.7
47,21,1,2,9,2,402,647.9326420809557,649.0558698228433,"[72, 0, 182]",182,a,0.6001883371936856,0,colour,0.06,3.7
47,21,1,2,9,3,403,649.573346545556,650.5278305422107,"[79, 0, 175]",175,l,0.4310554720377695,1,colour,0.06,3.7
47,21,1,2,9,4,404,651.0421754009258,651.8238696716071,"[73, 0, 181]",181,a,0.2585040229405422,0,colour,0.06,3.7
47,21,1,2,9,5,405,652.3391739393628,653.0798893134979,"[89, 0, 165]",165,l,0.21723013568407623,1,colour,0.06,3.7
47,21,1,2,9,6,406,653.5892579270385,654.3038577617008,"[53, 0, 201]",201,a,0.19120439311518567,0,colour,0.06,3.7
47,21,1,2,9,7,407,654.8237554562438,655.5758691296742,"[68, 0, 186]",186,a,0.22879700109842815,0,colour,0.06,3.7
47,21,1,2,9,8,408,656.0895460254433,656.9278344019021,"[90, 0, 164]",164,l,0.31490081183437724,1,colour,0.06,3.7
47,21,1,2,9,9,409,657.4491204038659,659.7359191166179,"[78, 0, 176]",176,l,1.7636210680866498,1,colour,0.06,3.7
47,21,1,2,9,10,410,660.2460730592338,661.0718509150811,"[83, 0, 171]",171,l,0.30241589121578727,1,colour,0.06,3.7
47,21,1,2,9,11,411,661.589975908435,662.5678724789414,"[86, 0, 168]",168,l,0.45441133205349615,1,colour,0.06,3.7
47,21,1,2,9,12,412,663.0743545945879,663.8158344239582,"[30, 0, 224]",224,a,0.21807178474955435,1,colour,0.06,3.7
47,21,1,2,9,13,413,664.3244555176461,665.0798656827337,"[2, 0, 252]",252,a,0.23221912965527736,1,colour,0.06,3.7
47,21,1,2,9,14,414,665.5901929176234,666.3118181785958,"[91, 0, 163]",163,l,0.19825620711344527,1,colour,0.06,3.7
47,21,1,2,9,15,415,666.824637671456,667.5919100865158,"[76, 0, 178]",178,l,0.2437091950851027,1,colour,0.06,3.7
47,21,1,2,9,16,416,668.106043056041,668.9438249464456,"[51, 0, 203]",203,a,0.3153064732923667,0,colour,0.06,3.7
47,21,1,2,9,17,417,669.4498541391058,670.1678288407966,"[95, 0, 159]",159,l,0.19585177681619825,1,colour,0.06,3.7
47,21,1,2,9,18,418,670.6844016867635,671.3919315905114,"[92, 0, 162]",162,l,0.18420023449652945,1,colour,0.06,3.7
47,21,1,2,9,19,419,671.9032812498153,672.5838429373343,"[87, 0, 167]",167,l,0.15734623362914135,1,colour,0.06,3.7
47,21,1,2,9,20,420,673.0907921544276,673.855871634536,"[60, 0, 194]",194,a,0.24163165703248524,0,colour,0.06,3.7
47,21,1,2,9,21,421,674.3721912374749,675.1118451964358,"[97, 0, 157]",157,l,0.21629475125155295,1,colour,0.06,3.7
47,21,1,2,9,22,422,675.6223421789837,676.3758591259848,"[64, 0, 190]",190,a,0.23018215774936834,0,colour,0.06,3.7
47,21,1,2,9,23,423,676.8879996282085,677.63184529096,"[59, 0, 195]",195,a,0.22036908891277562,0,colour,0.06,3.7
47,21,1,2,9,24,424,678.1380170558987,678.8478415068857,"[52, 0, 202]",202,a,0.1862246033269912,0,colour,0.06,3.7
47,21,1,2,9,25,425,679.3569021327949,680.0558217736216,"[98, 0, 156]",156,l,0.17551632235881698,1,colour,0.06,3.7
47,21,1,2,9,26,426,680.5614386094403,681.271843589544,"[75, 0, 179]",179,a,0.18758534152220818,0,colour,0.06,3.7
47,21,1,2,9,27,427,681.7804150586253,682.4319002718712,"[94, 0, 160]",160,l,0.12824061474566406,1,colour,0.06,3.7
47,21,1,2,9,28,428,682.9522473447887,683.6638618261932,"[56, 0, 198]",198,a,0.18826078754318587,0,colour,0.06,3.7
47,21,1,2,9,29,429,684.1710934309231,684.8318312700394,"[88, 0, 166]",166,l,0.1372770191210293,1,colour,0.06,3.7
47,21,1,2,9,30,430,685.3430277232183,686.1199028933115,"[81, 0, 173]",173,l,0.25382749463096843,1,colour,0.06,3.7
47,21,1,2,9,31,431,686.6401357508657,687.3838833459431,"[85, 0, 169]",169,l,0.220297015081087,1,colour,0.06,3.7
47,21,1,2,9,32,432,687.8901779908574,688.5278588991296,"[67, 0, 187]",187,a,0.1141594359814917,0,colour,0.06,3.7
47,21,1,2,9,33,433,689.046445480084,690.0478105505845,"[62, 0, 192]",192,a,0.4779168535787903,0,colour,0.06,3.7
47,21,1,2,9,34,434,690.5623275200342,691.2318953881804,"[96, 0, 158]",158,l,0.14621378043739242,1,colour,0.06,3.7
47,21,1,2,9,35,435,691.7498281846492,692.415830170421,"[63, 0, 191]",191,a,0.1425328950099356,0,colour,0.06,3.7
47,21,1,2,9,36,436,692.9374099815559,693.9038464189343,"[77, 0, 177]",177,l,0.44369162954899366,1,colour,0.06,3.7
47,21,1,2,9,37,437,694.4219623538283,695.0958739503512,"[58, 0, 196]",196,a,0.15056262881262228,0,colour,0.06,3.7
47,21,1,2,9,38,438,695.6095693568841,696.2800119571657,"[50, 0, 204]",204,a,0.14704203873588995,1,colour,0.06,3.7
47,21,1,2,9,39,439,696.7971869937846,697.9438536972102,"[71, 0, 183]",183,a,0.6239770340471296,0,colour,0.06,3.7
47,21,1,2,9,40,440,698.453621670671,699.1438782732057,"[84, 0, 170]",170,l,0.16712425016703492,1,colour,0.06,3.7
47,21,1,2,9,41,441,699.6568706644921,700.2638449695805,"[82, 0, 172]",172,l,0.08380690041849448,1,colour,0.06,3.7
47,21,1,2,9,42,442,700.7818321168088,701.5438293575226,"[65, 0, 189]",189,a,0.23708431023624144,0,colour,0.06,3.7
47,21,1,2,9,43,443,702.0647148180251,702.679833859971,"[19, 0, 235]",235,a,0.0915672435075976,1,colour,0.06,3.7
47,21,1,2,9,44,444,703.1897574026316,704.031799132199,"[80, 0, 174]",174,l,0.31864471263543237,1,colour,0.06,3.7
47,21,1,2,9,45,445,704.5492782179881,705.1918743252918,"[93, 0, 161]",161,l,0.11992219176863728,1,colour,0.06,3.7
47,21,1,2,9,46,446,705.7055937564364,706.2718680080015,"[99, 0, 155]",155,l,0.04291661924071377,1,colour,0.06,3.7
47,21,1,2,9,47,447,706.7836863441353,707.4318073241975,"[70, 0, 184]",184,a,0.12458336008239712,0,colour,0.06,3.7
47,21,1,2,9,48,448,707.9400696241082,708.5598411697538,"[55, 0, 199]",199,a,0.09632017795593129,0,colour,0.06,3.7
47,21,1,2,9,49,449,709.0807947656285,709.6158027587335,"[61, 0, 193]",193,a,0.01151999773173884,0,colour,0.06,3.7
47,21,1,2,9,50,450,710.1278034456009,710.8318470238828,"[54, 0, 200]",200,a,0.17922753393759194,0,colour,0.06,3.7
47,21,1,2,10,1,451,721.1123260824952,722.2878195617832,"[97, 0, 157]",157,l,0.6520338408299722,1,colour,0.06,3.7
47,21,1,2,10,2,452,722.8006989192472,724.0638625351166,"[98, 0, 156]",156,l,0.7398036204704113,1,colour,0.06,3.7
47,21,1,2,10,3,453,724.5822053253505,725.6078699110658,"[85, 0, 169]",169,l,0.5023459441545128,1,colour,0.06,3.7
47,21,1,2,10,4,454,726.1289396915308,727.1758250976836,"[68, 0, 186]",186,a,0.5238759337607917,0,colour,0.06,3.7
47,21,1,2,10,5,455,727.6917689714664,728.5758994558219,"[53, 0, 201]",201,a,0.3610863535086537,0,colour,0.06,3.7
47,21,1,2,10,6,456,729.0823441560915,730.1118873379655,"[77, 0, 177]",177,l,0.5060280111192696,1,colour,0.06,3.7
47,21,1,2,10,7,457,730.6294058083622,731.8958316512817,"[65, 0, 189]",189,a,0.7430339459860988,0,colour,0.06,3.7
47,21,1,2,10,8,458,732.4108669221678,733.4398386333851,"[8, 0, 246]",246,a,0.5059488480583241,1,colour,0.06,3.7
47,21,1,2,10,9,459,733.9576650914132,734.9838302554908,"[54, 0, 200]",200,a,0.5032383993620897,0,colour,0.06,3.7
47,21,1,2,10,10,460,735.5048299313567,736.5598352620636,"[90, 0, 164]",164,l,0.5327729166237987,1,colour,0.06,3.7
47,21,1,2,10,11,461,737.0674922205544,738.2398408389236,"[72, 0, 182]",182,l,0.6489835029697133,1,colour,0.06,3.7
47,21,1,2,10,12,462,738.7550064728603,739.6958602445065,"[63, 0, 191]",191,a,0.4175524593119917,0,colour,0.06,3.7
47,21,1,2,10,13,463,740.2084469743368,740.9758288786052,"[57, 0, 197]",197,a,0.2439667704184103,0,colour,0.06,3.7
47,21,1,2,10,14,464,741.4896841866466,742.2718203526256,"[84, 0, 170]",170,l,0.25878247211585403,1,colour,0.06,3.7
47,21,1,2,10,15,465,742.7866579127804,743.7038360213974,"[99, 0, 155]",155,l,0.3940418177880929,1,colour,0.06,3.7
47,21,1,2,10,16,466,744.2242146019998,745.0240494229565,"[83, 0, 171]",171,l,0.2765075147799507,1,colour,0.06,3.7
47,21,1,2,10,17,467,745.5369051496546,746.3598937875904,"[95, 0, 159]",159,l,0.2998964578673622,1,colour,0.06,3.7
47,21,1,2,10,18,468,746.8663881124648,747.647861829344,"[59, 0, 195]",195,a,0.25851111216979916,0,colour,0.06,3.7
47,21,1,2,10,19,469,748.1634012232062,749.191945611432,"[96, 0, 158]",158,l,0.506262349535973,1,colour,0.06,3.7
47,21,1,2,10,20,470,749.7103447216541,751.471846504006,"[76, 0, 178]",178,l,1.238452531504663,1,colour,0.06,3.7
47,21,1,2,10,21,471,751.9917883093094,752.8238035054655,"[60, 0, 194]",194,a,0.3086878899812291,0,colour,0.06,3.7
47,21,1,2,10,22,472,753.3356407462124,753.9838294677993,"[58, 0, 196]",196,a,0.1249291569365596,0,colour,0.06,3.7
47,21,1,2,10,23,473,754.49709558211,755.5198260145571,"[75, 0, 179]",179,l,0.5043730699089792,1,colour,0.06,3.7
47,21,1,2,10,24,474,756.0402246813101,756.7918523486805,"[79, 0, 175]",175,l,0.22814951814871165,1,colour,0.06,3.7
47,21,1,2,10,25,475,757.3060471520403,757.9358271141755,"[32, 0, 222]",222,a,0.10632229290968098,1,colour,0.06,3.7
47,21,1,2,10,26,476,758.4467014012644,760.2798945910363,"[71, 0, 183]",183,l,1.309765846692244,1,colour,0.06,3.7
47,21,1,2,10,27,477,760.790718465827,762.6718592646175,"[87, 0, 167]",167,l,1.3577737141604302,1,colour,0.06,3.7
47,21,1,2,10,28,478,763.1830620193359,764.5997901588107,"[67, 0, 187]",187,a,0.8933645994602557,0,colour,0.06,3.7
47,21,1,2,10,29,479,765.1206370223972,765.775835022605,"[88, 0, 166]",166,l,0.13240474931080826,1,colour,0.06,3.7
47,21,1,2,10,30,480,766.2926878931321,766.863853319117,"[55, 0, 199]",199,a,0.04801771361962892,0,colour,0.06,3.7
47,21,1,2,10,31,481,767.3709155700344,767.9918666846788,"[66, 0, 188]",188,a,0.09757221463223686,0,colour,0.06,3.7
47,21,1,2,10,32,482,768.5115619423377,769.1598148608355,"[86, 0, 168]",168,l,0.124793673885506,1,colour,0.06,3.7
47,21,1,2,10,33,483,769.6679129269342,770.42385635961,"[56, 0, 198]",198,a,0.2324298373059719,0,colour,0.06,3.7
47,21,1,2,10,34,484,770.9337023145945,771.6718313015463,"[92, 0, 162]",162,l,0.21492771152225032,1,colour,0.06,3.7
47,21,1,2,10,35,485,772.1837827576546,772.8558511545398,"[91, 0, 163]",163,l,0.14867925687576644,1,colour,0.06,3.7
47,21,1,2,10,36,486,773.3727997296628,774.112007461019,"[50, 0, 204]",204,a,0.2160076374620985,1,colour,0.06,3.7
47,21,1,2,10,37,487,774.6229085296418,775.5438136036792,"[78, 0, 176]",176,l,0.3980157246987801,1,colour,0.06,3.7
47,21,1,2,10,38,488,776.0606196065237,776.879841500584,"[81, 0, 173]",173,l,0.2962762247334467,1,colour,0.06,3.7
47,21,1,2,10,39,489,777.3886780280754,778.151818997796,"[80, 0, 174]",174,l,0.23983059892634628,1,colour,0.06,3.7
47,21,1,2,10,40,490,778.6700243357482,779.6238435202267,"[73, 0, 181]",181,l,0.43095031513621507,1,colour,0.06,3.7
47,21,1,2,10,41,491,780.1389284157176,781.0238320199223,"[94, 0, 160]",160,l,0.361772827220193,1,colour,0.06,3.7
47,21,1,2,10,42,492,781.5296040310932,782.2638225203555,"[82, 0, 172]",172,l,0.2113681306855142,1,colour,0.06,3.7
47,21,1,2,10,43,493,782.779766787984,783.5118813515055,"[24, 0, 230]",230,a,0.2093477003127191,1,colour,0.06,3.7
47,21,1,2,10,44,494,784.0299299387207,784.7598531426738,"[61, 0, 193]",193,a,0.20708032845141133,0,colour,0.06,3.7
47,21,1,2,10,45,495,785.279980055635,786.0478235475057,"[64, 0, 190]",190,a,0.24451579185006267,0,colour,0.06,3.7
47,21,1,2,10,46,496,786.5612657110123,787.4718299624692,"[74, 0, 180]",180,a,0.3870482930105936,0,colour,0.06,3.7
47,21,1,2,10,47,497,787.9833789078875,789.4398020056997,"[51, 0, 203]",203,a,0.9339646160806296,0,colour,0.06,3.7
47,21,1,2,10,48,498,789.9522197755632,790.6238163448488,"[52, 0, 202]",202,a,0.14829565079708118,0,colour,0.06,3.7
47,21,1,2,10,49,499,791.1396991724905,791.7358131720248,"[89, 0, 165]",165,l,0.07328884710659622,1,colour,0.06,3.7
47,21,1,2,10,50,500,792.2491493909365,793.0158389138032,"[62, 0, 192]",192,a,0.24383049967582338,0,colour,0.06,3.7
47,21,1,2,11,1,501,799.5639170827981,800.5920187880329,"[74, 0, 180]",180,l,0.5038957284632488,1,colour,0.06,3.6
47,21,1,2,11,2,502,801.1103308582733,802.3598032029913,"[59, 0, 195]",195,l,0.7260713893265347,1,colour,0.06,3.6
47,21,1,2,11,3,503,802.87621535976,804.279801249515,"[60, 0, 194]",194,a,0.8780026332533453,0,colour,0.06,3.6
47,21,1,2,11,4,504,804.8004078669965,805.5918872434431,"[79, 0, 175]",175,l,0.2679728703060391,1,colour,0.06,3.6
47,21,1,2,11,5,505,806.1129775039062,806.9198743788547,"[91, 0, 163]",163,l,0.2845403993524087,1,colour,0.06,3.6
47,21,1,2,11,6,506,807.4404912363334,808.1198355456327,"[57, 0, 197]",197,a,0.15664282453872147,0,colour,0.06,3.6
47,21,1,2,11,7,507,808.6280860301613,810.1918778699073,"[50, 0, 204]",204,a,1.0404440535749018,1,colour,0.06,3.6
47,21,1,2,11,8,508,810.7078028390788,811.6001398941262,"[5, 0, 249]",249,a,0.3689483088837733,1,colour,0.06,3.6
47,21,1,2,11,9,509,812.1133339346052,812.664067807691,"[83, 0, 171]",171,l,0.027857520668476354,1,colour,0.06,3.6
47,21,1,2,11,10,510,813.1754733931375,814.2158095328869,"[68, 0, 186]",186,l,0.5169001320573443,1,colour,0.06,3.6
47,21,1,2,11,11,511,814.7223877469751,815.4718008178606,"[53, 0, 201]",201,a,0.22592822627848363,0,colour,0.06,3.6
47,21,1,2,11,12,512,815.988137356182,818.3358963523151,"[94, 0, 160]",160,l,1.8253544713152223,1,colour,0.06,3.6
47,21,1,2,11,13,513,818.849126232788,819.376614916604,"[51, 0, 203]",203,a,0.004420134513566154,0,colour,0.06,3.6
47,21,1,2,11,14,514,819.8960624450829,820.472015070125,"[65, 0, 189]",189,a,0.05225707278623304,0,colour,0.06,3.6
47,21,1,2,11,15,515,820.9899600758235,821.8398023207774,"[92, 0, 162]",162,l,0.32651887724023254,1,colour,0.06,3.6
47,21,1,2,11,16,516,822.3493757342767,823.7597909149954,"[88, 0, 166]",166,l,0.8869921699460974,1,colour,0.06,3.6
47,21,1,2,11,17,517,824.2732003892779,825.0158215845768,"[89, 0, 165]",165,l,0.21952901523218316,1,colour,0.06,3.6
47,21,1,2,11,18,518,825.5231607092846,826.1919471868168,"[87, 0, 167]",167,l,0.1455095836536202,1,colour,0.06,3.6
47,21,1,2,11,19,519,826.7108055215649,827.3598118676055,"[96, 0, 158]",158,l,0.12555064604566724,1,colour,0.06,3.6
47,21,1,2,11,20,520,827.8680469921383,828.5038350761679,"[52, 0, 202]",202,a,0.11329730691977602,0,colour,0.06,3.6
47,21,1,2,11,21,521,829.0234109984667,829.6478433185785,"[86, 0, 168]",168,l,0.10113849085246329,1,colour,0.06,3.6
47,21,1,2,11,22,522,830.1642822568792,830.7677974118797,"[70, 0, 184]",184,a,0.0788349875529093,0,colour,0.06,3.6
47,21,1,2,11,23,523,831.2752086104192,831.9758863801326,"[77, 0, 177]",177,a,0.17756392810952093,0,colour,0.06,3.6
47,21,1,2,11,24,524,832.494065724246,833.6797917184413,"[25, 0, 229]",229,a,0.6625448049144325,1,colour,0.06,3.6
47,21,1,2,11,25,525,834.1976248718511,834.7838375810279,"[66, 0, 188]",188,a,0.06406300276830734,0,colour,0.06,3.6
47,21,1,2,11,26,526,835.2911388965131,835.8719889975164,"[95, 0, 159]",159,l,0.05762243788376509,1,colour,0.06,3.6
47,21,1,2,11,27,527,836.3849971426462,837.1518174224111,"[67, 0, 187]",187,a,0.24222242614632705,0,colour,0.06,3.6
47,21,1,2,11,28,528,837.667547831621,838.1919345837414,"[93, 0, 161]",161,l,0.0011185228559043026,1,colour,0.06,3.6
47,21,1,2,11,29,529,838.7146979023364,840.0478400890406,"[61, 0, 193]",193,a,0.8107341172708402,0,colour,0.06,3.6
47,21,1,2,11,30,530,840.5583575515848,841.6157862171985,"[64, 0, 190]",190,a,0.5345239562775532,0,colour,0.06,3.6
47,21,1,2,11,31,531,842.1366704961638,843.0318270952703,"[73, 0, 181]",181,a,0.3704240501319873,0,colour,0.06,3.6
47,21,1,2,11,32,532,843.544355142034,844.7918633763711,"[76, 0, 178]",178,a,0.7242734819883481,0,colour,0.06,3.6
47,21,1,2,11,33,533,845.3100053051057,846.3118488985892,"[99, 0, 155]",155,l,0.47853952422519797,1,colour,0.06,3.6
47,21,1,2,11,34,534,846.8257943973822,848.1837859084226,"[81, 0, 173]",173,l,0.8346323033329099,1,colour,0.06,3.6
47,21,1,2,11,35,535,848.7022960832401,849.2717892387864,"[54, 0, 200]",200,a,0.04687792307777272,0,colour,0.06,3.6
47,21,1,2,11,36,536,849.7804867386112,850.3517880414929,"[69, 0, 185]",185,a,0.04793500594496436,0,colour,0.06,3.6
47,21,1,2,11,37,537,850.8587120524371,851.9838164708781,"[72, 0, 182]",182,a,0.6016510815206857,0,colour,0.06,3.6
47,21,1,2,11,38,538,852.4994240001124,853.0318282768094,"[90, 0, 164]",164,l,0.008949364391810377,1,colour,0.06,3.6
47,21,1,2,11,39,539,853.5464259847031,854.5518086790289,"[85, 0, 169]",169,l,0.481928963559767,1,colour,0.06,3.6
47,21,1,2,11,40,540,855.062148910838,855.7278279428265,"[56, 0, 198]",198,a,0.1424174981075339,0,colour,0.06,3.6
47,21,1,2,11,41,541,856.2340706000596,856.9677912678799,"[80, 0, 174]",174,l,0.21072655542593566,1,colour,0.06,3.6
47,21,1,2,11,42,542,857.4841451354296,858.1517993054913,"[82, 0, 172]",172,l,0.14422091929191083,1,colour,0.06,3.6
47,21,1,2,11,43,543,858.6717923107844,859.3918729074467,"[78, 0, 176]",176,l,0.19729443499454646,1,colour,0.06,3.6
47,21,1,2,11,44,544,859.9062382461561,860.4878748577721,"[31, 0, 223]",223,a,0.05816752085411281,1,colour,0.06,3.6
47,21,1,2,11,45,545,861.0001622645832,862.0237926353147,"[98, 0, 156]",156,l,0.5002577722571004,1,colour,0.06,3.6
47,21,1,2,11,46,546,862.532769765854,863.5438238436782,"[55, 0, 199]",199,a,0.487670057813375,0,colour,0.06,3.6
47,21,1,2,11,47,547,864.0639653289418,864.911855278895,"[62, 0, 192]",192,a,0.3247442068186501,0,colour,0.06,3.6
47,21,1,2,11,48,548,865.4233416027873,866.0158759353344,"[84, 0, 170]",170,l,0.06961977705941536,1,colour,0.06,3.6
47,21,1,2,11,49,549,866.5341411378922,867.2478300065814,"[63, 0, 191]",191,a,0.1902887009891856,0,colour,0.06,3.6
47,21,1,2,11,50,550,867.768776513225,868.4877897870192,"[97, 0, 157]",157,l,0.19571077992077335,1,colour,0.06,3.6
47,21,1,2,12,1,551,873.0964182456282,874.2158091390411,"[94, 0, 160]",160,l,0.595605544251157,1,colour,0.06,3.6
47,21,1,2,12,2,552,874.7230679191489,875.8638556821934,"[80, 0, 174]",174,l,0.6181548075019236,1,colour,0.06,3.6
47,21,1,2,12,3,553,876.3786617346632,877.6317822755864,"[87, 0, 167]",167,l,0.7304611976924207,1,colour,0.06,3.6
47,21,1,2,12,4,554,878.1444824330865,879.1598440054458,"[30, 0, 224]",224,a,0.49218510923128633,1,colour,0.06,3.6
47,21,1,2,12,5,555,879.6758256884532,880.624010117117,"[77, 0, 177]",177,l,0.4247602363539045,1,colour,0.06,3.6
47,21,1,2,12,6,556,881.1447085007349,881.9678369540252,"[39, 0, 215]",215,a,0.29969047636768664,1,colour,0.06,3.6
47,21,1,2,12,7,557,882.4885711776351,883.4238599042237,"[51, 0, 203]",203,a,0.41200277425195964,0,colour,0.06,3.6
47,21,1,2,12,8,558,883.9417883683855,884.9679192678559,"[95, 0, 159]",159,l,0.5027193102341698,1,colour,0.06,3.6
47,21,1,2,12,9,559,885.4888185129712,886.3598331352932,"[65, 0, 189]",189,a,0.34763611615744594,0,colour,0.06,3.6
47,21,1,2,12,10,560,886.8795768360214,888.0717670258673,"[63, 0, 191]",191,a,0.6688632775167207,0,colour,0.06,3.6
47,21,1,2,12,11,561,888.582818937537,889.4718102701663,"[57, 0, 197]",197,a,0.36600509715572116,0,colour,0.06,3.6
47,21,1,2,12,12,562,889.9891463898293,890.8237668777801,"[58, 0, 196]",196,a,0.31129869562028034,0,colour,0.06,3.6
47,21,1,2,12,13,563,891.3330074913465,892.2237742820871,"[68, 0, 186]",186,a,0.36676285700741573,0,colour,0.06,3.6
47,21,1,2,12,14,564,892.7406389679963,893.5517850482629,"[86, 0, 168]",168,l,0.2876009772098769,1,colour,0.06,3.6
47,21,1,2,12,15,565,894.0688100295265,894.895829682051,"[79, 0, 175]",175,l,0.30399206321271777,1,colour,0.06,3.6
47,21,1,2,12,16,566,895.4127605341018,895.9517692156514,"[89, 0, 165]",165,l,0.01565853230204084,1,colour,0.06,3.6
47,21,1,2,12,17,567,896.4616742475464,897.207792008312,"[88, 0, 166]",166,l,0.22295350686545135,1,colour,0.06,3.6
47,21,1,2,12,18,568,897.7276176290234,898.4078508489147,"[83, 0, 171]",171,l,0.15752503974908905,1,colour,0.06,3.6
47,21,1,2,12,19,569,898.9151679182432,899.6558706893047,"[61, 0, 193]",193,a,0.21729630182380788,0,colour,0.06,3.6
47,21,1,2,12,20,570,900.1653086197548,900.8798214144354,"[97, 0, 157]",157,l,0.19181564222708403,1,colour,0.06,3.6
47,21,1,2,12,21,571,901.3998207212662,902.0877890780957,"[99, 0, 155]",155,l,0.16459063835645793,1,colour,0.06,3.6
47,21,1,2,12,22,572,902.6032040165992,903.2878203494747,"[90, 0, 164]",164,l,0.16146546974232479,1,colour,0.06,3.6
47,21,1,2,12,23,573,903.8065538350165,904.4238370611511,"[98, 0, 156]",156,l,0.0938519445953716,1,colour,0.06,3.6
47,21,1,2,12,24,574,904.9317204811377,905.7917983917687,"[76, 0, 178]",178,a,0.3368600936646544,0,colour,0.06,3.6
47,21,1,2,12,25,575,906.3067320503669,907.0878178288604,"[59, 0, 195]",195,a,0.25778052769965143,0,colour,0.06,3.6
47,21,1,2,12,26,576,907.6037471303389,908.4797793516736,"[73, 0, 181]",181,a,0.35298730279646406,0,colour,0.06,3.6
47,21,1,2,12,27,577,908.9944983641599,909.9757690140013,"[72, 0, 182]",182,a,0.4579531898179994,0,colour,0.06,3.6
47,21,1,2,12,28,578,910.4945879641418,911.4157907858134,"[54, 0, 200]",200,a,0.39787551549488853,0,colour,0.06,3.6
47,21,1,2,12,29,579,911.9321044810622,912.7357887535672,"[84, 0, 170]",170,l,0.28019588328425016,1,colour,0.06,3.6
47,21,1,2,12,30,580,913.2447249241159,913.959876537132,"[81, 0, 173]",173,l,0.19170890994064393,1,colour,0.06,3.6
47,21,1,2,12,31,581,914.4791933087126,915.3598445568296,"[74, 0, 180]",180,a,0.35719397273715003,0,colour,0.06,3.6
47,21,1,2,12,32,582,915.8699595086837,916.6077883849266,"[96, 0, 158]",158,l,0.21466501618851908,1,colour,0.06,3.6
47,21,1,2,12,33,583,917.1201136009622,918.0478156705831,"[46, 0, 208]",208,a,0.4044425049705751,1,colour,0.06,3.6
47,21,1,2,12,34,584,918.5577053424822,919.4158451365711,"[50, 0, 204]",204,a,0.3346352571788884,1,colour,0.06,3.6
47,21,1,2,12,35,585,919.9328862655238,920.7437783150708,"[70, 0, 184]",184,a,0.28804011558531784,0,colour,0.06,3.6
47,21,1,2,12,36,586,921.2610270009045,921.9998070154215,"[78, 0, 176]",176,a,0.21547633910631703,0,colour,0.06,3.6
47,21,1,2,12,37,587,922.5110905085858,923.3678081244925,"[75, 0, 179]",179,a,0.33337652511909255,0,colour,0.06,3.6
47,21,1,2,12,38,588,923.8863261762308,924.7998356086482,"[85, 0, 169]",169,a,0.39041134465878713,0,colour,0.06,3.6
47,21,1,2,12,39,589,925.3083074346705,926.3358026169499,"[67, 0, 187]",187,a,0.504172602255494,0,colour,0.06,3.6
47,21,1,2,12,40,590,926.8555266253734,927.5998244234197,"[56, 0, 198]",198,a,0.22117726106080227,0,colour,0.06,3.6
47,21,1,2,12,41,591,928.1212789915007,928.9678381355643,"[55, 0, 199]",199,a,0.3235236778291437,0,colour,0.06,3.6
47,21,1,2,12,42,592,929.4803634254058,930.4717622209446,"[52, 0, 202]",202,a,0.4679860247651959,0,colour,0.06,3.6
47,21,1,2,12,43,593,930.9805510930601,931.7438377858289,"[91, 0, 163]",163,l,0.23996174967032857,1,colour,0.06,3.6
47,21,1,2,12,44,594,932.2619379668795,934.0797940027478,"[66, 0, 188]",188,a,1.2946000158317474,0,colour,0.06,3.6
47,21,1,2,12,45,595,934.5903185545212,935.3357715031088,"[64, 0, 190]",190,a,0.22254784540564287,0,colour,0.06,3.6
47,21,1,2,12,46,596,935.8559338622163,936.5038941530784,"[62, 0, 192]",192,a,0.12497208615968702,0,colour,0.06,3.6
47,21,1,2,12,47,597,937.0122352222061,937.6957913214446,"[60, 0, 194]",194,a,0.16008188847627025,0,colour,0.06,3.6
47,21,1,2,12,48,598,938.2155228129432,938.9277946234488,"[71, 0, 183]",183,a,0.1888736120363319,0,colour,0.06,3.6
47,21,1,2,12,49,599,939.4344051329172,940.2958276340523,"[93, 0, 161]",161,l,0.33802351497433847,1,colour,0.06,3.6
47,21,1,2,12,50,600,940.8094631759814,941.4957557177586,"[53, 0, 201]",201,a,0.16178606044923072,0,colour,0.06,3.6
47,21,1,2,13,1,601,945.6387076649917,946.4477923548966,"[89, 0, 165]",165,l,0.285043734638748,1,colour,0.06,3.5
47,21,1,2,13,2,602,946.9677002894368,947.5517807159558,"[58, 0, 196]",196,l,0.059366388308262685,1,colour,0.06,3.5
47,21,1,2,13,3,603,948.0629818952893,948.6958047122098,"[77, 0, 177]",177,l,0.1100153875649994,1,colour,0.06,3.5
47,21,1,2,13,4,604,949.203708218347,950.3197553585705,"[71, 0, 183]",183,l,0.5929258155465504,1,colour,0.06,3.5
47,21,1,2,13,5,605,950.8275812770298,951.4317521857465,"[95, 0, 159]",159,l,0.08084084561778582,1,colour,0.06,3.5
47,21,1,2,13,6,606,951.9526837262401,953.5997826757339,"[74, 0, 180]",180,a,1.1240118894238549,0,colour,0.06,3.5
47,21,1,2,13,7,607,954.1090803969801,954.639817917081,"[50, 0, 204]",204,a,0.007476380065781996,1,colour,0.06,3.5
47,21,1,2,13,8,608,955.1560812000334,955.9597863463805,"[54, 0, 200]",200,a,0.2807929539358156,0,colour,0.06,3.5
47,21,1,2,13,9,609,956.4686831323197,958.4798423670454,"[59, 0, 195]",195,a,1.4878858854626742,0,colour,0.06,3.5
47,21,1,2,13,10,610,959.0000905845973,959.9757827986141,"[62, 0, 192]",192,a,0.45032478516623087,0,colour,0.06,3.5
47,21,1,2,13,11,611,960.4867622426063,961.1037666257198,"[84, 0, 170]",170,l,0.09390235689352266,1,colour,0.06,3.5
47,21,1,2,13,12,612,961.611935584111,962.1358394809413,"[56, 0, 198]",198,a,0.0010117905694642104,0,colour,0.06,3.5
47,21,1,2,13,13,613,962.6575669843551,963.199795751425,"[92, 0, 162]",162,l,0.01871911016132799,1,colour,0.06,3.5
47,21,1,2,13,14,614,963.7200892612746,964.5918766096001,"[75, 0, 179]",179,l,0.3483749713977886,1,colour,0.06,3.5
47,21,1,2,13,15,615,965.1109287166164,965.6717730123273,"[85, 0, 169]",169,l,0.03520511306669505,1,colour,0.06,3.5
47,21,1,2,13,16,616,966.1913060054048,966.8958162912859,"[51, 0, 203]",203,a,0.1815382288677938,0,colour,0.06,3.5
47,21,1,2,13,17,617,967.4101954146081,968.4717874270937,"[82, 0, 172]",172,l,0.5381162263402075,1,colour,0.06,3.5
47,21,1,2,13,18,618,968.9884544022734,969.9837692093497,"[94, 0, 160]",160,l,0.4719938024372823,1,colour,0.06,3.5
47,21,1,2,13,19,619,970.5042048976338,971.0797983350549,"[96, 0, 158]",158,l,0.052437848135014065,1,colour,0.06,3.5
47,21,1,2,13,20,620,971.6001883371937,972.7597790996115,"[69, 0, 185]",185,a,0.6364631362030195,0,colour,0.06,3.5
47,21,1,2,13,21,621,973.2721779648637,974.1677878808041,"[98, 0, 156]",156,l,0.37285841272932885,1,colour,0.06,3.5
47,21,1,2,13,22,622,974.6788157678639,975.9037759204875,"[88, 0, 166]",166,l,0.7018333141004405,1,colour,0.06,3.5
47,21,1,2,13,23,623,976.4130259863578,978.3597563353087,"[55, 0, 199]",199,a,1.4242427226108703,0,colour,0.06,3.5
47,21,1,2,13,24,624,978.8663873247733,979.7518131688739,"[17, 0, 237]",237,a,0.3620784517752327,1,colour,0.06,3.5
47,21,1,2,13,25,625,980.272727773985,981.2878380725488,"[26, 0, 228]",228,a,0.4923454045838298,1,colour,0.06,3.5
47,21,1,2,13,26,626,981.804085601656,982.7678064703396,"[53, 0, 201]",201,a,0.4404557901871158,0,colour,0.06,3.5
47,21,1,2,13,27,627,983.2886864169959,984.5678031620319,"[78, 0, 176]",176,l,0.7558079496247956,1,colour,0.06,3.5
47,21,1,2,13,28,628,985.0856705800525,986.07979675967,"[76, 0, 178]",178,l,0.4708709472743067,1,colour,0.06,3.5
47,21,1,2,13,29,629,986.5871154043834,987.399760068969,"[72, 0, 182]",182,l,0.28947607837835676,1,colour,0.06,3.5
47,21,1,2,13,30,630,987.9153758689718,988.7677989872645,"[99, 0, 155]",155,l,0.3291060521150939,1,colour,0.06,3.5
47,21,1,2,13,31,631,989.2747962535777,990.1357914317214,"[42, 0, 212]",212,a,0.338234222625033,1,colour,0.06,3.5
47,21,1,2,13,32,632,990.6499228258617,991.6077931110813,"[90, 0, 164]",164,l,0.4345319513540744,1,colour,0.06,3.5
47,21,1,2,13,33,633,992.1187788566094,993.1678229331046,"[97, 0, 157]",157,l,0.5245966720794968,1,colour,0.06,3.5
47,21,1,2,13,34,634,993.682668370182,994.7997379348199,"[65, 0, 189]",189,a,0.5936729415534501,0,colour,0.06,3.5
47,21,1,2,13,35,635,995.3077607763171,996.2557471004056,"[66, 0, 188]",188,a,0.42474408866473823,0,colour,0.06,3.5
47,21,1,2,13,36,636,996.7766577670573,997.7037627660284,"[63, 0, 191]",191,a,0.40369774204191344,0,colour,0.06,3.5
47,21,1,2,13,37,637,998.2143074039523,999.1198008871779,"[91, 0, 163]",163,l,0.38225518626495614,1,colour,0.06,3.5
47,21,1,2,13,38,638,999.6364013023704,1000.3517628353457,"[68, 0, 186]",186,a,0.19295897738811618,0,colour,0.06,3.5
47,21,1,2,13,39,639,1000.8707086039212,1001.9437516910766,"[61, 0, 193]",193,a,0.5474720398833597,0,colour,0.06,3.5
47,21,1,2,13,40,640,1002.4506926374015,1003.4477592718249,"[79, 0, 175]",175,l,0.47360935904180224,1,colour,0.06,3.5
47,21,1,2,13,41,641,1003.966462431219,1004.7758275395281,"[93, 0, 161]",161,l,0.2866407804758637,1,colour,0.06,3.5
47,21,1,2,13,42,642,1005.2947327419606,1006.1517874901092,"[86, 0, 168]",168,l,0.33358880815467273,1,colour,0.06,3.5
47,21,1,2,13,43,643,1006.6718675353859,1008.0237630968586,"[83, 0, 171]",171,l,0.8285091783855023,1,colour,0.06,3.5
47,21,1,2,13,44,644,1008.5313503445959,1009.1757644453883,"[73, 0, 181]",181,a,0.12099857309658546,0,colour,0.06,3.5
47,21,1,2,13,45,645,1009.6877714337916,1010.6717521384853,"[81, 0, 173]",173,l,0.46068569389535696,1,colour,0.06,3.5
47,21,1,2,13,46,646,1011.187870486081,1011.7517202212002,"[70, 0, 184]",184,a,0.040851684263543575,0,colour,0.06,3.5
47,21,1,2,13,47,647,1012.2660339660724,1012.8237960223905,"[52, 0, 202]",202,a,0.034376067076664185,0,colour,0.06,3.5
47,21,1,2,13,48,648,1013.344223833752,1014.3917909874617,"[64, 0, 190]",190,a,0.5242189736909495,0,colour,0.06,3.5
47,21,1,2,13,49,649,1014.906878246029,1015.6717970369373,"[87, 0, 167]",167,l,0.2414879032130557,1,colour,0.06,3.5
47,21,1,2,13,50,650,1016.1883076552258,1016.8237909023919,"[67, 0, 187]",187,a,0.11095510430459399,0,colour,0.06,3.5
47,21,1,2,14,1,651,1021.8299514427163,1022.8398468253836,"[71, 0, 183]",183,a,0.48586033509127446,0,colour,0.06,3.5
47,21,1,2,14,2,652,1023.3464222825496,1024.6877706461,"[96, 0, 158]",158,l,0.8183318019291619,1,colour,0.06,3.5
47,21,1,2,14,3,653,1025.2059889809734,1026.8398113792373,"[98, 0, 156]",156,l,1.1104505874809547,1,colour,0.06,3.5
47,21,1,2,14,4,654,1027.3478952668756,1028.1357776471086,"[89, 0, 165]",165,l,0.26529668621878955,1,colour,0.06,3.5
47,21,1,2,14,5,655,1028.6448579653206,1029.4318849118754,"[88, 0, 166]",166,l,0.26337274813704425,1,colour,0.06,3.5
47,21,1,2,14,6,656,1029.9419998637295,1030.7198194767116,"[75, 0, 179]",179,a,0.25429617146073724,0,colour,0.06,3.5
47,21,1,2,14,7,657,1031.2389645314033,1031.903791674329,"[78, 0, 176]",176,a,0.14148290136836295,0,colour,0.06,3.5
47,21,1,2,14,8,658,1032.4109567190735,1033.3277551600731,"[83, 0, 171]",171,l,0.3935573871149245,1,colour,0.06,3.5
47,21,1,2,14,9,659,1033.8484984421411,1034.487775214715,"[53, 0, 201]",201,a,0.11593765101497411,0,colour,0.06,3.5
47,21,1,2,14,10,660,1035.0049006267272,1035.7438369981355,"[87, 0, 167]",167,l,0.21594147132236685,1,colour,0.06,3.5
47,21,1,2,14,11,661,1036.2612664593198,1037.1117412210715,"[67, 0, 187]",187,a,0.332986223656917,0,colour,0.06,3.5
47,21,1,2,14,12,662,1037.6269399380799,1038.4957348439166,"[92, 0, 162]",162,l,0.33615668457241554,1,colour,0.06,3.5
47,21,1,2,14,13,663,1039.0140606987698,1040.40779216585,"[85, 0, 169]",169,l,0.8571795973548433,1,colour,0.06,3.5
47,21,1,2,14,14,664,1040.9346274590262,1041.8798123559754,"[94, 0, 160]",160,l,0.4214346000862861,1,colour,0.06,3.5
47,21,1,2,14,15,665,1042.3886764526906,1043.1278065963706,"[66, 0, 188]",188,a,0.22131589487980818,0,colour,0.06,3.5
47,21,1,2,14,16,666,1043.6374705944672,1044.215769360586,"[99, 0, 155]",155,l,0.05504786608253198,1,colour,0.06,3.5
47,21,1,2,14,17,667,1044.7313150559876,1045.2558368973114,"[95, 0, 159]",159,l,0.0010566890214249725,1,colour,0.06,3.5
47,21,1,2,14,18,668,1045.7782532375131,1046.6237383633252,"[93, 0, 161]",161,l,0.3224153949704487,1,colour,0.06,3.5
47,21,1,2,14,19,669,1047.1377299421074,1047.7199644120683,"[59, 0, 195]",195,a,0.05884336072085716,0,colour,0.06,3.5
47,21,1,2,14,20,670,1048.2316362374622,1048.9437729587644,"[79, 0, 175]",175,l,0.18880980897301924,1,colour,0.06,3.5
47,21,1,2,14,21,671,1049.4504350620682,1050.0317928306613,"[49, 0, 205]",205,a,0.05792412397750013,1,colour,0.06,3.5
47,21,1,2,14,22,672,1050.5443240281948,1051.1117743041432,"[60, 0, 194]",194,a,0.04407019439895521,0,colour,0.06,3.5
47,21,1,2,14,23,673,1051.6225552497126,1052.263756354214,"[72, 0, 182]",182,a,0.11784307833295316,0,colour,0.06,3.5
47,21,1,2,14,24,674,1052.7792516373156,1053.8318596269564,"[68, 0, 186]",186,a,0.5292806834640942,0,colour,0.06,3.5
47,21,1,2,14,25,675,1054.3417642650056,1054.9677896924968,"[70, 0, 184]",184,a,0.10278161668429675,0,colour,0.06,3.5
47,21,1,2,14,26,676,1055.4825752649685,1056.135742594808,"[73, 0, 181]",181,a,0.12965570370033674,0,colour,0.06,3.5
47,21,1,2,14,27,677,1056.654554849565,1057.2718506787733,"[62, 0, 192]",192,a,0.0938665168996522,0,colour,0.06,3.5
47,21,1,2,14,28,678,1057.7795560803334,1058.4077854704665,"[90, 0, 164]",164,l,0.10485757935202855,1,colour,0.06,3.5
47,21,1,2,14,29,679,1058.9203544772226,1059.5917769665411,"[61, 0, 193]",193,l,0.1482231831178069,1,colour,0.06,3.5
47,21,1,2,14,30,680,1060.1080079541152,1061.1758089499945,"[57, 0, 197]",197,a,0.544568212762897,0,colour,0.06,3.5
47,21,1,2,14,31,681,1061.6875583630645,1062.2797528064475,"[56, 0, 198]",198,a,0.06907272485841531,0,colour,0.06,3.5
47,21,1,2,14,32,682,1062.7969010615325,1063.447797868741,"[91, 0, 163]",163,l,0.12747615951229818,1,colour,0.06,3.5
47,21,1,2,14,33,683,1063.9696104429077,1064.7678230118745,"[50, 0, 204]",204,a,0.27575329954379413,1,colour,0.06,3.5
47,21,1,2,14,34,684,1065.2813825415124,1065.8397802653963,"[76, 0, 178]",178,l,0.03492627004561655,1,colour,0.06,3.5
47,21,1,2,14,35,685,1066.3596952891676,1067.0237528568614,"[52, 0, 202]",202,a,0.140730261518911,0,colour,0.06,3.5
47,21,1,2,14,36,686,1067.5316819629916,1068.167777640807,"[31, 0, 223]",223,a,0.11268408857904433,1,colour,0.06,3.5
47,21,1,2,14,37,687,1068.6879522091422,1069.367801429109,"[65, 0, 189]",189,a,0.15668299683784426,0,colour,0.06,3.5
47,21,1,2,14,38,688,1069.8756285291074,1070.5677495989657,"[63, 0, 191]",191,a,0.1684519052887481,0,colour,0.06,3.5
47,21,1,2,14,39,689,1071.0790996521155,1071.6238108310026,"[64, 0, 190]",190,a,0.02218338024613331,0,colour,0.06,3.5
47,21,1,2,14,40,690,1072.1418027043837,1072.7277661089938,"[74, 0, 180]",180,a,0.062460443085001316,0,colour,0.06,3.5
47,21,1,2,14,41,691,1073.2354900213177,1073.8237306439423,"[81, 0, 173]",173,l,0.06484518107754411,1,colour,0.06,3.5
47,21,1,2,14,42,692,1074.3450308243628,1075.4717637963295,"[84, 0, 170]",170,l,0.604005887211315,1,colour,0.06,3.5
47,21,1,2,14,43,693,1075.9858195720226,1077.50375748849,"[82, 0, 172]",172,l,0.9949052071569895,1,colour,0.06,3.5
47,21,1,2,14,44,694,1078.017207922765,1079.1038178257095,"[69, 0, 185]",185,l,0.5632833844611014,1,colour,0.06,3.5
47,21,1,2,14,45,695,1079.6124137132465,1080.687795852249,"[6, 0, 248]",248,a,0.5527346111539373,1,colour,0.06,3.5
47,21,1,2,14,46,696,1081.2064966485668,1081.8477623438248,"[86, 0, 168]",168,l,0.11840509668400045,1,colour,0.06,3.5
47,21,1,2,14,47,697,1082.3622986117316,1083.751756455038,"[54, 0, 200]",200,a,0.8660824879098072,0,colour,0.06,3.5
47,21,1,2,14,48,698,1084.2686443778657,1084.93579048649,"[77, 0, 177]",177,l,0.1440547162474104,1,colour,0.06,3.5
47,21,1,2,14,49,699,1085.4562927347597,1087.0077867307737,"[55, 0, 199]",199,a,1.0282025298311055,0,colour,0.06,3.5
47,21,1,2,14,50,700,1087.5182250302569,1089.6397797140125,"[97, 0, 157]",157,l,1.598177752974152,1,colour,0.06,3.5
47,21,1,2,15,1,701,1095.567664134367,1096.4957840746756,"[73, 0, 181]",181,l,0.40420659117080504,1,colour,0.06,3.4
47,21,1,2,15,2,702,1097.0061447864828,1097.7119831213313,"[68, 0, 186]",186,a,0.18238539177582425,0,colour,0.06,3.4
47,21,1,2,15,3,703,1098.2249160418614,1098.807763730163,"[93, 0, 161]",161,l,0.05949872059136396,1,colour,0.06,3.4
47,21,1,2,15,4,704,1099.3187939802992,1100.3517537768857,"[63, 0, 191]",191,a,0.5098400472943467,0,colour,0.06,3.4
47,21,1,2,15,5,705,1100.8657406295151,1101.503769303872,"[65, 0, 189]",189,a,0.11464859280749806,0,colour,0.06,3.4
47,21,1,2,15,6,706,1102.0221573864055,1102.831773768512,"[60, 0, 194]",194,a,0.2851536176931404,0,colour,0.06,3.4
47,21,1,2,15,7,707,1103.3513500846566,1104.0957707626785,"[77, 0, 177]",177,l,0.22116308260228834,1,colour,0.06,3.4
47,21,1,2,15,8,708,1104.6170847277117,1105.3117429539943,"[51, 0, 203]",203,a,0.1713009878039884,0,colour,0.06,3.4
47,21,1,2,15,9,709,1105.8202777953902,1107.0077792476986,"[66, 0, 188]",188,a,0.6622762018905632,0,colour,0.06,3.4
47,21,1,2,15,10,710,1107.5256021611112,1108.2797327202989,"[57, 0, 197]",197,a,0.23067328380602703,0,colour,0.06,3.4
47,21,1,2,15,11,711,1108.791267093411,1109.4717685224823,"[55, 0, 199]",199,a,0.15704179061322066,0,colour,0.06,3.4
47,21,1,2,15,12,712,1109.9788512533942,1110.6157342295173,"[72, 0, 182]",182,l,0.1134607530420908,1,colour,0.06,3.4
47,21,1,2,15,13,713,1111.135207751835,1112.11975638257,"[11, 0, 243]",243,a,0.461051970745757,1,colour,0.06,3.4
47,21,1,2,15,14,714,1112.635382028724,1114.0797656458308,"[62, 0, 192]",192,a,0.9209562740270485,0,colour,0.06,3.4
47,21,1,2,15,15,715,1114.5886557363883,1115.1197402348807,"[99, 0, 155]",155,l,0.008016343035706086,1,colour,0.06,3.4
47,21,1,2,15,16,716,1115.635480490244,1116.4077480550895,"[85, 0, 169]",169,l,0.2487508187077765,1,colour,0.06,3.4
47,21,1,2,15,17,717,1116.9182580345587,1117.6877694645627,"[96, 0, 158]",158,l,0.24709863441785274,1,colour,0.06,3.4
47,21,1,2,15,18,718,1118.1996598745282,1119.207745928321,"[69, 0, 185]",185,a,0.4852935905892082,0,colour,0.06,3.4
47,21,1,2,15,19,719,1119.7153965852758,1120.5917423080864,"[61, 0, 193]",193,a,0.3529270443450514,0,colour,0.06,3.4
47,21,1,2,15,20,720,1121.1060840160317,1121.911958072722,"[49, 0, 205]",205,a,0.2811663200172916,1,colour,0.06,3.4
47,21,1,2,15,21,721,1122.4199368034588,1123.1677437700437,"[91, 0, 163]",163,l,0.2244879311783734,1,colour,0.06,3.4
47,21,1,2,15,22,722,1123.6856879880488,1124.3037986847903,"[84, 0, 170]",170,l,0.09508743973674427,1,colour,0.06,3.4
47,21,1,2,15,23,723,1124.8107640495728,1125.8317540762073,"[50, 0, 204]",204,a,0.4975961604723125,1,colour,0.06,3.4
47,21,1,2,15,24,724,1126.3420986403253,1127.6077781449294,"[87, 0, 167]",167,l,0.7424195461080672,1,colour,0.06,3.4
47,21,1,2,15,25,725,1128.1249071015573,1129.0157699907395,"[95, 0, 159]",159,l,0.36845639513376227,1,colour,0.06,3.4
47,21,1,2,15,26,726,1129.5312416430788,1130.0717394566418,"[71, 0, 183]",183,a,0.017378851962348563,0,colour,0.06,3.4
47,21,1,2,15,27,727,1130.5782286615176,1131.1597471193109,"[2, 0, 252]",252,a,0.05802809934175457,1,colour,0.06,3.4
47,21,1,2,15,28,728,1131.6720274368927,1132.271725829567,"[94, 0, 160]",160,l,0.07635533265602135,1,colour,0.06,3.4
47,21,1,2,15,29,729,1132.7816064430062,1133.383710447515,"[80, 0, 174]",174,l,0.07877512294908229,1,colour,0.06,3.4
47,21,1,2,15,30,730,1133.8909448091672,1135.9276804080873,"[81, 0, 173]",173,a,1.5132720220026386,0,colour,0.06,3.4
47,21,1,2,15,31,731,1136.4394132796224,1137.207992082118,"[92, 0, 162]",162,l,0.24507820404505765,1,colour,0.06,3.4
47,21,1,2,15,32,732,1137.7206764857747,1139.1677674008079,"[64, 0, 190]",190,a,0.9239802242009318,0,colour,0.06,3.4
47,21,1,2,15,33,733,1139.688379138288,1140.6957539060659,"[98, 0, 156]",156,l,0.48453661842904694,1,colour,0.06,3.4
47,21,1,2,15,34,734,1141.2041221505733,1142.007805635385,"[78, 0, 176]",176,a,0.27806911447260063,0,colour,0.06,3.4
47,21,1,2,15,35,735,1142.5189205624283,1143.2877738756379,"[67, 0, 187]",187,a,0.24548347165909945,0,colour,0.06,3.4
47,21,1,2,15,36,736,1143.800311768553,1144.5917482157784,"[75, 0, 179]",179,a,0.26854670403918135,0,colour,0.06,3.4
47,21,1,2,15,37,737,1145.112916851609,1145.9357172311193,"[58, 0, 196]",196,a,0.2994718917962018,0,colour,0.06,3.4
47,21,1,2,15,38,738,1146.456725965445,1147.295749258683,"[53, 0, 201]",201,a,0.31554593170767475,0,colour,0.06,3.4
47,21,1,2,15,39,739,1147.8162404792638,1148.631752737132,"[52, 0, 202]",202,a,0.29244410241153673,0,colour,0.06,3.4
47,21,1,2,15,40,740,1149.1443934238723,1149.8877282682624,"[59, 0, 195]",195,a,0.22010127358043974,0,colour,0.06,3.4
47,21,1,2,15,41,741,1150.394504193082,1151.191760503776,"[79, 0, 175]",175,l,0.27388134914326656,1,colour,0.06,3.4
47,21,1,2,15,42,742,1151.7086551219872,1152.4797553270637,"[74, 0, 180]",180,a,0.24767089276610932,0,colour,0.06,3.4
47,21,1,2,15,43,743,1152.9899100573712,1153.7198092367144,"[56, 0, 198]",198,a,0.206399762431829,0,colour,0.06,3.4
47,21,1,2,15,44,744,1154.239989318894,1155.007718989249,"[76, 0, 178]",178,a,0.24420504729459935,0,colour,0.06,3.4
47,21,1,2,15,45,745,1155.521414395782,1156.2157343082854,"[90, 0, 164]",164,l,0.1708086802100297,1,colour,0.06,3.4
47,21,1,2,15,46,746,1156.7245806819283,1157.4477100410659,"[70, 0, 184]",184,a,0.19760005954958615,0,colour,0.06,3.4
47,21,1,2,15,47,747,1157.961242395324,1158.7117483890706,"[88, 0, 166]",166,a,0.22713103219575714,0,colour,0.06,3.4
47,21,1,2,15,48,748,1159.2269675860734,1159.783761568735,"[89, 0, 165]",165,l,0.03415945173401269,1,colour,0.06,3.4
47,21,1,2,15,49,749,1160.3050404814694,1160.8397286715608,"[97, 0, 157]",157,l,0.0118681576623203,1,colour,0.06,3.4
47,21,1,2,15,50,750,1161.3521054814319,1162.5117525638398,"[83, 0, 171]",171,l,0.6362421885569347,1,colour,0.06,3.4
47,21,1,2,16,1,751,1167.228225136596,1172.7277468105349,"[68, 0, 186]",186,a,4.975695758632355,0,colour,0.06,3.3
47,21,1,2,16,2,752,1173.2451636686437,1174.0157814122758,"[76, 0, 178]",178,a,0.24720300362787384,0,colour,0.06,3.3
47,21,1,2,16,3,753,1174.5264414471003,1175.0957376796086,"[90, 0, 164]",164,l,0.0458275355904334,1,colour,0.06,3.3
47,21,1,2,16,4,754,1175.6046332840106,1177.063730990527,"[67, 0, 187]",187,a,0.9357392865003931,0,colour,0.06,3.3
47,21,1,2,16,5,755,1177.5735115670614,1178.6557651385574,"[70, 0, 184]",184,a,0.5590834099039057,0,colour,0.06,3.3
47,21,1,2,16,6,756,1179.1674984039382,1179.9117406696878,"[57, 0, 197]",197,a,0.22121507028350607,0,colour,0.06,3.3
47,21,1,2,16,7,757,1180.4331716070064,1181.183791028423,"[98, 0, 156]",156,l,0.22740829983376898,1,colour,0.06,3.3
47,21,1,2,16,8,758,1181.698904280831,1182.647718863218,"[92, 0, 162]",162,l,0.4256605684859096,1,colour,0.06,3.3
47,21,1,2,16,9,759,1183.1677701577319,1183.9197688281074,"[52, 0, 202]",202,a,0.22858077960336232,0,colour,0.06,3.3
47,21,1,2,16,10,760,1184.4335174038606,1185.2397360758678,"[87, 0, 167]",167,l,0.28324582730056136,1,colour,0.06,3.3
47,21,1,2,16,11,761,1185.7460913730774,1186.9437217587747,"[1, 0, 253]",253,a,0.6743818487375393,1,colour,0.06,3.3
47,21,1,2,16,12,762,1187.4650376930385,1188.4877381931838,"[54, 0, 200]",200,a,0.4993239632094628,0,colour,0.06,3.3
47,21,1,2,16,13,763,1188.9963785853288,1189.7999273747828,"[66, 0, 188]",188,a,0.2801498032931704,0,colour,0.06,3.3
47,21,1,2,16,14,764,1190.3089702776178,1190.9197928527174,"[82, 0, 172]",172,l,0.0876697427356703,1,colour,0.06,3.3
47,21,1,2,16,15,765,1191.4340290099135,1192.199694532983,"[81, 0, 173]",173,l,0.242477244559268,1,colour,0.06,3.3
47,21,1,2,16,16,766,1192.715397766813,1193.5357566944967,"[79, 0, 175]",175,l,0.2953680156806513,1,colour,0.06,3.3
47,21,1,2,16,17,767,1194.045269061855,1194.7597357765444,"[77, 0, 177]",177,l,0.19093106394029746,1,colour,0.06,3.3
47,21,1,2,16,18,768,1195.2797642279838,1196.2237293836351,"[31, 0, 223]",223,a,0.42062091409388813,1,colour,0.06,3.3
47,21,1,2,16,19,769,1196.7330286802644,1197.4877236208795,"[69, 0, 185]",185,a,0.23127823138020176,0,colour,0.06,3.3
47,21,1,2,16,20,770,1197.9986632864166,1198.9037377174172,"[74, 0, 180]",180,a,0.3815628048614599,0,colour,0.06,3.3
47,21,1,2,16,21,771,1199.4207516709903,1200.0238686476077,"[93, 0, 161]",161,l,0.07998068578854145,1,colour,0.06,3.3
47,21,1,2,16,22,772,1200.5301372986796,1201.2237061467167,"[86, 0, 168]",168,l,0.17036954183640773,1,colour,0.06,3.3
47,21,1,2,16,23,773,1201.7333799909647,1202.4077886212344,"[85, 0, 169]",169,l,0.15094150873665058,1,colour,0.06,3.3
47,21,1,2,16,24,774,1202.9209854186356,1203.5676846143633,"[51, 0, 203]",203,a,0.12347547106946877,0,colour,0.06,3.3
47,21,1,2,16,25,775,1204.0772028894116,1204.8317269008294,"[78, 0, 176]",176,l,0.2308134930099186,1,colour,0.06,3.3
47,21,1,2,16,26,776,1205.3430734093636,1205.8797335867603,"[83, 0, 171]",171,l,0.013550668101743213,1,colour,0.06,3.3
47,21,1,2,16,27,777,1206.3899773262801,1207.4957411454543,"[58, 0, 196]",196,a,0.582803577541199,0,colour,0.06,3.3
47,21,1,2,16,28,778,1208.0150701262628,1208.999762904661,"[64, 0, 190]",190,a,0.4597637002298143,0,colour,0.06,3.3
47,21,1,2,16,29,779,1209.5166248336482,1210.5357720544944,"[84, 0, 170]",170,l,0.4956450470126583,1,colour,0.06,3.3
47,21,1,2,16,30,780,1211.0480196828503,1211.8397038592575,"[60, 0, 194]",194,a,0.2687763163012278,0,colour,0.06,3.3
47,21,1,2,16,31,781,1212.3607019597384,1213.1357020286614,"[97, 0, 157]",157,l,0.2514722950945725,1,colour,0.06,3.3
47,21,1,2,16,32,782,1213.6420384212597,1214.4077484489353,"[94, 0, 160]",160,l,0.24218658615427557,1,colour,0.06,3.3
47,21,1,2,16,33,783,1214.9234544396877,1215.6478137801223,"[65, 0, 189]",189,a,0.20125849575197208,0,colour,0.06,3.3
47,21,1,2,16,34,784,1216.1578956489066,1216.8957316143787,"[50, 0, 204]",204,a,0.21436963163250766,1,colour,0.06,3.3
47,21,1,2,16,35,785,1217.4079867258115,1218.239822328158,"[56, 0, 198]",198,a,0.30834524389501894,0,colour,0.06,3.3
47,21,1,2,16,36,786,1218.7518860303971,1219.543756889845,"[96, 0, 158]",158,l,0.2684462732904649,1,colour,0.06,3.3
47,21,1,2,16,37,787,1220.064556885749,1220.7277050628509,"[62, 0, 192]",192,a,0.13842941274015175,0,colour,0.06,3.3
47,21,1,2,16,38,788,1221.2377755100988,1221.9996939815992,"[44, 0, 210]",210,a,0.23949582976092643,1,colour,0.06,3.3
47,21,1,2,16,39,789,1222.5181738302672,1223.2477736865912,"[95, 0, 159]",159,l,0.20614573171224038,1,colour,0.06,3.3
47,21,1,2,16,40,790,1223.7683795163812,1224.503767728489,"[72, 0, 182]",182,a,0.21233305357236532,0,colour,0.06,3.3
47,21,1,2,16,41,791,1225.018458777904,1225.7517804796498,"[59, 0, 195]",195,a,0.2099684017302934,0,colour,0.06,3.3
47,21,1,2,16,42,792,1226.2685333132722,1226.9997148554412,"[73, 0, 181]",181,a,0.2080913313311612,0,colour,0.06,3.3
47,21,1,2,16,43,793,1227.5186299040233,1228.6077328526299,"[75, 0, 179]",179,a,0.5656787562966201,0,colour,0.06,3.3
47,21,1,2,16,44,794,1229.128127974769,1229.6877084184198,"[91, 0, 163]",163,l,0.03481520545210515,1,colour,0.06,3.3
47,21,1,2,16,45,795,1230.2075872083515,1230.9517570064236,"[53, 0, 201]",201,a,0.2207081903834478,0,colour,0.06,3.3
47,21,1,2,16,46,796,1231.473425432925,1232.2237545897842,"[63, 0, 191]",191,a,0.227343709077104,0,colour,0.06,3.3
47,21,1,2,16,47,797,1232.7390974544542,1233.4477490318277,"[71, 0, 183]",183,a,0.1852537727500021,0,colour,0.06,3.3
47,21,1,2,16,48,798,1233.9579730790447,1234.6317188663688,"[88, 0, 166]",166,l,0.15030111501801002,1,colour,0.06,3.3
47,21,1,2,16,49,799,1235.1454946175018,1235.9117174327694,"[89, 0, 165]",165,l,0.2416588324122131,1,colour,0.06,3.3
47,21,1,2,16,50,800,1236.4284107956355,1237.1437278240046,"[55, 0, 199]",199,a,0.19202871295419754,0,colour,0.06,3.3
