id,age,condition,counterbalance,block,trialinblock,trial,tstart,tend,trialstim,trialintensity,response,RT,accuracy,trialtype,colourfreq,credits
66,24,0,,Practice,1,NA,5.119945853948593e-06,1.572619559476152,"[98, 0, 156]",156,l,0.9231875631958246,1,colour,0.5,4
66,24,0,,Practice,2,NA,2.079470104770735,2.836604612413794,"[63, 0, 191]",191,a,0.23385273665189743,0,colour,0.5,4
66,24,0,,Practice,3,NA,3.3451502677053213,8.108575272373855,"[3, 0, 251]",251,a,4.239030226832256,1,colour,0.5,4
66,24,0,,Practice,4,NA,8.627764203120023,9.804636583197862,"[70, 0, 184]",184,l,0.6535433474928141,1,colour,0.5,4
66,24,0,,Practice,5,NA,10.315356264589354,11.26061137393117,"[51, 0, 203]",203,a,0.4220907043199986,0,colour,0.5,4
66,24,0,,Practice,6,NA,11.76827560341917,12.684898159466684,"[25, 0, 229]",229,a,0.39321160363033414,1,colour,0.5,4
66,24,0,,Practice,7,NA,13.205756206531078,13.804560570977628,"[27, 0, 227]",227,a,0.0758534234482795,1,colour,0.5,4
66,24,0,,Practice,8,NA,14.315114049706608,15.356669061118737,"[0, 0, 254]",254,a,0.5192413120530546,1,colour,0.5,4
66,24,0,,Practice,9,NA,15.877599575789645,16.692612801212817,"[24, 0, 230]",230,a,0.2916511099319905,1,colour,0.5,4
66,24,0,,Practice,10,NA,17.20580031722784,17.972590336110443,"[76, 0, 178]",178,l,0.243609466124326,1,colour,0.5,4
66,24,0,,1,1,1,4.168702059192583,5.087828683434054,"[21, 0, 233]",233,a,0.39505873806774616,1,colour,0.5,4.0
66,24,0,,1,2,2,5.6069672021549195,6.623812753241509,"[9, 0, 245]",245,a,0.493808357976377,1,colour,0.5,4.0
66,24,0,,1,3,3,7.138250334421173,8.159830693621188,"[71, 0, 183]",183,l,0.4984250124543905,1,colour,0.5,4.0
66,24,0,,1,4,4,8.669533466454595,9.623784396331757,"[24, 0, 230]",230,a,0.4309616757091135,1,colour,0.5,4.0
66,24,0,,1,5,5,10.138238912681118,11.463804829167202,"[46, 0, 208]",208,a,0.8023318005725741,1,colour,0.5,4.0
66,24,0,,1,6,6,11.98189493152313,12.967766518937424,"[23, 0, 231]",231,a,0.4624996257480234,1,colour,0.5,4.0
66,24,0,,1,7,7,13.48192998371087,14.42377714975737,"[89, 0, 165]",165,l,0.4185504289343953,1,colour,0.5,4.0
66,24,0,,1,8,8,14.935051759006456,15.92779437173158,"[53, 0, 201]",201,a,0.46939743240363896,0,colour,0.5,4.0
66,24,0,,1,9,9,16.424910242669284,17.919828850543126,"[65, 0, 189]",189,l,0.971468664938584,1,colour,0.5,4.0
66,24,0,,1,10,10,18.440627427073196,19.52782595809549,"[36, 0, 218]",218,a,0.5640345197170973,1,colour,0.5,4.0
66,24,0,,1,11,11,20.034322436433285,21.16794745158404,"[4, 0, 250]",250,a,0.6102432073093951,1,colour,0.5,4.0
66,24,0,,1,12,12,21.675016186898574,22.727837143233046,"[2, 0, 252]",252,a,0.5294702621176839,1,colour,0.5,4.0
66,24,0,,1,13,13,23.237497774651274,24.20774512528442,"[0, 0, 254]",254,a,0.4469194996636361,1,colour,0.5,4.0
66,24,0,,1,14,14,24.72181643010117,25.65577172394842,"[67, 0, 187]",187,l,0.410545916762203,1,colour,0.5,4.0
66,24,0,,1,15,15,26.175009885337204,27.175906671211123,"[95, 0, 159]",159,l,0.4776110763195902,1,colour,0.5,4.0
66,24,0,,1,16,16,27.69056795630604,28.655785902403295,"[14, 0, 240]",240,a,0.44204960227943957,1,colour,0.5,4.0
66,24,0,,1,17,17,29.174958685645834,30.119764417409897,"[91, 0, 163]",163,l,0.42147236689925194,1,colour,0.5,4.0
66,24,0,,1,18,18,30.628075340995565,31.55177017697133,"[75, 0, 179]",179,l,0.4003980988636613,1,colour,0.5,4.0
66,24,0,,1,19,19,32.065610294695944,32.98376766592264,"[69, 0, 185]",185,l,0.3948704800568521,1,colour,0.5,4.0
66,24,0,,1,20,20,33.50312122399919,34.367724692681804,"[18, 0, 236]",236,a,0.3413500546012074,1,colour,0.5,4.0
66,24,0,,1,21,21,34.87807376566343,35.75976539426483,"[81, 0, 173]",173,l,0.3590014132205397,1,colour,0.5,4.0
66,24,0,,1,22,22,36.26866393489763,37.21604108274914,"[33, 0, 221]",221,a,0.42400242923758924,1,colour,0.5,4.0
66,24,0,,1,23,23,37.737430033273995,38.55976602435112,"[82, 0, 172]",172,l,0.2990518568549305,1,colour,0.5,4.0
66,24,0,,1,24,24,39.08148856181651,39.95171023369767,"[87, 0, 167]",167,l,0.3472959368955344,1,colour,0.5,4.0
66,24,0,,1,25,25,40.47173293493688,41.367762895533815,"[99, 0, 155]",155,l,0.3726879311725497,1,colour,0.5,4.0
66,24,0,,1,26,26,41.878062737872824,42.79976471676491,"[20, 0, 234]",234,a,0.3983682200778276,1,colour,0.5,4.0
66,24,0,,1,27,27,43.3155161656905,44.23175669182092,"[11, 0, 243]",243,a,0.3957499365787953,1,colour,0.5,4.0
66,24,0,,1,28,28,44.750191014958546,45.57574629737064,"[61, 0, 193]",193,l,0.30230344366282225,1,colour,0.5,4.0
66,24,0,,1,29,29,46.09397345781326,47.01572112273425,"[16, 0, 238]",238,a,0.39852339518256485,1,colour,0.5,4.0
66,24,0,,1,30,30,47.53144106408581,48.631861375877634,"[42, 0, 212]",212,a,0.5771515376400203,1,colour,0.5,4.0
66,24,0,,1,31,31,49.140781971858814,49.99970028363168,"[58, 0, 196]",196,l,0.33579683559946716,1,colour,0.5,4.0
66,24,0,,1,32,32,50.515757356537506,51.37574810907245,"[22, 0, 232]",232,a,0.33664636011235416,1,colour,0.5,4.0
66,24,0,,1,33,33,51.89077055035159,52.72775246668607,"[86, 0, 168]",168,l,0.3138525632675737,1,colour,0.5,4.0
66,24,0,,1,34,34,53.23453645198606,54.11969273746945,"[48, 0, 206]",206,a,0.3618465515319258,1,colour,0.5,4.0
66,24,0,,1,35,35,54.640807571820915,55.60772220348008,"[26, 0, 228]",228,a,0.44420314859598875,1,colour,0.5,4.0
66,24,0,,1,36,36,56.125099445926026,56.97570840944536,"[92, 0, 162]",162,l,0.3272882017772645,1,colour,0.5,4.0
66,24,0,,1,37,37,57.48450061189942,58.37569769681431,"[78, 0, 176]",176,l,0.3678294555284083,1,colour,0.5,4.0
66,24,0,,1,38,38,58.89077606424689,59.78377065900713,"[94, 0, 160]",160,l,0.36985618341714144,1,colour,0.5,4.0
66,24,0,,1,39,39,60.29690618766472,61.271700088400394,"[49, 0, 205]",205,l,0.4514530529268086,0,colour,0.5,4.0
66,24,0,,1,40,40,61.78128116298467,62.6876889471896,"[98, 0, 156]",156,l,0.38306102878414094,1,colour,0.5,4.0
66,24,0,,1,41,41,63.203243867261335,64.10371364606544,"[88, 0, 166]",166,l,0.3772439337335527,1,colour,0.5,4.0
66,24,0,,1,42,42,64.6094602427911,65.53571467939764,"[6, 0, 248]",248,a,0.40291989012621343,1,colour,0.5,4.0
66,24,0,,1,43,43,66.04690224910155,67.00771582312882,"[1, 0, 253]",253,a,0.43671536166220903,1,colour,0.5,4.0
66,24,0,,1,44,44,67.51651787175797,68.47169906436466,"[43, 0, 211]",211,l,0.4319100552238524,0,colour,0.5,4.0
66,24,0,,1,45,45,68.98523080116138,69.86368187051266,"[70, 0, 184]",184,l,0.35527445492334664,1,colour,0.5,4.0
66,24,0,,1,46,46,70.37583396746777,71.25569815374911,"[79, 0, 175]",175,l,0.35652885236777365,1,colour,0.5,4.0
66,24,0,,1,47,47,71.7664379212074,72.58368582488038,"[76, 0, 178]",178,l,0.2939578618388623,1,colour,0.5,4.0
66,24,0,,1,48,48,73.09457446588203,73.9436320727691,"[54, 0, 200]",200,l,0.3259455831721425,1,colour,0.5,4.0
66,24,0,,1,49,49,74.4539185243193,75.29565257788636,"[29, 0, 225]",225,a,0.31837351340800524,1,colour,0.5,4.0
66,24,0,,1,50,50,75.81322280457243,76.99163039354607,"[37, 0, 217]",217,a,0.6550037257838994,1,colour,0.5,4.0
66,24,0,,2,1,51,81.89072171365842,82.82365379738621,"[56, 0, 198]",198,l,0.40870665945112705,1,colour,0.5,4.0
66,24,0,,2,2,52,83.33102815668099,84.1596168356482,"[9, 0, 245]",245,a,0.30533526465296745,1,colour,0.5,4.0
66,24,0,,2,3,53,84.67475585523061,85.51164442999288,"[61, 0, 193]",193,l,0.3135445760563016,1,colour,0.5,4.0
66,24,0,,2,4,54,86.01854144898243,86.93575201602653,"[50, 0, 204]",204,a,0.39386853761970997,1,colour,0.5,4.0
66,24,0,,2,5,55,87.45599645213224,88.35159003222361,"[30, 0, 224]",224,a,0.37231023353524506,1,colour,0.5,4.0
66,24,0,,2,6,56,88.86332977283746,89.66364902397618,"[78, 0, 176]",176,l,0.2894069792237133,1,colour,0.5,4.0
66,24,0,,2,7,57,90.17902080598287,90.99961284990422,"[24, 0, 230]",230,a,0.2972381990402937,1,colour,0.5,4.0
66,24,0,,2,8,58,91.5071896458976,92.36762859439477,"[22, 0, 232]",232,a,0.33722649421542883,1,colour,0.5,4.0
66,24,0,,2,9,59,92.88220362737775,93.77563145221211,"[34, 0, 220]",220,a,0.3701468415092677,1,colour,0.5,4.0
66,24,0,,2,10,60,94.2883754982613,95.11166538274847,"[81, 0, 173]",173,l,0.29996085190214217,1,colour,0.5,4.0
66,24,0,,2,11,61,95.63215557835065,96.43962233373895,"[84, 0, 170]",170,l,0.28419443662278354,1,colour,0.5,4.0
66,24,0,,2,12,62,96.96016530459747,97.83162837685086,"[66, 0, 188]",188,l,0.3480202183127403,1,colour,0.5,4.0
66,24,0,,2,13,63,98.3509437320754,99.2156161237508,"[26, 0, 228]",228,a,0.34142055292613804,1,colour,0.5,4.0
66,24,0,,2,14,64,99.72591123986058,100.66362815001048,"[21, 0, 233]",233,a,0.4143945730756968,1,colour,0.5,4.0
66,24,0,,2,15,65,101.17898496612906,102.06361507438123,"[87, 0, 167]",167,l,0.3613530632574111,1,colour,0.5,4.0
66,24,0,,2,16,66,102.58522418444045,103.44758903654292,"[63, 0, 191]",191,l,0.3391145884525031,1,colour,0.5,4.0
66,24,0,,2,17,67,103.96180055034347,104.8716190350242,"[5, 0, 249]",249,a,0.38645558152347803,1,colour,0.5,4.0
66,24,0,,2,18,68,105.38363604270853,106.39159762556665,"[17, 0, 237]",237,a,0.48761514062061906,1,colour,0.5,4.0
66,24,0,,2,19,69,106.91189877549186,107.84760116692632,"[20, 0, 234]",234,a,0.41235012211836874,1,colour,0.5,4.0
66,24,0,,2,20,70,108.36496856319718,109.25593918701634,"[14, 0, 240]",240,a,0.3676392282359302,1,colour,0.5,4.0
66,24,0,,2,21,71,109.77121920324862,110.5995692119468,"[55, 0, 199]",199,l,0.30283237784169614,1,colour,0.5,4.0
66,24,0,,2,22,72,111.11730485362932,112.00757167581469,"[96, 0, 158]",158,l,0.3674119794741273,1,colour,0.5,4.0
66,24,0,,2,23,73,112.53048913995735,113.41567220725119,"[18, 0, 236]",236,a,0.36905864672735333,1,colour,0.5,4.0
66,24,0,,2,24,74,113.9297230320517,114.82360771740787,"[65, 0, 189]",189,l,0.3704185944516212,1,colour,0.5,4.0
66,24,0,,2,25,75,115.3360457457602,116.30359368072823,"[6, 0, 248]",248,a,0.4442744345869869,1,colour,0.5,4.0
66,24,0,,2,26,76,116.8203785798978,117.76762339565903,"[85, 0, 169]",169,l,0.42391420784406364,1,colour,0.5,4.0
66,24,0,,2,27,77,118.28915176750161,119.13556234003045,"[97, 0, 157]",157,l,0.3231118661351502,1,colour,0.5,4.0
66,24,0,,2,28,78,119.64854899514467,120.79163378058001,"[40, 0, 214]",214,a,0.6197825344279408,1,colour,0.5,4.0
66,24,0,,2,29,79,121.29223006218672,122.23955404106528,"[42, 0, 212]",212,a,0.42398588778451085,1,colour,0.5,4.0
66,24,0,,2,30,80,122.7609973421786,123.60751819168217,"[91, 0, 163]",163,l,0.32323553366586566,1,colour,0.5,4.0
66,24,0,,2,31,81,124.12033549300395,125.27951831137761,"[43, 0, 211]",211,a,0.6363850829657167,1,colour,0.5,4.0
66,24,0,,2,32,82,125.79220525012352,126.67955840472132,"[77, 0, 177]",177,l,0.36397804226726294,1,colour,0.5,4.0
66,24,0,,2,33,83,127.19912857771851,128.35158727527596,"[29, 0, 225]",225,a,0.6290954004507512,1,colour,0.5,4.0
66,24,0,,2,34,84,128.8709940025583,129.71165010146797,"[98, 0, 156]",156,l,0.3172632635105401,1,colour,0.5,4.0
66,24,0,,2,35,85,130.23034908855334,131.1355524940882,"[38, 0, 216]",216,a,0.3817121086176485,1,colour,0.5,4.0
66,24,0,,2,36,86,131.6522846177686,132.76761748781428,"[46, 0, 208]",208,a,0.5919782374985516,1,colour,0.5,4.0
66,24,0,,2,37,87,133.2772446423769,134.1915643850807,"[16, 0, 238]",238,a,0.3897914511617273,1,colour,0.5,4.0
66,24,0,,2,38,88,134.70027978764847,135.59182857628912,"[73, 0, 181]",181,l,0.368294192943722,1,colour,0.5,4.0
66,24,0,,2,39,89,136.09410775918514,136.97565484652296,"[54, 0, 200]",200,l,0.3582901284098625,1,colour,0.5,4.0
66,24,0,,2,40,90,137.4847065929789,138.5274829189293,"[27, 0, 227]",227,a,0.5193350473418832,1,colour,0.5,4.0
66,24,0,,2,41,91,139.04725552839227,140.01587039022706,"[36, 0, 218]",218,a,0.4453744445927441,1,colour,0.5,4.0
66,24,0,,2,42,92,140.5315324361436,141.38351788907312,"[70, 0, 184]",184,l,0.340997169027105,1,colour,0.5,4.0
66,24,0,,2,43,93,141.89419306605123,142.75955744390376,"[12, 0, 242]",242,a,0.354504881426692,1,colour,0.5,4.0
66,24,0,,2,44,94,143.2724062530324,144.15954279270954,"[1, 0, 253]",253,a,0.3638720978051424,1,colour,0.5,4.0
66,24,0,,2,45,95,144.6786600437481,145.5115132795181,"[53, 0, 201]",201,l,0.30956555693410337,1,colour,0.5,4.0
66,24,0,,2,46,96,146.02236135466956,146.75947040412575,"[10, 0, 244]",244,a,0.21387257054448128,1,colour,0.5,4.0
66,24,0,,2,47,97,147.27238144073635,148.1034950618632,"[99, 0, 155]",155,l,0.30792597914114594,1,colour,0.5,4.0
66,24,0,,2,48,98,148.61607290548272,149.4394947278779,"[90, 0, 164]",164,l,0.30051105353049934,1,colour,0.5,4.0
66,24,0,,2,49,99,149.95987858530134,150.80752268154174,"[52, 0, 202]",202,a,0.32433711900375783,0,colour,0.5,4.0
66,24,0,,2,50,100,151.31920255767182,152.16749059106223,"[95, 0, 159]",159,l,0.32574708526954055,1,colour,0.5,4.0
66,24,0,,3,1,101,156.9746083994396,157.76747806672938,"[99, 0, 155]",155,l,0.2688474669121206,1,colour,0.5,4.0
66,24,0,,3,2,102,158.28791942540556,159.07161604170687,"[94, 0, 160]",160,l,0.26043059886433184,1,colour,0.5,4.0
66,24,0,,3,3,103,159.58478386560455,160.37546611577272,"[12, 0, 242]",242,a,0.26735912542790174,1,colour,0.5,4.0
66,24,0,,3,4,104,160.88175031146966,161.69550520111807,"[17, 0, 237]",237,a,0.2904561832547188,1,colour,0.5,4.0
66,24,0,,3,5,105,162.2097990284674,163.11167444102466,"[82, 0, 172]",172,l,0.3785778875462711,1,colour,0.5,4.0
66,24,0,,3,6,106,163.6316282195039,164.4394368326757,"[38, 0, 216]",216,a,0.28358358261175454,1,colour,0.5,4.0
66,24,0,,3,7,107,164.9606213774532,166.00754056195728,"[50, 0, 204]",204,a,0.5235834564082325,1,colour,0.5,4.0
66,24,0,,3,8,108,166.52070877957158,167.41547804139555,"[4, 0, 250]",250,a,0.37142368755303323,1,colour,0.5,4.0
66,24,0,,3,9,109,167.92698580725119,168.71145829884335,"[55, 0, 199]",199,l,0.2611639390233904,1,colour,0.5,4.0
66,24,0,,3,10,110,169.22384473355487,170.1434616954066,"[24, 0, 230]",230,a,0.3965683472342789,1,colour,0.5,4.0
66,24,0,,3,11,111,170.6613391211722,171.61549434671178,"[14, 0, 240]",240,a,0.4308037436567247,1,colour,0.5,4.0
66,24,0,,3,12,112,172.13001621048898,173.15943487919867,"[28, 0, 226]",226,a,0.5060124422889203,1,colour,0.5,4.0
66,24,0,,3,13,113,173.67694405978546,174.5914764786139,"[69, 0, 185]",185,l,0.3912140200845897,1,colour,0.5,4.0
66,24,0,,3,14,114,175.09885044419207,176.11945446114987,"[98, 0, 156]",156,l,0.4973695073276758,1,colour,0.5,4.0
66,24,0,,3,15,115,176.6299740690738,177.53545710467733,"[25, 0, 229]",229,a,0.3820283664390445,1,colour,0.5,4.0
66,24,0,,3,16,116,178.0519726134371,178.79944058205,"[79, 0, 175]",175,l,0.2242208558600396,1,colour,0.5,4.0
66,24,0,,3,17,117,179.31753186602145,179.90344921825454,"[21, 0, 233]",233,a,0.06258595664985478,1,colour,0.5,4.0
66,24,0,,3,18,118,180.41128831519745,181.14343373221345,"[54, 0, 200]",200,l,0.20876597240567207,1,colour,0.5,4.0
66,24,0,,3,19,119,181.66126507823355,182.3434634283185,"[93, 0, 161]",161,l,0.15884332358837128,1,colour,0.5,4.0
66,24,0,,3,20,120,182.86444002273493,184.02355116116814,"[51, 0, 203]",203,a,0.6359211332164705,0,colour,0.5,4.0
66,24,0,,3,21,121,184.5362743337173,185.25546499737538,"[80, 0, 174]",174,l,0.1959990831092,1,colour,0.5,4.0
66,24,0,,3,22,122,185.77064221980982,187.00741059309803,"[49, 0, 205]",205,a,0.713514958973974,1,colour,0.5,4.0
66,24,0,,3,23,123,187.5207166566979,188.2474112547934,"[76, 0, 178]",178,l,0.20342109794728458,1,colour,0.5,4.0
66,24,0,,3,24,124,188.74409547122195,189.59942979062907,"[18, 0, 236]",236,a,0.3319757485296577,1,colour,0.5,4.0
66,24,0,,3,25,125,190.11903422814794,191.27141021820717,"[48, 0, 206]",206,a,0.629015055950731,1,colour,0.5,4.0
66,24,0,,3,26,126,191.79092367738485,192.72744802408852,"[52, 0, 202]",202,a,0.4236932606436312,0,colour,0.5,4.0
66,24,0,,3,27,127,193.2354237854015,194.14340458787046,"[68, 0, 186]",186,l,0.38458796706981957,1,colour,0.5,4.0
66,24,0,,3,28,128,194.6573754621204,195.63937476254068,"[32, 0, 222]",222,a,0.458769123069942,1,colour,0.5,4.0
66,24,0,,3,29,129,196.15734395454638,197.04737801430747,"[8, 0, 246]",246,a,0.36688816524110734,1,colour,0.5,4.0
66,24,0,,3,30,130,197.55569327017292,198.35138129419647,"[90, 0, 164]",164,l,0.2723731701262295,1,colour,0.5,4.0
66,24,0,,3,31,131,198.86818509781733,199.73538636998273,"[16, 0, 238]",238,a,0.3438486088998616,1,colour,0.5,4.0
66,24,0,,3,32,132,200.24321010685526,201.23939374601468,"[78, 0, 176]",176,l,0.4728530312422663,1,colour,0.5,4.0
66,24,0,,3,33,133,201.75882449769415,202.58336169016548,"[13, 0, 241]",241,a,0.3012479383032769,1,colour,0.5,4.0
66,24,0,,3,34,134,203.10261403000914,204.0793818833772,"[89, 0, 165]",165,l,0.4534971099346876,1,colour,0.5,4.0
66,24,0,,3,35,135,204.5869901869446,205.4633960176725,"[22, 0, 232]",232,a,0.35316895809955895,1,colour,0.5,4.0
66,24,0,,3,36,136,205.97760556219146,206.93537195539102,"[95, 0, 159]",159,l,0.4345389725640416,1,colour,0.5,4.0
66,24,0,,3,37,137,207.446281864075,208.5033433525823,"[20, 0, 234]",234,a,0.5337415144313127,1,colour,0.5,4.0
66,24,0,,3,38,138,209.02443219325505,210.17534426017664,"[46, 0, 208]",208,a,0.6275629482697695,1,colour,0.5,4.0
66,24,0,,3,39,139,210.6962562641129,211.72741730418056,"[3, 0, 251]",251,a,0.5077382724266499,1,colour,0.5,4.0
66,24,0,,3,40,140,212.24320380552672,213.35137026640587,"[26, 0, 228]",228,a,0.5855333530344069,1,colour,0.5,4.0
66,24,0,,3,41,141,213.86813980550505,214.8153858028818,"[77, 0, 177]",177,l,0.4239346878603101,1,colour,0.5,4.0
66,24,0,,3,42,142,215.33692087000236,216.50342369708233,"[56, 0, 198]",198,l,0.6431722191628069,1,colour,0.5,4.0
66,24,0,,3,43,143,217.02439989778213,218.0474666294176,"[85, 0, 169]",169,l,0.49992950167506933,1,colour,0.5,4.0
66,24,0,,3,44,144,218.5432091616094,219.59141425113194,"[41, 0, 213]",213,a,0.5248492753598839,1,colour,0.5,4.0
66,24,0,,3,45,145,220.10572698316537,221.06339215789922,"[96, 0, 158]",158,l,0.4344743818510324,1,colour,0.5,4.0
66,24,0,,3,46,146,221.57442691572942,222.57536741811782,"[63, 0, 191]",191,l,0.4774677164386958,1,colour,0.5,4.0
66,24,0,,3,47,147,223.09006730024703,224.19137652078643,"[71, 0, 183]",183,l,0.5782692704815418,1,colour,0.5,4.0
66,24,0,,3,48,148,224.7000931049697,225.7433597680647,"[37, 0, 217]",217,a,0.5206142568495125,1,colour,0.5,4.0
66,24,0,,3,49,149,226.26196383871138,227.37532078684308,"[9, 0, 245]",245,a,0.5900854170322418,1,colour,0.5,4.0
66,24,0,,3,50,150,227.88690574653447,228.95931853726506,"[39, 0, 215]",215,a,0.5491054197773337,1,colour,0.5,4.0
66,24,0,,4,1,151,233.65315737901255,234.69537286902778,"[31, 0, 223]",223,a,0.51803457015194,1,colour,0.5,4.0
66,24,0,,4,2,152,235.216489672428,236.80734348180704,"[45, 0, 209]",209,l,1.0674924813210964,0,colour,0.5,4.0
66,24,0,,4,3,153,237.32584672793746,238.2633497803472,"[67, 0, 187]",187,l,0.41483607375994325,1,colour,0.5,4.0
66,24,0,,4,4,154,238.7789913462475,239.6473264992237,"[68, 0, 186]",186,l,0.34502738807350397,1,colour,0.5,4.0
66,24,0,,4,5,155,240.1539301034063,241.3753255130723,"[47, 0, 207]",207,a,0.698045109398663,1,colour,0.5,4.0
66,24,0,,4,6,156,241.88838699855842,243.02326759253629,"[62, 0, 192]",192,l,0.611708311829716,1,colour,0.5,4.0
66,24,0,,4,7,157,243.54456477728672,244.5752981014084,"[60, 0, 194]",194,l,0.5074046854861081,1,colour,0.5,4.0
66,24,0,,4,8,158,245.09143236791715,246.26331433421,"[85, 0, 169]",169,l,0.6485580536536872,1,colour,0.5,4.0
66,24,0,,4,9,159,246.77893384499475,247.791290741181,"[5, 0, 249]",249,a,0.489053463563323,1,colour,0.5,4.0
66,24,0,,4,10,160,248.31018980196677,249.4393218299374,"[58, 0, 196]",196,l,0.605841986136511,1,colour,0.5,4.0
66,24,0,,4,11,161,249.9507858788129,251.16724561923184,"[46, 0, 208]",208,l,0.6931106217671186,0,colour,0.5,4.0
66,24,0,,4,12,162,251.68513210350648,252.62325821910053,"[89, 0, 165]",165,l,0.4148254399187863,1,colour,0.5,4.0
66,24,0,,4,13,163,253.13826923887245,254.26332457410172,"[98, 0, 156]",156,l,0.6020185358356684,1,colour,0.5,4.0
66,24,0,,4,14,164,254.7789413279388,255.95927797118202,"[30, 0, 224]",224,a,0.6571163118351251,1,colour,0.5,4.0
66,24,0,,4,15,165,256.4663616728503,257.60741539811715,"[21, 0, 233]",233,a,0.6176723113749176,1,colour,0.5,4.0
66,24,0,,4,16,166,258.1226060113404,259.2232535716612,"[56, 0, 198]",198,l,0.5774418013170362,1,colour,0.5,4.0
66,24,0,,4,17,167,259.7320229311008,261.47125677601434,"[49, 0, 205]",205,l,1.2159406521823257,0,colour,0.5,4.0
66,24,0,,4,18,168,261.98194534354843,262.92733632959425,"[18, 0, 236]",236,a,0.42197451973333955,1,colour,0.5,4.0
66,24,0,,4,19,169,263.4350919313729,264.49528094544075,"[61, 0, 193]",193,l,0.5368536801543087,1,colour,0.5,4.0
66,24,0,,4,20,170,265.01318003283814,266.0792479759548,"[76, 0, 178]",178,l,0.542662110645324,1,colour,0.5,4.0
66,24,0,,4,21,171,266.5930223215837,267.71128776390105,"[81, 0, 173]",173,l,0.5950659848749638,1,colour,0.5,4.0
66,24,0,,4,22,172,268.2179622601252,269.28726052236743,"[93, 0, 161]",161,l,0.5459759251680225,1,colour,0.5,4.0
66,24,0,,4,23,173,269.7960487862583,270.8553016302176,"[91, 0, 163]",163,l,0.5359226297587156,1,colour,0.5,4.0
66,24,0,,4,24,174,271.37417194014415,272.6632339109201,"[23, 0, 231]",231,a,0.7658786608371884,1,colour,0.5,4.0
66,24,0,,4,25,175,273.17107458319515,274.2152155828662,"[2, 0, 252]",252,a,0.5208801024127752,1,colour,0.5,4.0
66,24,0,,4,26,176,274.7336191860959,275.7432774545159,"[10, 0, 244]",244,a,0.4864237585570663,1,colour,0.5,4.0
66,24,0,,4,27,177,276.2648223678116,277.23122263746336,"[14, 0, 240]",240,a,0.4431007755920291,1,colour,0.5,4.0
66,24,0,,4,28,178,277.74918670929037,278.8312530424446,"[26, 0, 228]",228,a,0.5588566355872899,1,colour,0.5,4.0
66,24,0,,4,29,179,279.3428998356685,280.3912163833156,"[1, 0, 253]",253,a,0.5250028751324862,1,colour,0.5,4.0
66,24,0,,4,30,180,280.89294575806707,281.8472644293215,"[25, 0, 229]",229,a,0.43098530638962984,1,colour,0.5,4.0
66,24,0,,4,31,181,282.36173548712395,283.39124040771276,"[24, 0, 230]",230,a,0.5062026695813984,1,colour,0.5,4.0
66,24,0,,4,32,182,283.90857472107746,284.735186296748,"[73, 0, 181]",181,l,0.3032585186883807,1,colour,0.5,4.0
66,24,0,,4,33,183,285.2522961180657,286.01520203473046,"[48, 0, 206]",206,a,0.2396276902873069,1,colour,0.5,4.0
66,24,0,,4,34,184,286.53354262257926,288.2712215662468,"[34, 0, 220]",220,a,1.2234343467280269,1,colour,0.5,4.0
66,24,0,,4,35,185,288.79012614069507,289.5272210116964,"[42, 0, 212]",212,a,0.2140143548604101,1,colour,0.5,4.0
66,24,0,,4,36,186,290.04008281766437,291.05519702495076,"[54, 0, 200]",200,l,0.49224400450475514,1,colour,0.5,4.0
66,24,0,,4,37,187,291.57134507619776,293.59919230197556,"[40, 0, 214]",214,a,1.5044890486169606,1,colour,0.5,4.0
66,24,0,,4,38,188,294.1182248762343,294.8391957206186,"[99, 0, 155]",155,l,0.19764378108084202,1,colour,0.5,4.0
66,24,0,,4,39,189,295.35258961166255,296.21526008751243,"[37, 0, 217]",217,a,0.33942218171432614,1,colour,0.5,4.0
66,24,0,,4,40,190,296.72755318088457,297.4792321433779,"[50, 0, 204]",204,a,0.2283148777205497,1,colour,0.5,4.0
66,24,0,,4,41,191,297.9931825378444,298.76716692885384,"[8, 0, 246]",246,a,0.2509775240905583,1,colour,0.5,4.0
66,24,0,,4,42,192,299.2744562176522,299.7912269383669,"[74, 0, 180]",180,l,0.0059234334621578455,1,colour,0.5,4.0
66,24,0,,4,43,193,300.30887514632195,300.91934560239315,"[77, 0, 177]",177,l,0.08714457438327372,1,colour,0.5,4.0
66,24,0,,4,44,194,301.4338745553978,302.5831517705228,"[82, 0, 172]",172,l,0.6262947663199157,1,colour,0.5,4.0
66,24,0,,4,45,195,303.09009211254306,304.30319077707827,"[51, 0, 203]",203,a,0.69001539144665,0,colour,0.5,4.0
66,24,0,,4,46,196,304.81721324520186,305.5831860350445,"[92, 0, 162]",162,l,0.24263588059693575,1,colour,0.5,4.0
66,24,0,,4,47,197,306.09863304160535,306.95117302867584,"[69, 0, 185]",185,l,0.3292530959006399,1,colour,0.5,4.0
66,24,0,,4,48,198,307.45794007880613,308.39115691254847,"[3, 0, 251]",251,a,0.40986062586307526,1,colour,0.5,4.0
66,24,0,,4,49,199,308.9111351093743,309.67916298424825,"[38, 0, 216]",216,a,0.24486031895503402,1,colour,0.5,4.0
66,24,0,,4,50,200,310.1923953986261,310.95120965642855,"[53, 0, 201]",201,l,0.23553721280768514,1,colour,0.5,4.0
66,24,0,,5,1,201,315.582171095768,317.6232018992305,"[27, 0, 227]",227,a,1.5170105723664165,1,colour,0.5,4.0
66,24,0,,5,2,202,318.1297759648878,318.9991414172109,"[90, 0, 164]",164,l,0.34596749674528837,1,colour,0.5,4.0
66,24,0,,5,3,203,319.520454749465,320.13513226108626,"[5, 0, 249]",249,a,0.0914177957456559,1,colour,0.5,4.0
66,24,0,,5,4,204,320.6454915739596,321.3671142323874,"[20, 0, 234]",234,a,0.19837712100706995,1,colour,0.5,4.0
66,24,0,,5,5,205,321.87970389123075,322.6230998933315,"[33, 0, 221]",221,a,0.21996023738756776,1,colour,0.5,4.0
66,24,0,,5,6,206,323.131794028217,324.03110353881493,"[0, 0, 254]",254,a,0.3760013517457992,1,colour,0.5,4.0
66,24,0,,5,7,207,324.5380513635464,325.5673022540286,"[8, 0, 246]",246,a,0.5062385094352067,1,colour,0.5,4.0
66,24,0,,5,8,208,326.084900443675,327.18311876640655,"[35, 0, 219]",219,a,0.5749467916321009,1,colour,0.5,4.0
66,24,0,,5,9,209,327.69425986218266,328.39113328186795,"[12, 0, 242]",242,a,0.17357589467428625,1,colour,0.5,4.0
66,24,0,,5,10,210,328.897387545323,329.84721283544786,"[69, 0, 185]",185,l,0.4265864482149482,1,colour,0.5,4.0
66,24,0,,5,11,211,330.3668724114541,331.1191358403303,"[53, 0, 201]",201,l,0.2288686241954565,1,colour,0.5,4.0
66,24,0,,5,12,212,331.63244426692836,332.1831136464607,"[29, 0, 225]",225,a,0.02724779350683093,1,colour,0.5,4.0
66,24,0,,5,13,213,332.69507078966126,333.8951827993151,"[6, 0, 248]",248,a,0.6767132664099336,1,colour,0.5,4.0
66,24,0,,5,14,214,334.41406216751784,335.287101802649,"[15, 0, 239]",239,a,0.34973305161111057,1,colour,0.5,4.0
66,24,0,,5,15,215,335.79225841909647,336.7354336315766,"[52, 0, 202]",202,l,0.41983160749077797,1,colour,0.5,4.0
66,24,0,,5,16,216,337.24544478510506,338.1670569672715,"[72, 0, 182]",182,l,0.3983634940814227,1,colour,0.5,4.0
66,24,0,,5,17,217,338.6848780733999,340.111156928353,"[56, 0, 198]",198,l,0.903038831660524,1,colour,0.5,4.0
66,24,0,,5,18,218,340.6222428858746,341.47109214868397,"[47, 0, 207]",207,a,0.32552731945179403,1,colour,0.5,4.0
66,24,0,,5,19,219,341.98167359037325,342.64715084433556,"[86, 0, 168]",168,l,0.1423742885235697,1,colour,0.5,4.0
66,24,0,,5,20,220,343.15354964882135,343.75909861410037,"[23, 0, 231]",231,a,0.08222190197557211,1,colour,0.5,4.0
66,24,0,,5,21,221,344.278484467417,345.1910854689777,"[58, 0, 196]",196,l,0.38920934754423797,1,colour,0.5,4.0
66,24,0,,5,22,222,345.7004518979229,346.4312456380576,"[83, 0, 171]",171,l,0.20754977804608643,1,colour,0.5,4.0
66,24,0,,5,23,223,346.9504156643525,348.15112434956245,"[2, 0, 252]",252,a,0.6774194310419261,1,colour,0.5,4.0
66,24,0,,5,24,224,348.6692160272505,349.43133661639877,"[91, 0, 163]",163,l,0.25131662492640316,1,colour,0.5,4.0
66,24,0,,5,25,225,349.9379536113702,350.6231774808839,"[68, 0, 186]",186,l,0.16187435714527965,1,colour,0.5,4.0
66,24,0,,5,26,226,351.1435113197658,351.72716169874184,"[97, 0, 157]",157,l,0.060157506726682186,1,colour,0.5,4.0
66,24,0,,5,27,227,352.23733826726675,353.10308467503637,"[64, 0, 190]",190,l,0.3426079961936921,1,colour,0.5,4.0
66,24,0,,5,28,228,353.61226008902304,354.4790828761179,"[44, 0, 210]",210,a,0.3462518530432135,1,colour,0.5,4.0
66,24,0,,5,29,229,354.99990705237724,355.6630523481872,"[22, 0, 232]",232,a,0.13995765359140933,1,colour,0.5,4.0
66,24,0,,5,30,230,356.1718445508741,356.9590861685574,"[4, 0, 250]",250,a,0.2638885607011616,1,colour,0.5,4.0
66,24,0,,5,31,231,357.4686270710081,358.07103984593414,"[65, 0, 189]",189,l,0.07909910241141915,1,colour,0.5,4.0
66,24,0,,5,32,232,358.5779983047396,359.83105572592467,"[9, 0, 245]",245,a,0.7301616184413433,1,colour,0.5,4.0
66,24,0,,5,33,233,360.3464381417725,361.21507655549794,"[67, 0, 187]",187,l,0.34516523382626474,1,colour,0.5,4.0
66,24,0,,5,34,234,361.721480086213,362.47141864639707,"[88, 0, 166]",166,l,0.22662213048897684,1,colour,0.5,4.0
66,24,0,,5,35,235,362.9871228339616,363.7670235692058,"[94, 0, 160]",160,l,0.2566488962620497,1,colour,0.5,4.0
66,24,0,,5,36,236,364.2840479260776,365.73513352125883,"[84, 0, 170]",170,l,0.9276281690690666,1,colour,0.5,4.0
66,24,0,,5,37,237,366.2529699874576,367.42300048680045,"[92, 0, 162]",162,l,0.6468074112199247,1,colour,0.5,4.0
66,24,0,,5,38,238,367.94042105204426,369.20703147770837,"[50, 0, 204]",204,a,0.743396395817399,1,colour,0.5,4.0
66,24,0,,5,39,239,369.7216297474224,370.4470073271077,"[40, 0, 214]",214,a,0.20197883644141257,1,colour,0.5,4.0
66,24,0,,5,40,240,370.956096095033,371.55899763223715,"[3, 0, 251]",251,a,0.079785181209445,1,colour,0.5,4.0
66,24,0,,5,41,241,372.0653212121688,372.82333675189875,"[61, 0, 193]",193,l,0.23461088887415826,1,colour,0.5,4.0
66,24,0,,5,42,242,373.33102461206727,373.94302791403607,"[7, 0, 247]",247,a,0.08874476770870388,1,colour,0.5,4.0
66,24,0,,5,43,243,374.45603347360156,375.2069842161145,"[16, 0, 238]",238,a,0.22770914365537465,1,colour,0.5,4.0
66,24,0,,5,44,244,375.7215793353971,376.9910191455856,"[43, 0, 211]",211,a,0.7460166485980153,1,colour,0.5,4.0
66,24,0,,5,45,245,377.49381899181753,378.2790102509316,"[93, 0, 161]",161,l,0.26213870593346655,1,colour,0.5,4.0
66,24,0,,5,46,246,378.79061057046056,379.4470096901059,"[28, 0, 226]",226,a,0.13317603152245283,1,colour,0.5,4.0
66,24,0,,5,47,247,379.96256657945924,380.6710663123522,"[46, 0, 208]",208,a,0.18533020769245923,1,colour,0.5,4.0
66,24,0,,5,48,248,381.18126848107204,382.11900193290785,"[54, 0, 200]",200,l,0.41438551456667483,1,colour,0.5,4.0
66,24,0,,5,49,249,382.6350105628371,383.4953045763541,"[55, 0, 199]",199,a,0.3368917256593704,0,colour,0.5,4.0
66,24,0,,5,50,250,384.0100355721079,384.5590035398491,"[70, 0, 184]",184,l,0.025567255448549986,1,colour,0.5,4.0
66,24,0,,6,1,251,389.4622463833075,390.14300562255085,"[3, 0, 251]",251,a,0.15639715059660375,1,colour,0.5,4.0
66,24,0,,6,2,252,390.6506458274089,391.3669716604054,"[7, 0, 247]",247,a,0.1929814403411001,1,colour,0.5,4.0
66,24,0,,6,3,253,391.88502631662413,392.5349596780725,"[98, 0, 156]",156,l,0.12667994713410735,1,colour,0.5,4.0
66,24,0,,6,4,254,393.04117219382897,393.727020702092,"[26, 0, 228]",228,a,0.16244582668878138,1,colour,0.5,4.0
66,24,0,,6,5,255,394.2444227566011,394.95104148448445,"[29, 0, 225]",225,a,0.18358547310344875,1,colour,0.5,4.0
66,24,0,,6,6,256,395.46303249849007,396.10297400457785,"[28, 0, 226]",226,a,0.116544732125476,1,colour,0.5,4.0
66,24,0,,6,7,257,396.6193331568502,397.2870872304775,"[35, 0, 219]",219,a,0.14440534892491996,1,colour,0.5,4.0
66,24,0,,6,8,258,397.8068358153105,399.35102604562417,"[10, 0, 244]",244,a,1.0191613615024835,1,colour,0.5,4.0
66,24,0,,6,9,259,399.8711011284031,400.6310910144821,"[34, 0, 220]",220,a,0.23664037371054292,1,colour,0.5,4.0
66,24,0,,6,10,260,401.15236890059896,401.81496320688166,"[71, 0, 183]",183,l,0.13924124906770885,1,colour,0.5,4.0
66,24,0,,6,11,261,402.32427016529255,402.93492257781327,"[22, 0, 232]",232,a,0.08731629094108939,1,colour,0.5,4.0
66,24,0,,6,12,262,403.4438423861284,404.3109534678515,"[49, 0, 205]",205,l,0.3437836244702339,0,colour,0.5,4.0
66,24,0,,6,13,263,404.8188335245941,406.27899528481066,"[56, 0, 198]",198,l,0.9371332316659391,1,colour,0.5,4.0
66,24,0,,6,14,264,406.78755945083685,407.50296407961287,"[84, 0, 170]",170,l,0.19243084476329386,1,colour,0.5,4.0
66,24,0,,6,15,265,408.02199822920375,408.9189419108443,"[57, 0, 197]",197,a,0.37372492579743266,0,colour,0.5,4.0
66,24,0,,6,16,266,409.42817049403675,410.71094826911576,"[77, 0, 177]",177,l,0.7601328517775983,1,colour,0.5,4.0
66,24,0,,6,17,267,411.2250369032845,411.9029407640919,"[11, 0, 243]",243,a,0.15451929601840675,1,colour,0.5,4.0
66,24,0,,6,18,268,412.41262502619065,413.0949966679327,"[65, 0, 189]",189,l,0.1591213783249259,1,colour,0.5,4.0
66,24,0,,6,19,269,413.6156605493743,414.14295245334506,"[27, 0, 227]",227,a,0.003921517636626959,1,colour,0.5,4.0
66,24,0,,6,20,270,414.6625868231058,415.4310475338716,"[91, 0, 163]",163,l,0.24539161613211036,1,colour,0.5,4.0
66,24,0,,6,21,271,415.9439822011627,416.6069423898589,"[16, 0, 238]",238,a,0.13964494061656296,1,colour,0.5,4.0
66,24,0,,6,22,272,417.11569875245914,417.9029553362634,"[43, 0, 211]",211,a,0.26378497923724353,1,colour,0.5,4.0
66,24,0,,6,23,273,418.4126659859903,419.15123895858414,"[24, 0, 230]",230,a,0.21529238298535347,1,colour,0.5,4.0
66,24,0,,6,24,274,419.6626399923116,421.69495381764136,"[52, 0, 202]",202,l,1.5089757344685495,1,colour,0.5,4.0
66,24,0,,6,25,275,422.21149059408344,422.98292129230686,"[39, 0, 215]",215,a,0.2480756719596684,1,colour,0.5,4.0
66,24,0,,6,26,276,423.49275324633345,424.3751884549856,"[61, 0, 193]",193,l,0.35911799129098654,1,colour,0.5,4.0
66,24,0,,6,27,277,424.883406824898,425.6788983200677,"[50, 0, 204]",204,a,0.2703310821671039,1,colour,0.5,4.0
66,24,0,,6,28,278,426.197622907348,426.958945565857,"[99, 0, 155]",155,l,0.23796999547630548,1,colour,0.5,4.0
66,24,0,,6,29,279,427.4789907161612,428.24692406808026,"[78, 0, 176]",176,l,0.24473153124563396,1,colour,0.5,4.0
66,24,0,,6,30,280,428.7601474241819,429.7349043034483,"[33, 0, 221]",221,a,0.45143887447193265,1,colour,0.5,4.0
66,24,0,,6,31,281,430.24448419641703,431.39092611917295,"[44, 0, 210]",210,a,0.6230498747900128,1,colour,0.5,4.0
66,24,0,,6,32,282,431.8883747893851,432.6229124229867,"[70, 0, 184]",184,l,0.21120860101655126,1,colour,0.5,4.0
66,24,0,,6,33,283,433.1383188634645,433.6708922327962,"[59, 0, 195]",195,l,0.009193924721330404,1,colour,0.5,4.0
66,24,0,,6,34,284,434.18517188192345,435.29491254268214,"[85, 0, 169]",169,l,0.5866636892315,1,colour,0.5,4.0
66,24,0,,6,35,285,435.81025636172853,436.79085436067544,"[63, 0, 191]",191,l,0.4573241048492491,1,colour,0.5,4.0
66,24,0,,6,36,286,437.3101878326852,438.09491474810056,"[66, 0, 188]",188,l,0.2614195444621146,1,colour,0.5,4.0
66,24,0,,6,37,287,438.6068730731495,439.4869054313749,"[42, 0, 212]",212,a,0.35671907966025174,1,colour,0.5,4.0
66,24,0,,6,38,288,439.9976396849379,441.0869090547785,"[19, 0, 235]",235,a,0.5663353640120476,1,colour,0.5,4.0
66,24,0,,6,39,289,441.60705896792933,442.4948914325796,"[58, 0, 196]",196,l,0.3647389514371753,1,colour,0.5,4.0
66,24,0,,6,40,290,443.0132564390078,443.7108316908125,"[38, 0, 216]",216,a,0.1741954132448882,1,colour,0.5,4.0
66,24,0,,6,41,291,444.23199575580657,446.11084185214713,"[46, 0, 208]",208,l,1.3554008794017136,0,colour,0.5,4.0
66,24,0,,6,42,292,446.62274818937294,447.78305228520185,"[81, 0, 173]",173,l,0.6372310626320541,1,colour,0.5,4.0
66,24,0,,6,43,293,448.2945218482055,449.31087351730093,"[62, 0, 192]",192,l,0.492980495095253,1,colour,0.5,4.0
66,24,0,,6,44,294,449.8258116757497,450.61487364652567,"[6, 0, 248]",248,a,0.2662354849744588,1,colour,0.5,4.0
66,24,0,,6,45,295,451.1226540603675,452.1108883258421,"[5, 0, 249]",249,a,0.46510688168928027,1,colour,0.5,4.0
66,24,0,,6,46,296,452.622661937261,453.7588185900822,"[74, 0, 180]",180,l,0.6129910659510642,1,colour,0.5,4.0
66,24,0,,6,47,297,454.2788523188792,454.9588490736205,"[67, 0, 187]",187,l,0.1569985521491617,1,colour,0.5,4.0
66,24,0,,6,48,298,455.466308897594,455.9908801182173,"[12, 0, 242]",242,a,0.0012071358505636454,1,colour,0.5,4.0
66,24,0,,6,49,299,456.5131351344753,457.59097668901086,"[95, 0, 159]",159,l,0.5543486822862178,1,colour,0.5,4.0
66,24,0,,6,50,300,458.1069538113661,458.8308418679517,"[73, 0, 181]",181,l,0.20080320816487074,1,colour,0.5,4.0
66,24,0,,7,1,301,463.9499213884119,464.65489856898785,"[62, 0, 192]",192,l,0.18090811278671026,1,colour,0.5,4.0
66,24,0,,7,2,302,465.16938695614226,465.9748514019884,"[48, 0, 206]",206,l,0.28209366579540074,0,colour,0.5,4.0
66,24,0,,7,3,303,466.48196779284626,467.66279122885317,"[22, 0, 232]",232,a,0.6576042862143368,1,colour,0.5,4.0
66,24,0,,7,4,304,468.16939483303577,470.3508945014328,"[46, 0, 208]",208,a,1.6581485804636031,1,colour,0.5,4.0
66,24,0,,7,5,305,470.87250085454434,471.54305359278806,"[88, 0, 166]",166,l,0.1473095640540123,1,colour,0.5,4.0
66,24,0,,7,6,306,472.0600909467321,472.64682316500694,"[76, 0, 178]",178,l,0.06417866726405919,1,colour,0.5,4.0
66,24,0,,7,7,307,473.153830854455,474.2307996477466,"[20, 0, 234]",234,a,0.5537468867842108,1,colour,0.5,4.0
66,24,0,,7,8,308,474.74754988821223,475.73480150988325,"[33, 0, 221]",221,a,0.4640297149308026,1,colour,0.5,4.0
66,24,0,,7,9,309,476.2504734019749,476.79078858857974,"[97, 0, 157]",157,l,0.01705192611552775,1,colour,0.5,4.0
66,24,0,,7,10,310,477.2880029208027,478.4227748133708,"[54, 0, 200]",200,l,0.6115102076437324,1,colour,0.5,4.0
66,24,0,,7,11,311,478.94423859450035,479.486812483985,"[70, 0, 184]",184,l,0.01923264772631228,1,colour,0.5,4.0
66,24,0,,7,12,312,480.00671821297146,480.5987661613617,"[36, 0, 218]",218,a,0.06895364751107991,1,colour,0.5,4.0
66,24,0,,7,13,313,481.1161430098582,481.8068027321715,"[0, 0, 254]",254,a,0.16734644351527095,1,colour,0.5,4.0
66,24,0,,7,14,314,482.3192163424101,483.238818337908,"[75, 0, 179]",179,l,0.39633715990930796,1,colour,0.5,4.0
66,24,0,,7,15,315,483.756744206883,484.526786994189,"[98, 0, 156]",156,l,0.24730924889445305,1,colour,0.5,4.0
66,24,0,,7,16,316,485.0379930746276,485.8307552218903,"[35, 0, 219]",219,a,0.2695146407932043,1,colour,0.5,4.0
66,24,0,,7,17,317,486.35048411460593,486.982780295657,"[83, 0, 171]",171,l,0.1089860531501472,1,colour,0.5,4.0
66,24,0,,7,18,318,487.4910648316145,488.7988632048946,"[55, 0, 199]",199,a,0.7844996668864042,0,colour,0.5,4.0
66,24,0,,7,19,319,489.31919389311224,490.3907874857541,"[7, 0, 247]",247,a,0.548249987885356,1,colour,0.5,4.0
66,24,0,,7,20,320,490.89731901627965,491.8307465573307,"[32, 0, 222]",222,a,0.41017964063212276,1,colour,0.5,4.0
66,24,0,,7,21,321,492.3504683608189,493.0067745328415,"[25, 0, 229]",229,a,0.1330740253906697,1,colour,0.5,4.0
66,24,0,,7,22,322,493.5222703763284,494.3427419036161,"[17, 0, 237]",237,a,0.29720275313593447,1,colour,0.5,4.0
66,24,0,,7,23,323,494.841114141047,495.710794669576,"[60, 0, 194]",194,l,0.34639481897465885,1,colour,0.5,4.0
66,24,0,,7,24,324,496.23174015036784,497.07877378631383,"[63, 0, 191]",191,l,0.3236573419999331,1,colour,0.5,4.0
66,24,0,,7,25,325,497.5911255625542,498.39877073001117,"[68, 0, 186]",186,l,0.28436536551453173,1,colour,0.5,4.0
66,24,0,,7,26,326,498.9214916653,499.91077355947345,"[50, 0, 204]",204,a,0.4657917788717896,1,colour,0.5,4.0
66,24,0,,7,27,327,500.4216791356448,501.14276104443707,"[16, 0, 238]",238,a,0.19785409444011748,1,colour,0.5,4.0
66,24,0,,7,28,328,501.6559485606849,502.470751472516,"[91, 0, 163]",163,l,0.29154871008358896,1,colour,0.5,4.0
66,24,0,,7,29,329,502.9841347297188,503.71871489845216,"[9, 0, 245]",245,a,0.21124837920069695,1,colour,0.5,4.0
66,24,0,,7,30,330,504.2340480836574,504.8230157678481,"[30, 0, 224]",224,a,0.07787975738756359,1,colour,0.5,4.0
66,24,0,,7,31,331,505.331242014654,506.1587365914602,"[12, 0, 242]",242,a,0.30422028875909746,1,colour,0.5,4.0
66,24,0,,7,32,332,506.67505596531555,507.3987545822747,"[93, 0, 161]",161,l,0.20049364562146366,1,colour,0.5,4.0
66,24,0,,7,33,333,507.91143758245744,508.73472904227674,"[27, 0, 227]",227,a,0.2987277221400291,1,colour,0.5,4.0
66,24,0,,7,34,334,509.2407887459267,510.1747200153768,"[15, 0, 239]",239,a,0.4112457800656557,1,colour,0.5,4.0
66,24,0,,7,35,335,510.6939408474136,511.2227423605509,"[69, 0, 185]",185,l,0.005455151200294495,1,colour,0.5,4.0
66,24,0,,7,36,336,511.7408466413617,512.4227236134466,"[59, 0, 195]",195,l,0.15857905335724354,1,colour,0.5,4.0
66,24,0,,7,37,337,512.9438967369497,513.6707016117871,"[37, 0, 217]",217,a,0.20334981195628643,1,colour,0.5,4.0
66,24,0,,7,38,338,514.1916010126006,514.926698300289,"[2, 0, 252]",252,a,0.2093594972975552,1,colour,0.5,4.0
66,24,0,,7,39,339,515.4439124907367,516.0947280654218,"[72, 0, 182]",182,l,0.1275176559574902,1,colour,0.5,4.0
66,24,0,,7,40,340,516.6157905182336,517.4387294864282,"[45, 0, 209]",209,a,0.29961229860782623,1,colour,0.5,4.0
66,24,0,,7,41,341,517.9594922231045,519.9427530101966,"[90, 0, 164]",164,l,1.4603019692003727,1,colour,0.5,4.0
66,24,0,,7,42,342,520.4614661757369,522.2467121793889,"[3, 0, 251]",251,a,1.26277712918818,1,colour,0.5,4.0
66,24,0,,7,43,343,522.7583014711272,523.4066838696599,"[18, 0, 236]",236,a,0.12510614120401442,1,colour,0.5,4.0
66,24,0,,7,44,344,523.9145450219512,525.6386957734358,"[82, 0, 172]",172,l,1.2008433805312961,1,colour,0.5,4.0
66,24,0,,7,45,345,526.1502055083402,526.9427081118338,"[1, 0, 253]",253,a,0.2692547030746937,1,colour,0.5,4.0
66,24,0,,7,46,346,527.4626733115874,528.2547048758715,"[92, 0, 162]",162,l,0.26936694886535406,1,colour,0.5,4.0
66,24,0,,7,47,347,528.7752127945423,529.5268090495374,"[87, 0, 167]",167,l,0.228361745364964,1,colour,0.5,4.0
66,24,0,,7,48,348,530.0432962016203,530.8066542525776,"[5, 0, 249]",249,a,0.2400750983506441,1,colour,0.5,4.0
66,24,0,,7,49,349,531.3244639371987,532.0549867115915,"[65, 0, 189]",189,l,0.2071382098365575,1,colour,0.5,4.0
66,24,0,,7,50,350,532.5744548786897,533.5266775051132,"[74, 0, 180]",180,l,0.42914762417785823,1,colour,0.5,4.0
66,24,0,,8,1,351,538.2454751112964,539.0547035369091,"[18, 0, 236]",236,a,0.28505892725661397,1,colour,0.5,4.0
66,24,0,,8,2,352,539.5744596046861,540.526690895902,"[37, 0, 217]",217,a,0.4288648432120681,1,colour,0.5,4.0
66,24,0,,8,3,353,541.0431922264397,542.0626863872167,"[4, 0, 250]",250,a,0.4961143222171813,1,colour,0.5,4.0
66,24,0,,8,4,354,542.5744103740435,543.3586378938053,"[15, 0, 239]",239,a,0.26077797054313123,1,colour,0.5,4.0
66,24,0,,8,5,355,543.8713169556577,544.678634443786,"[63, 0, 191]",191,l,0.2840412307996303,1,colour,0.5,4.0
66,24,0,,8,6,356,545.1994759493973,546.1346820958424,"[50, 0, 204]",204,a,0.4118649046868086,1,colour,0.5,4.0
66,24,0,,8,7,357,546.6526000879239,547.2786455501337,"[86, 0, 168]",168,l,0.10275148204527795,1,colour,0.5,4.0
66,24,0,,8,8,358,547.7947798168752,548.5186722057406,"[99, 0, 155]",155,l,0.20054839039221406,1,colour,0.5,4.0
66,24,0,,8,9,359,549.0291855121031,549.8466279753484,"[82, 0, 172]",172,l,0.2941996827721596,1,colour,0.5,4.0
66,24,0,,8,10,360,550.3572649490088,551.0706562406849,"[28, 0, 226]",226,a,0.19060379639267921,1,colour,0.5,4.0
66,24,0,,8,11,361,551.5916478014551,552.3186239989009,"[23, 0, 231]",231,a,0.2036251095123589,1,colour,0.5,4.0
66,24,0,,8,12,362,552.8260192321613,553.6706441103015,"[58, 0, 196]",196,l,0.3212568548042327,1,colour,0.5,4.0
66,24,0,,8,13,363,554.1853688044939,555.4866423427593,"[34, 0, 220]",220,a,0.7779964932706207,1,colour,0.5,4.0
66,24,0,,8,14,364,555.9978704783134,556.5826539502013,"[1, 0, 253]",253,a,0.06188412453047931,1,colour,0.5,4.0
66,24,0,,8,15,365,557.0915958138648,557.6946442553308,"[2, 0, 252]",252,a,0.07969774748198688,1,colour,0.5,4.0
66,24,0,,8,16,366,558.2010418782011,558.8388235366438,"[57, 0, 197]",197,l,0.11441599810495973,1,colour,0.5,4.0
66,24,0,,8,17,367,559.3478445634246,560.5346327864099,"[43, 0, 211]",211,a,0.6635237811133265,1,colour,0.5,4.0
66,24,0,,8,18,368,561.0526933504734,561.7266623028554,"[55, 0, 199]",199,a,0.15061274450272322,0,colour,0.5,4.0
66,24,0,,8,19,369,562.2401708026882,562.8866714085452,"[21, 0, 233]",233,a,0.12371547357179224,1,colour,0.5,4.0
66,24,0,,8,20,370,563.3963903288823,564.1746085570194,"[78, 0, 176]",176,l,0.25483681401237845,1,colour,0.5,4.0
66,24,0,,8,21,371,564.6932854889892,565.5106113739312,"[77, 0, 177]",177,l,0.2939744032919407,1,colour,0.5,4.0
66,24,0,,8,22,372,566.0214681134094,566.958618280245,"[48, 0, 206]",206,a,0.4137927773408592,1,colour,0.5,4.0
66,24,0,,8,23,373,567.4745469596237,568.2065840694122,"[81, 0, 173]",173,l,0.20948946615681052,1,colour,0.5,4.0
66,24,0,,8,24,374,568.7245260858908,569.3506018742919,"[46, 0, 208]",208,a,0.10261363605968654,1,colour,0.5,4.0
66,24,0,,8,25,375,569.8651446120348,570.5825743933674,"[84, 0, 170]",170,l,0.19405742571689188,1,colour,0.5,4.0
66,24,0,,8,26,376,571.090249650646,571.7506569339894,"[85, 0, 169]",169,l,0.1373082564678043,1,colour,0.5,4.0
66,24,0,,8,27,377,572.2620784475002,573.1666005006991,"[65, 0, 189]",189,l,0.3814887984190136,1,colour,0.5,4.0
66,24,0,,8,28,378,573.6840403643437,574.4465756725986,"[94, 0, 160]",160,l,0.23935121088288724,1,colour,0.5,4.0
66,24,0,,8,29,379,574.9652431521099,575.7745727959555,"[62, 0, 192]",192,l,0.2859978543128818,1,colour,0.5,4.0
66,24,0,,8,30,380,576.2933332230896,577.8386596972123,"[10, 0, 244]",244,a,1.0220214661676437,1,colour,0.5,4.0
66,24,0,,8,31,381,578.355834109243,579.3345770966262,"[71, 0, 183]",183,l,0.4555171423126012,1,colour,0.5,4.0
66,24,0,,8,32,382,579.855785272317,580.5505689489655,"[72, 0, 182]",182,l,0.1715196284931153,1,colour,0.5,4.0
66,24,0,,8,33,383,581.0589523399249,581.7265921982471,"[91, 0, 163]",163,l,0.14426198904402554,1,colour,0.5,4.0
66,24,0,,8,34,384,582.2470296185929,582.8945640684105,"[16, 0, 238]",238,a,0.12477728049270809,1,colour,0.5,4.0
66,24,0,,8,35,385,583.4027111520991,584.230550737353,"[33, 0, 221]",221,a,0.3052631909959018,1,colour,0.5,4.0
66,24,0,,8,36,386,584.7378853184637,585.6146546686068,"[3, 0, 251]",251,a,0.3521835571154952,1,colour,0.5,4.0
66,24,0,,8,37,387,586.1297082235105,587.2705866876058,"[29, 0, 225]",225,a,0.6175943298730999,1,colour,0.5,4.0
66,24,0,,8,38,388,587.785943109775,588.4545506460126,"[45, 0, 209]",209,a,0.1453931126743555,1,colour,0.5,4.0
66,24,0,,8,39,389,588.9733701499645,589.5665968772955,"[6, 0, 248]",248,a,0.0701013128273189,1,colour,0.5,4.0
66,24,0,,8,40,390,590.08278431301,590.7105922328774,"[66, 0, 188]",188,l,0.10456317034550011,1,colour,0.5,4.0
66,24,0,,8,41,391,591.2234099283814,591.7905660658143,"[69, 0, 185]",185,l,0.04414769494906068,1,colour,0.5,4.0
66,24,0,,8,42,392,592.3015240237582,593.5105802600738,"[89, 0, 165]",165,l,0.6857709207106382,1,colour,0.5,4.0
66,24,0,,8,43,393,594.0202066269703,595.4225420507137,"[11, 0, 243]",243,a,0.8790355357341468,1,colour,0.5,4.0
66,24,0,,8,44,394,595.9421015898697,596.5025588129647,"[80, 0, 174]",174,l,0.03721404867246747,1,colour,0.5,4.0
66,24,0,,8,45,395,597.020222774474,598.3665608798619,"[70, 0, 184]",184,l,0.8229960757307708,1,colour,0.5,4.0
66,24,0,,8,46,396,598.8795006670989,599.4625338902697,"[39, 0, 215]",215,a,0.05960848624818027,1,colour,0.5,4.0
66,24,0,,8,47,397,599.9733012269717,600.51054442022,"[27, 0, 227]",227,a,0.014186307787895203,1,colour,0.5,4.0
66,24,0,,8,48,398,601.0201774823945,601.5745458567981,"[44, 0, 210]",210,a,0.031004683580249548,1,colour,0.5,4.0
66,24,0,,8,49,399,602.082726417575,602.6465833131224,"[54, 0, 200]",200,a,0.03788909944705665,0,colour,0.5,4.0
66,24,0,,8,50,400,603.1646643572021,604.2065746171866,"[38, 0, 216]",216,a,0.5184914309065789,1,colour,0.5,4.0
66,24,0,,9,1,401,608.6327191710006,609.414525329601,"[61, 0, 193]",193,l,0.2577363031450659,1,colour,0.5,4.0
66,24,0,,9,2,402,609.9304520396981,610.4546286275145,"[65, 0, 189]",189,l,0.0009527117945253849,1,colour,0.5,4.0
66,24,0,,9,3,403,610.9771782401949,612.0785323590972,"[78, 0, 176]",176,l,0.5779939726926386,1,colour,0.5,4.0
66,24,0,,9,4,404,612.5874383829068,613.6624974203296,"[35, 0, 219]",219,a,0.5518111370038241,1,colour,0.5,4.0
66,24,0,,9,5,405,614.1812267336063,614.9265171315055,"[48, 0, 206]",206,a,0.22202477464452386,1,colour,0.5,4.0
66,24,0,,9,6,406,615.4331148278434,616.0224984127562,"[66, 0, 188]",188,l,0.075337486108765,1,colour,0.5,4.0
66,24,0,,9,7,407,616.5333090724889,617.4865092230029,"[6, 0, 248]",248,a,0.4302905632648617,1,colour,0.5,4.0
66,24,0,,9,8,408,618.0019877371378,619.1505859629251,"[92, 0, 162]",162,l,0.6253259070217609,1,colour,0.5,4.0
66,24,0,,9,9,409,619.6582198664546,620.2384780556895,"[30, 0, 224]",224,a,0.05684093525633216,1,colour,0.5,4.0
66,24,0,,9,10,410,620.7520452386234,621.4944975872058,"[8, 0, 246]",246,a,0.21912922384217381,1,colour,0.5,4.0
66,24,0,,9,11,411,622.0019613495097,622.7184959205333,"[54, 0, 200]",200,l,0.19322877540253103,1,colour,0.5,4.0
66,24,0,,9,12,412,623.2363902817015,623.8145335216541,"[93, 0, 161]",161,l,0.054816176649183035,1,colour,0.5,4.0
66,24,0,,9,13,413,624.3301207371987,625.0545211865101,"[95, 0, 159]",159,l,0.2010068262461573,1,colour,0.5,4.0
66,24,0,,9,14,414,625.5644133989699,626.1904675257392,"[42, 0, 212]",212,a,0.10272115585394204,1,colour,0.5,4.0
66,24,0,,9,15,415,626.7050720972475,627.6704137108754,"[27, 0, 227]",227,a,0.44203227339312434,1,colour,0.5,4.0
66,24,0,,9,16,416,628.1895392325241,629.1424782637041,"[50, 0, 204]",204,a,0.42981637362390757,1,colour,0.5,4.0
66,24,0,,9,17,417,629.6582411341369,630.3745063147508,"[12, 0, 242]",242,a,0.19294875115156174,1,colour,0.5,4.0
66,24,0,,9,18,418,630.892610989511,631.7584570401814,"[89, 0, 165]",165,l,0.34103064611554146,1,colour,0.5,4.0
66,24,0,,9,19,419,632.2691570292227,633.6784839949105,"[5, 0, 249]",249,a,0.8860597668681294,1,colour,0.5,4.0
66,24,0,,9,20,420,634.1926411581226,634.9104836892802,"[20, 0, 234]",234,a,0.19458281551487744,1,colour,0.5,4.0
66,24,0,,9,21,421,635.4280720327515,636.3984458076302,"[7, 0, 247]",247,a,0.44701599166728556,1,colour,0.5,4.0
66,24,0,,9,22,422,636.9124344049487,637.4384589148685,"[77, 0, 177]",177,l,0.002674997318536043,1,colour,0.5,4.0
66,24,0,,9,23,423,637.9593212942127,638.638451982988,"[91, 0, 163]",163,l,0.15579614229500294,1,colour,0.5,4.0
66,24,0,,9,24,424,639.1468404941261,639.8863846890163,"[44, 0, 210]",210,a,0.21625572838820517,1,colour,0.5,4.0
66,24,0,,9,25,425,640.3969562847633,641.134470207151,"[62, 0, 192]",192,l,0.21433494496159256,1,colour,0.5,4.0
66,24,0,,9,26,426,641.6468432510737,642.3985738074407,"[85, 0, 169]",169,l,0.22833614540286362,1,colour,0.5,4.0
66,24,0,,9,27,427,642.9123930511996,643.726401577238,"[37, 0, 217]",217,a,0.2935848901979625,1,colour,0.5,4.0
66,24,0,,9,28,428,644.237668703543,645.2623990376014,"[15, 0, 239]",239,a,0.5014607722405344,1,colour,0.5,4.0
66,24,0,,9,29,429,645.7689096943941,646.7664442227688,"[9, 0, 245]",245,a,0.47426024032756686,1,colour,0.5,4.0
66,24,0,,9,30,430,647.2845272358973,648.0066091178451,"[68, 0, 186]",186,l,0.1988843937870115,1,colour,0.5,4.0
66,24,0,,9,31,431,648.518869128311,649.3584161589388,"[75, 0, 179]",179,l,0.3169793011620641,1,colour,0.5,4.0
66,24,0,,9,32,432,649.8781757715624,650.4704619962722,"[52, 0, 202]",202,l,0.06877996190451086,1,colour,0.5,4.0
66,24,0,,9,33,433,650.9876143529546,652.1264298553579,"[36, 0, 218]",218,a,0.6158322661649436,1,colour,0.5,4.0
66,24,0,,9,34,434,652.6438594791107,653.4064518949017,"[63, 0, 191]",191,l,0.23931379546411335,1,colour,0.5,4.0
66,24,0,,9,35,435,653.9251217374112,654.9504826180637,"[70, 0, 184]",184,l,0.5019069991540164,1,colour,0.5,4.0
66,24,0,,9,36,436,655.4719893282745,656.710429181112,"[26, 0, 228]",228,a,0.7151840755250305,1,colour,0.5,4.0
66,24,0,,9,37,437,657.2219538821373,658.3265647080261,"[80, 0, 174]",174,l,0.5813030609861016,1,colour,0.5,4.0
66,24,0,,9,38,438,658.8469903129153,659.6784804502968,"[2, 0, 252]",252,a,0.30822924012318254,1,colour,0.5,4.0
66,24,0,,9,39,439,660.1907124975696,661.4784755664878,"[51, 0, 203]",203,a,0.7644186764955521,0,colour,0.5,4.0
66,24,0,,9,40,440,661.9876119899563,663.0303914663382,"[56, 0, 198]",198,a,0.5198596492409706,0,colour,0.5,4.0
66,24,0,,9,41,441,663.5500238670502,664.694408735726,"[31, 0, 223]",223,a,0.6210672578308731,1,colour,0.5,4.0
66,24,0,,9,42,442,665.2063406729139,666.358364565298,"[10, 0, 244]",244,a,0.6291978002991527,1,colour,0.5,4.0
66,24,0,,9,43,443,666.8781741962302,667.542464400176,"[73, 0, 181]",181,l,0.1409221808426082,1,colour,0.5,4.0
66,24,0,,9,44,444,668.0500691591296,668.8383678577375,"[28, 0, 226]",226,a,0.2742726858705282,1,colour,0.5,4.0
66,24,0,,9,45,445,669.3532351239119,670.5504291336983,"[14, 0, 240]",240,a,0.673822441836819,1,colour,0.5,4.0
66,24,0,,9,46,446,671.072031942429,671.8704052036628,"[97, 0, 157]",157,l,0.2751911331433803,1,colour,0.5,4.0
66,24,0,,9,47,447,672.3844706008676,673.6304781911895,"[3, 0, 251]",251,a,0.7226884039118886,1,colour,0.5,4.0
66,24,0,,9,48,448,674.1501141362824,675.2704303311184,"[83, 0, 171]",171,l,0.5977858805563301,1,colour,0.5,4.0
66,24,0,,9,49,449,675.7906542872079,677.0063409092836,"[21, 0, 233]",233,a,0.6924718045629561,1,colour,0.5,4.0
66,24,0,,9,50,450,677.5251080316957,678.7503469777294,"[11, 0, 243]",243,a,0.7026314381510019,1,colour,0.5,4.0
66,24,0,,10,1,451,684.0261044602375,684.5583639349788,"[61, 0, 193]",193,l,0.008050591684877872,1,colour,0.5,3.9
66,24,0,,10,2,452,685.0750153204426,685.910612476524,"[36, 0, 218]",218,a,0.3123027819674462,1,colour,0.5,3.9
66,24,0,,10,3,453,686.4187095421366,687.2383260314818,"[75, 0, 179]",179,l,0.2962575245182961,1,colour,0.5,3.9
66,24,0,,10,4,454,687.7468354529701,688.5183634308632,"[15, 0, 239]",239,a,0.24816665006801486,1,colour,0.5,3.9
66,24,0,,10,5,455,689.0287633098196,690.0863643668126,"[88, 0, 166]",166,l,0.5343007750343531,1,colour,0.5,3.9
66,24,0,,10,6,456,690.6068620453589,691.7423156842124,"[68, 0, 186]",186,l,0.6122120399959385,1,colour,0.5,3.9
66,24,0,,10,7,457,692.261276184814,693.7023183309939,"[55, 0, 199]",199,l,0.9177694336976856,1,colour,0.5,3.9
66,24,0,,10,8,458,694.2144129262306,695.3583594451193,"[4, 0, 250]",250,a,0.6206320587079972,1,colour,0.5,3.9
66,24,0,,10,9,459,695.8706690801773,697.0623126281425,"[29, 0, 225]",225,a,0.6683416909072548,1,colour,0.5,3.9
66,24,0,,10,10,460,697.5737861292437,698.286316081183,"[11, 0, 243]",243,a,0.1893549128435552,1,colour,0.5,3.9
66,24,0,,10,11,461,698.7924762156326,700.6784757240675,"[81, 0, 173]",173,l,1.362628334434703,1,colour,0.5,3.9
66,24,0,,10,12,462,701.1997520348523,702.3102811740246,"[99, 0, 155]",155,l,0.5872713925782591,1,colour,0.5,3.9
66,24,0,,10,13,463,702.8247191489208,703.6063244466204,"[42, 0, 212]",212,a,0.25804744102060795,1,colour,0.5,3.9
66,24,0,,10,14,464,704.1219352926128,705.2223256721627,"[0, 0, 254]",254,a,0.577676139306277,1,colour,0.5,3.9
66,24,0,,10,15,465,705.7311194499489,707.0063027061988,"[84, 0, 170]",170,l,0.7518483158200979,1,colour,0.5,3.9
66,24,0,,10,16,466,707.512328933226,708.2863038720097,"[17, 0, 237]",237,a,0.25072703836485744,1,colour,0.5,3.9
66,24,0,,10,17,467,708.7935742563568,709.7743278241251,"[44, 0, 210]",210,a,0.4579046326689422,1,colour,0.5,3.9
66,24,0,,10,18,468,710.2934714627918,711.4703308457974,"[43, 0, 211]",211,a,0.6539454634767026,1,colour,0.5,3.9
66,24,0,,10,19,469,711.9808083123062,713.070420721313,"[14, 0, 240]",240,a,0.566357419360429,1,colour,0.5,3.9
66,24,0,,10,20,470,713.5902142045088,714.4623283031397,"[97, 0, 157]",157,l,0.3491950591560453,1,colour,0.5,3.9
66,24,0,,10,21,471,714.9809414320625,716.0142465659883,"[76, 0, 178]",178,l,0.5101072520483285,1,colour,0.5,3.9
66,24,0,,10,22,472,716.529270188883,717.4702887043823,"[51, 0, 203]",203,a,0.4201766161713749,0,colour,0.5,3.9
66,24,0,,10,23,473,717.9808484844398,718.7503182268701,"[85, 0, 169]",169,l,0.24700559419579804,1,colour,0.5,3.9
66,24,0,,10,24,474,719.2622285026591,720.2623848591466,"[71, 0, 183]",183,l,0.47749489173293114,1,colour,0.5,3.9
66,24,0,,10,25,475,720.7778877918608,722.0784350791946,"[62, 0, 192]",192,l,0.7780677790287882,1,colour,0.5,3.9
66,24,0,,10,26,476,722.590216567507,723.4462720178999,"[34, 0, 220]",220,a,0.34565754048526287,1,colour,0.5,3.9
66,24,0,,10,27,477,723.9531162614003,724.838344227057,"[2, 0, 252]",252,a,0.36149957380257547,1,colour,0.5,3.9
66,24,0,,10,28,478,725.3590297698975,726.1102569918148,"[95, 0, 159]",159,l,0.22838064981624484,1,colour,0.5,3.9
66,24,0,,10,29,479,726.6246583391912,727.3582507439423,"[96, 0, 158]",158,l,0.21028779074549675,1,colour,0.5,3.9
66,24,0,,10,30,480,727.8746563699096,728.6783166106325,"[37, 0, 217]",217,a,0.2803126974031329,1,colour,0.5,3.9
66,24,0,,10,31,481,729.1872395696118,729.7663146476261,"[94, 0, 160]",160,l,0.056433699326589704,1,colour,0.5,3.9
66,24,0,,10,32,482,730.2825544648804,731.0543211130425,"[58, 0, 196]",196,a,0.24910912197083235,0,colour,0.5,3.9
66,24,0,,10,33,483,731.56396244606,732.9822616013698,"[98, 0, 156]",156,l,0.8952135192230344,1,colour,0.5,3.9
66,24,0,,10,34,484,733.5013654616196,734.1342768289614,"[50, 0, 204]",204,a,0.1106472925748676,1,colour,0.5,3.9
66,24,0,,10,35,485,734.6420855999459,735.2062843530439,"[20, 0, 234]",234,a,0.041753115598112345,1,colour,0.5,3.9
66,24,0,,10,36,486,735.7201264400501,736.4302310924977,"[25, 0, 229]",229,a,0.187850029906258,1,colour,0.5,3.9
66,24,0,,10,37,487,736.9388708770275,737.4783810437657,"[35, 0, 219]",219,a,0.017069255467504263,1,colour,0.5,3.9
66,24,0,,10,38,488,737.9857648552861,738.6942177207675,"[33, 0, 221]",221,a,0.18467918154783547,1,colour,0.5,3.9
66,24,0,,10,39,489,739.2045120492112,739.7424409270752,"[1, 0, 253]",253,a,0.014635291416198015,1,colour,0.5,3.9
66,24,0,,10,40,490,740.2513126863632,741.0382526186295,"[47, 0, 207]",207,l,0.26465419586747885,0,colour,0.5,3.9
66,24,0,,10,41,491,741.5482629847247,742.222322915215,"[56, 0, 198]",198,l,0.15097902063280344,1,colour,0.5,3.9
66,24,0,,10,42,492,742.7383973174728,743.502203170443,"[52, 0, 202]",202,l,0.24013181193731725,1,colour,0.5,3.9
66,24,0,,10,43,493,744.0197722155135,744.7424740099814,"[32, 0, 222]",222,l,0.19901278731413186,0,colour,0.5,3.9
66,24,0,,10,44,494,745.2540483358316,746.6302147086244,"[31, 0, 223]",223,a,0.8523221907671541,1,colour,0.5,3.9
66,24,0,,10,45,495,747.1444549732842,747.918239290826,"[54, 0, 200]",200,a,0.2503843929152936,0,colour,0.5,3.9
66,24,0,,10,46,496,748.4257440131623,748.9742259758059,"[39, 0, 215]",215,a,0.025236425455659628,1,colour,0.5,3.9
66,24,0,,10,47,497,749.4881566779222,750.574188639177,"[93, 0, 161]",161,l,0.5626438518520445,1,colour,0.5,3.9
66,24,0,,10,48,498,751.0719011856709,751.7101987814531,"[46, 0, 208]",208,a,0.11494375090114772,1,colour,0.5,3.9
66,24,0,,10,49,499,752.2282136594877,752.758449163055,"[18, 0, 236]",236,a,0.007184525951743126,1,colour,0.5,3.9
66,24,0,,10,50,500,753.2751048810314,755.5261938632466,"[92, 0, 162]",162,l,1.7278595925308764,1,colour,0.5,3.9
66,24,0,,11,1,501,764.9304933936801,765.6541691676248,"[33, 0, 221]",221,a,0.19959174003452063,1,colour,0.5,3.9
66,24,0,,11,2,502,766.1656749641988,766.7501728979405,"[7, 0, 247]",247,a,0.061207498190924525,1,colour,0.5,3.9
66,24,0,,11,3,503,767.2594010871835,768.7742045505438,"[77, 0, 177]",177,l,0.9914452861994505,1,colour,0.5,3.9
66,24,0,,11,4,504,769.2906735856086,770.0222022410017,"[94, 0, 160]",160,l,0.20818189973942935,1,colour,0.5,3.9
66,24,0,,11,5,505,770.5406318381429,771.326155502582,"[85, 0, 169]",169,l,0.26213870593346655,1,colour,0.5,3.9
66,24,0,,11,6,506,771.8375242410693,773.0461578813847,"[83, 0, 171]",171,l,0.6853179985191673,1,colour,0.5,3.9
66,24,0,,11,7,507,773.5562462287489,774.5181330314372,"[60, 0, 194]",194,l,0.4392560578417033,1,colour,0.5,3.9
66,24,0,,11,8,508,775.0250115396921,775.8625184516422,"[26, 0, 228]",228,a,0.31414912873879075,1,colour,0.5,3.9
66,24,0,,11,9,509,776.3687412072904,776.9181873032358,"[80, 0, 174]",174,l,0.02611115574836731,1,colour,0.5,3.9
66,24,0,,11,10,510,777.4312125551514,778.3741203465033,"[9, 0, 245]",245,a,0.42281144112348557,1,colour,0.5,3.9
66,24,0,,11,11,511,778.883113410091,779.4461589842103,"[55, 0, 199]",199,l,0.03967676335014403,1,colour,0.5,3.9
66,24,0,,11,12,512,779.9611640963703,781.1822105590254,"[54, 0, 200]",200,l,0.6976331472396851,1,colour,0.5,3.9
66,24,0,,11,13,513,781.6956217791885,782.5741303500254,"[98, 0, 156]",156,l,0.35548910056240857,1,colour,0.5,3.9
66,24,0,,11,14,514,783.0862391239498,783.8621313015465,"[75, 0, 179]",179,l,0.25255605578422546,1,colour,0.5,3.9
66,24,0,,11,15,515,784.3831579145044,784.9501529694535,"[13, 0, 241]",241,a,0.04376251436769962,1,colour,0.5,3.9
66,24,0,,11,16,516,785.4612842192873,786.3261393550783,"[49, 0, 205]",205,a,0.3416032970417291,1,colour,0.5,3.9
66,24,0,,11,17,517,786.8362312470563,787.6061050747521,"[59, 0, 195]",195,l,0.24659008742310107,1,colour,0.5,3.9
66,24,0,,11,18,518,788.1174202500843,788.8301045894623,"[58, 0, 196]",196,l,0.1892288823146373,1,colour,0.5,3.9
66,24,0,,11,19,519,789.3270010885317,789.8782226392068,"[40, 0, 214]",214,l,0.027930327225476503,0,colour,0.5,3.9
66,24,0,,11,20,520,790.3894507747609,791.1581190419383,"[31, 0, 223]",223,a,0.2577264569699764,1,colour,0.5,3.9
66,24,0,,11,21,521,791.673922478687,792.4381020909641,"[19, 0, 235]",235,a,0.24096912727691233,1,colour,0.5,3.9
66,24,0,,11,22,522,792.9562118854374,793.662096091779,"[88, 0, 166]",166,l,0.1828072345815599,1,colour,0.5,3.9
66,24,0,,11,23,523,794.174913787283,795.302129363874,"[53, 0, 201]",201,a,0.6038640949409455,0,colour,0.5,3.9
66,24,0,,11,24,524,795.8155260118656,797.0301890298724,"[47, 0, 207]",207,a,0.6913674622774124,1,colour,0.5,3.9
66,24,0,,11,25,525,797.5499092580285,798.0781129137613,"[2, 0, 252]",252,a,0.004948666086420417,1,colour,0.5,3.9
66,24,0,,11,26,526,798.596804811852,799.2461269253399,"[29, 0, 225]",225,a,0.12686308519914746,1,colour,0.5,3.9
66,24,0,,11,27,527,799.7530038580298,800.8220957452431,"[95, 0, 159]",159,l,0.545654941117391,1,colour,0.5,3.9
66,24,0,,11,28,528,801.3312042055186,802.2540892956313,"[16, 0, 238]",238,a,0.39964742958545685,1,colour,0.5,3.9
66,24,0,,11,29,529,802.7686170672532,803.5500526176766,"[43, 0, 211]",211,a,0.25814314535818994,1,colour,0.5,3.9
66,24,0,,11,30,530,804.065396436723,804.6461993139237,"[67, 0, 187]",187,l,0.05735569098033011,1,colour,0.5,3.9
66,24,0,,11,31,531,805.1593375992961,805.7021028974559,"[20, 0, 234]",234,a,0.019551268313080072,1,colour,0.5,3.9
66,24,0,,11,32,532,806.2217439627275,807.5020968322642,"[52, 0, 202]",202,l,0.7570143847260624,1,colour,0.5,3.9
66,24,0,,11,33,533,808.0193279581144,808.5660951184109,"[12, 0, 242]",242,a,0.023445216938853264,1,colour,0.5,3.9
66,24,0,,11,34,534,809.0817882781848,809.6620665534865,"[27, 0, 227]",227,a,0.05690867663361132,1,colour,0.5,3.9
66,24,0,,11,35,535,810.1755848994944,812.0061266573612,"[18, 0, 236]",236,a,1.3072623496409506,1,colour,0.5,3.9
66,24,0,,11,36,536,812.5192948749755,815.0060833343305,"[39, 0, 215]",215,a,1.9635303188115358,1,colour,0.5,3.9
66,24,0,,11,37,537,815.5192830597516,816.3500374939758,"[28, 0, 226]",226,a,0.3073958633467555,1,colour,0.5,3.9
66,24,0,,11,38,538,816.8629847643897,817.5900472141802,"[96, 0, 158]",158,l,0.20365976821631193,1,colour,0.5,3.9
66,24,0,,11,39,539,818.0973837643396,818.8701003675815,"[81, 0, 173]",173,l,0.24948603194206953,1,colour,0.5,3.9
66,24,0,,11,40,540,819.3786298751365,820.1260769700166,"[68, 0, 186]",186,l,0.22415862837806344,1,colour,0.5,3.9
66,24,0,,11,41,541,820.6444608808961,821.4540437671822,"[87, 0, 167]",167,l,0.28625542926602066,1,colour,0.5,3.9
66,24,0,,11,42,542,821.9724958133884,823.6540403801482,"[35, 0, 219]",219,a,1.158269097097218,1,colour,0.5,3.9
66,24,0,,11,43,543,824.160011468688,825.6140501159243,"[64, 0, 190]",190,l,0.9307923221495003,1,colour,0.5,3.9
66,24,0,,11,44,544,826.1287287303712,827.1420186462346,"[99, 0, 155]",155,l,0.4899707294534892,1,colour,0.5,3.9
66,24,0,,11,45,545,827.6599527858198,828.4060328435153,"[71, 0, 183]",183,l,0.22273881593719125,1,colour,0.5,3.9
66,24,0,,11,46,546,828.9255722966045,830.2380105613265,"[10, 0, 244]",244,a,0.7891391643788666,1,colour,0.5,3.9
66,24,0,,11,47,547,830.753751376411,831.3660370653961,"[89, 0, 165]",165,l,0.08894208422861993,1,colour,0.5,3.9
66,24,0,,11,48,548,831.8787007674109,833.4620451282244,"[46, 0, 208]",208,a,1.0600318699143827,1,colour,0.5,3.9
66,24,0,,11,49,549,833.9724020780995,834.5580075050239,"[6, 0, 248]",248,a,0.06236540339887142,1,colour,0.5,3.9
66,24,0,,11,50,550,835.0720744775608,835.6700324686244,"[42, 0, 212]",212,a,0.07469394290819764,1,colour,0.5,3.9
66,24,0,,12,1,551,840.227542153094,841.4860338517465,"[3, 0, 251]",251,a,0.7337460045237094,1,colour,0.5,3.9
66,24,0,,12,2,552,841.9945476055145,843.5019593802281,"[22, 0, 232]",232,a,0.9844096337910742,1,colour,0.5,3.9
66,24,0,,12,3,553,844.0102053193841,845.9580145154614,"[1, 0, 253]",253,a,1.4245514494832605,1,colour,0.5,3.9
66,24,0,,12,4,554,846.4789131286088,847.9583327425644,"[0, 0, 254]",254,a,0.9561394180636853,1,colour,0.5,3.9
66,24,0,,12,5,555,848.4789501500782,849.7900343746878,"[2, 0, 252]",252,a,0.7877859119325876,1,colour,0.5,3.9
66,24,0,,12,6,556,850.3069413658231,851.405980855925,"[14, 0, 240]",240,a,0.5757994665764272,1,colour,0.5,3.9
66,24,0,,12,7,557,851.9163712826557,852.8940020510927,"[59, 0, 195]",195,l,0.4543411205522716,1,colour,0.5,3.9
66,24,0,,12,8,558,853.3987451300491,854.1979726417921,"[52, 0, 202]",202,l,0.2759307746309787,1,colour,0.5,3.9
66,24,0,,12,9,559,854.7112708284985,855.3659350594971,"[64, 0, 190]",190,l,0.14383387914858758,1,colour,0.5,3.9
66,24,0,,12,10,560,855.8863232492004,856.5180077885743,"[49, 0, 205]",205,l,0.10835629445500672,0,colour,0.5,3.9
66,24,0,,12,11,561,857.0269114493858,857.8300096727908,"[79, 0, 175]",175,l,0.2797995170112699,1,colour,0.5,3.9
66,24,0,,12,12,562,858.3413646265399,858.9579794632737,"[92, 0, 162]",162,l,0.093276351923123,1,colour,0.5,3.9
66,24,0,,12,13,563,859.466355371289,860.2139714257792,"[56, 0, 198]",198,a,0.22512985090725124,0,colour,0.5,3.9
66,24,0,,12,14,564,860.731851214543,861.3339516704436,"[7, 0, 247]",247,l,0.07860679598525167,0,colour,0.5,3.9
66,24,0,,12,15,565,861.8413429651409,863.5819454223383,"[96, 0, 158]",158,l,1.2172954799607396,1,colour,0.5,3.9
66,24,0,,12,16,566,864.0918900163379,864.7899536364712,"[98, 0, 156]",156,l,0.17533086938783526,1,colour,0.5,3.9
66,24,0,,12,17,567,865.3100397468079,866.1022260922473,"[72, 0, 182]",182,l,0.2687493993435055,1,colour,0.5,3.9
66,24,0,,12,18,568,866.6225559930317,867.3339343410917,"[85, 0, 169]",169,l,0.1881434447132051,1,colour,0.5,3.9
66,24,0,,12,19,569,867.8289521981496,868.5979552338831,"[90, 0, 164]",164,l,0.2458272089716047,1,colour,0.5,3.9
66,24,0,,12,20,570,869.1101041799411,869.9658996921498,"[23, 0, 231]",231,a,0.33242788282223046,1,colour,0.5,3.9
66,24,0,,12,21,571,870.4850417554844,871.3739415407181,"[21, 0, 233]",233,a,0.36587165063247085,1,colour,0.5,3.9
66,24,0,,12,22,572,871.8913751030341,872.7179626538418,"[88, 0, 166]",166,l,0.3033093244303018,1,colour,0.5,3.9
66,24,0,,12,23,573,873.235112647526,873.8059780201875,"[82, 0, 172]",172,l,0.047568241599947214,1,colour,0.5,3.9
66,24,0,,12,24,574,874.3132432845887,875.0220620322507,"[99, 0, 155]",155,l,0.18542473064735532,1,colour,0.5,3.9
66,24,0,,12,25,575,875.5319660599343,876.2139190442394,"[70, 0, 184]",184,l,0.1570765336509794,1,colour,0.5,3.9
66,24,0,,12,26,576,876.720998413628,877.5179207487963,"[47, 0, 207]",207,a,0.2736031487584114,1,colour,0.5,3.9
66,24,0,,12,27,577,878.0335371089168,878.7659015038516,"[87, 0, 167]",167,l,0.20910428534261882,1,colour,0.5,3.9
66,24,0,,12,28,578,879.2835776749998,880.1099048941396,"[53, 0, 201]",201,a,0.30305332504212856,0,colour,0.5,3.9
66,24,0,,12,29,579,880.6272557489574,881.2938916955609,"[4, 0, 250]",250,a,0.14335653861053288,1,colour,0.5,3.9
66,24,0,,12,30,580,881.8147450166289,882.4458899879828,"[95, 0, 159]",159,l,0.10779703431762755,1,colour,0.5,3.9
66,24,0,,12,31,581,882.9553918996826,883.4939005177002,"[28, 0, 226]",226,a,0.013251712778583169,1,colour,0.5,3.9
66,24,0,,12,32,582,884.0041932708118,884.5498962611891,"[6, 0, 248]",248,a,0.02224989654496312,1,colour,0.5,3.9
66,24,0,,12,33,583,885.0666874616873,885.6459169269074,"[73, 0, 181]",181,l,0.05594099871814251,1,colour,0.5,3.9
66,24,0,,12,34,584,886.1639069926459,887.5739401227329,"[33, 0, 221]",221,a,0.8867879866156727,1,colour,0.5,3.9
66,24,0,,12,35,585,888.0733347826172,888.9019258245826,"[36, 0, 218]",218,a,0.3054766550194472,1,colour,0.5,3.9
66,24,0,,12,36,586,889.4170711457264,890.1418634711299,"[31, 0, 223]",223,a,0.20136561919935048,1,colour,0.5,3.9
66,24,0,,12,37,587,890.6392766952049,891.2619055495597,"[62, 0, 192]",192,l,0.0994278215803206,1,colour,0.5,3.9
66,24,0,,12,38,588,891.7798227537423,893.3498712913133,"[44, 0, 210]",210,l,1.047487897099927,0,colour,0.5,3.9
66,24,0,,12,39,589,893.8579470892437,894.4459092863835,"[83, 0, 171]",171,l,0.06471626600250602,1,colour,0.5,3.9
66,24,0,,12,40,590,894.9672241939697,895.829903334612,"[55, 0, 199]",199,a,0.3393020590301603,0,colour,0.5,3.9
66,24,0,,12,41,591,896.3422736215871,896.9418770980556,"[75, 0, 179]",179,l,0.07623781636357307,1,colour,0.5,3.9
66,24,0,,12,42,592,897.4516791200731,898.4138813926838,"[57, 0, 197]",197,a,0.4389390123542398,0,colour,0.5,3.9
66,24,0,,12,43,593,898.9203829909675,899.5338439142797,"[29, 0, 225]",225,a,0.10247421497479081,1,colour,0.5,3.9
66,24,0,,12,44,594,900.0485883008223,901.0858882076573,"[39, 0, 215]",215,a,0.513814517762512,1,colour,0.5,3.9
66,24,0,,12,45,595,901.5955129992217,902.5178825457115,"[12, 0, 242]",242,a,0.39904405851848423,1,colour,0.5,3.9
66,24,0,,12,46,596,903.0330329868011,904.325838851044,"[30, 0, 224]",224,a,0.7695429977029562,1,colour,0.5,3.9
66,24,0,,12,47,597,904.8455204821657,905.5019010913093,"[51, 0, 203]",203,a,0.13317209319211543,0,colour,0.5,3.9
66,24,0,,12,48,598,906.0173307685181,906.5818981609773,"[27, 0, 227]",227,a,0.04125805222429335,1,colour,0.5,3.9
66,24,0,,12,49,599,907.0954948822036,908.7658487285953,"[9, 0, 245]",245,a,1.1470988567452878,1,colour,0.5,3.9
66,24,0,,12,50,600,909.2829963592812,910.8618827853352,"[37, 0, 217]",217,a,1.055538882734254,1,colour,0.5,3.9
66,24,0,,13,1,601,917.6611177802552,918.2861041924916,"[80, 0, 174]",174,l,0.10083896922878921,1,colour,0.5,3.9
66,24,0,,13,2,602,918.8025381753687,919.5338777850848,"[39, 0, 215]",215,a,0.20845877309329808,1,colour,0.5,3.9
66,24,0,,13,3,603,920.0523318003397,920.7100243079476,"[69, 0, 185]",185,l,0.13460568990558386,1,colour,0.5,3.9
66,24,0,,13,4,604,921.2242692988366,921.9658315570559,"[71, 0, 183]",183,l,0.2181134968996048,1,colour,0.5,3.9
66,24,0,,13,5,605,922.4743390092626,923.0137948254123,"[67, 0, 187]",187,l,0.016043288400396705,1,colour,0.5,3.9
66,24,0,,13,6,606,923.5212420462631,924.2778035090305,"[10, 0, 244]",244,a,0.23334979615174234,1,colour,0.5,3.9
66,24,0,,13,7,607,924.7788735865615,925.3418037642259,"[84, 0, 170]",170,l,0.03955585276708007,1,colour,0.5,3.9
66,24,0,,13,8,608,925.8569219098426,926.9498355300166,"[75, 0, 179]",179,l,0.5696531166322529,1,colour,0.5,3.9
66,24,0,,13,9,609,927.4662986574695,928.6938427800778,"[68, 0, 186]",186,l,0.7041654654312879,1,colour,0.5,3.9
66,24,0,,13,10,610,929.2001951108687,929.8138139662333,"[12, 0, 242]",242,a,0.09025043831206858,1,colour,0.5,3.9
66,24,0,,13,11,611,930.32535639056,931.4458108250983,"[19, 0, 235]",235,a,0.5972537954803556,1,colour,0.5,3.9
66,24,0,,13,12,612,931.9658941784874,933.1661117386539,"[29, 0, 225]",225,a,0.6769834444858134,1,colour,0.5,3.9
66,24,0,,13,13,613,933.6845153418835,934.3817916652188,"[64, 0, 190]",190,l,0.17388506326824427,1,colour,0.5,3.9
66,24,0,,13,14,614,934.8876961939968,935.8698038018774,"[23, 0, 231]",231,a,0.4588171720970422,1,colour,0.5,3.9
66,24,0,,13,15,615,936.3876839848235,937.0377985150553,"[41, 0, 213]",213,a,0.1267319347243756,1,colour,0.5,3.9
66,24,0,,13,16,616,937.543926354032,938.2378230909817,"[24, 0, 230]",230,a,0.1706063011661172,1,colour,0.5,3.9
66,24,0,,13,17,617,938.7471623446327,939.4939024869818,"[9, 0, 245]",245,a,0.2236233924049884,1,colour,0.5,3.9
66,24,0,,13,18,618,940.0126136834733,940.5498639657162,"[53, 0, 201]",201,l,0.013865717686712742,1,colour,0.5,3.9
66,24,0,,13,19,619,941.0611641751602,941.7417772978079,"[89, 0, 165]",165,l,0.15723604103550315,1,colour,0.5,3.9
66,24,0,,13,20,620,942.2486172090285,942.8297855746932,"[1, 0, 253]",253,a,0.057914557633921504,1,colour,0.5,3.9
66,24,0,,13,21,621,943.3444043246564,944.4378106454387,"[55, 0, 199]",199,l,0.5700828020926565,1,colour,0.5,3.9
66,24,0,,13,22,622,944.95570894517,946.0537618526723,"[16, 0, 238]",238,a,0.5747790134046227,1,colour,0.5,3.9
66,24,0,,13,23,623,946.565055760555,947.3019379551988,"[5, 0, 249]",249,a,0.2135460728313774,1,colour,0.5,3.9
66,24,0,,13,24,624,947.8150195267517,948.4297663550824,"[90, 0, 164]",164,l,0.09148199250921607,1,colour,0.5,3.9
66,24,0,,13,25,625,948.9401095204521,949.5898014546838,"[45, 0, 209]",209,a,0.12657833518460393,1,colour,0.5,3.9
66,24,0,,13,26,626,950.0962041977327,950.7097880009096,"[18, 0, 236]",236,a,0.0901291340123862,1,colour,0.5,3.9
66,24,0,,13,27,627,951.2227569327224,952.2857461872045,"[30, 0, 224]",224,a,0.5398874706588686,1,colour,0.5,3.9
66,24,0,,13,28,628,952.8009045049548,953.5257413350046,"[87, 0, 167]",167,l,0.20164485555142164,1,colour,0.5,3.9
66,24,0,,13,29,629,954.0352255236357,954.6858914373443,"[85, 0, 169]",169,l,0.12733412417583168,1,colour,0.5,3.9
66,24,0,,13,30,630,955.2073564000893,955.8857584751677,"[28, 0, 226]",226,a,0.1550860395655036,1,colour,0.5,3.9
66,24,0,,13,31,631,956.3825096453074,957.0697070735041,"[93, 0, 161]",161,l,0.1638140450231731,1,colour,0.5,3.9
66,24,0,,13,32,632,957.5856672604568,958.2297421731055,"[13, 0, 241]",241,a,0.12075178767554462,1,colour,0.5,3.9
66,24,0,,13,33,633,958.7420644110534,959.4057859024033,"[6, 0, 248]",248,a,0.14037788659334183,1,colour,0.5,3.9
66,24,0,,13,34,634,959.9139262910467,960.453795250738,"[98, 0, 156]",156,l,0.028932663379237056,1,colour,0.5,3.9
66,24,0,,13,35,635,960.9639954501763,961.7577741122805,"[66, 0, 188]",188,l,0.2705264294054359,1,colour,0.5,3.9
66,24,0,,13,36,636,962.2773848513607,962.9817295165267,"[52, 0, 202]",202,a,0.18105856166221201,0,colour,0.5,3.9
66,24,0,,13,37,637,963.496174186701,964.0777568777557,"[15, 0, 239]",239,a,0.05816976958885789,1,colour,0.5,3.9
66,24,0,,13,38,638,964.5899448143318,965.3497188731562,"[73, 0, 181]",181,l,0.23704524640925229,1,colour,0.5,3.9
66,24,0,,13,39,639,965.8432038840838,966.5897636455484,"[96, 0, 158]",158,l,0.22328586713410914,1,colour,0.5,3.9
66,24,0,,13,40,640,967.1087430506013,967.7257580340374,"[25, 0, 229]",229,a,0.09365286794491112,1,colour,0.5,3.9
66,24,0,,13,41,641,968.2337987795472,968.9339119708166,"[83, 0, 171]",171,l,0.17679400485940278,1,colour,0.5,3.9
66,24,0,,13,42,642,969.4524994997773,970.2377545619383,"[81, 0, 173]",173,l,0.2619421773124486,1,colour,0.5,3.9
66,24,0,,13,43,643,970.7407572383527,971.3577481973916,"[11, 0, 243]",243,a,0.0945484722033143,1,colour,0.5,3.9
66,24,0,,13,44,644,971.8650717507116,972.573682941962,"[22, 0, 232]",232,a,0.1851872419938445,1,colour,0.5,3.9
66,24,0,,13,45,645,973.0837578985374,973.7098096623085,"[0, 0, 254]",254,a,0.10269437450915575,1,colour,0.5,3.9
66,24,0,,13,46,646,974.2243780000135,974.9016973944381,"[44, 0, 210]",210,l,0.15392734669148922,0,colour,0.5,3.9
66,24,0,,13,47,647,975.4119944798294,976.1737212236039,"[65, 0, 189]",189,l,0.23849814175628126,1,colour,0.5,3.9
66,24,0,,13,48,648,976.693194510648,977.437717697816,"[99, 0, 155]",155,l,0.22120793908834457,1,colour,0.5,3.9
66,24,0,,13,49,649,977.9607068418991,978.5497737752739,"[48, 0, 206]",206,a,0.06480763806030154,1,colour,0.5,3.9
66,24,0,,13,50,650,979.0455033106264,979.5897128393408,"[97, 0, 157]",157,l,0.01974464626982808,1,colour,0.5,3.9
66,24,0,,14,1,651,984.5625449968502,985.6537079745904,"[4, 0, 250]",250,a,0.5671624389942735,1,colour,0.5,3.9
66,24,0,,14,2,652,986.1727748133708,986.8456918050069,"[66, 0, 188]",188,l,0.1498573492281139,1,colour,0.5,3.9
66,24,0,,14,3,653,987.3602329674177,988.0937422707211,"[49, 0, 205]",205,l,0.2101062280125916,0,colour,0.5,3.9
66,24,0,,14,4,654,988.6102254842408,989.6536536240019,"[85, 0, 169]",169,l,0.5200995011255145,1,colour,0.5,3.9
66,24,0,,14,5,655,990.1727106166072,990.8536376338452,"[99, 0, 155]",155,l,0.15771889523603022,1,colour,0.5,3.9
66,24,0,,14,6,656,991.3602656563744,992.1416826960631,"[68, 0, 186]",186,l,0.2581191207282245,1,colour,0.5,3.9
66,24,0,,14,7,657,992.6570158812683,993.3337838922162,"[11, 0, 243]",243,a,0.1533562708646059,1,colour,0.5,3.9
66,24,0,,14,8,658,993.8446973455139,994.4936799644493,"[27, 0, 227]",227,a,0.12570675555616617,1,colour,0.5,3.9
66,24,0,,14,9,659,995.000753425993,995.613655876834,"[56, 0, 198]",198,l,0.08944660006090999,1,colour,0.5,3.9
66,24,0,,14,10,660,996.1257902504876,996.725671387976,"[23, 0, 231]",231,a,0.07649854198098183,1,colour,0.5,3.9
66,24,0,,14,11,661,997.235453323694,997.9656464497093,"[59, 0, 195]",195,l,0.2068798472173512,1,colour,0.5,3.9
66,24,0,,14,12,662,998.4855580865405,999.5496753137559,"[80, 0, 174]",174,l,0.5408350622747093,1,colour,0.5,3.9
66,24,0,,14,13,663,1000.0635867174715,1000.6936616112944,"[33, 0, 221]",221,a,0.10685180546715856,1,colour,0.5,3.9
66,24,0,,14,14,664,1001.2042265112977,1001.8856887645088,"[63, 0, 191]",191,l,0.1581745743751526,1,colour,0.5,3.9
66,24,0,,14,15,665,1002.3918288126588,1002.9816834365483,"[74, 0, 180]",180,l,0.06662484025582671,1,colour,0.5,3.9
66,24,0,,14,16,666,1003.5011291543487,1004.0776458133478,"[48, 0, 206]",206,a,0.053175417240709066,1,colour,0.5,3.9
66,24,0,,14,17,667,1004.5948722129688,1005.1656505456194,"[73, 0, 181]",181,l,0.04741109721362591,1,colour,0.5,3.9
66,24,0,,14,18,668,1005.673008363694,1006.2936463300139,"[20, 0, 234]",234,a,0.09753145650029182,1,colour,0.5,3.9
66,24,0,,14,19,669,1006.8136418559588,1008.7896720371209,"[70, 0, 184]",184,l,1.452792914584279,1,colour,0.5,3.9
66,24,0,,14,20,670,1009.2979640560225,1010.7336325768847,"[6, 0, 248]",248,a,0.9247152891475707,1,colour,0.5,3.9
66,24,0,,14,21,671,1011.2543535658624,1012.6459271667991,"[45, 0, 209]",209,a,0.8683308204635978,1,colour,0.5,3.9
66,24,0,,14,22,672,1013.1606731289066,1013.7176775098778,"[96, 0, 158]",158,l,0.03375687450170517,1,colour,0.5,3.9
66,24,0,,14,23,673,1014.2387033351697,1014.8536636277568,"[3, 0, 251]",251,a,0.09174074907787144,1,colour,0.5,3.9
66,24,0,,14,24,674,1015.3637023505289,1016.3576757297851,"[90, 0, 164]",164,l,0.4706191406585276,1,colour,0.5,3.9
66,24,0,,14,25,675,1016.8637893903069,1017.4775949283503,"[7, 0, 247]",247,a,0.10302756750024855,1,colour,0.5,3.9
66,24,0,,14,26,676,1017.9919281404,1018.9736608078238,"[54, 0, 200]",200,a,0.45590350474230945,0,colour,0.5,3.9
66,24,0,,14,27,677,1019.4947791865561,1020.1016176012345,"[57, 0, 197]",197,a,0.08362753572873771,0,colour,0.5,3.9
66,24,0,,14,28,678,1020.6196718637366,1021.597610619152,"[47, 0, 207]",207,a,0.45456246146932244,1,colour,0.5,3.9
66,24,0,,14,29,679,1022.1040413253941,1022.7176314301323,"[86, 0, 168]",168,l,0.09014922007918358,1,colour,0.5,3.9
66,24,0,,14,30,680,1023.2259821319021,1024.0216969375033,"[95, 0, 159]",159,l,0.27243067137897015,1,colour,0.5,3.9
66,24,0,,14,31,681,1024.5392746471334,1025.4136592638679,"[65, 0, 189]",189,a,0.3515577369835228,0,colour,0.5,3.9
66,24,0,,14,32,682,1025.929832127411,1026.9416258248966,"[1, 0, 253]",253,a,0.48840598203241825,1,colour,0.5,3.9
66,24,0,,14,33,683,1027.4610262506176,1028.2217100919224,"[79, 0, 175]",175,l,0.23723192908801138,1,colour,0.5,3.9
66,24,0,,14,34,684,1028.7423310442828,1029.4295954261906,"[53, 0, 201]",201,a,0.1622725345660001,0,colour,0.5,3.9
66,24,0,,14,35,685,1029.9470754622016,1030.6616360805929,"[28, 0, 226]",226,a,0.19128475501202047,1,colour,0.5,3.9
66,24,0,,14,36,686,1031.1814524068031,1031.973623392405,"[37, 0, 217]",217,a,0.2688927589915693,1,colour,0.5,3.9
66,24,0,,14,37,687,1032.4939253299963,1033.117591178976,"[26, 0, 228]",228,a,0.10024071810767055,1,colour,0.5,3.9
66,24,0,,14,38,688,1033.6345277086366,1034.3896067375317,"[30, 0, 224]",224,a,0.23169603967107832,1,colour,0.5,3.9
66,24,0,,14,39,689,1034.9002157484647,1035.5736289850902,"[25, 0, 229]",229,a,0.15007396414875984,1,colour,0.5,3.9
66,24,0,,14,40,690,1036.0883032670245,1036.925580961164,"[61, 0, 193]",193,a,0.31404042756184936,0,colour,0.5,3.9
66,24,0,,14,41,691,1037.4321101284586,1038.1735510823783,"[88, 0, 166]",166,l,0.21821392723359168,1,colour,0.5,3.9
66,24,0,,14,42,692,1038.6819864611607,1039.4215814620256,"[92, 0, 162]",162,l,0.21629432518966496,1,colour,0.5,3.9
66,24,0,,14,43,693,1039.932063261047,1040.5496205694508,"[40, 0, 214]",214,a,0.09430586360394955,1,colour,0.5,3.9
66,24,0,,14,44,694,1041.0445486295503,1041.6056072541978,"[16, 0, 238]",238,a,0.03798007778823376,1,colour,0.5,3.9
66,24,0,,14,45,695,1042.1226513034198,1042.8457528508734,"[82, 0, 172]",172,l,0.20000252057798207,1,colour,0.5,3.9
66,24,0,,14,46,696,1043.3587958258577,1044.0296006249264,"[35, 0, 219]",219,a,0.1475923447869718,1,colour,0.5,3.9
66,24,0,,14,47,697,1044.5462602812331,1045.333599178819,"[43, 0, 211]",211,a,0.26401852956041694,1,colour,0.5,3.9
66,24,0,,14,48,698,1045.844342490891,1046.533531201072,"[2, 0, 252]",252,a,0.16418898571282625,1,colour,0.5,3.9
66,24,0,,14,49,699,1047.0490975428838,1047.6455868845806,"[18, 0, 236]",236,a,0.07315164455212653,1,colour,0.5,3.9
66,24,0,,14,50,700,1048.1585424258374,1048.8534982127603,"[83, 0, 171]",171,l,0.17167440988123417,1,colour,0.5,3.9
66,24,0,,15,1,701,1059.7417465779,1061.6855566687882,"[74, 0, 180]",180,a,1.4205074461642653,0,colour,0.5,3.9
66,24,0,,15,2,702,1062.1955827886704,1062.7975390970241,"[86, 0, 168]",168,l,0.07863672822713852,1,colour,0.5,3.9
66,24,0,,15,3,703,1063.3049957701005,1064.4295997584704,"[47, 0, 207]",207,a,0.6013163097668439,1,colour,0.5,3.9
66,24,0,,15,4,704,1064.9455839700531,1065.5895438797306,"[12, 0, 242]",242,a,0.12052847724407911,1,colour,0.5,3.9
66,24,0,,15,5,705,1066.1018558777869,1066.8935014735907,"[51, 0, 203]",203,l,0.2682976587675512,1,colour,0.5,3.9
66,24,0,,15,6,706,1067.4143870898988,1068.1335612121038,"[53, 0, 201]",201,l,0.1959392186254263,1,colour,0.5,3.9
66,24,0,,15,7,707,1068.648673844058,1069.4454957486596,"[48, 0, 206]",206,l,0.2734767245128751,0,colour,0.5,3.9
66,24,0,,15,8,708,1069.9612444408704,1071.0214748086873,"[31, 0, 223]",223,a,0.5369048798456788,1,colour,0.5,3.9
66,24,0,,15,9,709,1071.539347902406,1072.7495628315955,"[52, 0, 202]",202,a,0.6871879759710282,0,colour,0.5,3.9
66,24,0,,15,10,710,1073.258079342544,1073.805517615052,"[9, 0, 245]",245,a,0.024102150928229094,1,colour,0.5,3.9
66,24,0,,15,11,711,1074.320575896185,1074.8615109953098,"[23, 0, 231]",231,a,0.017628121888265014,1,colour,0.5,3.9
66,24,0,,15,12,712,1075.3830689054448,1076.0855404422618,"[21, 0, 233]",233,a,0.17911532893776894,1,colour,0.5,3.9
66,24,0,,15,13,713,1076.6018385486677,1077.6615478591993,"[25, 0, 229]",229,a,0.5364586533978581,1,colour,0.5,3.9
66,24,0,,15,14,714,1078.1799227118026,1079.3174983891658,"[43, 0, 211]",211,a,0.6142537340056151,1,colour,0.5,3.9
66,24,0,,15,15,715,1079.8362060408108,1081.54947720957,"[93, 0, 161]",161,l,1.1900142098311335,1,colour,0.5,3.9
66,24,0,,15,16,716,1082.070588105591,1082.7655781570356,"[59, 0, 195]",195,l,0.17177405254915357,1,colour,0.5,3.9
66,24,0,,15,17,717,1083.2787420423701,1083.837489582831,"[2, 0, 252]",252,a,0.035548476967960596,1,colour,0.5,3.9
66,24,0,,15,18,718,1084.3568683469202,1085.445481176488,"[0, 0, 254]",254,a,0.5654358214233071,1,colour,0.5,3.9
66,24,0,,15,19,719,1085.966237611603,1086.94950115541,"[89, 0, 165]",165,l,0.45998531742952764,1,colour,0.5,3.9
66,24,0,,15,20,720,1087.4662305223756,1088.5895017383154,"[24, 0, 230]",230,a,0.6000095310155302,1,colour,0.5,3.9
66,24,0,,15,21,721,1089.1067738239653,1089.7655013571493,"[71, 0, 183]",183,l,0.13545048818923533,1,colour,0.5,3.9
66,24,0,,15,22,722,1090.2787188054062,1091.477480713278,"[72, 0, 182]",182,l,0.6754907704889774,1,colour,0.5,3.9
66,24,0,,15,23,723,1091.9974218886346,1093.4615020155907,"[26, 0, 228]",228,a,0.9409039064776152,1,colour,0.5,3.9
66,24,0,,15,24,724,1093.9818193132523,1095.3334703913424,"[3, 0, 251]",251,a,0.8283665501512587,1,colour,0.5,3.9
66,24,0,,15,25,725,1095.8411968485452,1097.3014834576752,"[95, 0, 159]",159,l,0.937037133378908,1,colour,0.5,3.9
66,24,0,,15,26,726,1097.8098967808764,1098.485463169869,"[29, 0, 225]",225,a,0.15224917163141072,1,colour,0.5,3.9
66,24,0,,15,27,727,1098.997419131687,1099.6054075746797,"[17, 0, 237]",237,a,0.08507176651619375,1,colour,0.5,3.9
66,24,0,,15,28,728,1100.1223681287374,1100.685409370577,"[56, 0, 198]",198,l,0.03975513856858015,1,colour,0.5,3.9
66,24,0,,15,29,729,1101.2004837994464,1101.9414580466691,"[87, 0, 167]",167,a,0.2176022855564952,0,colour,0.5,3.9
66,24,0,,15,30,730,1102.4507843034808,1103.149536759127,"[55, 0, 199]",199,a,0.17577945929951966,0,colour,0.5,3.9
66,24,0,,15,31,731,1103.6691872766241,1104.8534218065906,"[85, 0, 169]",169,l,0.6609196760691702,1,colour,0.5,3.9
66,24,0,,15,32,732,1105.372384276474,1106.1495970173273,"[67, 0, 187]",187,l,0.25400540651753545,1,colour,0.5,3.9
66,24,0,,15,33,733,1106.669238870265,1107.661504142452,"[61, 0, 193]",193,l,0.46895356895402074,1,colour,0.5,3.9
66,24,0,,15,34,734,1108.1691482858732,1108.7659893315285,"[83, 0, 171]",171,l,0.07346199476160109,1,colour,0.5,3.9
66,24,0,,15,35,735,1109.2786274333484,1110.005403951276,"[78, 0, 176]",176,l,0.20352152828127146,1,colour,0.5,3.9
66,24,0,,15,36,736,1110.5129870488308,1111.0774307737593,"[4, 0, 250]",250,a,0.041145018534734845,1,colour,0.5,3.9
66,24,0,,15,37,737,1111.591096024029,1112.341418189695,"[65, 0, 189]",189,l,0.2270400004927069,1,colour,0.5,3.9
66,24,0,,15,38,738,1112.8567813071422,1114.2694441424683,"[32, 0, 222]",222,a,0.889529543928802,1,colour,0.5,3.9
66,24,0,,15,39,739,1114.7786939931102,1115.3974029051606,"[18, 0, 236]",236,a,0.09554096218198538,1,colour,0.5,3.9
66,24,0,,15,40,740,1115.903561464278,1116.5094235364813,"[5, 0, 249]",249,a,0.08241567388176918,1,colour,0.5,3.9
66,24,0,,15,41,741,1117.0286061656661,1118.1014328878373,"[54, 0, 200]",200,l,0.5496249017305672,1,colour,0.5,3.9
66,24,0,,15,42,742,1118.622330319602,1119.2053883550689,"[8, 0, 246]",246,a,0.05973845534026623,1,colour,0.5,3.9
66,24,0,,15,43,743,1119.7160911010578,1120.2614455381408,"[94, 0, 160]",160,l,0.022052186075598,1,colour,0.5,3.9
66,24,0,,15,44,744,1120.7786325532943,1121.87739792699,"[36, 0, 218]",218,a,0.5755781254265457,1,colour,0.5,3.9
66,24,0,,15,45,745,1122.387919898145,1122.9173744067084,"[10, 0, 244]",244,l,0.006033710204064846,0,colour,0.5,3.9
66,24,0,,15,46,746,1123.4347611011472,1124.6134136619512,"[58, 0, 196]",196,l,0.6552337314933538,1,colour,0.5,3.9
66,24,0,,15,47,747,1125.122249187436,1125.7094449615106,"[84, 0, 170]",170,l,0.06390730757266283,1,colour,0.5,3.9
66,24,0,,15,48,748,1126.2159465597942,1126.9254159398843,"[70, 0, 184]",184,l,0.1860832399688661,1,colour,0.5,3.9
66,24,0,,15,49,749,1127.4347764612176,1127.9894016229082,"[1, 0, 253]",253,a,0.03132684901356697,1,colour,0.5,3.9
66,24,0,,15,50,750,1128.4972808919847,1129.2614215137437,"[45, 0, 209]",209,l,0.2408915397245437,0,colour,0.5,3.9
66,24,0,,16,1,751,1134.0713435008656,1135.1733919689432,"[81, 0, 173]",173,l,0.5780821938533336,1,colour,0.5,3.9
66,24,0,,16,2,752,1135.6737031068187,1136.6934280609712,"[45, 0, 209]",209,a,0.496822850080207,1,colour,0.5,3.9
66,24,0,,16,3,753,1137.1925021305215,1138.0453875199892,"[19, 0, 235]",235,a,0.32958313822746277,1,colour,0.5,3.9
66,24,0,,16,4,754,1138.5518071984407,1139.2453349023126,"[85, 0, 169]",169,l,0.1702045788988471,1,colour,0.5,3.9
66,24,0,,16,5,755,1139.7549246414565,1140.533373662969,"[56, 0, 198]",198,l,0.2551251088734716,1,colour,0.5,3.9
66,24,0,,16,6,756,1141.0477407458238,1142.7893924068194,"[6, 0, 248]",248,a,1.2182875762227923,1,colour,0.5,3.9
66,24,0,,16,7,757,1143.297728142701,1144.0453457725234,"[1, 0, 253]",253,a,0.2242614219430834,1,colour,0.5,3.9
66,24,0,,16,8,758,1144.5633645888884,1145.4373876554891,"[52, 0, 202]",202,l,0.35079328319989145,1,colour,0.5,3.9
66,24,0,,16,9,759,1145.9539449119475,1147.2297027884051,"[90, 0, 164]",164,l,0.7524150593671948,1,colour,0.5,3.9
66,24,0,,16,10,760,1147.7507353092078,1148.5573395434767,"[25, 0, 229]",229,a,0.2832232143264264,1,colour,0.5,3.9
66,24,0,,16,11,761,1149.0788813058753,1149.9173602282535,"[64, 0, 190]",190,l,0.3150140130892396,1,colour,0.5,3.9
66,24,0,,16,12,762,1150.438385659596,1151.1973590308335,"[77, 0, 177]",177,l,0.23577352007851005,1,colour,0.5,3.9
66,24,0,,16,13,763,1151.703942942666,1152.4614315172657,"[76, 0, 178]",178,l,0.23423988628201187,1,colour,0.5,3.9
66,24,0,,16,14,764,1152.969529764494,1153.741333827842,"[51, 0, 203]",203,a,0.24837656947784126,0,colour,0.5,3.9
66,24,0,,16,15,765,1154.2507813889533,1154.925338352332,"[66, 0, 188]",188,l,0.15116924792528152,1,colour,0.5,3.9
66,24,0,,16,16,766,1155.425832234323,1156.0853159504477,"[5, 0, 249]",249,a,0.13610742194578052,1,colour,0.5,3.9
66,24,0,,16,17,767,1156.5976830867585,1157.4132764462847,"[4, 0, 250]",250,a,0.2921611394267529,1,colour,0.5,3.9
66,24,0,,16,18,768,1157.925808209926,1158.9093734393828,"[73, 0, 181]",181,l,0.460954176960513,1,colour,0.5,3.9
66,24,0,,16,19,769,1159.4258432621136,1160.0693443419877,"[82, 0, 172]",172,l,0.12016141344793141,1,colour,0.5,3.9
66,24,0,,16,20,770,1160.582029311452,1161.26133762463,"[32, 0, 222]",222,a,0.15592808066867292,1,colour,0.5,3.9
66,24,0,,16,21,771,1161.7695382714737,1162.813311025966,"[43, 0, 211]",211,a,0.5207587981130928,1,colour,0.5,3.9
66,24,0,,16,22,772,1163.332076572813,1163.933361375006,"[74, 0, 180]",180,l,0.0780187847558409,1,colour,0.5,3.9
66,24,0,,16,23,773,1164.4434217594098,1166.2854586800095,"[44, 0, 210]",210,a,1.3188193463720381,1,colour,0.5,3.9
66,24,0,,16,24,774,1166.8027638487983,1167.4613838619553,"[67, 0, 187]",187,l,0.13530752225778997,1,colour,0.5,3.9
66,24,0,,16,25,775,1167.9746194272302,1168.8772852872498,"[69, 0, 185]",185,l,0.3793777874670923,1,colour,0.5,3.9
66,24,0,,16,26,776,1169.3964793379419,1170.0772921401076,"[8, 0, 246]",246,a,0.1575239417143166,1,colour,0.5,3.9
66,24,0,,16,27,777,1170.5839918425772,1171.1493063597009,"[63, 0, 191]",191,l,0.041994149098172784,1,colour,0.5,3.9
66,24,0,,16,28,778,1171.6620720673818,1172.3572897613049,"[49, 0, 205]",205,l,0.17190165841020644,0,colour,0.5,3.9
66,24,0,,16,29,779,1172.87128190347,1173.6453269466292,"[2, 0, 252]",252,a,0.25077941990457475,1,colour,0.5,3.9
66,24,0,,16,30,780,1174.1524323096965,1174.9492849344388,"[28, 0, 226]",226,a,0.2735495858360082,1,colour,0.5,3.9
66,24,0,,16,31,781,1175.4674601072911,1176.2213020683266,"[36, 0, 218]",218,a,0.23059996822848916,1,colour,0.5,3.9
66,24,0,,16,32,782,1176.7329902152997,1178.541274199728,"[38, 0, 216]",216,a,1.2849963055923581,1,colour,0.5,3.9
66,24,0,,16,33,783,1179.0611771719996,1179.653314523166,"[72, 0, 182]",182,l,0.0688689707312733,1,colour,0.5,3.9
66,24,0,,16,34,784,1180.1704239507671,1181.4452531400602,"[10, 0, 244]",244,a,0.7514879475347698,1,colour,0.5,3.9
66,24,0,,16,35,785,1181.9516755754594,1182.5972498569172,"[65, 0, 189]",189,l,0.12221295363269746,1,colour,0.5,3.9
66,24,0,,16,36,786,1183.1079577230848,1184.0292690072674,"[13, 0, 241]",241,a,0.3980310885235667,1,colour,0.5,3.9
66,24,0,,16,37,787,1184.545459593879,1185.3653049070854,"[70, 0, 184]",184,a,0.2965442438144237,0,colour,0.5,3.9
66,24,0,,16,38,788,1185.873567781411,1186.5092766322196,"[15, 0, 239]",239,a,0.11250821175053716,1,colour,0.5,3.9
66,24,0,,16,39,789,1187.0298066062387,1187.6453001652844,"[54, 0, 200]",200,a,0.09213813906535506,0,colour,0.5,3.9
66,24,0,,16,40,790,1188.1548154675402,1190.0692829021718,"[99, 0, 155]",155,l,1.391178180463612,1,colour,0.5,3.9
66,24,0,,16,41,791,1190.577353186207,1192.1012477807235,"[18, 0, 236]",236,a,1.0010704717133194,1,colour,0.5,3.9
66,24,0,,16,42,792,1192.6079273968935,1194.80523404642,"[93, 0, 161]",161,l,1.674078441457823,1,colour,0.5,3.9
66,24,0,,16,43,793,1195.3266458399594,1196.117235536687,"[75, 0, 179]",179,a,0.26719371043145657,0,colour,0.5,3.9
66,24,0,,16,44,794,1196.6235224893317,1197.3492175079882,"[47, 0, 207]",207,a,0.20153024652972817,1,colour,0.5,3.9
66,24,0,,16,45,795,1197.8587182383053,1198.4772089601029,"[7, 0, 247]",247,a,0.09518650150857866,1,colour,0.5,3.9
66,24,0,,16,46,796,1198.983638878446,1200.8132302875165,"[92, 0, 162]",162,l,1.30626316415146,1,colour,0.5,3.9
66,24,0,,16,47,797,1201.327386269113,1203.117224902846,"[41, 0, 213]",213,a,1.2663378845900297,1,colour,0.5,3.9
66,24,0,,16,48,798,1203.6242928507272,1204.2852089821827,"[29, 0, 225]",225,a,0.1373586687259376,1,colour,0.5,3.9
66,24,0,,16,49,799,1204.7963630747981,1205.6532168495469,"[60, 0, 194]",194,a,0.33356609591282904,0,colour,0.5,3.9
66,24,0,,16,50,800,1206.171334914863,1206.7332340055145,"[23, 0, 231]",231,a,0.03861298714764416,1,colour,0.5,3.9
