id,age,condition,counterbalance,block,trialinblock,trial,tstart,tend,trialstim,trialintensity,response,RT,accuracy,trialtype,colourfreq,credits
34,20,1,1,Practice,1,NA,5.9076701290905476e-06,1.1088367429038044,"[52, 0, 202]",202,a,0.5532835066551343,0,colour,0.5,4
34,20,1,1,Practice,2,NA,1.6259707790450193,3.1408921931579243,"[75, 0, 179]",179,l,0.9920384203724097,1,colour,0.5,4
34,20,1,1,Practice,3,NA,3.657314157258952,4.4048062498332,"[50, 0, 204]",204,a,0.2242420351540204,1,colour,0.5,4
34,20,1,1,Practice,4,NA,4.922901268146234,5.5648215940454975,"[94, 0, 160]",160,l,0.11840875534107909,1,colour,0.5,4
34,20,1,1,Practice,5,NA,6.079747340467293,6.708805865462637,"[21, 0, 233]",233,a,0.10609518687124364,1,colour,0.5,4
34,20,1,1,Practice,6,NA,7.220040888991207,7.8049474039289635,"[76, 0, 178]",178,l,0.06150285791954957,1,colour,0.5,4
34,20,1,1,Practice,7,NA,8.313881977985147,11.820778403402073,"[29, 0, 225]",225,l,2.9835971373540815,0,colour,0.5,4
34,20,1,1,Practice,8,NA,12.33109379853704,15.91680572682526,"[9, 0, 245]",245,a,3.062342141958652,1,colour,0.5,4
34,20,1,1,Practice,9,NA,16.425122751679737,17.532833885168657,"[17, 0, 237]",237,a,0.5842487935442477,1,colour,0.5,4
34,20,1,1,Practice,10,NA,18.050230616005138,18.932826165808365,"[5, 0, 249]",249,a,0.35932934473385103,1,colour,0.5,4
34,20,1,1,1,1,1,4.264139729959425,5.167945416207658,"[87, 0, 167]",167,l,0.37961788356187753,1,colour,0.5,4
34,20,1,1,1,2,2,5.6869297368393745,6.487905212503392,"[9, 0, 245]",245,a,0.2780783034977503,1,colour,0.5,4
34,20,1,1,1,3,3,6.99942498607561,7.9439125128265005,"[0, 0, 254]",254,a,0.42098343922407366,1,colour,0.5,4
34,20,1,1,1,4,4,8.452699001092697,9.271873273246456,"[86, 0, 168]",168,l,0.2958269350056071,1,colour,0.5,4
34,20,1,1,1,5,5,9.781009496015031,10.58393135436927,"[24, 0, 230]",230,a,0.2795705827593338,1,colour,0.5,4
34,20,1,1,1,6,6,11.093433853122406,11.975896283256589,"[22, 0, 232]",232,a,0.35887484744307585,1,colour,0.5,4
34,20,1,1,1,7,7,12.48425190494163,13.255984772375086,"[37, 0, 217]",217,a,0.2484304286481347,1,colour,0.5,4
34,20,1,1,1,8,8,13.76574720890494,14.464011415198911,"[15, 0, 239]",239,a,0.1742800215142779,1,colour,0.5,4
34,20,1,1,1,9,9,14.985135102673667,15.767930686415639,"[46, 0, 208]",208,a,0.2606912218616344,1,colour,0.5,4
34,20,1,1,1,10,10,16.282260545092868,17.15994327055523,"[12, 0, 242]",242,a,0.35473317190189846,1,colour,0.5,4
34,20,1,1,1,11,11,17.673711506067775,18.727979822520865,"[54, 0, 200]",200,a,0.5316480174369644,0,colour,0.5,4
34,20,1,1,1,12,12,19.23557453538524,20.119916788389673,"[48, 0, 206]",206,a,0.36100948811508715,1,colour,0.5,4
34,20,1,1,1,13,13,20.626251590641914,21.495919567358214,"[36, 0, 218]",218,a,0.3461631014943123,1,colour,0.5,4
34,20,1,1,1,14,14,22.017036165605532,22.887864410149632,"[18, 0, 236]",236,a,0.34749902423936874,1,colour,0.5,4
34,20,1,1,1,15,15,23.407752211525803,24.2399422780436,"[92, 0, 162]",162,l,0.3092086114920676,1,colour,0.5,4
34,20,1,1,1,16,16,24.75167000188958,25.56789831232163,"[45, 0, 209]",209,a,0.2929573792498559,1,colour,0.5,4
34,20,1,1,1,17,17,26.07985052789445,26.94386761446367,"[84, 0, 170]",170,l,0.3408997549850028,1,colour,0.5,4
34,20,1,1,1,18,18,27.454964398377342,28.31991095948615,"[94, 0, 160]",160,l,0.34163900231942534,1,colour,0.5,4
34,20,1,1,1,19,19,28.83003179510706,29.7679948831792,"[68, 0, 186]",186,l,0.4145980278844945,1,colour,0.5,4
34,20,1,1,1,20,20,30.284485376323573,31.143877933209296,"[10, 0, 244]",244,a,0.3360152874956839,1,colour,0.5,4
34,20,1,1,1,21,21,31.65966383740306,32.57587997804512,"[64, 0, 190]",190,l,0.39307005834416486,1,colour,0.5,4
34,20,1,1,1,22,22,33.09728211403126,34.07187870828784,"[51, 0, 203]",203,a,0.4512614663108252,0,colour,0.5,4
34,20,1,1,1,23,23,34.58170494774822,35.6798499764991,"[60, 0, 194]",194,a,0.5748347130429465,0,colour,0.5,4
34,20,1,1,1,24,24,36.19123623659834,37.0318947614287,"[13, 0, 241]",241,a,0.31726944010006264,1,colour,0.5,4
34,20,1,1,1,25,25,37.550712879397906,38.391908609017264,"[50, 0, 204]",204,l,0.31775662655127235,0,colour,0.5,4
34,20,1,1,1,26,26,38.91018125147093,39.7918209391064,"[63, 0, 191]",191,l,0.35823287986568175,1,colour,0.5,4
34,20,1,1,1,27,27,40.300982367945835,41.13585806451738,"[40, 0, 214]",214,a,0.3115677439200226,1,colour,0.5,4
34,20,1,1,1,28,28,41.644791457016254,42.51985196149326,"[71, 0, 183]",183,l,0.3519990989007056,1,colour,0.5,4
34,20,1,1,1,29,29,43.035564216639614,43.95180162493489,"[55, 0, 199]",199,l,0.3929834124282934,1,colour,0.5,4
34,20,1,1,1,30,30,44.47317776712589,45.27980098218541,"[62, 0, 192]",192,l,0.28339363759732805,1,colour,0.5,4
34,20,1,1,1,31,31,45.80131221326883,46.607821213197894,"[74, 0, 180]",180,l,0.28315536127774976,1,colour,0.5,4
34,20,1,1,1,32,32,47.11387953616213,48.01583415022469,"[61, 0, 193]",193,l,0.37668610029504634,1,colour,0.5,4
34,20,1,1,1,33,33,48.522119721834315,49.36780646763509,"[67, 0, 187]",187,l,0.322288208786631,1,colour,0.5,4
34,20,1,1,1,34,34,49.88161251231213,50.71978626810596,"[72, 0, 182]",182,l,0.3147846710635349,1,colour,0.5,4
34,20,1,1,1,35,35,51.24109860739554,52.04778326230007,"[39, 0, 215]",215,a,0.28394383925478905,1,colour,0.5,4
34,20,1,1,1,36,36,52.55367262568325,53.35979526353185,"[70, 0, 184]",184,l,0.2833148685458582,1,colour,0.5,4
34,20,1,1,1,37,37,53.86663655063603,54.69581409564125,"[6, 0, 248]",248,a,0.3059723859478254,1,colour,0.5,4
34,20,1,1,1,38,38,55.21055867327959,55.959834884357406,"[96, 0, 158]",158,l,0.22443462544470094,1,colour,0.5,4
34,20,1,1,1,39,39,56.47780072144815,57.31978177829296,"[59, 0, 195]",195,l,0.3187491163262166,1,colour,0.5,4
34,20,1,1,1,40,40,57.83717220759718,58.73578189485124,"[53, 0, 201]",201,a,0.3753568729152903,0,colour,0.5,4
34,20,1,1,1,41,41,59.24347191824927,60.09579180399305,"[78, 0, 176]",176,l,0.32870473389630206,1,colour,0.5,4
34,20,1,1,1,42,42,60.60199151735287,61.41577089871862,"[31, 0, 223]",223,a,0.29046552104409784,1,colour,0.5,4
34,20,1,1,1,43,43,61.930234664760064,62.74382972656167,"[38, 0, 216]",216,a,0.2902426046784967,1,colour,0.5,4
34,20,1,1,1,44,44,63.26043010252761,63.967775590193924,"[25, 0, 229]",229,a,0.18075522957951762,1,colour,0.5,4
34,20,1,1,1,45,45,64.48240437734057,65.31179302334203,"[34, 0, 220]",220,a,0.30639931408222765,1,colour,0.5,4
34,20,1,1,1,46,46,65.82630208157934,66.51176671448047,"[43, 0, 211]",211,a,0.16208854503929615,1,colour,0.5,4
34,20,1,1,1,47,47,67.02954232436605,67.63972700230079,"[21, 0, 233]",233,a,0.08693383284844458,1,colour,0.5,4
34,20,1,1,1,48,48,68.15461887803394,68.86374218267156,"[11, 0, 243]",243,a,0.18580393050797284,1,colour,0.5,4
34,20,1,1,1,49,49,69.37343727168627,70.07974812816246,"[44, 0, 210]",210,a,0.1829560362675693,1,colour,0.5,4
34,20,1,1,1,50,50,70.59231001598528,71.27977735147579,"[88, 0, 166]",166,l,0.16478914124309085,1,colour,0.5,4
34,20,1,1,2,1,51,77.2183654717519,78.1677161983389,"[43, 0, 211]",211,a,0.42363047241815366,1,colour,0.5,4.0
34,20,1,1,2,2,52,78.67406793593545,79.43178700539283,"[11, 0, 243]",243,a,0.23437803384149447,1,colour,0.5,4.0
34,20,1,1,2,3,53,79.93976177883451,80.65574468436535,"[25, 0, 229]",229,a,0.19259894077549689,1,colour,0.5,4.0
34,20,1,1,2,4,54,81.17426899386919,81.74376474210294,"[23, 0, 231]",231,a,0.04614289724850096,1,colour,0.5,4.0
34,20,1,1,2,5,55,82.25249924283708,82.9117357582727,"[63, 0, 191]",191,l,0.13599079032428563,1,colour,0.5,4.0
34,20,1,1,2,6,56,83.42443943035323,84.0477690838743,"[99, 0, 155]",155,l,0.09992875342140906,1,colour,0.5,4.0
34,20,1,1,2,7,57,84.56519023311557,85.21568496170221,"[66, 0, 188]",188,l,0.12715448063681833,1,colour,0.5,4.0
34,20,1,1,2,8,58,85.73879953636788,86.38373947300715,"[48, 0, 206]",206,a,0.12164183013373986,1,colour,0.5,4.0
34,20,1,1,2,9,59,86.8950099426147,87.4557095533819,"[31, 0, 223]",223,a,0.03728610763209872,1,colour,0.5,4.0
34,20,1,1,2,10,60,87.97334101595334,90.34367124328855,"[28, 0, 226]",226,a,1.8470801699440926,1,colour,0.5,4.0
34,20,1,1,2,11,61,90.86416556619224,91.70369336163276,"[72, 0, 182]",182,l,0.31687992726801895,1,colour,0.5,4.0
34,20,1,1,2,12,62,92.2237513041182,93.08770773853757,"[84, 0, 170]",170,l,0.34068707859842107,1,colour,0.5,4.0
34,20,1,1,2,13,63,93.59875135336188,94.38371308537899,"[64, 0, 190]",190,l,0.2621661719167605,1,colour,0.5,4.0
34,20,1,1,2,14,64,94.89571059314767,95.79970256815432,"[52, 0, 202]",202,l,0.3806733885721769,1,colour,0.5,4.0
34,20,1,1,2,15,65,96.3176778575289,97.07966069452232,"[36, 0, 218]",218,a,0.2385134078504052,1,colour,0.5,4.0
34,20,1,1,2,16,66,97.59909360477468,98.3037294378446,"[4, 0, 250]",250,a,0.18197102955309674,1,colour,0.5,4.0
34,20,1,1,2,17,67,98.81920184131013,99.6477055172727,"[94, 0, 160]",160,l,0.30533829526393674,1,colour,0.5,4.0
34,20,1,1,2,18,68,100.16297942277743,100.84772174368845,"[93, 0, 161]",161,l,0.16136977766291238,1,colour,0.5,4.0
34,20,1,1,2,19,69,101.36623187476653,103.83965894585708,"[13, 0, 241]",241,a,1.9504916959558614,1,colour,0.5,4.0
34,20,1,1,2,20,70,104.35088688018732,105.5116343825357,"[56, 0, 198]",198,l,0.6374493958428502,1,colour,0.5,4.0
34,20,1,1,2,21,71,106.0241202582547,106.80788863950875,"[91, 0, 163]",163,l,0.26046791166299954,1,colour,0.5,4.0
34,20,1,1,2,22,72,107.32105665502604,108.16767602614709,"[80, 0, 174]",174,l,0.3232172894931864,1,colour,0.5,4.0
34,20,1,1,2,23,73,108.6806368791149,109.50364641527995,"[3, 0, 251]",251,a,0.29970709735061973,1,colour,0.5,4.0
34,20,1,1,2,24,74,110.0243888606492,110.82367867906578,"[71, 0, 183]",183,l,0.27590782288461924,1,colour,0.5,4.0
34,20,1,1,2,25,75,111.33698138964246,112.1436495030357,"[22, 0, 232]",232,a,0.2835551141179167,1,colour,0.5,4.0
34,20,1,1,2,26,76,112.66522414318752,113.55969412409468,"[57, 0, 197]",197,l,0.3711226437590085,1,colour,0.5,4.0
34,20,1,1,2,27,77,114.07287868112326,114.88762022615992,"[42, 0, 212]",212,a,0.30390627431916073,1,colour,0.5,4.0
34,20,1,1,2,28,78,115.40427849735715,116.23969139868859,"[44, 0, 210]",210,a,0.31266735956887715,1,colour,0.5,4.0
34,20,1,1,2,29,79,116.74798400516738,117.54366423282772,"[82, 0, 172]",172,l,0.2721974077867344,1,colour,0.5,4.0
34,20,1,1,2,30,80,118.06071556149982,119.0396212154883,"[54, 0, 200]",200,l,0.4648400653968565,1,colour,0.5,4.0
34,20,1,1,2,31,81,119.5460481774935,120.39161204363336,"[20, 0, 234]",234,a,0.32234767940826714,1,colour,0.5,4.0
34,20,1,1,2,32,82,120.90544171899091,121.68762172275456,"[85, 0, 169]",169,l,0.2591973672097083,1,colour,0.5,4.0
34,20,1,1,2,33,83,122.20240962336538,122.87160648254212,"[6, 0, 248]",248,a,0.1459692509379238,1,colour,0.5,4.0
34,20,1,1,2,34,84,123.38998546317453,124.07957326091127,"[75, 0, 179]",179,l,0.1662542451522313,1,colour,0.5,4.0
34,20,1,1,2,35,85,124.59315323844203,125.21558886347339,"[27, 0, 227]",227,a,0.09902684803819284,1,colour,0.5,4.0
34,20,1,1,2,36,86,125.73393397344626,127.44761209719582,"[0, 0, 254]",254,a,1.1903079435869586,1,colour,0.5,4.0
34,20,1,1,2,37,87,127.96848844990018,128.99958843181957,"[47, 0, 207]",207,l,0.5077640662784688,0,colour,0.5,4.0
34,20,1,1,2,38,88,129.51540308672702,130.13561584975105,"[16, 0, 238]",238,a,0.09680044141714461,1,colour,0.5,4.0
34,20,1,1,2,39,89,130.65619721243274,131.2316238747444,"[40, 0, 214]",214,a,0.052220715559087694,1,colour,0.5,4.0
34,20,1,1,2,40,90,131.75157035904704,132.3915935328987,"[8, 0, 246]",246,a,0.11671640272834338,1,colour,0.5,4.0
34,20,1,1,2,41,91,132.90778430990758,133.61556184571236,"[77, 0, 177]",177,l,0.1843191343068611,1,colour,0.5,4.0
34,20,1,1,2,42,92,134.1266728080227,134.72772539855214,"[34, 0, 220]",220,a,0.07884937353082933,1,colour,0.5,4.0
34,20,1,1,2,43,93,135.2349754969182,136.18358185619581,"[61, 0, 193]",193,l,0.42521688068518415,1,colour,0.5,4.0
34,20,1,1,2,44,94,136.70383238897193,137.51958808524068,"[69, 0, 185]",185,l,0.29252611883566715,1,colour,0.5,4.0
34,20,1,1,2,45,95,138.03430706294603,138.86356337697362,"[59, 0, 195]",195,l,0.30587234927224927,1,colour,0.5,4.0
34,20,1,1,2,46,96,139.3782138256065,140.11955445085187,"[9, 0, 245]",245,a,0.2180952939670533,1,colour,0.5,4.0
34,20,1,1,2,47,97,140.62827753007878,141.4795982306823,"[76, 0, 178]",178,l,0.3280048710585106,1,colour,0.5,4.0
34,20,1,1,2,48,98,141.9878293973161,142.8716328701703,"[70, 0, 184]",184,l,0.3605467200977728,1,colour,0.5,4.0
34,20,1,1,2,49,99,143.37850605871063,143.9275632131321,"[88, 0, 166]",166,l,0.024419580557150766,1,colour,0.5,4.0
34,20,1,1,2,50,100,144.44253188866423,144.9758352372446,"[15, 0, 239]",239,a,0.009866608597803861,1,colour,0.5,4.0
34,20,1,1,3,1,101,149.71173213489237,150.5515620095539,"[20, 0, 234]",234,a,0.3156527057872154,1,colour,0.5,4.0
34,20,1,1,3,2,102,151.05775305829593,151.80752512044273,"[60, 0, 194]",194,l,0.22358234456623904,1,colour,0.5,4.0
34,20,1,1,3,3,103,152.32651849949616,153.04774545316468,"[18, 0, 236]",236,a,0.1981273450946901,1,colour,0.5,4.0
34,20,1,1,3,4,104,153.56085084730876,154.35952863038983,"[43, 0, 211]",211,a,0.2753674673731439,1,colour,0.5,4.0
34,20,1,1,3,5,105,154.87343707476975,155.67953096193378,"[58, 0, 196]",196,a,0.28301082010148093,0,colour,0.5,4.0
34,20,1,1,3,6,106,156.18602290839772,156.7835115941998,"[76, 0, 178]",178,l,0.07429022210999392,1,colour,0.5,4.0
34,20,1,1,3,7,107,157.29550319426926,157.9275076809572,"[88, 0, 166]",166,l,0.10860752503504045,1,colour,0.5,4.0
34,20,1,1,3,8,108,158.43620082794223,159.01552734486177,"[84, 0, 170]",170,l,0.05599965970031917,1,colour,0.5,4.0
34,20,1,1,3,9,109,159.5300222246733,160.07155181682901,"[8, 0, 246]",246,a,0.018161775049520656,1,colour,0.5,4.0
34,20,1,1,3,10,110,160.59269125809078,161.1675157311547,"[40, 0, 214]",214,a,0.05158623101306148,1,colour,0.5,4.0
34,20,1,1,3,11,111,161.6865075348469,162.42355249109096,"[33, 0, 221]",221,a,0.21400442445883527,1,colour,0.5,4.0
34,20,1,1,3,12,112,162.93649522718624,163.62351357919397,"[95, 0, 159]",159,l,0.1640581646352075,1,colour,0.5,4.0
34,20,1,1,3,13,113,164.13978312522522,165.0395042434975,"[51, 0, 203]",203,a,0.37638480876921676,0,colour,0.5,4.0
34,20,1,1,3,14,114,165.5460391190718,166.21552072826307,"[69, 0, 185]",185,l,0.14604093073285185,1,colour,0.5,4.0
34,20,1,1,3,15,115,166.73378313073772,167.5114937798062,"[35, 0, 219]",219,a,0.2543743395654019,1,colour,0.5,4.0
34,20,1,1,3,16,116,168.0307132259768,170.30349746305728,"[9, 0, 245]",245,a,1.7494944013014901,1,colour,0.5,4.0
34,20,1,1,3,17,117,170.81343082839157,171.71957516710972,"[56, 0, 198]",198,l,0.3827627370483242,1,colour,0.5,4.0
34,20,1,1,3,18,118,172.2354158158123,172.95151372413966,"[80, 0, 174]",174,l,0.19272890969295986,1,colour,0.5,4.0
34,20,1,1,3,19,119,173.46929524169536,174.0954901186342,"[16, 0, 238]",238,a,0.10296411794843152,1,colour,0.5,4.0
34,20,1,1,3,20,120,174.60987038951134,175.3034785584896,"[12, 0, 242]",242,a,0.17063656009850092,1,colour,0.5,4.0
34,20,1,1,3,21,121,175.81338356697233,176.5755018867203,"[82, 0, 172]",172,l,0.23882612091256306,1,colour,0.5,4.0
34,20,1,1,3,22,122,177.09592807441368,177.6955482501653,"[25, 0, 229]",229,a,0.07626338629052043,1,colour,0.5,4.0
34,20,1,1,3,23,123,178.20543947408441,178.90348785324022,"[41, 0, 213]",213,a,0.1747601187962573,1,colour,0.5,4.0
34,20,1,1,3,24,124,179.42435751057928,180.02350231521996,"[86, 0, 168]",168,l,0.07589711030595936,1,colour,0.5,4.0
34,20,1,1,3,25,125,180.53371806754149,181.15949428707245,"[28, 0, 226]",226,a,0.1023221503419336,1,colour,0.5,4.0
34,20,1,1,3,26,126,181.67445154109737,182.37546911879326,"[52, 0, 202]",202,l,0.1776576374832075,1,colour,0.5,4.0
34,20,1,1,3,27,127,182.89451645466033,183.4794733817689,"[71, 0, 183]",183,l,0.06154027322190814,1,colour,0.5,4.0
34,20,1,1,3,28,128,183.98844497726532,184.5594235525059,"[14, 0, 240]",240,a,0.04774978547357023,1,colour,0.5,4.0
34,20,1,1,3,29,129,185.06663111556554,185.79145269386936,"[22, 0, 232]",232,a,0.20187281240941957,1,colour,0.5,4.0
34,20,1,1,3,30,130,186.30111627531005,186.85548049304634,"[78, 0, 176]",176,l,0.031036966684041545,1,colour,0.5,4.0
34,20,1,1,3,31,131,187.36365730903344,188.06350359128555,"[48, 0, 206]",206,a,0.1765060343022924,1,colour,0.5,4.0
34,20,1,1,3,32,132,188.58241780748358,189.15948837940232,"[24, 0, 230]",230,a,0.053734656277811155,1,colour,0.5,4.0
34,20,1,1,3,33,133,189.67635381314903,190.3034565031412,"[45, 0, 209]",209,a,0.10380261426325887,1,colour,0.5,4.0
34,20,1,1,3,34,134,190.81838067417266,191.3675847328268,"[79, 0, 175]",175,l,0.026236388221150264,1,colour,0.5,4.0
34,20,1,1,3,35,135,191.88091304333648,192.519415581075,"[1, 0, 253]",253,a,0.11511187761789188,1,colour,0.5,4.0
34,20,1,1,3,36,136,193.03729122760706,193.67139372738893,"[7, 0, 247]",247,a,0.11093318063649349,1,colour,0.5,4.0
34,20,1,1,3,37,137,194.17800107048242,194.78345645588706,"[3, 0, 251]",251,a,0.08217066962970421,1,colour,0.5,4.0
34,20,1,1,3,38,138,195.303005156602,195.93540270076483,"[57, 0, 197]",197,l,0.10923452652059495,1,colour,0.5,4.0
34,20,1,1,3,39,139,196.44375162708457,197.03943216981133,"[77, 0, 177]",177,l,0.07241630690987222,1,colour,0.5,4.0
34,20,1,1,3,40,140,197.55335282342276,198.30344586932915,"[97, 0, 157]",157,l,0.22711474166135304,1,colour,0.5,4.0
34,20,1,1,3,41,141,198.81900570643484,199.3914454471378,"[87, 0, 167]",167,l,0.04920386173762381,1,colour,0.5,4.0
34,20,1,1,3,42,142,199.91286018615938,200.5034798187844,"[61, 0, 193]",193,l,0.06723606173181906,1,colour,0.5,4.0
34,20,1,1,3,43,143,201.02230541981407,201.6874149540672,"[89, 0, 165]",165,l,0.14172163105104119,1,colour,0.5,4.0
34,20,1,1,3,44,144,202.1941884997941,202.98347780230688,"[23, 0, 231]",231,a,0.265906519285636,1,colour,0.5,4.0
34,20,1,1,3,45,145,203.49130527765374,204.2794610937999,"[62, 0, 192]",192,l,0.26474191917805,1,colour,0.5,4.0
34,20,1,1,3,46,146,204.78825152054196,205.45540511107538,"[46, 0, 208]",208,a,0.1438015272433404,1,colour,0.5,4.0
34,20,1,1,3,47,147,205.97658354302985,206.63136803291854,"[39, 0, 215]",215,a,0.13135680832783692,1,colour,0.5,4.0
34,20,1,1,3,48,148,207.14860998262884,207.69544388120994,"[70, 0, 184]",184,l,0.023452690744306892,1,colour,0.5,4.0
34,20,1,1,3,49,149,208.21117543478613,208.9753949183796,"[94, 0, 160]",160,l,0.2408544234058354,1,colour,0.5,4.0
34,20,1,1,3,50,150,209.492622295802,210.1433986236807,"[2, 0, 252]",252,a,0.12758022724301554,1,colour,0.5,4.0
34,20,1,1,4,1,151,214.7108719770913,215.52740906213876,"[84, 0, 170]",170,l,0.2924150544859003,1,colour,0.5,4.0
34,20,1,1,4,2,152,216.04134586339933,216.71137373580132,"[81, 0, 173]",173,l,0.14380625338526443,1,colour,0.5,4.0
34,20,1,1,4,3,153,217.2319102001493,218.83139725623187,"[87, 0, 167]",167,l,1.0761007282417268,1,colour,0.5,4.0
34,20,1,1,4,4,154,219.3414515320328,220.13535512425005,"[6, 0, 248]",248,a,0.2704916644433979,1,colour,0.5,4.0
34,20,1,1,4,5,155,220.65403933488415,221.39135683196946,"[12, 0, 242]",242,a,0.21405916893854737,1,colour,0.5,4.0
34,20,1,1,4,6,156,221.90409673782415,222.51933444896713,"[11, 0, 243]",243,a,0.09178679270553403,1,colour,0.5,4.0
34,20,1,1,4,7,157,223.0292240974959,223.59938426248846,"[98, 0, 156]",156,l,0.04679313558153808,1,colour,0.5,4.0
34,20,1,1,4,8,158,224.10744371265173,224.66335495412932,"[70, 0, 184]",184,l,0.0325268828892149,1,colour,0.5,4.0
34,20,1,1,4,9,159,225.17003161396133,225.79135423258413,"[72, 0, 182]",182,l,0.09813636413309723,1,colour,0.5,4.0
34,20,1,1,4,10,160,226.31070443536737,226.8953655847872,"[62, 0, 192]",192,l,0.061366587528027594,1,colour,0.5,4.0
34,20,1,1,4,11,161,227.4045187429001,227.98342305782717,"[42, 0, 212]",212,a,0.054089116922114044,1,colour,0.5,4.0
34,20,1,1,4,12,162,228.49993009248283,229.0473433372681,"[1, 0, 253]",253,a,0.02405645535327494,1,colour,0.5,4.0
34,20,1,1,4,13,163,229.5625042092288,230.11936382981366,"[94, 0, 160]",160,l,0.03347447430132888,1,colour,0.5,4.0
34,20,1,1,4,14,164,230.6407190982136,231.39134856121382,"[68, 0, 186]",186,l,0.22721399064175785,1,colour,0.5,4.0
34,20,1,1,4,15,165,231.9064357841271,232.6633202957455,"[7, 0, 247]",247,a,0.23344777160673402,1,colour,0.5,4.0
34,20,1,1,4,16,166,233.17216940541402,233.83135826556827,"[20, 0, 234]",234,a,0.13444337274995632,1,colour,0.5,4.0
34,20,1,1,4,17,167,234.3454931709275,235.10335638772813,"[77, 0, 177]",177,l,0.23447570743155666,1,colour,0.5,4.0
34,20,1,1,4,18,168,235.61100111890119,236.38330624334048,"[16, 0, 238]",238,a,0.248772680060938,1,colour,0.5,4.0
34,20,1,1,4,19,169,236.89262205950217,237.7833709914994,"[46, 0, 208]",208,a,0.36752408067695796,1,colour,0.5,4.0
34,20,1,1,4,20,170,238.2987961335457,239.11930829763878,"[8, 0, 246]",246,a,0.2975366167665925,1,colour,0.5,4.0
34,20,1,1,4,21,171,239.6271944559121,240.40735245871474,"[83, 0, 171]",171,l,0.2577082387288101,1,colour,0.5,4.0
34,20,1,1,4,22,172,240.9239741023339,241.55143204063643,"[18, 0, 236]",236,a,0.10481164552038535,1,colour,0.5,4.0
34,20,1,1,4,23,173,242.06465834524715,242.8793427827186,"[39, 0, 215]",215,a,0.29196292025153525,1,colour,0.5,4.0
34,20,1,1,4,24,174,243.39294481559773,244.1993399943167,"[52, 0, 202]",202,a,0.2839804668619763,0,colour,0.5,4.0
34,20,1,1,4,25,175,244.70548653855803,245.62337297646445,"[57, 0, 197]",197,a,0.3953905939415563,0,colour,0.5,4.0
34,20,1,1,4,26,176,246.14303352922434,246.75139667335316,"[44, 0, 210]",210,a,0.0852785017050337,1,colour,0.5,4.0
34,20,1,1,4,27,177,247.26830385468202,248.04729686354403,"[2, 0, 252]",252,a,0.2560808706039097,1,colour,0.5,4.0
34,20,1,1,4,28,178,248.56523237453075,249.3913761303993,"[5, 0, 249]",249,a,0.30311740247998387,1,colour,0.5,4.0
34,20,1,1,4,29,179,249.90902689134236,250.71932468161685,"[85, 0, 169]",169,l,0.28749080863781273,1,colour,0.5,4.0
34,20,1,1,4,30,180,251.23720623581903,252.12732974172104,"[41, 0, 213]",213,a,0.3669329191034194,1,colour,0.5,4.0
34,20,1,1,4,31,181,252.64357880782336,253.47928315456375,"[71, 0, 183]",183,l,0.31283553142566234,1,colour,0.5,4.0
34,20,1,1,4,32,182,253.98753125654184,254.83925052845734,"[97, 0, 157]",157,l,0.3260691222094465,1,colour,0.5,4.0
34,20,1,1,4,33,183,255.34927250893088,256.1913508455327,"[34, 0, 220]",220,a,0.31873848248505965,1,colour,0.5,4.0
34,20,1,1,4,34,184,256.70885942838504,257.4553184651595,"[73, 0, 181]",181,l,0.22322315778001212,1,colour,0.5,4.0
34,20,1,1,4,35,185,257.97427600433,258.767359610938,"[86, 0, 168]",168,l,0.27016831759829074,1,colour,0.5,4.0
34,20,1,1,4,36,186,259.287026071368,260.11131166582345,"[32, 0, 222]",222,a,0.3005719813227188,1,colour,0.5,4.0
34,20,1,1,4,37,187,260.8695978722826,261.5914573412447,"[33, 0, 221]",221,a,0.20182082487735897,1,colour,0.5,4.0
34,20,1,1,4,38,188,262.10123001778265,262.95138336138916,"[29, 0, 225]",225,a,0.3273195805377327,1,colour,0.5,4.0
34,20,1,1,4,39,189,263.4608011834207,264.55938377414714,"[64, 0, 190]",190,l,0.5753593147965148,1,colour,0.5,4.0
34,20,1,1,4,40,190,265.0758541811956,265.96737780657713,"[27, 0, 227]",227,a,0.3739768395316787,1,colour,0.5,4.0
34,20,1,1,4,41,191,266.4768527361739,267.3592643602751,"[51, 0, 203]",203,a,0.3595152396301273,0,colour,0.5,4.0
34,20,1,1,4,42,192,267.86736477032537,268.7032502858201,"[63, 0, 191]",191,l,0.31231368661974557,1,colour,0.5,4.0
34,20,1,1,4,43,193,269.21128846833017,269.94327566522406,"[15, 0, 239]",239,a,0.20900101572624408,1,colour,0.5,4.0
34,20,1,1,4,44,194,270.4614407879417,271.23143719212385,"[69, 0, 185]",185,l,0.2464871966803912,1,colour,0.5,4.0
34,20,1,1,4,45,195,271.743467782886,272.48730617403635,"[78, 0, 176]",176,l,0.22096878816955723,1,colour,0.5,4.0
34,20,1,1,4,46,196,273.011198592867,273.567495802592,"[82, 0, 172]",172,l,0.03392818389693275,1,colour,0.5,4.0
34,20,1,1,4,47,197,274.088129152864,274.7832303887699,"[40, 0, 214]",214,a,0.18284772883635014,1,colour,0.5,4.0
34,20,1,1,4,48,198,275.2959127932263,275.93531605481985,"[25, 0, 229]",229,a,0.11612917963066138,1,colour,0.5,4.0
34,20,1,1,4,49,199,276.452024738217,277.0472641743836,"[3, 0, 251]",251,a,0.0725990510545671,1,colour,0.5,4.0
34,20,1,1,4,50,200,277.5616830420913,278.17534300958505,"[80, 0, 174]",174,l,0.09085416741436347,1,colour,0.5,4.0
34,20,1,1,5,1,201,282.5299584217719,283.47122429520823,"[80, 0, 174]",174,l,0.4170382923912257,1,colour,0.4,4.0
34,20,1,1,5,2,202,283.98405045314576,284.64717658323934,"[39, 0, 215]",215,a,0.1397626452962868,1,colour,0.4,4.0
34,20,1,1,5,3,203,285.1559949729708,285.7512769444147,"[90, 0, 164]",164,l,0.07195590194896795,1,colour,0.4,4.0
34,20,1,1,5,4,204,286.2654878618778,286.82320685259765,"[94, 0, 160]",160,l,0.0343436905532144,1,colour,0.4,4.0
34,20,1,1,5,5,205,287.3436976309167,287.9272221432475,"[8, 0, 246]",246,a,0.059826259152032435,1,colour,0.4,4.0
34,20,1,1,5,6,206,288.43787506365334,289.05516746491776,"[4, 0, 250]",250,a,0.0938824427430518,1,colour,0.4,4.0
34,20,1,1,5,7,207,289.56312884762883,290.2632488522504,"[20, 0, 234]",234,a,0.17683489501359873,1,colour,0.4,4.0
34,20,1,1,5,8,208,290.7817991555203,291.519195815461,"[43, 0, 211]",211,a,0.2141269102867227,1,colour,0.4,4.0
34,20,1,1,5,9,209,292.0318191431579,292.8232328463637,"[53, 0, 201]",201,a,0.26805258146487176,0,colour,0.4,4.0
34,20,1,1,5,10,210,293.3444451489777,293.96720412088325,"[30, 0, 224]",224,a,0.09939273016061634,1,colour,0.4,4.0
34,20,1,1,5,11,211,294.4852014655771,295.07923179716454,"[96, 0, 158]",158,l,0.07064597299904563,1,colour,0.4,4.0
34,20,1,1,5,12,212,295.5945884101675,296.3591903173947,"[82, 0, 172]",172,l,0.24111593657289632,1,colour,0.4,4.0
34,20,1,1,5,13,213,296.87716521290713,297.7031856952235,"[66, 0, 188]",188,l,0.3027215881156735,1,colour,0.4,4.0
34,20,1,1,5,14,214,298.22099675115896,299.0231482484378,"[76, 0, 178]",178,l,0.2788163693039678,1,colour,0.4,4.0
34,20,1,1,5,15,215,299.53372555057285,300.19112477841554,"[37, 0, 217]",217,a,0.13404913374688476,1,colour,0.4,4.0
34,20,1,1,5,16,216,300.7056992149446,301.39119062933605,"[81, 0, 173]",173,l,0.16227483382681385,1,colour,0.4,4.0
34,20,1,1,5,17,217,301.9088469041162,302.655164550466,"[75, 0, 179]",179,l,0.22311800112947822,1,colour,0.4,4.0
34,20,1,1,5,18,218,303.1745754053991,303.9351703321154,"[42, 0, 212]",212,a,0.2372688571922481,1,colour,0.4,4.0
34,20,1,1,5,19,219,304.4558982051967,305.08712799850036,"[41, 0, 213]",213,a,0.10787536692805588,1,colour,0.4,4.0
34,20,1,1,5,20,220,305.59889156222926,306.32712699024705,"[44, 0, 210]",210,a,0.2048557955713477,1,colour,0.4,4.0
34,20,1,1,5,21,221,306.8333924757608,307.4151553187403,"[36, 0, 218]",218,a,0.058451739605516195,1,colour,0.4,4.0
34,20,1,1,5,22,222,307.92719378639595,308.47917051485274,"[29, 0, 225]",225,a,0.02861245596432127,1,colour,0.4,4.0
34,20,1,1,5,23,223,308.9897041002114,309.9831127078505,"[54, 0, 200]",200,l,0.4700427597563248,1,colour,0.4,4.0
34,20,1,1,5,24,224,310.4899484811176,311.3992085288046,"[21, 0, 233]",233,a,0.38598517802893184,1,colour,0.4,4.0
34,20,1,1,5,25,225,311.91323315750924,312.67915287060896,"[24, 0, 230]",230,a,0.24257749592652544,1,colour,0.4,4.0
34,20,1,1,5,26,226,313.19459022185765,313.85512839548755,"[85, 0, 169]",169,l,0.13721328566316515,1,colour,0.4,4.0
34,20,1,1,5,27,227,314.3665245017037,315.0551209911937,"[77, 0, 177]",177,l,0.16530704757315107,1,colour,0.4,4.0
34,20,1,1,5,28,228,315.5697415076138,316.15911737727583,"[45, 0, 209]",209,a,0.06619867359404452,1,colour,0.4,4.0
34,20,1,1,5,29,229,316.6805088794499,317.23112487292383,"[78, 0, 176]",176,l,0.027590427809627727,1,colour,0.4,4.0
34,20,1,1,5,30,230,317.7430420362798,319.9510997928737,"[26, 0, 228]",228,a,1.684570998273557,1,colour,0.4,4.0
34,20,1,1,5,31,231,320.4620788170723,321.1591091065202,"[91, 0, 163]",163,l,0.17402126526576467,1,colour,0.4,4.0
34,20,1,1,5,32,232,321.6805435378046,322.39915220893454,"[47, 0, 207]",207,a,0.19518414032063447,1,colour,0.4,4.0
34,20,1,1,5,33,233,322.91507123279735,323.5591092640534,"[92, 0, 162]",162,l,0.12076591851655394,1,colour,0.4,4.0
34,20,1,1,5,34,234,324.0724513591267,324.8151050641027,"[71, 0, 183]",183,l,0.2256382162158843,1,colour,0.4,4.0
34,20,1,1,5,35,235,325.3317968121264,326.21509931396577,"[61, 0, 193]",193,a,0.36000990914180875,0,colour,0.4,4.0
34,20,1,1,5,36,236,326.7143594758527,327.64706945733633,"[40, 0, 214]",214,a,0.4097123788087629,1,colour,0.4,4.0
34,20,1,1,5,37,237,328.154276232759,329.2070735375746,"[60, 0, 194]",194,l,0.5294168846739922,1,colour,0.4,4.0
34,20,1,1,5,38,238,329.7169234077446,330.6710479313624,"[65, 0, 189]",189,l,0.4308212971081957,1,colour,0.4,4.0
34,20,1,1,5,39,239,331.19201092998264,331.8230839729076,"[49, 0, 205]",205,a,0.10777926869923249,1,colour,0.4,4.0
34,20,1,1,5,40,240,332.33269989906694,332.97509086993523,"[57, 0, 197]",197,a,0.12440701690502465,0,colour,0.4,4.0
34,20,1,1,5,41,241,333.4838348229241,334.11104975879425,"[87, 0, 167]",167,l,0.10417085947119631,1,colour,0.4,4.0
34,20,1,1,5,42,242,334.6243867338926,335.41508127585985,"[69, 0, 185]",185,l,0.26718966677435674,1,colour,0.4,4.0
34,20,1,1,5,43,243,335.9267243229842,336.63106043986045,"[50, 0, 204]",204,a,0.18095333367818967,1,colour,0.4,4.0
34,20,1,1,5,44,244,337.1455435043317,337.92703467293177,"[31, 0, 223]",223,a,0.25806191164883785,1,colour,0.4,4.0
34,20,1,1,5,45,245,338.44263231917284,339.175142936263,"[86, 0, 168]",168,l,0.21349990883027203,1,colour,0.4,4.0
34,20,1,1,5,46,246,339.68834482243983,340.3751438026957,"[83, 0, 171]",171,l,0.16344258465687744,1,colour,0.4,4.0
34,20,1,1,5,47,247,340.89637146529276,341.47917602868984,"[51, 0, 203]",203,a,0.05937373108463362,0,colour,0.4,4.0
34,20,1,1,5,48,248,341.9901893174101,342.6230657772685,"[58, 0, 196]",196,a,0.1094680766982492,0,colour,0.4,4.0
34,20,1,1,5,49,249,343.13098462467315,343.65515076590236,"[97, 0, 157]",157,l,0.0008593701058998704,1,colour,0.4,4.0
34,20,1,1,5,50,250,344.17793254141,344.8390662089223,"[74, 0, 180]",180,l,0.13777412116178311,1,colour,0.4,4.0
34,20,1,1,6,1,251,349.38065409014234,350.3910642050323,"[78, 0, 176]",176,l,0.4862175860616844,1,colour,0.28,4.0
34,20,1,1,6,2,252,350.8971497032908,351.69500159309246,"[45, 0, 209]",209,a,0.27485783174051903,1,colour,0.28,4.0
34,20,1,1,6,3,253,352.20978476756136,353.0310787142953,"[15, 0, 239]",239,a,0.2978981666092295,1,colour,0.28,4.0
34,20,1,1,6,4,254,353.5378581676923,354.4550297766691,"[50, 0, 204]",204,a,0.3944347318029031,1,colour,0.28,4.0
34,20,1,1,6,5,255,354.9756871514837,355.88707553831046,"[90, 0, 164]",164,l,0.38632664177566767,1,colour,0.28,4.0
34,20,1,1,6,6,256,356.3980876455025,357.2630515358178,"[68, 0, 186]",186,l,0.3415350271970965,1,colour,0.28,4.0
34,20,1,1,6,7,257,357.773179066804,358.5670385483827,"[11, 0, 243]",243,a,0.27045267380890436,1,colour,0.28,4.0
34,20,1,1,6,8,258,359.08576686965534,359.8069961864094,"[92, 0, 162]",162,l,0.1982722801330965,1,colour,0.28,4.0
34,20,1,1,6,9,259,360.32028747544973,361.0550288314407,"[87, 0, 167]",167,l,0.21159645525040105,1,colour,0.28,4.0
34,20,1,1,6,10,260,361.5703858382767,362.3910397866275,"[70, 0, 184]",184,l,0.29745351543533616,1,colour,0.28,4.0
34,20,1,1,6,11,261,362.9009018659999,363.7430396731943,"[59, 0, 195]",195,a,0.31877550392528065,0,colour,0.28,4.0
34,20,1,1,6,12,262,364.2528025035863,365.1750495949527,"[91, 0, 163]",163,l,0.39903129846788943,1,colour,0.28,4.0
34,20,1,1,6,13,263,365.68127608977375,366.4950298711774,"[88, 0, 166]",166,l,0.2908518830954563,1,colour,0.28,4.0
34,20,1,1,6,14,264,367.0093168007734,367.83099356497405,"[82, 0, 172]",172,l,0.30984270220506005,1,colour,0.28,4.0
34,20,1,1,6,15,265,368.3416232485324,369.16703484623577,"[48, 0, 206]",206,a,0.30206977439229377,1,colour,0.28,4.0
34,20,1,1,6,16,266,369.68542564223753,370.43900106693036,"[79, 0, 175]",175,l,0.23032497343956493,1,colour,0.28,4.0
34,20,1,1,6,17,267,370.9511186974414,371.76701145182597,"[52, 0, 202]",202,a,0.29248358352924697,0,colour,0.28,4.0
34,20,1,1,6,18,268,372.2793831124727,373.09499347989913,"[23, 0, 231]",231,a,0.2925619587476831,1,colour,0.28,4.0
34,20,1,1,6,19,269,373.60755536772194,374.33495033023064,"[54, 0, 200]",200,a,0.20400627161143348,0,colour,0.28,4.0
34,20,1,1,6,20,270,374.8458230162214,375.383047880925,"[3, 0, 251]",251,a,0.013897219789214432,1,colour,0.28,4.0
34,20,1,1,6,21,271,375.89278117293725,376.5110148641106,"[76, 0, 178]",178,l,0.09485130180837587,1,colour,0.28,4.0
34,20,1,1,6,22,272,377.0179431909928,377.62298149440903,"[20, 0, 234]",234,a,0.08425411046482623,1,colour,0.28,4.0
34,20,1,1,6,23,273,378.14041209593415,378.742981777963,"[40, 0, 214]",214,a,0.07917311423807405,1,colour,0.28,4.0
34,20,1,1,6,24,274,379.24988056646544,380.0149460294342,"[77, 0, 177]",177,l,0.24166416903608479,1,colour,0.28,4.0
34,20,1,1,6,25,275,380.53125889843795,381.29495378030697,"[64, 0, 190]",190,l,0.23708532538148575,1,colour,0.28,4.0
34,20,1,1,6,26,276,381.81595537575777,382.6950535806536,"[10, 0, 244]",244,a,0.3557961599144619,1,colour,0.28,4.0
34,20,1,1,6,27,277,383.20656784041785,383.9509989685321,"[81, 0, 173]",173,l,0.22412427549716085,1,colour,0.28,4.0
34,20,1,1,6,28,278,384.46966072998475,385.2469397247478,"[35, 0, 219]",219,a,0.2541774169949349,1,colour,0.28,4.0
34,20,1,1,6,29,279,385.7666617173527,386.4629677255871,"[25, 0, 229]",229,a,0.17267707179416902,1,colour,0.28,4.0
34,20,1,1,6,30,280,386.9735332123819,387.9589920557628,"[58, 0, 196]",196,a,0.46182124235201627,0,colour,0.28,4.0
34,20,1,1,6,31,281,388.4736771627795,389.2309247996018,"[30, 0, 224]",224,a,0.23384555519442074,1,colour,0.28,4.0
34,20,1,1,6,32,282,389.73952499913867,390.52691833110293,"[72, 0, 182]",182,l,0.26459619650267996,1,colour,0.28,4.0
34,20,1,1,6,33,283,391.0364881773712,391.8150751318608,"[67, 0, 187]",187,l,0.25541960456757806,1,colour,0.28,4.0
34,20,1,1,6,34,284,392.33353485076805,393.0948895047768,"[28, 0, 226]",226,a,0.23803606754518114,1,colour,0.28,4.0
34,20,1,1,6,35,285,393.6148166906787,394.4550132351578,"[53, 0, 201]",201,a,0.3164474852674175,0,colour,0.28,4.0
34,20,1,1,6,36,286,394.97428742583725,395.6309328340576,"[66, 0, 188]",188,l,0.1336399286519736,1,colour,0.28,4.0
34,20,1,1,6,37,287,396.14627723782905,396.84693169032107,"[51, 0, 203]",203,a,0.1776789051364176,0,colour,0.28,4.0
34,20,1,1,6,38,288,397.3651149299112,398.30290393842733,"[57, 0, 197]",197,a,0.4142569579707924,0,colour,0.28,4.0
34,20,1,1,6,39,289,398.8196539755445,399.6708848794515,"[55, 0, 199]",199,a,0.32795918502961285,0,colour,0.28,4.0
34,20,1,1,6,40,290,400.17922395965434,400.90289393474814,"[86, 0, 168]",168,l,0.2002781334449537,1,colour,0.28,4.0
34,20,1,1,6,41,291,401.41365358719486,402.17497318898677,"[85, 0, 169]",169,l,0.2389021330163814,1,colour,0.28,4.0
34,20,1,1,6,42,292,402.69501695307554,403.5189130346698,"[65, 0, 189]",189,l,0.30106862002867274,1,colour,0.28,4.0
34,20,1,1,6,43,293,404.03881383294356,404.9269310916716,"[98, 0, 156]",156,l,0.36478528153384104,1,colour,0.28,4.0
34,20,1,1,6,44,294,405.4451986141503,406.2309326764953,"[62, 0, 192]",192,a,0.2610311102180276,0,colour,0.28,4.0
34,20,1,1,6,45,295,406.7435181950568,407.39886824658606,"[84, 0, 170]",170,l,0.13200940974638797,1,colour,0.28,4.0
34,20,1,1,6,46,296,407.9154410533956,408.4629181010823,"[96, 0, 158]",158,l,0.024218325677793473,1,colour,0.28,4.0
34,20,1,1,6,47,297,408.982056021312,409.61487182902056,"[49, 0, 205]",205,a,0.1094436582934577,1,colour,0.28,4.0
34,20,1,1,6,48,298,410.122891894629,410.67891301889904,"[69, 0, 185]",185,a,0.03262495031231083,0,colour,0.28,4.0
34,20,1,1,6,49,299,411.1854341099097,411.82287602266297,"[89, 0, 165]",165,l,0.11413868627278134,1,colour,0.28,4.0
34,20,1,1,6,50,300,412.3418272603012,413.2869413946755,"[71, 0, 183]",183,l,0.42169708662549965,1,colour,0.28,4.0
34,20,1,1,7,1,301,417.71779971319484,418.44688151445007,"[52, 0, 202]",202,a,0.205004669027403,0,colour,0.14,4.0
34,20,1,1,7,2,302,418.9424076305004,419.71887569813407,"[24, 0, 230]",230,a,0.26493332791142166,1,colour,0.14,4.0
34,20,1,1,7,3,303,420.2358636177378,420.8869924369792,"[86, 0, 168]",168,l,0.12789924180833623,1,colour,0.14,4.0
34,20,1,1,7,4,304,421.4081598412595,422.0549437608861,"[57, 0, 197]",197,a,0.1239832395222038,0,colour,0.14,4.0
34,20,1,1,7,5,305,422.55308422102826,423.1588664979208,"[73, 0, 181]",181,l,0.08266061299946159,1,colour,0.14,4.0
34,20,1,1,7,6,306,423.6781611685292,424.2308401229093,"[77, 0, 177]",177,l,0.02931546958279796,1,colour,0.14,4.0
34,20,1,1,7,7,307,424.7407112607034,425.374945698597,"[89, 0, 165]",165,l,0.11155545595102012,1,colour,0.14,4.0
34,20,1,1,7,8,308,425.8814514296537,426.6148580444278,"[17, 0, 237]",237,a,0.21008487755898386,1,colour,0.14,4.0
34,20,1,1,7,9,309,427.13154664169997,427.8548527038947,"[79, 0, 175]",175,l,0.19995242351433262,1,colour,0.14,4.0
34,20,1,1,7,10,310,428.3659817830776,428.9429082076822,"[72, 0, 182]",182,l,0.05357711820397526,1,colour,0.14,4.0
34,20,1,1,7,11,311,429.45983862588764,430.07081887102686,"[69, 0, 185]",185,l,0.08763842182816006,1,colour,0.14,4.0
34,20,1,1,7,12,312,430.585025062348,431.13482540255063,"[78, 0, 176]",176,l,0.025261227652663365,1,colour,0.14,4.0
34,20,1,1,7,13,313,431.64904262151686,432.3108052597381,"[56, 0, 198]",198,a,0.13847359013743699,0,colour,0.14,4.0
34,20,1,1,7,14,314,432.8209859598137,434.76683500921354,"[50, 0, 204]",204,l,1.4225769366603345,0,colour,0.14,4.0
34,20,1,1,7,15,315,435.27566836506594,436.126837829157,"[65, 0, 189]",189,l,0.32452564308186993,1,colour,0.14,4.0
34,20,1,1,7,16,316,436.63847063627327,437.3507864496787,"[19, 0, 235]",235,a,0.1888325996696949,1,colour,0.14,4.0
34,20,1,1,7,17,317,437.8574119096447,438.6708458887879,"[93, 0, 161]",161,l,0.2901181495981291,1,colour,0.14,4.0
34,20,1,1,7,18,318,439.1856203986681,439.8227952844172,"[41, 0, 213]",213,a,0.11401226196903735,1,colour,0.14,4.0
34,20,1,1,7,19,319,440.3419887368218,441.07890411801054,"[60, 0, 194]",194,l,0.21363184694200754,1,colour,0.14,4.0
34,20,1,1,7,20,320,441.5920051798457,442.142801554437,"[38, 0, 216]",216,a,0.02741398522630334,1,colour,0.14,4.0
34,20,1,1,7,21,321,442.65467697018175,443.25487215982866,"[99, 0, 155]",155,l,0.07701444899430498,1,colour,0.14,4.0
34,20,1,1,7,22,322,443.7640560378495,444.36680491943844,"[88, 0, 166]",166,l,0.07929402470472269,1,colour,0.14,4.0
34,20,1,1,7,23,323,444.8735745267186,445.41479376889765,"[43, 0, 211]",211,a,0.01813538742135279,1,colour,0.14,4.0
34,20,1,1,7,24,324,445.9360686928849,447.58280338186887,"[76, 0, 178]",178,l,1.123683523357613,1,colour,0.14,4.0
34,20,1,1,7,25,325,448.0925374615763,449.0627552855003,"[74, 0, 180]",180,l,0.44685433912673034,1,colour,0.14,4.0
34,20,1,1,7,26,326,449.57703630739707,450.32678355727694,"[87, 0, 167]",167,l,0.22654563543619588,1,colour,0.14,4.0
34,20,1,1,7,27,327,450.84276165792835,451.4948038040602,"[95, 0, 159]",159,l,0.12861643379437737,1,colour,0.14,4.0
34,20,1,1,7,28,328,452.01470578389126,452.7827467469324,"[82, 0, 172]",172,l,0.24238963177776895,1,colour,0.14,4.0
34,20,1,1,7,29,329,453.2983770823048,454.19873898662627,"[71, 0, 183]",183,l,0.3770259886805434,1,colour,0.14,4.0
34,20,1,1,7,30,330,454.72018405172275,455.35077463433845,"[98, 0, 156]",156,l,0.10708688895101659,1,colour,0.14,4.0
34,20,1,1,7,31,331,455.86036023439374,456.51873737972346,"[55, 0, 199]",199,a,0.13515111248125322,0,colour,0.14,4.0
34,20,1,1,7,32,332,457.03227206508745,457.9428081710357,"[68, 0, 186]",186,l,0.3872537532588467,1,colour,0.14,4.0
34,20,1,1,7,33,333,458.4561100938881,459.1907856777543,"[70, 0, 184]",184,l,0.21120497316587716,1,colour,0.14,4.0
34,20,1,1,7,34,334,459.70631361336564,460.3587559061998,"[51, 0, 203]",203,a,0.1291658477857709,0,colour,0.14,4.0
34,20,1,1,7,35,335,460.8782057517965,461.4388419534953,"[54, 0, 200]",200,a,0.03733573210774921,0,colour,0.14,4.0
34,20,1,1,7,36,336,461.9564363945974,463.8147919572075,"[75, 0, 179]",179,l,1.3350074377667625,1,colour,0.14,4.0
34,20,1,1,7,37,337,464.33166211709613,464.9747974553029,"[84, 0, 170]",170,l,0.11984156398102641,1,colour,0.14,4.0
34,20,1,1,7,38,338,465.4879453846952,466.0468238555186,"[81, 0, 173]",173,l,0.034279099927516654,1,colour,0.14,4.0
34,20,1,1,7,39,339,466.5674568119284,467.1268039584684,"[92, 0, 162]",162,l,0.0361317475035321,1,colour,0.14,4.0
34,20,1,1,7,40,340,467.64564058717224,469.17480029098806,"[90, 0, 164]",164,l,1.005853326554643,1,colour,0.14,4.0
34,20,1,1,7,41,341,469.692696023616,470.67083879958955,"[80, 0, 174]",174,l,0.4551810132106766,1,colour,0.14,4.0
34,20,1,1,7,42,342,471.1783149650437,472.0867384856392,"[62, 0, 192]",192,a,0.38494857761543244,0,colour,0.14,4.0
34,20,1,1,7,43,343,472.60043858594145,473.3110104530351,"[59, 0, 195]",195,a,0.18812525377143174,0,colour,0.14,4.0
34,20,1,1,7,44,344,473.8191770290723,474.39873552077916,"[96, 0, 158]",158,l,0.05631000970606692,1,colour,0.14,4.0
34,20,1,1,7,45,345,474.9129070537165,476.3748263635207,"[91, 0, 163]",163,l,0.9386460155365057,1,colour,0.14,4.0
34,20,1,1,7,46,346,476.88231473820633,477.6147174416983,"[66, 0, 188]",188,a,0.20905379095347598,0,colour,0.14,4.0
34,20,1,1,7,47,347,478.13234693504637,478.67874169626157,"[67, 0, 187]",187,a,0.02301867338246666,0,colour,0.14,4.0
34,20,1,1,7,48,348,479.1973014518444,479.79867423846736,"[85, 0, 169]",169,l,0.08026288374094293,1,colour,0.14,4.0
34,20,1,1,7,49,349,480.320068891393,481.0066910351743,"[63, 0, 191]",191,l,0.16342761853593402,1,colour,0.14,4.0
34,20,1,1,7,50,350,481.52324375588796,482.4627448092215,"[15, 0, 239]",239,a,0.4161639561643824,1,colour,0.14,4.0
34,20,1,1,8,1,351,487.0244455743523,487.81470255437307,"[64, 0, 190]",190,a,0.27746114815818146,0,colour,0.06,4.0
34,20,1,1,8,2,352,488.3263392999652,489.0467202742293,"[93, 0, 161]",161,l,0.19686704062041827,1,colour,0.06,4.0
34,20,1,1,8,3,353,489.5608914133627,491.01473020229605,"[62, 0, 192]",192,a,0.9305056302109733,0,colour,0.06,4.0
34,20,1,1,8,4,354,491.52979103758116,492.3106445709127,"[58, 0, 196]",196,a,0.25756645447108895,0,colour,0.06,4.0
34,20,1,1,8,5,355,492.82679044955876,494.6226916243613,"[56, 0, 198]",198,a,1.2727846308844164,0,colour,0.06,4.0
34,20,1,1,8,6,356,495.141010346706,495.97471750472323,"[91, 0, 163]",163,l,0.31024048579274677,1,colour,0.06,4.0
34,20,1,1,8,7,357,496.4848643341393,497.1666398195666,"[66, 0, 188]",188,a,0.15838600683491677,0,colour,0.06,4.0
34,20,1,1,8,8,358,497.67169580660993,498.3026392744796,"[77, 0, 177]",177,l,0.10752326936926693,1,colour,0.06,4.0
34,20,1,1,8,9,359,498.81255885522114,500.64668270142283,"[57, 0, 197]",197,a,1.3108021089574322,0,colour,0.06,4.0
34,20,1,1,8,10,360,501.15768417480285,501.7106793868297,"[92, 0, 162]",162,l,0.02957698274985887,1,colour,0.06,4.0
34,20,1,1,8,11,361,502.2202807407011,503.9426529960474,"[96, 0, 158]",158,l,1.1991832439380232,1,colour,0.06,4.0
34,20,1,1,8,12,362,504.45555752914515,505.326614991558,"[82, 0, 172]",172,l,0.34756794714485295,1,colour,0.06,4.0
34,20,1,1,8,13,363,505.84622946442687,506.3746759146743,"[74, 0, 180]",180,a,0.004990018001990393,0,colour,0.06,4.0
34,20,1,1,8,14,364,506.8931639904331,507.518612136977,"[65, 0, 189]",189,a,0.1019984096637927,0,colour,0.06,4.0
34,20,1,1,8,15,365,508.03398647299036,509.8466804171039,"[39, 0, 215]",215,a,1.2893812653201167,1,colour,0.06,4.0
34,20,1,1,8,16,366,510.3625982594385,511.01460102107376,"[70, 0, 184]",184,l,0.12865739371045493,1,colour,0.06,4.0
34,20,1,1,8,17,367,511.53584010517807,512.1826779815892,"[76, 0, 178]",178,l,0.1235862436296884,1,colour,0.06,4.0
34,20,1,1,8,18,368,512.6921501542383,513.2627179489937,"[86, 0, 168]",168,l,0.04725629749009386,1,colour,0.06,4.0
34,20,1,1,8,19,369,513.7703717386175,515.3266236561467,"[94, 0, 160]",160,l,1.0330640876491088,1,colour,0.06,4.0
34,20,1,1,8,20,370,515.8353589445469,516.4546540484007,"[63, 0, 191]",191,a,0.09618171071633697,0,colour,0.06,4.0
34,20,1,1,8,21,371,516.9605319902766,517.5106434681511,"[95, 0, 159]",159,l,0.026906318817054853,1,colour,0.06,4.0
34,20,1,1,8,22,372,518.0230348210316,518.5906535033137,"[0, 0, 254]",254,a,0.044184699188917875,1,colour,0.06,4.0
34,20,1,1,8,23,373,519.1012197778036,519.7185905542574,"[59, 0, 195]",195,a,0.09388795658014715,0,colour,0.06,4.0
34,20,1,1,8,24,374,520.2263305959932,521.0546046602249,"[84, 0, 170]",170,l,0.30470223535667174,1,colour,0.06,4.0
34,20,1,1,8,25,375,521.5701869464829,523.3505962224735,"[88, 0, 166]",166,l,1.2576562511676457,1,colour,0.06,4.0
34,20,1,1,8,26,376,523.8672836382175,525.6866627098352,"[98, 0, 156]",156,l,1.2960380359727424,1,colour,0.06,4.0
34,20,1,1,8,27,377,526.1969859818637,526.8706159619906,"[81, 0, 173]",173,l,0.15070720802759752,1,colour,0.06,4.0
34,20,1,1,8,28,378,527.3843704129395,528.1346914951864,"[79, 0, 175]",175,l,0.22704542492283508,1,colour,0.06,4.0
34,20,1,1,8,29,379,528.6423594632652,529.3106118817523,"[89, 0, 165]",165,l,0.1448263123165816,1,colour,0.06,4.0
34,20,1,1,8,30,380,529.8299097031122,530.3825693590916,"[54, 0, 200]",200,a,0.02934934024233371,0,colour,0.06,4.0
34,20,1,1,8,31,381,530.9009912688343,531.4946655644162,"[97, 0, 157]",157,l,0.07026866934029385,1,colour,0.06,4.0
34,20,1,1,8,32,382,532.0130839295743,532.7345641256834,"[73, 0, 181]",181,l,0.19831402771524154,1,colour,0.06,4.0
34,20,1,1,8,33,383,533.2474792926223,533.9025568033103,"[80, 0, 174]",174,l,0.1328195492096711,1,colour,0.06,4.0
34,20,1,1,8,34,384,534.4193127480976,535.0226201020996,"[69, 0, 185]",185,a,0.08078984858002514,0,colour,0.06,4.0
34,20,1,1,8,35,385,535.5288517168956,536.2065930465178,"[90, 0, 164]",164,l,0.15464802258065902,1,colour,0.06,4.0
34,20,1,1,8,36,386,536.7183640933072,537.5745755629323,"[85, 0, 169]",169,l,0.3329236030986067,1,colour,0.06,4.0
34,20,1,1,8,37,387,538.0933795024757,538.9665562456066,"[75, 0, 179]",179,a,0.3498124706093222,0,colour,0.06,4.0
34,20,1,1,8,38,388,539.4841609267169,540.3185368337727,"[60, 0, 194]",194,a,0.31131016919971444,0,colour,0.06,4.0
34,20,1,1,8,39,389,540.8280271233234,541.734542070335,"[83, 0, 171]",171,l,0.3832077820552513,1,colour,0.06,4.0
34,20,1,1,8,40,390,542.2500329845352,543.1825826710556,"[53, 0, 201]",201,a,0.40928466300829314,0,colour,0.06,4.0
34,20,1,1,8,41,391,543.7031628522091,544.6225695323665,"[71, 0, 183]",183,l,0.3965079326299019,1,colour,0.06,4.0
34,20,1,1,8,42,392,545.140820907196,546.2225815840357,"[72, 0, 182]",182,l,0.5566323719394859,1,colour,0.06,4.0
34,20,1,1,8,43,393,546.7365105083736,547.854536446248,"[78, 0, 176]",176,l,0.5952205316280015,1,colour,0.06,4.0
34,20,1,1,8,44,394,548.3615033699316,549.2385504293197,"[87, 0, 167]",167,l,0.3535985040361993,1,colour,0.06,4.0
34,20,1,1,8,45,395,549.7522603757388,550.5825363548647,"[61, 0, 193]",193,a,0.30709287538775243,0,colour,0.06,4.0
34,20,1,1,8,46,396,551.0961454769422,551.910488450696,"[52, 0, 202]",202,a,0.29103659649263136,0,colour,0.06,4.0
34,20,1,1,8,47,397,552.424335849093,553.2385011986771,"[51, 0, 203]",203,a,0.2910015442757867,0,colour,0.06,4.0
34,20,1,1,8,48,398,553.7526014456525,554.7105249995075,"[67, 0, 187]",187,a,0.4348007084336132,0,colour,0.06,4.0
34,20,1,1,8,49,399,555.2227974111738,556.0145269781933,"[27, 0, 227]",227,a,0.2682912516465876,1,colour,0.06,4.0
34,20,1,1,8,50,400,556.5354060878162,557.3665682185092,"[99, 0, 155]",155,l,0.3079991130507551,1,colour,0.06,4.0
34,20,1,1,9,1,401,562.2224594920408,563.1185497519036,"[50, 0, 204]",204,a,0.3723738898115698,1,colour,0.06,4.0
34,20,1,1,9,2,402,563.6315192694601,564.4308571370202,"[90, 0, 164]",164,l,0.2768317836453207,1,colour,0.06,4.0
34,20,1,1,9,3,403,564.9437876639131,565.6944817175099,"[98, 0, 156]",156,l,0.24074020830448717,1,colour,0.06,4.0
34,20,1,1,9,4,404,566.2089005852176,566.8705218330142,"[93, 0, 161]",161,l,0.13873470947146416,1,colour,0.06,4.0
34,20,1,1,9,5,405,567.3808695234475,568.4145117757726,"[72, 0, 182]",182,l,0.5105103484820575,1,colour,0.06,4.0
34,20,1,1,9,6,406,568.9280830887146,570.0944968411641,"[92, 0, 162]",162,l,0.6432416763855144,1,colour,0.06,4.0
34,20,1,1,9,7,407,570.5998340336664,571.6064793828118,"[96, 0, 158]",158,l,0.4832330275385175,1,colour,0.06,4.0
34,20,1,1,9,8,408,572.1156077286578,572.9586348381999,"[65, 0, 189]",189,a,0.3195828864700161,0,colour,0.06,4.0
34,20,1,1,9,9,409,573.4750662546139,574.5184931957338,"[73, 0, 181]",181,a,0.5206317748816218,0,colour,0.06,4.0
34,20,1,1,9,10,410,575.0378725430346,575.9184583010501,"[71, 0, 183]",183,a,0.3575184447399806,0,colour,0.06,4.0
34,20,1,1,9,11,411,576.4284688600455,577.246439147566,"[58, 0, 196]",196,a,0.29479781762347557,0,colour,0.06,4.0
34,20,1,1,9,12,412,577.756652142969,578.6384659101313,"[78, 0, 176]",176,l,0.358677924843505,1,colour,0.06,4.0
34,20,1,1,9,13,413,579.1475316346332,579.8944447748363,"[66, 0, 188]",188,a,0.22351381549378857,0,colour,0.06,4.0
34,20,1,1,9,14,414,580.4132491082419,581.1904611493519,"[5, 0, 249]",249,a,0.2541778108570725,1,colour,0.06,4.0
34,20,1,1,9,15,415,581.7101729019487,582.3584353162441,"[38, 0, 216]",216,a,0.12524315013433807,1,colour,0.06,4.0
34,20,1,1,9,16,416,582.8665727477346,583.5744318094512,"[79, 0, 175]",175,l,0.18489336050697602,1,colour,0.06,4.0
34,20,1,1,9,17,417,584.0854403720296,584.6624380826252,"[36, 0, 218]",218,a,0.053840206790482625,1,colour,0.06,4.0
34,20,1,1,9,18,418,585.179145978298,585.7504640480329,"[70, 0, 184]",184,l,0.04794158803997561,1,colour,0.06,4.0
34,20,1,1,9,19,419,586.2592828316265,588.1584974650177,"[59, 0, 195]",195,a,1.3758854131156113,0,colour,0.06,4.0
34,20,1,1,9,20,420,588.6698860881734,589.3984783398919,"[87, 0, 167]",167,l,0.2055895290686749,1,colour,0.06,4.0
34,20,1,1,9,21,421,589.920085275342,590.6864523965342,"[68, 0, 186]",186,a,0.24320489124511369,0,colour,0.06,4.0
34,20,1,1,9,22,422,591.2013805060124,591.8944664363225,"[75, 0, 179]",179,l,0.16975355928298086,1,colour,0.06,4.0
34,20,1,1,9,23,423,592.4046089334297,593.0144505722274,"[76, 0, 178]",178,l,0.08676526710041799,1,colour,0.06,4.0
34,20,1,1,9,24,424,593.5296949393523,594.0544668144139,"[56, 0, 198]",198,a,0.0013666426530107856,0,colour,0.06,4.0
34,20,1,1,9,25,425,594.5766810590867,595.1664369892969,"[94, 0, 160]",160,l,0.06642592223943211,1,colour,0.06,4.0
34,20,1,1,9,26,426,595.6861467726994,597.3104196853237,"[88, 0, 166]",166,l,1.1013473836355843,1,colour,0.06,4.0
34,20,1,1,9,27,427,597.8268652801635,598.5744609539979,"[67, 0, 187]",187,a,0.22434325338690542,0,colour,0.06,4.0
34,20,1,1,9,28,428,599.0925370677141,599.6384072272049,"[64, 0, 190]",190,a,0.022329838218865916,0,colour,0.06,4.0
34,20,1,1,9,29,429,600.1552053134365,600.7824100093276,"[77, 0, 177]",177,l,0.10390619552345015,1,colour,0.06,4.0
34,20,1,1,9,30,430,601.2958848302369,601.9344696816115,"[55, 0, 199]",199,a,0.11525956954574212,0,colour,0.06,4.0
34,20,1,1,9,31,431,602.4523079128703,602.9824234788539,"[60, 0, 194]",194,a,0.006798948772484437,0,colour,0.06,4.0
34,20,1,1,9,32,432,603.4992743403127,605.1425593396707,"[89, 0, 165]",165,l,1.1199979204975534,1,colour,0.06,4.0
34,20,1,1,9,33,433,605.6579407649115,606.2223885999119,"[81, 0, 173]",173,l,0.04102684880490415,1,colour,0.06,4.0
34,20,1,1,9,34,434,606.7359248606372,607.3503973306797,"[57, 0, 197]",197,a,0.09148471348453313,0,colour,0.06,4.0
34,20,1,1,9,35,435,607.8611900661199,608.390407271334,"[91, 0, 163]",163,l,0.00588640954811126,1,colour,0.06,4.0
34,20,1,1,9,36,436,608.9069678689411,610.2864648420364,"[83, 0, 171]",171,l,0.8560720484529156,1,colour,0.06,4.0
34,20,1,1,9,37,437,610.79994163214,611.6943903454521,"[97, 0, 157]",157,l,0.37106199163827114,1,colour,0.06,4.0
34,20,1,1,9,38,438,612.2063362594636,612.9103832940455,"[54, 0, 200]",200,a,0.18062801760970615,0,colour,0.06,4.0
34,20,1,1,9,39,439,613.4251396870241,613.9903823015338,"[84, 0, 170]",170,l,0.04191536345751956,1,colour,0.06,4.0
34,20,1,1,9,40,440,614.5033778128854,616.8063813941262,"[86, 0, 168]",168,l,1.7797310746682342,1,colour,0.06,4.0
34,20,1,1,9,41,441,617.3161383168481,618.3023340444779,"[69, 0, 185]",185,l,0.4615770583623089,1,colour,0.06,4.0
34,20,1,1,9,42,442,618.8174267812283,619.7183727578958,"[74, 0, 180]",180,l,0.37781210357206874,1,colour,0.06,4.0
34,20,1,1,9,43,443,620.2394302793546,621.038334523415,"[62, 0, 192]",192,a,0.27548207630752586,0,colour,0.06,4.0
34,20,1,1,9,44,444,621.5520377744688,622.4463269804837,"[53, 0, 201]",201,a,0.37136643391568214,0,colour,0.06,4.0
34,20,1,1,9,45,445,622.9584162541432,623.5583408722014,"[80, 0, 174]",174,l,0.07578683368046768,1,colour,0.06,4.0
34,20,1,1,9,46,446,624.0685491414333,625.6143015412381,"[61, 0, 193]",193,a,1.022489739349112,0,colour,0.06,4.0
34,20,1,1,9,47,447,626.131823120988,626.7582992033567,"[99, 0, 155]",155,l,0.10406176434480585,1,colour,0.06,4.0
34,20,1,1,9,48,448,627.2726022806019,629.366465031082,"[63, 0, 191]",191,a,1.570538256346481,0,colour,0.06,4.0
34,20,1,1,9,49,449,629.8835297504847,630.7503104484349,"[85, 0, 169]",169,l,0.3435192190518137,1,colour,0.06,4.0
34,20,1,1,9,50,450,631.2572797352041,632.0623015759047,"[82, 0, 172]",172,l,0.2816725343000144,1,colour,0.06,4.0
34,20,1,1,10,1,451,637.0068934715819,637.8623168570921,"[85, 0, 169]",169,l,0.33156562503427267,1,colour,0.06,4.0
34,20,1,1,10,2,452,638.3828749829263,638.9662821294041,"[91, 0, 163]",163,l,0.058584071579389274,1,colour,0.06,4.0
34,20,1,1,10,3,453,639.4718256967317,640.0463331244537,"[69, 0, 185]",185,a,0.05114197367220186,0,colour,0.06,4.0
34,20,1,1,10,4,454,640.5656998687191,642.1582883332449,"[96, 0, 158]",158,l,1.0693112317821942,1,colour,0.06,4.0
34,20,1,1,10,5,455,642.6648830732738,643.2223078616662,"[61, 0, 193]",193,a,0.03405972820473835,0,colour,0.06,4.0
34,20,1,1,10,6,456,643.7431164729933,644.5263078711287,"[74, 0, 180]",180,l,0.25986454091616906,1,colour,0.06,4.0
34,20,1,1,10,7,457,645.040090285067,645.6382555968303,"[67, 0, 187]",187,a,0.07484711916185915,0,colour,0.06,4.0
34,20,1,1,10,8,458,646.1441678032279,646.7102934185823,"[82, 0, 172]",172,l,0.04273968137567863,1,colour,0.06,4.0
34,20,1,1,10,9,459,647.2223677261209,648.7585418119852,"[64, 0, 190]",190,a,1.0206473317521159,0,colour,0.06,4.0
34,20,1,1,10,10,460,649.2644221169176,649.8542981699284,"[84, 0, 170]",170,l,0.0666114233317785,1,colour,0.06,4.0
34,20,1,1,10,11,461,650.3736641264986,651.8142693247064,"[52, 0, 202]",202,a,0.9265372465306427,0,colour,0.06,4.0
34,20,1,1,10,12,462,652.3332355284656,653.702292454429,"[98, 0, 156]",156,l,0.8456205798138399,1,colour,0.06,4.0
34,20,1,1,10,13,463,654.2187545907509,654.8382891524525,"[95, 0, 159]",159,l,0.09624551361775957,1,colour,0.06,4.0
34,20,1,1,10,14,464,655.3594849135552,657.5743144435983,"[60, 0, 194]",194,a,1.701129823573865,0,colour,0.06,4.0
34,20,1,1,10,15,465,658.0844045593112,659.0382663882046,"[77, 0, 177]",177,l,0.43084965395973995,1,colour,0.06,4.0
34,20,1,1,10,16,466,659.5532894143544,660.078415356169,"[46, 0, 208]",208,a,0.0019349611829966307,1,colour,0.06,4.0
34,20,1,1,10,17,467,660.6001959773421,661.1344453419733,"[59, 0, 195]",195,a,0.010961891937768087,0,colour,0.06,4.0
34,20,1,1,10,18,468,661.6471529525297,662.1982305325218,"[51, 0, 203]",203,a,0.027755055081797764,0,colour,0.06,4.0
34,20,1,1,10,19,469,662.709754638403,663.2863218762504,"[89, 0, 165]",165,l,0.053152553155086935,1,colour,0.06,4.0
34,20,1,1,10,20,470,663.8036488965154,665.1742910491885,"[90, 0, 164]",164,l,0.8475019780744333,1,colour,0.06,4.0
34,20,1,1,10,21,471,665.6943159087095,666.2542018353997,"[70, 0, 184]",184,a,0.03676701971562579,0,colour,0.06,4.0
34,20,1,1,10,22,472,666.7725835729507,667.4862301890971,"[62, 0, 192]",192,l,0.19031818356597796,1,colour,0.06,4.0
34,20,1,1,10,23,473,668.0070805480354,669.6622218616249,"[10, 0, 244]",244,a,1.1318243025161792,1,colour,0.06,4.0
34,20,1,1,10,24,474,670.1790900522901,670.8382403156429,"[68, 0, 186]",186,a,0.1358438860916067,0,colour,0.06,4.0
34,20,1,1,10,25,475,671.3510007014265,672.9741995983641,"[72, 0, 182]",182,a,1.0986838089011144,0,colour,0.06,4.0
34,20,1,1,10,26,476,673.4931819497724,674.4382578811492,"[56, 0, 198]",198,a,0.4218337508791592,0,colour,0.06,4.0
34,20,1,1,10,27,477,674.9463429312163,675.7102808155178,"[57, 0, 197]",197,a,0.24060393788386136,0,colour,0.06,4.0
34,20,1,1,10,28,478,676.2278264198394,677.0222223184828,"[63, 0, 191]",191,a,0.27117695499327965,0,colour,0.06,4.0
34,20,1,1,10,29,479,677.540323244466,678.3502433372196,"[87, 0, 167]",167,l,0.2864955619443208,1,colour,0.06,4.0
34,20,1,1,10,30,480,678.8685423673014,679.710235917184,"[55, 0, 199]",199,a,0.31889483900158666,0,colour,0.06,4.0
34,20,1,1,10,31,481,680.2280028624809,681.038207311416,"[53, 0, 201]",201,a,0.2841734509856906,0,colour,0.06,4.0
34,20,1,1,10,32,482,681.558902101533,682.4222027837823,"[54, 0, 200]",200,a,0.33986118534812704,0,colour,0.06,4.0
34,20,1,1,10,33,483,682.9367323219776,683.6781899192138,"[88, 0, 166]",166,l,0.21826976738520898,1,colour,0.06,4.0
34,20,1,1,10,34,484,684.1869122107455,685.0381494161848,"[71, 0, 183]",183,l,0.3280824585817754,1,colour,0.06,4.0
34,20,1,1,10,35,485,685.5462261954963,686.1261860154336,"[79, 0, 175]",175,l,0.056567190593341365,1,colour,0.06,4.0
34,20,1,1,10,36,486,686.640132268949,687.1981639727019,"[81, 0, 173]",173,l,0.034628834429895505,1,colour,0.06,4.0
34,20,1,1,10,37,487,687.71826090588,688.2702376343368,"[65, 0, 189]",189,a,0.02913784538395703,0,colour,0.06,4.0
34,20,1,1,10,38,488,688.7809665668756,689.478224892664,"[93, 0, 161]",161,l,0.17452893167501315,1,colour,0.06,4.0
34,20,1,1,10,39,489,689.9878191573371,690.6622076831991,"[78, 0, 176]",176,l,0.15091830902383663,1,colour,0.06,4.0
34,20,1,1,10,40,490,691.1753607326245,691.9181707940879,"[94, 0, 160]",160,l,0.21933787540183403,1,colour,0.06,4.0
34,20,1,1,10,41,491,692.4255662213254,692.9742015675874,"[86, 0, 168]",168,l,0.028193010919494554,1,colour,0.06,4.0
34,20,1,1,10,42,492,693.4854196558008,694.1742516646918,"[36, 0, 218]",218,a,0.1655618654040154,1,colour,0.06,4.0
34,20,1,1,10,43,493,694.6886469016899,695.3741410729708,"[99, 0, 155]",155,l,0.1621161142247729,1,colour,0.06,4.0
34,20,1,1,10,44,494,695.8804770567513,696.4541377174028,"[83, 0, 171]",171,l,0.05022982833907008,1,colour,0.06,4.0
34,20,1,1,10,45,495,696.9744244839239,697.6461112321122,"[75, 0, 179]",179,l,0.1482216513250023,1,colour,0.06,4.0
34,20,1,1,10,46,496,698.1620519174612,698.8541713517916,"[73, 0, 181]",181,l,0.16912419474101625,1,colour,0.06,4.0
34,20,1,1,10,47,497,699.3652421419101,699.9501502322382,"[92, 0, 162]",162,l,0.061539485555840656,1,colour,0.06,4.0
34,20,1,1,10,48,498,700.4589875265374,702.6621769632911,"[50, 0, 204]",204,a,1.6798231950378977,1,colour,0.06,4.0
34,20,1,1,10,49,499,703.180726872728,703.9341526362696,"[80, 0, 174]",174,l,0.23001422962988727,1,colour,0.06,4.0
34,20,1,1,10,50,500,704.4464120510384,705.030135848996,"[97, 0, 157]",157,l,0.05605282878968865,1,colour,0.06,4.0
34,20,1,1,11,1,501,709.8567620651447,710.6781044548261,"[50, 0, 204]",204,a,0.29715734388446435,1,colour,0.06,4.0
34,20,1,1,11,2,502,711.1949824916082,711.8541288165143,"[98, 0, 156]",156,l,0.13639369391603395,1,colour,0.06,4.0
34,20,1,1,11,3,503,712.3669695467106,713.0221266141161,"[52, 0, 202]",202,a,0.131731355068041,0,colour,0.06,4.0
34,20,1,1,11,4,504,713.5306929429644,714.1900917225867,"[94, 0, 160]",160,l,0.1360742854885757,1,colour,0.06,4.0
34,20,1,1,11,5,505,714.7025665706606,715.4782130773237,"[83, 0, 171]",171,l,0.25279305133153684,1,colour,0.06,4.0
34,20,1,1,11,6,506,715.9923909117933,716.5741001918504,"[81, 0, 173]",173,l,0.0582044048642274,1,colour,0.06,4.0
34,20,1,1,11,7,507,717.0863647265942,717.6700672569277,"[76, 0, 178]",178,l,0.0604989466664847,1,colour,0.06,4.0
34,20,1,1,11,8,508,718.1802148740389,718.7580884962226,"[90, 0, 164]",164,l,0.054610961728030816,1,colour,0.06,4.0
34,20,1,1,11,9,509,719.2738610096858,719.8141326604236,"[87, 0, 167]",167,l,0.015356809890363365,1,colour,0.06,4.0
34,20,1,1,11,10,510,720.3222547319601,721.078169596818,"[39, 0, 215]",215,a,0.22907136435969733,1,colour,0.06,4.0
34,20,1,1,11,11,511,721.5926164275152,722.3181406255753,"[84, 0, 170]",170,l,0.20199884290923364,1,colour,0.06,4.0
34,20,1,1,11,12,512,722.8271200979652,723.6141451847216,"[88, 0, 166]",166,l,0.26356786681571975,1,colour,0.06,4.0
34,20,1,1,11,13,513,724.1241557436879,724.7900202790916,"[79, 0, 175]",175,l,0.14234351253253408,1,colour,0.06,4.0
34,20,1,1,11,14,514,725.2960876604775,725.9020806445333,"[82, 0, 172]",172,l,0.08259011473273858,1,colour,0.06,4.0
34,20,1,1,11,15,515,726.4212232909049,727.3100920061697,"[59, 0, 195]",195,a,0.3659932046139147,0,colour,0.06,4.0
34,20,1,1,11,16,516,727.827574989089,728.4701085319102,"[56, 0, 198]",198,a,0.11915981801575981,0,colour,0.06,4.0
34,20,1,1,11,17,517,728.983847229043,729.7100527791772,"[53, 0, 201]",201,a,0.20280268081114627,0,colour,0.06,4.0
34,20,1,1,11,18,518,730.218381225568,730.8781372227531,"[97, 0, 157]",157,l,0.13676745296106674,1,colour,0.06,4.0
34,20,1,1,11,19,519,731.3903383484285,732.1900432796392,"[69, 0, 185]",185,l,0.27623195745400153,1,colour,0.06,4.0
34,20,1,1,11,20,520,732.7028733760235,733.3100927938649,"[86, 0, 168]",168,l,0.08406348942662589,1,colour,0.06,4.0
34,20,1,1,11,21,521,733.8280172772065,734.5420998799091,"[54, 0, 200]",200,a,0.19092549275956117,0,colour,0.06,4.0
34,20,1,1,11,22,522,735.0483736361784,735.8540977027442,"[51, 0, 203]",203,a,0.28236373254912905,0,colour,0.06,4.0
34,20,1,1,11,23,523,736.3609330821782,737.0300492030801,"[77, 0, 177]",177,l,0.14582431592862122,1,colour,0.06,4.0
34,20,1,1,11,24,524,737.54838486074,739.366055038292,"[63, 0, 191]",191,a,1.2942897573811933,0,colour,0.06,4.0
34,20,1,1,11,25,525,739.8766272204521,740.9260209155327,"[58, 0, 196]",196,a,0.5261231577314902,0,colour,0.06,4.0
34,20,1,1,11,26,526,741.4408875851659,744.1820655523625,"[26, 0, 228]",228,a,2.217959811241599,1,colour,0.06,4.0
34,20,1,1,11,27,527,744.6910143048444,745.2940617210406,"[64, 0, 190]",190,a,0.07981508181546815,0,colour,0.06,4.0
34,20,1,1,11,28,528,745.8016753384727,746.3660156537662,"[71, 0, 183]",183,a,0.04097367971553467,0,colour,0.06,4.0
34,20,1,1,11,29,529,746.8800548547588,747.8780411245243,"[74, 0, 180]",180,l,0.47466453255037777,1,colour,0.06,4.0
34,20,1,1,11,30,530,748.3957824698882,748.9740121280774,"[61, 0, 193]",193,a,0.05478661667439155,0,colour,0.06,4.0
34,20,1,1,11,31,531,749.4895928389451,750.1340310168744,"[96, 0, 158]",158,l,0.1213401447457727,1,colour,0.06,4.0
34,20,1,1,11,32,532,750.6460092262132,751.1740374129149,"[55, 0, 199]",199,a,0.004754892433993518,0,colour,0.06,4.0
34,20,1,1,11,33,533,751.6929098815308,752.2539915220987,"[92, 0, 162]",162,l,0.03769176814239472,1,colour,0.06,4.0
34,20,1,1,11,34,534,752.7725591545459,753.3020103037707,"[68, 0, 186]",186,a,0.006208574865013361,0,colour,0.06,4.0
34,20,1,1,11,35,535,753.8195098282013,755.8220387078763,"[93, 0, 161]",161,l,1.4792882745387033,1,colour,0.06,4.0
34,20,1,1,11,36,536,756.3352232649049,756.926078810764,"[70, 0, 184]",184,a,0.06778035569004714,0,colour,0.06,4.0
34,20,1,1,11,37,537,757.4447953166964,759.382029397384,"[65, 0, 189]",189,a,1.4138205775234383,0,colour,0.06,4.0
34,20,1,1,11,38,538,759.8982056021341,760.5104532409459,"[67, 0, 187]",187,a,0.08894441230222583,0,colour,0.06,4.0
34,20,1,1,11,39,539,761.0231565191934,761.5580714821117,"[66, 0, 188]",188,a,0.01131280796835199,0,colour,0.06,4.0
34,20,1,1,11,40,540,762.07022574023,762.7340056532412,"[60, 0, 194]",194,a,0.14040618823491968,0,colour,0.06,4.0
34,20,1,1,11,41,541,763.2421694723598,765.5339492546336,"[85, 0, 169]",169,l,1.768372186808847,1,colour,0.06,4.0
34,20,1,1,11,42,542,766.0401021004072,766.7179816696735,"[57, 0, 197]",197,a,0.15447433685767464,0,colour,0.06,4.0
34,20,1,1,11,43,543,767.2277330785291,769.0301350613299,"[91, 0, 163]",163,l,1.279085759393638,1,colour,0.06,4.0
34,20,1,1,11,44,544,769.5404650287237,770.5739458045573,"[73, 0, 181]",181,l,0.5101649462885689,1,colour,0.06,4.0
34,20,1,1,11,45,545,771.0901314615621,772.0460814574035,"[99, 0, 155]",155,l,0.43256603108602576,1,colour,0.06,4.0
34,20,1,1,11,46,546,772.5604609406146,773.4459969382442,"[89, 0, 165]",165,l,0.36213903600582853,1,colour,0.06,4.0
34,20,1,1,11,47,547,773.9668201218592,774.8699432744761,"[72, 0, 182]",182,l,0.37969350183266215,1,colour,0.06,4.0
34,20,1,1,11,48,548,775.3887038910761,776.2699863611488,"[4, 0, 250]",250,a,0.3578417916141916,1,colour,0.06,4.0
34,20,1,1,11,49,549,776.779530607484,777.4619547558541,"[80, 0, 174]",174,l,0.15905199898406863,1,colour,0.06,4.0
34,20,1,1,11,50,550,777.9826771151274,778.5419517941482,"[95, 0, 159]",159,l,0.035915132670197636,1,colour,0.06,4.0
34,20,1,1,12,1,551,783.0618624385679,783.8219374897017,"[28, 0, 226]",226,a,0.23585731620551087,1,colour,0.06,4.0
34,20,1,1,12,2,552,784.3284081685124,784.8539263801067,"[90, 0, 164]",164,l,0.0022063204960431904,1,colour,0.06,4.0
34,20,1,1,12,3,553,785.3753009469365,786.1659348367539,"[80, 0, 174]",174,l,0.268286131642526,1,colour,0.06,4.0
34,20,1,1,12,4,554,786.6868360016961,787.2300473126234,"[54, 0, 200]",200,a,0.020407086238265038,0,colour,0.06,4.0
34,20,1,1,12,5,555,787.7492663649609,788.3179200722661,"[53, 0, 201]",201,a,0.04541900986805558,0,colour,0.06,4.0
34,20,1,1,12,6,556,788.8275608106633,789.437955014233,"[57, 0, 197]",197,a,0.08694407282746397,0,colour,0.06,4.0
34,20,1,1,12,7,557,789.9527693024429,792.9979039561294,"[2, 0, 252]",252,a,2.5223229459370486,1,colour,0.06,4.0
34,20,1,1,12,8,558,793.5165220007766,795.2219171672768,"[76, 0, 178]",178,l,1.1820127771352418,1,colour,0.06,4.0
34,20,1,1,12,9,559,795.7354254650127,796.3579658528324,"[78, 0, 176]",176,l,0.09969205246306956,1,colour,0.06,4.0
34,20,1,1,12,10,560,796.8760959233623,797.7418486854876,"[67, 0, 187]",187,l,0.3423435912991408,1,colour,0.06,4.0
34,20,1,1,12,11,561,798.251234606083,798.84588209301,"[95, 0, 159]",159,l,0.07130369439255446,1,colour,0.06,4.0
34,20,1,1,12,12,562,799.3607042581425,801.101871591527,"[94, 0, 160]",160,l,1.2178581992047839,1,colour,0.06,4.0
34,20,1,1,12,13,563,801.612253940315,802.4459110799944,"[97, 0, 157]",157,l,0.31029404871515,1,colour,0.06,4.0
34,20,1,1,12,14,564,802.956035460229,803.7578844844247,"[64, 0, 190]",190,a,0.27870491112116724,0,colour,0.06,4.0
34,20,1,1,12,15,565,804.2687173920858,804.9659052195784,"[65, 0, 189]",189,a,0.17388145023141988,0,colour,0.06,4.0
34,20,1,1,12,16,566,805.4719143119,806.0698838826502,"[87, 0, 167]",167,l,0.07461593206971884,1,colour,0.06,4.0
34,20,1,1,12,17,567,806.5825091795414,807.1498962808691,"[58, 0, 196]",196,a,0.04440367707866244,0,colour,0.06,4.0
34,20,1,1,12,18,568,807.6607591207721,808.2059203590034,"[81, 0, 173]",173,l,0.021903697779634967,1,colour,0.06,4.0
34,20,1,1,12,19,569,808.7231906655652,809.4218707723194,"[92, 0, 162]",162,l,0.17510670248884708,1,colour,0.06,4.0
34,20,1,1,12,20,570,809.9420838897931,810.6378582070756,"[66, 0, 188]",188,a,0.1726999148086179,0,colour,0.06,4.0
34,20,1,1,12,21,571,811.1453477632895,811.8379071226518,"[75, 0, 179]",179,l,0.16920572068192996,1,colour,0.06,4.0
34,20,1,1,12,22,572,812.3485671322851,813.0299007234571,"[77, 0, 177]",177,l,0.1562407323217485,1,colour,0.06,4.0
34,20,1,1,12,23,573,813.5378715584229,814.1178672182723,"[83, 0, 171]",171,l,0.05662154121091589,1,colour,0.06,4.0
34,20,1,1,12,24,574,814.6317606965313,815.2698642691539,"[93, 0, 161]",161,l,0.11471921400516294,1,colour,0.06,4.0
34,20,1,1,12,25,575,815.7880770471529,817.6379306745948,"[26, 0, 228]",228,a,1.3259927162434906,1,colour,0.06,4.0
34,20,1,1,12,26,576,818.1456758363056,818.8378236274875,"[99, 0, 155]",155,l,0.1663369526504539,1,colour,0.06,4.0
34,20,1,1,12,27,577,819.351882914576,820.1898223325261,"[50, 0, 204]",204,a,0.31460862231324427,1,colour,0.06,4.0
34,20,1,1,12,28,578,820.711366646603,821.3579367082857,"[59, 0, 195]",195,a,0.12354213296202943,0,colour,0.06,4.0
34,20,1,1,12,29,579,821.8673494103423,822.4538565119728,"[88, 0, 166]",166,l,0.06320229973061942,1,colour,0.06,4.0
34,20,1,1,12,30,580,822.9612318530853,823.7658842670207,"[62, 0, 192]",192,a,0.28137990736286156,0,colour,0.06,4.0
34,20,1,1,12,31,581,824.2738235943834,824.9178513856896,"[70, 0, 184]",184,l,0.12062886042986065,1,colour,0.06,4.0
34,20,1,1,12,32,582,825.4300659020955,827.0138145123201,"[84, 0, 170]",170,l,1.0596951087063644,1,colour,0.06,4.0
34,20,1,1,12,33,583,827.5246860168118,828.3978556707152,"[56, 0, 198]",198,a,0.3498821812099777,0,colour,0.06,4.0
34,20,1,1,12,34,584,828.9154410533956,829.4778704320488,"[73, 0, 181]",181,l,0.03920925347483717,1,colour,0.06,4.0
34,20,1,1,12,35,585,829.9979878451559,830.6218444634578,"[51, 0, 203]",203,a,0.1009767753421329,0,colour,0.06,4.0
34,20,1,1,12,36,586,831.1386874480522,831.6697832945792,"[89, 0, 165]",165,l,0.008340852480614558,1,colour,0.06,4.0
34,20,1,1,12,37,587,832.185712164588,832.7818058508856,"[63, 0, 191]",191,a,0.07315752349677496,0,colour,0.06,4.0
34,20,1,1,12,38,588,833.2951172260509,833.821842179168,"[91, 0, 163]",163,l,0.002208683581557125,1,colour,0.06,4.0
34,20,1,1,12,39,589,834.3436267387879,834.9097937078623,"[82, 0, 172]",172,l,0.042853896447923034,1,colour,0.06,4.0
34,20,1,1,12,40,590,835.4218475354428,836.3978410984564,"[69, 0, 185]",185,a,0.4528376345988363,0,colour,0.06,4.0
34,20,1,1,12,41,591,836.9063199936645,838.8298474756011,"[98, 0, 156]",156,l,1.400102163432166,1,colour,0.06,4.0
34,20,1,1,12,42,592,839.3439638702257,840.9098626307386,"[72, 0, 182]",182,a,1.0425065250019543,0,colour,0.06,4.0
34,20,1,1,12,43,593,841.4223142419651,842.1897644372948,"[74, 0, 180]",180,l,0.2441237319726497,1,colour,0.06,4.0
34,20,1,1,12,44,594,842.705475904746,843.2618010774895,"[79, 0, 175]",175,l,0.03304990925244056,1,colour,0.06,4.0
34,20,1,1,12,45,595,843.768081135262,844.3657758020854,"[96, 0, 158]",158,l,0.07445642477250658,1,colour,0.06,4.0
34,20,1,1,12,46,596,844.8774531137315,845.4218955845572,"[86, 0, 168]",168,l,0.02104629689711146,1,colour,0.06,4.0
34,20,1,1,12,47,597,845.9401249040384,847.7177311841515,"[60, 0, 194]",194,a,1.2543042351317126,0,colour,0.06,4.0
34,20,1,1,12,48,598,848.2370963530266,848.8457584256248,"[52, 0, 202]",202,a,0.08523439103737473,0,colour,0.06,4.0
34,20,1,1,12,49,599,849.3622709741176,849.997835033224,"[55, 0, 199]",199,a,0.11228249408304691,0,colour,0.06,4.0
34,20,1,1,12,50,600,850.5185581801925,851.309755662398,"[68, 0, 186]",186,a,0.26793482177890837,0,colour,0.06,4.0
34,20,1,1,13,1,601,857.8178667062602,858.4217278065335,"[87, 0, 167]",167,l,0.07970953133190051,1,colour,0.06,4.0
34,20,1,1,13,2,602,858.9280929348606,859.7977471270133,"[73, 0, 181]",181,l,0.3462162706127856,1,colour,0.06,4.0
34,20,1,1,13,3,603,860.3188731775444,861.1257204904687,"[70, 0, 184]",184,a,0.2836531815410126,0,colour,0.06,4.0
34,20,1,1,13,4,604,861.647098601883,863.7737391146075,"[82, 0, 172]",172,l,1.603253397217486,1,colour,0.06,4.0
34,20,1,1,13,5,605,864.2879500320705,865.0777032841579,"[95, 0, 159]",159,l,0.26643821023753844,1,colour,0.06,4.0
34,20,1,1,13,6,606,865.5869064606086,866.1337249992066,"[97, 0, 157]",157,l,0.02342866617254913,1,colour,0.06,4.0
34,20,1,1,13,7,607,866.6495983370405,867.1817276332295,"[51, 0, 203]",203,a,0.008831189683405682,0,colour,0.06,4.0
34,20,1,1,13,8,608,867.6965466476104,868.397706403397,"[67, 0, 187]",187,a,0.1781609715835657,0,colour,0.06,4.0
34,20,1,1,13,9,609,868.9153162044822,869.5657439793868,"[77, 0, 177]",177,l,0.1270150594646111,1,colour,0.06,4.0
34,20,1,1,13,10,610,870.0872847488499,871.5577957905189,"[81, 0, 173]",173,l,0.9474779929441866,1,colour,0.06,4.0
34,20,1,1,13,11,611,872.0754705760337,872.9976948243566,"[69, 0, 185]",185,l,0.39875324378954247,1,colour,0.06,4.0
34,20,1,1,13,12,612,873.5131589570956,874.0457522028883,"[40, 0, 214]",214,a,0.009240788669558242,1,colour,0.06,4.0
34,20,1,1,13,13,613,874.5600619754696,875.0857184267079,"[91, 0, 163]",163,l,0.0023847323609516025,1,colour,0.06,4.0
34,20,1,1,13,14,614,875.6070094983734,876.4456905267143,"[66, 0, 188]",188,l,0.3151674885302782,1,colour,0.06,4.0
34,20,1,1,13,15,615,876.9663861045265,877.6536982649995,"[62, 0, 192]",192,a,0.16380846680840477,0,colour,0.06,4.0
34,20,1,1,13,16,616,878.1697980637837,879.7656767106382,"[55, 0, 199]",199,a,1.0728125151363201,0,colour,0.06,4.0
34,20,1,1,13,17,617,880.2792547189456,881.333708536491,"[53, 0, 201]",201,a,0.5310883634956554,0,colour,0.06,4.0
34,20,1,1,13,18,618,881.8417904357775,882.7496629670204,"[79, 0, 175]",175,l,0.38503994967322797,1,colour,0.06,4.0
34,20,1,1,13,19,619,883.2639601365663,884.1817024271586,"[94, 0, 160]",160,l,0.3944138580118306,1,colour,0.06,4.0
34,20,1,1,13,20,620,884.7014862534415,885.6937381378666,"[72, 0, 182]",182,l,0.46899001169367693,1,colour,0.06,4.0
34,20,1,1,13,21,621,886.2015880623949,887.1176962894679,"[98, 0, 156]",156,l,0.3929014926252421,1,colour,0.06,4.0
34,20,1,1,13,22,622,887.6236431542493,888.6057397416153,"[63, 0, 191]",191,a,0.45872404411784373,0,colour,0.06,4.0
34,20,1,1,13,23,623,889.1237709569978,890.1976602447685,"[75, 0, 179]",179,l,0.5505454952362925,1,colour,0.06,4.0
34,20,1,1,13,24,624,890.7175704953261,891.5656506380765,"[85, 0, 169]",169,l,0.3247154763957951,1,colour,0.06,4.0
34,20,1,1,13,25,625,892.0770621042466,892.7656463845633,"[83, 0, 171]",171,l,0.16518771249684505,1,colour,0.06,4.0
34,20,1,1,13,26,626,893.2802479964157,894.085697946779,"[78, 0, 176]",176,l,0.28071942905080505,1,colour,0.06,4.0
34,20,1,1,13,27,627,894.5941618758661,896.3656580423703,"[84, 0, 170]",170,l,1.2482933705032337,1,colour,0.06,4.0
34,20,1,1,13,28,628,896.874523299688,897.9336359114386,"[86, 0, 168]",168,l,0.5357861483935267,1,colour,0.06,4.0
34,20,1,1,13,29,629,898.4527502009587,899.245666029572,"[92, 0, 162]",162,l,0.26982173387659714,1,colour,0.06,4.0
34,20,1,1,13,30,630,899.7653210684657,900.5497085742827,"[61, 0, 193]",193,a,0.26098463649395853,0,colour,0.06,4.0
34,20,1,1,13,31,631,901.0635394311976,901.9656484325533,"[99, 0, 155]",155,l,0.37868722749408334,1,colour,0.06,4.0
34,20,1,1,13,32,632,902.4850187214324,903.2856011396216,"[50, 0, 204]",204,a,0.2781330479774624,1,colour,0.06,4.0
34,20,1,1,13,33,633,903.7977286162786,904.3975984898279,"[89, 0, 165]",165,l,0.07667377294274047,1,colour,0.06,4.0
34,20,1,1,13,34,634,904.9080202231708,905.5176799055189,"[52, 0, 202]",202,a,0.08716738302609883,0,colour,0.06,4.0
34,20,1,1,13,35,635,906.0322220467497,906.5576457355055,"[96, 0, 158]",158,l,0.002155120630050078,1,colour,0.06,4.0
34,20,1,1,13,36,636,907.0791242774576,907.7176252398058,"[68, 0, 186]",186,a,0.11511187761789188,0,colour,0.06,4.0
34,20,1,1,13,37,637,908.2355973783997,908.7736185980029,"[57, 0, 197]",197,a,0.014990533934906125,0,colour,0.06,4.0
34,20,1,1,13,38,638,909.2824885814334,909.8616532280284,"[11, 0, 243]",243,a,0.0559559429239016,1,colour,0.06,4.0
34,20,1,1,13,39,639,910.3762524767953,910.9176154724555,"[60, 0, 194]",194,a,0.018083399860188365,0,colour,0.06,4.0
34,20,1,1,13,40,640,911.4388297442929,912.0456123878539,"[90, 0, 164]",164,l,0.08337504809605889,1,colour,0.06,4.0
34,20,1,1,13,41,641,912.5640319345403,913.2536157938302,"[74, 0, 180]",180,l,0.16635979566490278,1,colour,0.06,4.0
34,20,1,1,13,42,642,913.767144177662,915.6375773955078,"[36, 0, 218]",218,a,1.3471910373482388,1,colour,0.06,4.0
34,20,1,1,13,43,643,916.1438448502158,916.9496339012403,"[65, 0, 189]",189,a,0.28276230380288325,0,colour,0.06,4.0
34,20,1,1,13,44,644,917.4564350161527,918.0695648680557,"[88, 0, 166]",166,l,0.0898608899442479,1,colour,0.06,4.0
34,20,1,1,13,45,645,918.5815426835616,920.0055512473336,"[56, 0, 198]",198,a,0.9007411771744955,0,colour,0.06,4.0
34,20,1,1,13,46,646,920.5213225792686,921.2055647168308,"[59, 0, 195]",195,a,0.16118782121338882,0,colour,0.06,4.0
34,20,1,1,13,47,647,921.7246455295244,922.3416177346953,"[54, 0, 200]",200,a,0.0937158462475054,0,colour,0.06,4.0
34,20,1,1,13,48,648,922.8496003850305,923.4375658952049,"[93, 0, 161]",161,l,0.0651916115602944,1,colour,0.06,4.0
34,20,1,1,13,49,649,923.946714721038,924.5895456169092,"[64, 0, 190]",190,a,0.1194922233116813,0,colour,0.06,4.0
34,20,1,1,13,50,650,925.102982234821,925.6775648869807,"[71, 0, 183]",183,a,0.051389308442594483,0,colour,0.06,4.0
34,20,1,1,14,1,651,932.2885218952433,933.5256580266287,"[51, 0, 203]",203,a,0.7129502979223616,0,colour,0.06,4.0
34,20,1,1,14,2,652,934.0394313821453,935.0375767653459,"[71, 0, 183]",183,l,0.4750603469146881,1,colour,0.06,4.0
34,20,1,1,14,3,653,935.5552440678002,936.4055903955305,"[79, 0, 175]",175,l,0.3269844182941597,1,colour,0.06,4.0
34,20,1,1,14,4,654,936.9147872704489,937.4695622686995,"[75, 0, 179]",179,l,0.03140639344928786,1,colour,0.06,4.0
34,20,1,1,14,5,655,937.9772227536887,938.637599056965,"[97, 0, 157]",157,l,0.13697500934358686,1,colour,0.06,4.0
34,20,1,1,14,6,656,939.14924525487,939.7736162349174,"[83, 0, 171]",171,l,0.10098307684529573,1,colour,0.06,4.0
34,20,1,1,14,7,657,940.289979122259,941.2695826698618,"[68, 0, 186]",186,l,0.456295201118337,1,colour,0.06,4.0
34,20,1,1,14,8,658,941.7801355536212,942.3256347109855,"[89, 0, 165]",165,l,0.021984829858411103,1,colour,0.06,4.0
34,20,1,1,14,9,659,942.8426754058164,943.3735215545457,"[53, 0, 201]",201,a,0.007428707118378952,0,colour,0.06,4.0
34,20,1,1,14,10,660,943.8896197779686,944.6614857650711,"[74, 0, 180]",180,l,0.24911493150284514,1,colour,0.06,4.0
34,20,1,1,14,11,661,945.1708941348188,945.8375227297947,"[78, 0, 176]",176,l,0.1434313128120266,1,colour,0.06,4.0
34,20,1,1,14,12,662,946.3585767066688,946.9815231488319,"[69, 0, 185]",185,a,0.09957350508193485,0,colour,0.06,4.0
34,20,1,1,14,13,663,947.4992605557491,948.8934613435122,"[50, 0, 204]",204,a,0.8711736467084847,1,colour,0.06,4.0
34,20,1,1,14,14,664,949.4057069736882,950.2695700668264,"[95, 0, 159]",159,l,0.34073946002172306,1,colour,0.06,4.0
34,20,1,1,14,15,665,950.7819909581158,951.6374919310911,"[76, 0, 178]",178,l,0.33207998677971773,1,colour,0.06,4.0
34,20,1,1,14,16,666,952.1572115606104,952.8455154231633,"[66, 0, 188]",188,a,0.16490020553465,0,colour,0.06,4.0
34,20,1,1,14,17,667,953.3604403818899,953.8855190623144,"[59, 0, 195]",195,a,0.002792362094623968,0,colour,0.06,4.0
34,20,1,1,14,18,668,954.4061929786112,955.1494543866429,"[81, 0, 173]",173,l,0.2201688886852935,1,colour,0.06,4.0
34,20,1,1,14,19,669,955.656280313764,956.4214907117421,"[61, 0, 193]",193,a,0.24037747693364508,0,colour,0.06,4.0
34,20,1,1,14,20,670,956.9391001189942,957.637481691112,"[52, 0, 202]",202,a,0.17500075814314187,0,colour,0.06,4.0
34,20,1,1,14,21,671,958.1578838542919,959.685509925097,"[98, 0, 156]",156,l,1.0042298968764953,1,colour,0.06,4.0
34,20,1,1,14,22,672,960.2049715860339,962.2214764545497,"[94, 0, 160]",160,l,1.4930578885250725,1,colour,0.06,4.0
34,20,1,1,14,23,673,962.7364687607915,963.973667119717,"[72, 0, 182]",182,l,0.7141361656540539,1,colour,0.06,4.0
34,20,1,1,14,24,674,964.4865570805559,965.4614604802046,"[86, 0, 168]",168,l,0.4517427450919058,1,colour,0.06,4.0
34,20,1,1,14,25,675,965.9709728250746,966.5175148843846,"[80, 0, 174]",174,l,0.0231966913852375,1,colour,0.06,4.0
34,20,1,1,14,26,676,967.0336367385171,969.0054642075556,"[57, 0, 197]",197,a,1.4488196264137514,0,colour,0.06,4.0
34,20,1,1,14,27,677,969.5181954487925,970.253466132679,"[96, 0, 158]",158,l,0.21201826340984553,1,colour,0.06,4.0
34,20,1,1,14,28,678,970.7683194115525,971.5814741545182,"[64, 0, 190]",190,a,0.2886483195470646,0,colour,0.06,4.0
34,20,1,1,14,29,679,972.0978917863104,974.1734820912825,"[63, 0, 191]",191,a,1.552208309440175,0,colour,0.06,4.0
34,20,1,1,14,30,680,974.6917700936901,975.5494454857253,"[40, 0, 214]",214,a,0.3342445597227197,1,colour,0.06,4.0
34,20,1,1,14,31,681,976.0668772688077,976.8773893108009,"[84, 0, 170]",170,l,0.2870886927412357,1,colour,0.06,4.0
34,20,1,1,14,32,682,977.3951192346576,978.1335320150829,"[54, 0, 200]",200,a,0.21362239465815946,0,colour,0.06,4.0
34,20,1,1,14,33,683,978.6466185046593,979.4614620555949,"[65, 0, 189]",189,a,0.2915411121211946,0,colour,0.06,4.0
34,20,1,1,14,34,684,979.9747517692449,980.5974292152096,"[60, 0, 194]",194,a,0.09928442275850102,0,colour,0.06,4.0
34,20,1,1,14,35,685,981.1155147812096,981.7174554925587,"[99, 0, 155]",155,l,0.07861779260565527,1,colour,0.06,4.0
34,20,1,1,14,36,686,982.240686251549,982.9014504922961,"[55, 0, 199]",199,a,0.13737909446354024,0,colour,0.06,4.0
34,20,1,1,14,37,687,983.4125646053872,984.8854115425784,"[62, 0, 192]",192,a,0.9498103438818362,0,colour,0.06,4.0
34,20,1,1,14,38,688,985.3970494696987,986.2294179480814,"[67, 0, 187]",187,a,0.30630676046712324,0,colour,0.06,4.0
34,20,1,1,14,39,689,986.743595782551,987.549392710469,"[2, 0, 252]",252,a,0.28253269210108556,1,colour,0.06,4.0
34,20,1,1,14,40,690,988.0561930376862,988.7893857945455,"[91, 0, 163]",163,l,0.20990134571911767,1,colour,0.06,4.0
34,20,1,1,14,41,691,989.3062977020454,989.8774180615146,"[8, 0, 246]",246,a,0.04776317620417103,1,colour,0.06,4.0
34,20,1,1,14,42,692,990.3844818711223,990.9733579512686,"[58, 0, 196]",196,a,0.0656232658366207,0,colour,0.06,4.0
34,20,1,1,14,43,693,991.4827056688955,992.0294391369389,"[88, 0, 166]",166,l,0.023343989450950176,1,colour,0.06,4.0
34,20,1,1,14,44,694,992.5453703700041,993.9254163632286,"[90, 0, 164]",164,l,0.8566387915925588,1,colour,0.06,4.0
34,20,1,1,14,45,695,994.4361685326439,995.2053996957256,"[73, 0, 181]",181,l,0.24613431145553477,1,colour,0.06,4.0
34,20,1,1,14,46,696,995.717472821736,996.2613962046744,"[92, 0, 162]",162,l,0.02048703678883612,1,colour,0.06,4.0
34,20,1,1,14,47,697,996.7801158613584,998.2774272774695,"[56, 0, 198]",198,a,0.9736458520637825,0,colour,0.06,4.0
34,20,1,1,14,48,698,998.7971035840455,999.6133531621308,"[82, 0, 172]",172,l,0.29286285644047894,1,colour,0.06,4.0
34,20,1,1,14,49,699,1000.1253030146181,1000.7573527934728,"[87, 0, 167]",167,l,0.10862485421239398,1,colour,0.06,4.0
34,20,1,1,14,50,700,1001.2660809926747,1003.013404913363,"[93, 0, 161]",161,l,1.2251561497396324,1,colour,0.06,4.0
34,20,1,1,15,1,701,1008.7825785750756,1009.4774116024491,"[83, 0, 171]",171,l,0.170575514115626,1,colour,0.06,4.0
34,20,1,1,15,2,702,1009.9866541633965,1010.5813422163774,"[72, 0, 182]",182,l,0.07122138075646944,1,colour,0.06,4.0
34,20,1,1,15,3,703,1011.0961466584704,1011.6454302738421,"[54, 0, 200]",200,a,0.025926432077540085,0,colour,0.06,4.0
34,20,1,1,15,4,704,1012.1586400369706,1012.9253856433206,"[74, 0, 180]",180,l,0.24335061394958757,1,colour,0.06,4.0
34,20,1,1,15,5,705,1013.4400616919156,1014.0054701152258,"[52, 0, 202]",202,a,0.04211976908845827,0,colour,0.06,4.0
34,20,1,1,15,6,706,1014.5182403471554,1015.1413411766407,"[96, 0, 158]",158,l,0.099890550452983,1,colour,0.06,4.0
34,20,1,1,15,7,707,1015.6588560610253,1016.9973147638084,"[50, 0, 204]",204,a,0.8149199569015764,1,colour,0.06,4.0
34,20,1,1,15,8,708,1017.5053549155127,1018.2853250541957,"[80, 0, 174]",174,l,0.2567669488489628,1,colour,0.06,4.0
34,20,1,1,15,9,709,1018.8023169122171,1019.5173518325028,"[55, 0, 199]",199,a,0.19195382244652137,0,colour,0.06,4.0
34,20,1,1,15,10,710,1020.0368064042414,1020.5654056664207,"[53, 0, 201]",201,a,0.005170792923308909,0,colour,0.06,4.0
34,20,1,1,15,11,711,1021.0837153303146,1022.6453396894794,"[85, 0, 169]",169,l,1.0383136496238876,1,colour,0.06,4.0
34,20,1,1,15,12,712,1023.1620534928225,1023.9655200390262,"[60, 0, 194]",194,a,0.2801534735772293,0,colour,0.06,4.0
34,20,1,1,15,13,713,1024.4745932465885,1025.093304278067,"[64, 0, 190]",190,a,0.0952833499177359,0,colour,0.06,4.0
34,20,1,1,15,14,714,1025.599749750807,1027.1893126968935,"[39, 0, 215]",215,a,1.0662286058359314,1,colour,0.06,4.0
34,20,1,1,15,15,715,1027.7092599689204,1028.317324972275,"[78, 0, 176]",176,l,0.08464677407755516,1,colour,0.06,4.0
34,20,1,1,15,16,716,1028.8358520386682,1029.4453014077153,"[90, 0, 164]",164,l,0.0863982034206856,1,colour,0.06,4.0
34,20,1,1,15,17,717,1029.9609195338853,1030.541322035744,"[93, 0, 161]",161,l,0.05709533690242097,1,colour,0.06,4.0
34,20,1,1,15,18,718,1031.0547472321487,1032.5576516431756,"[89, 0, 165]",165,l,0.979527141636936,1,colour,0.06,4.0
34,20,1,1,15,19,719,1033.0705167917768,1033.8293110585073,"[57, 0, 197]",197,a,0.23545441261376254,0,colour,0.06,4.0
34,20,1,1,15,20,720,1034.3362437176693,1035.0292934142344,"[68, 0, 186]",186,a,0.16823292316985317,0,colour,0.06,4.0
34,20,1,1,15,21,721,1035.5304649066238,1036.1652475769806,"[95, 0, 159]",159,l,0.11152828065678477,1,colour,0.06,4.0
34,20,1,1,15,22,722,1036.686789527972,1038.9732657915156,"[61, 0, 193]",193,a,1.7631832770130131,0,colour,0.06,4.0
34,20,1,1,15,23,723,1039.4838466382644,1040.1012804299535,"[98, 0, 156]",156,l,0.09409118065377697,1,colour,0.06,4.0
34,20,1,1,15,24,724,1040.6087790446181,1041.1333602986124,"[69, 0, 185]",185,a,0.0010976464254781604,0,colour,0.06,4.0
34,20,1,1,15,25,725,1041.6558462964313,1043.2372645249125,"[71, 0, 183]",183,a,1.0581354819296394,0,colour,0.06,4.0
34,20,1,1,15,26,726,1043.751227713772,1044.3652460803569,"[92, 0, 162]",162,l,0.09067930016317405,1,colour,0.06,4.0
34,20,1,1,15,27,727,1044.87637082726,1045.4212276231847,"[73, 0, 181]",181,a,0.021558689419180155,0,colour,0.06,4.0
34,20,1,1,15,28,728,1045.9389591224317,1046.4612895514001,"[40, 0, 214]",214,a,0.01079726466559805,1,colour,0.06,4.0
34,20,1,1,15,29,729,1046.9697152775188,1047.5252700891579,"[99, 0, 155]",155,l,0.03260250115999952,1,colour,0.06,4.0
34,20,1,1,15,30,730,1048.032336261822,1048.5973453261831,"[56, 0, 198]",198,a,0.0416089519567322,0,colour,0.06,4.0
34,20,1,1,15,31,731,1049.1106433105888,1049.7732830419263,"[77, 0, 177]",177,l,0.137227857921971,1,colour,0.06,4.0
34,20,1,1,15,32,732,1050.2845814745524,1051.7332293844665,"[79, 0, 175]",175,l,0.9253391695965547,1,colour,0.06,4.0
34,20,1,1,15,33,733,1052.2535342678893,1052.9892637813464,"[75, 0, 179]",179,l,0.21231601032195613,1,colour,0.06,4.0
34,20,1,1,15,34,734,1053.5037003720645,1054.9012831081054,"[86, 0, 168]",168,l,0.8742692695814185,1,colour,0.06,4.0
34,20,1,1,15,35,735,1055.4100376949064,1056.181243991392,"[6, 0, 248]",248,a,0.24837489647325128,1,colour,0.06,4.0
34,20,1,1,15,36,736,1056.6913018118066,1057.8292697047582,"[65, 0, 189]",189,a,0.6145331221632659,0,colour,0.06,4.0
34,20,1,1,15,37,737,1058.347727848275,1059.6212131296925,"[94, 0, 160]",160,l,0.7500902889878489,1,colour,0.06,4.0
34,20,1,1,15,38,738,1060.1292324076348,1061.2452280737634,"[87, 0, 167]",167,l,0.5927251287794206,1,colour,0.06,4.0
34,20,1,1,15,39,739,1061.7543564196094,1062.3252444104583,"[88, 0, 166]",166,l,0.04796600644476712,1,colour,0.06,4.0
34,20,1,1,15,40,740,1062.8325331056258,1063.541228694463,"[76, 0, 178]",178,l,0.1854786144103855,1,colour,0.06,4.0
34,20,1,1,15,41,741,1064.0513156593952,1064.6371859134233,"[51, 0, 203]",203,a,0.06260129204019904,0,colour,0.06,4.0
34,20,1,1,15,42,742,1065.1450594686612,1065.72522211881,"[82, 0, 172]",172,l,0.05673063630820252,1,colour,0.06,4.0
34,20,1,1,15,43,743,1066.2389619975002,1067.4531637383625,"[84, 0, 170]",170,l,0.6907961146498565,1,colour,0.06,4.0
34,20,1,1,15,44,744,1067.959172042989,1068.557212899701,"[62, 0, 192]",192,a,0.0746616180986166,0,colour,0.06,4.0
34,20,1,1,15,45,745,1069.0686279104557,1070.1332582927134,"[59, 0, 195]",195,a,0.5414386139309499,0,colour,0.06,4.0
34,20,1,1,15,46,746,1070.6468760793796,1071.3571679225715,"[81, 0, 173]",173,l,0.18691929994383827,1,colour,0.06,4.0
34,20,1,1,15,47,747,1071.8657181037706,1072.4772095598746,"[66, 0, 188]",188,a,0.08846195199294016,0,colour,0.06,4.0
34,20,1,1,15,48,748,1072.990803321998,1074.4291903843405,"[97, 0, 157]",157,l,0.9150054606434423,1,colour,0.06,4.0
34,20,1,1,15,49,749,1074.944038543268,1075.8292110218317,"[67, 0, 187]",187,l,0.35963299934519455,1,colour,0.06,4.0
34,20,1,1,15,50,750,1076.3365721845184,1076.885251247615,"[63, 0, 191]",191,a,0.02529746139771305,0,colour,0.06,4.0
34,20,1,1,16,1,751,1081.3986142164795,1081.9257239563158,"[81, 0, 173]",173,l,0.002877826482290402,1,colour,0.06,4.0
34,20,1,1,16,2,752,1082.4463781803497,1083.0051633098628,"[67, 0, 187]",187,a,0.03548662914545275,0,colour,0.06,4.0
34,20,1,1,16,3,753,1083.5246344230836,1085.101139039558,"[76, 0, 178]",178,a,1.0531505839317106,0,colour,0.06,4.0
34,20,1,1,16,4,754,1085.6185708226112,1086.1811715239019,"[93, 0, 161]",161,l,0.039462495915358886,1,colour,0.06,4.0
34,20,1,1,16,5,755,1086.6967356932873,1087.3171591634455,"[78, 0, 176]",176,l,0.0974223228986375,1,colour,0.06,4.0
34,20,1,1,16,6,756,1087.8374451423006,1089.1091415790725,"[72, 0, 182]",182,l,0.7483869087591302,1,colour,0.06,4.0
34,20,1,1,16,7,757,1089.6188382434775,1090.4371432993794,"[75, 0, 179]",179,l,0.295120770635549,1,colour,0.06,4.0
34,20,1,1,16,8,758,1090.9470928123628,1091.4852250962867,"[79, 0, 175]",175,l,0.010432957904413342,1,colour,0.06,4.0
34,20,1,1,16,9,759,1091.9984718808264,1092.5731695357536,"[50, 0, 204]",204,a,0.05130581324920058,1,colour,0.06,4.0
34,20,1,1,16,10,760,1093.0922330192698,1094.4692802755744,"[60, 0, 194]",194,a,0.8535801902180538,0,colour,0.06,4.0
34,20,1,1,16,11,761,1094.983069384878,1096.709191439848,"[55, 0, 199]",199,a,1.2026758626743685,0,colour,0.06,4.0
34,20,1,1,16,12,762,1097.2176884519577,1098.2611988882418,"[71, 0, 183]",183,a,0.5202221759245731,0,colour,0.06,4.0
34,20,1,1,16,13,763,1098.7802785194071,1100.1730996676488,"[85, 0, 169]",169,l,0.8694293065927923,1,colour,0.06,4.0
34,20,1,1,16,14,764,1100.6867190297053,1101.4291218552971,"[95, 0, 159]",159,l,0.2190673038130626,1,colour,0.06,4.0
34,20,1,1,16,15,765,1101.9367917925701,1102.7251212944684,"[91, 0, 163]",163,l,0.26492348179453984,1,colour,0.06,4.0
34,20,1,1,16,16,766,1103.2337526077463,1104.029060651752,"[59, 0, 195]",195,a,0.2710899152443744,0,colour,0.06,4.0
34,20,1,1,16,17,767,1104.5482592241606,1105.3411104621482,"[32, 0, 222]",222,a,0.27014153613708913,1,colour,0.06,4.0
34,20,1,1,16,18,768,1105.8602601977473,1106.6451049577736,"[96, 0, 158]",158,l,0.26156358886510134,1,colour,0.06,4.0
34,20,1,1,16,19,769,1107.1569366567128,1107.9010724009422,"[61, 0, 193]",193,a,0.22074193335720338,0,colour,0.06,4.0
34,20,1,1,16,20,770,1108.4070243856986,1109.2531014320557,"[58, 0, 196]",196,a,0.3229427794285584,0,colour,0.06,4.0
34,20,1,1,16,21,771,1109.7677491237991,1110.5410896671237,"[92, 0, 162]",162,l,0.2500625229149591,1,colour,0.06,4.0
34,20,1,1,16,22,772,1111.0490798005194,1111.6850916615513,"[89, 0, 165]",165,l,0.11296620927168988,1,colour,0.06,4.0
34,20,1,1,16,23,773,1112.2053855172999,1112.8530800068984,"[68, 0, 186]",186,a,0.12432273404556327,0,colour,0.06,4.0
34,20,1,1,16,24,774,1113.3617696092697,1115.1650939773535,"[24, 0, 230]",230,a,1.27998096938245,1,colour,0.06,4.0
34,20,1,1,16,25,775,1115.674522039364,1116.4450910944142,"[77, 0, 177]",177,l,0.24738122517010197,1,colour,0.06,4.0
34,20,1,1,16,26,776,1116.955805454665,1117.7490788946743,"[65, 0, 189]",189,a,0.2698288231040351,0,colour,0.06,4.0
34,20,1,1,16,27,777,1118.2681990918645,1118.9331176112173,"[99, 0, 155]",155,l,0.14051095105241984,1,colour,0.06,4.0
34,20,1,1,16,28,778,1119.4416417986213,1120.1651191834535,"[69, 0, 185]",185,a,0.20010444772196934,0,colour,0.06,4.0
34,20,1,1,16,29,779,1120.676332939358,1122.3891142777284,"[90, 0, 164]",164,l,1.1897199327941053,1,colour,0.06,4.0
34,20,1,1,16,30,780,1122.9105731273885,1124.7491159161145,"[73, 0, 181]",181,a,1.3151706393109635,0,colour,0.06,4.0
34,20,1,1,16,31,781,1125.2701758006588,1126.1650565620803,"[64, 0, 190]",190,a,0.371475135179935,0,colour,0.06,4.0
34,20,1,1,16,32,782,1126.6765515234147,1127.389035508677,"[83, 0, 171]",171,l,0.1892221125017386,1,colour,0.06,4.0
34,20,1,1,16,33,783,1127.895451443037,1128.5810354110145,"[70, 0, 184]",184,a,0.16219842786085792,0,colour,0.06,4.0
34,20,1,1,16,34,784,1129.0985873168393,1130.8050470467715,"[57, 0, 197]",197,a,1.1831186942872591,0,colour,0.06,4.0
34,20,1,1,16,35,785,1131.3188826298283,1132.0850827606628,"[52, 0, 202]",202,a,0.24304262705845758,0,colour,0.06,4.0
34,20,1,1,16,36,786,1132.600287743262,1133.229093419679,"[56, 0, 198]",198,a,0.10543825314380229,0,colour,0.06,4.0
34,20,1,1,16,37,787,1133.740979863098,1134.4610304012895,"[97, 0, 157]",157,l,0.19748380212695338,1,colour,0.06,4.0
34,20,1,1,16,38,788,1134.9753196939419,1135.709074073995,"[86, 0, 168]",168,l,0.20907584630185738,1,colour,0.06,4.0
34,20,1,1,16,39,789,1136.2277185062703,1136.8770143702277,"[74, 0, 180]",180,l,0.1258169825305231,1,colour,0.06,4.0
34,20,1,1,16,40,790,1137.3840364322532,1138.925111133256,"[51, 0, 203]",203,a,1.01757770270342,0,colour,0.06,4.0
34,20,1,1,16,41,791,1139.431188360788,1140.2370404270187,"[63, 0, 191]",191,a,0.28238893861998804,0,colour,0.06,4.0
34,20,1,1,16,42,792,1140.743785222061,1141.493041740905,"[53, 0, 201]",201,a,0.224462982325349,0,colour,0.06,4.0
34,20,1,1,16,43,793,1142.0132335907256,1142.6290742788115,"[94, 0, 160]",160,l,0.09291279601166025,1,colour,0.06,4.0
34,20,1,1,16,44,794,1143.1383262920426,1143.7490131225204,"[80, 0, 174]",174,l,0.08739423780934885,1,colour,0.06,4.0
34,20,1,1,16,45,795,1144.2634359286749,1144.9170050124812,"[98, 0, 156]",156,l,0.1300007995159831,1,colour,0.06,4.0
34,20,1,1,16,46,796,1145.43544267604,1146.1410339774156,"[62, 0, 192]",192,a,0.18238377926172689,0,colour,0.06,4.0
34,20,1,1,16,47,797,1146.6541858452838,1147.22904773365,"[54, 0, 200]",200,a,0.05189815638004802,0,colour,0.06,4.0
34,20,1,1,16,48,798,1147.748084435676,1148.357006052218,"[82, 0, 172]",172,l,0.08602917054668069,1,colour,0.06,4.0
34,20,1,1,16,49,799,1148.874604431796,1150.2850072211586,"[87, 0, 167]",167,l,0.8869904677849263,1,colour,0.06,4.0
34,20,1,1,16,50,800,1150.7966494805878,1151.51702572871,"[4, 0, 250]",250,a,0.19695644348394126,1,colour,0.06,4.0
