id,age,condition,counterbalance,block,trialinblock,trial,tstart,tend,trialstim,trialintensity,response,RT,accuracy,trialtype,colourfreq,credits
55,22,0,2,Practice,1,NA,5.907699232921004e-06,2.039539311284898,"[69, 0, 185]",185,a,1.5152965576271527,0,colour,0.5,4
55,22,0,2,Practice,2,NA,2.5353062619979028,3.647491126670502,"[62, 0, 192]",192,a,0.5890661455341615,0,colour,0.5,4
55,22,0,2,Practice,3,NA,4.160119382402627,5.183538605517242,"[40, 0, 214]",214,a,0.5000539568136446,1,colour,0.5,4
55,22,0,2,Practice,4,NA,5.691449776059017,6.711518163385335,"[58, 0, 196]",196,a,0.4967086348333396,0,colour,0.5,4
55,22,0,2,Practice,5,NA,7.223798259859905,8.255515409604413,"[41, 0, 213]",213,a,0.5087272180244327,1,colour,0.5,4
55,22,0,2,Practice,6,NA,8.770331475971034,9.735501766816014,"[10, 0, 244]",244,a,0.4420433009508997,1,colour,0.5,4
55,22,0,2,Practice,7,NA,10.254804124997463,10.959512309258571,"[84, 0, 170]",170,l,0.18130865340935998,1,colour,0.5,4
55,22,0,2,Practice,8,NA,11.473530051211128,12.03147493491997,"[8, 0, 246]",246,a,0.03495692121214233,1,colour,0.5,4
55,22,0,2,Practice,9,NA,12.551715432608034,13.151571757829515,"[78, 0, 176]",176,l,0.07655486185103655,1,colour,0.5,4
55,22,0,2,Practice,10,NA,13.661050432681805,25.23147548630368,"[14, 0, 240]",240,l,11.04715746094007,0,colour,0.5,4
55,22,0,2,1,1,1,4.587570321076782,5.679968791693682,"[42, 0, 212]",212,a,0.5682833228493109,1,colour,0.5,4.0
55,22,0,2,1,2,2,6.1977965930709615,7.143998506537173,"[92, 0, 162]",162,l,0.4228653978498187,1,colour,0.5,4.0
55,22,0,2,1,3,3,7.650845900934655,8.655952499102568,"[29, 0, 225]",225,a,0.4817771717789583,1,colour,0.5,4.0
55,22,0,2,1,4,4,9.163410747569287,10.159968933468917,"[82, 0, 172]",172,l,0.4732638117566239,1,colour,0.5,4.0
55,22,0,2,1,5,5,10.681477613048628,11.69596875703428,"[98, 0, 156]",156,l,0.49120779751683585,1,colour,0.5,4.0
55,22,0,2,1,6,6,12.212714271532604,13.183985226060031,"[4, 0, 250]",250,a,0.44806913402862847,1,colour,0.5,4.0
55,22,0,2,1,7,7,13.69705419469392,14.776011119043687,"[39, 0, 215]",215,a,0.5555341566214338,1,colour,0.5,4.0
55,22,0,2,1,8,8,15.29076495784102,16.312022364116274,"[33, 0, 221]",221,a,0.4979264044959564,1,colour,0.5,4.0
55,22,0,2,1,9,9,16.82202879167744,17.760010759840952,"[3, 0, 251]",251,a,0.41523149437853135,1,colour,0.5,4.0
55,22,0,2,1,10,10,18.27513323785388,19.375982053257758,"[14, 0, 240]",240,a,0.5776466010429431,1,colour,0.5,4.0
55,22,0,2,1,11,11,19.884502896340564,20.927914494619472,"[70, 0, 184]",184,l,0.5201357348705642,1,colour,0.5,4.0
55,22,0,2,1,12,12,21.44704986238503,22.38397829438327,"[77, 0, 177]",177,l,0.41318034805590287,1,colour,0.5,4.0
55,22,0,2,1,13,13,22.902228691789787,23.863972922350513,"[51, 0, 203]",203,l,0.45040266745490953,1,colour,0.5,4.0
55,22,0,2,1,14,14,24.363516849494772,25.271954118594294,"[43, 0, 211]",211,a,0.38529767614090815,1,colour,0.5,4.0
55,22,0,2,1,15,15,25.785314138891408,26.711969903903082,"[84, 0, 170]",170,l,0.4033944738621358,1,colour,0.5,4.0
55,22,0,2,1,16,16,27.214956038980745,28.143962666625157,"[85, 0, 169]",169,l,0.4058642777672503,1,colour,0.5,4.0
55,22,0,2,1,17,17,28.646688863780582,29.54400472927955,"[91, 0, 163]",163,l,0.3739332699915394,1,colour,0.5,4.0
55,22,0,2,1,18,18,30.053796117310412,30.951953236392,"[96, 0, 158]",158,l,0.375743776850868,1,colour,0.5,4.0
55,22,0,2,1,19,19,31.446906108845724,32.37594385026023,"[48, 0, 206]",206,a,0.405682715063449,1,colour,0.5,4.0
55,22,0,2,1,20,20,32.88440325346892,33.84808362752665,"[5, 0, 249]",249,a,0.4403706399316434,1,colour,0.5,4.0
55,22,0,2,1,21,21,34.368706549023045,35.36795824294677,"[10, 0, 244]",244,a,0.4760081258136779,1,colour,0.5,4.0
55,22,0,2,1,22,22,35.884433185710805,36.80792794836452,"[97, 0, 157]",157,l,0.40010429025278427,1,colour,0.5,4.0
55,22,0,2,1,23,23,37.32195868718554,38.31189672744949,"[19, 0, 235]",235,a,0.4667661519779358,1,colour,0.5,4.0
55,22,0,2,1,24,24,38.82188188735745,39.74389264092315,"[8, 0, 246]",246,a,0.3987029886629898,1,colour,0.5,4.0
55,22,0,2,1,25,25,40.25935343204765,41.23989392956719,"[55, 0, 199]",199,a,0.45730165555141866,0,colour,0.5,4.0
55,22,0,2,1,26,26,41.7594420472451,42.67195364597137,"[16, 0, 238]",238,a,0.38937358115799725,1,colour,0.5,4.0
55,22,0,2,1,27,27,43.18127045041183,44.15988898288924,"[94, 0, 160]",160,l,0.4553899304883089,1,colour,0.5,4.0
55,22,0,2,1,28,28,44.681314167246455,45.59989413438598,"[22, 0, 232]",232,a,0.3953297036641743,1,colour,0.5,4.0
55,22,0,2,1,29,29,46.11873923818348,47.095898967643734,"[60, 0, 194]",194,l,0.45392443210585043,1,colour,0.5,4.0
55,22,0,2,1,30,30,47.60308428131975,48.48788098624209,"[40, 0, 214]",214,a,0.3616358443396166,1,colour,0.5,4.0
55,22,0,2,1,31,31,49.00934791821055,49.90389702047105,"[9, 0, 245]",245,a,0.3714272323413752,1,colour,0.5,4.0
55,22,0,2,1,32,32,50.40316171129234,51.399888462998206,"[45, 0, 209]",209,a,0.47351823581266217,1,colour,0.5,4.0
55,22,0,2,1,33,33,51.91871741914656,52.87187030832865,"[64, 0, 190]",190,l,0.42987623807857744,1,colour,0.5,4.0
55,22,0,2,1,34,34,53.387503209844,54.36784993548645,"[34, 0, 220]",220,a,0.4571437236154452,1,colour,0.5,4.0
55,22,0,2,1,35,35,54.887463825318264,55.79988090117695,"[76, 0, 178]",178,l,0.3891664185503032,1,colour,0.5,4.0
55,22,0,2,1,36,36,56.312340197269805,57.25586475036107,"[72, 0, 182]",182,l,0.42028098498121835,1,colour,0.5,4.0
55,22,0,2,1,37,37,57.765518686384894,58.799852150463266,"[35, 0, 219]",219,a,0.5112553109938744,1,colour,0.5,4.0
55,22,0,2,1,38,38,59.31434250678285,60.24790828759433,"[78, 0, 176]",176,l,0.410284797399072,1,colour,0.5,4.0
55,22,0,2,1,39,39,60.76744183298433,61.735861741384724,"[57, 0, 197]",197,l,0.44510938657913357,1,colour,0.5,4.0
55,22,0,2,1,40,40,62.251814051443944,63.175849563704105,"[71, 0, 183]",183,l,0.40067851668572985,1,colour,0.5,4.0
55,22,0,2,1,41,41,63.689294654584955,64.61584171830327,"[74, 0, 180]",180,l,0.40313571752631105,1,colour,0.5,4.0
55,22,0,2,1,42,42,65.12678943612264,65.99187300220365,"[32, 0, 222]",222,a,0.3418876532523427,1,colour,0.5,4.0
55,22,0,2,1,43,43,66.50175655004568,67.37587571502081,"[93, 0, 161]",161,l,0.35119264232343994,1,colour,0.5,4.0
55,22,0,2,1,44,44,67.89465583433048,68.77588193779229,"[62, 0, 192]",192,l,0.35788289248012006,1,colour,0.5,4.0
55,22,0,2,1,45,45,69.28531413889141,70.24787599229603,"[58, 0, 196]",196,a,0.43931474068085663,0,colour,0.5,4.0
55,22,0,2,1,46,46,70.75608727295185,71.67185439696186,"[47, 0, 207]",207,a,0.3925349774071947,1,colour,0.5,4.0
55,22,0,2,1,47,47,72.17986402884708,73.09585525080911,"[2, 0, 252]",252,a,0.3927515922987368,1,colour,0.5,4.0
55,22,0,2,1,48,48,73.61734620734933,74.59990713128354,"[26, 0, 228]",228,a,0.4592870297492482,1,colour,0.5,4.0
55,22,0,2,1,49,49,75.11730603512842,76.21579965561978,"[53, 0, 201]",201,a,0.5751850679225754,0,colour,0.5,4.0
55,22,0,2,1,50,50,76.72670838274644,77.60789667704375,"[18, 0, 236]",236,a,0.3579565415275283,1,colour,0.5,4.0
55,22,0,2,2,1,51,83.85407874069642,85.7038023400819,"[28, 0, 226]",226,a,1.3349126529938076,1,colour,0.5,4.0
55,22,0,2,2,2,52,86.22051674078102,87.13579707199824,"[72, 0, 182]",182,l,0.39197099092416465,1,colour,0.5,4.0
55,22,0,2,2,3,53,87.64243887914927,88.511824811314,"[10, 0, 244]",244,a,0.34639166813576594,1,colour,0.5,4.0
55,22,0,2,2,4,54,89.03303850072552,89.82382000007783,"[27, 0, 227]",227,a,0.26750799897126853,1,colour,0.5,4.0
55,22,0,2,2,5,55,90.329873008508,91.22381401364692,"[94, 0, 160]",160,l,0.3706285140942782,1,colour,0.5,4.0
55,22,0,2,2,6,56,91.73611852852628,93.27980030467734,"[56, 0, 198]",198,a,1.0203948850685265,0,colour,0.5,4.0
55,22,0,2,2,7,57,93.79868991297553,94.67178192944266,"[96, 0, 158]",158,l,0.34985947600216605,1,colour,0.5,4.0
55,22,0,2,2,8,58,95.1893029253115,96.03980948915705,"[33, 0, 221]",221,a,0.3272799310798291,1,colour,0.5,4.0
55,22,0,2,2,9,59,96.54865210384014,97.4317635447369,"[95, 0, 159]",159,l,0.3599108019261621,1,colour,0.5,4.0
55,22,0,2,2,10,60,97.93932104221312,98.87174349013367,"[21, 0, 233]",233,a,0.4093734393827617,1,colour,0.5,4.0
55,22,0,2,2,11,61,99.3923723193002,100.26377946554567,"[19, 0, 235]",235,a,0.34818405809346586,1,colour,0.5,4.0
55,22,0,2,2,12,62,100.78311451288755,101.56777644396061,"[13, 0, 241]",241,a,0.2614526275137905,1,colour,0.5,4.0
55,22,0,2,2,13,63,102.0799620175676,102.97587500608643,"[30, 0, 224]",224,a,0.37262491590809077,1,colour,0.5,4.0
55,22,0,2,2,14,64,103.48623668210348,104.399750223296,"[14, 0, 240]",240,a,0.39083199031301774,1,colour,0.5,4.0
55,22,0,2,2,15,65,104.90922811048222,105.91979143526987,"[32, 0, 222]",222,a,0.4872835229325574,1,colour,0.5,4.0
55,22,0,2,2,16,66,106.44133792398497,107.33576414652634,"[71, 0, 183]",183,l,0.37118029134580866,1,colour,0.5,4.0
55,22,0,2,2,17,67,107.8491714282427,108.7597740588244,"[87, 0, 167]",167,l,0.38726965957903303,1,colour,0.5,4.0
55,22,0,2,2,18,68,109.2710596959223,110.3117175278312,"[66, 0, 188]",188,l,0.5174095376569312,1,colour,0.5,4.0
55,22,0,2,2,19,69,110.81794185898616,111.68783073159284,"[99, 0, 155]",155,l,0.3466425475780852,1,colour,0.5,4.0
55,22,0,2,2,20,70,112.20855880976887,113.1357431151846,"[92, 0, 162]",162,l,0.40397657721769065,1,colour,0.5,4.0
55,22,0,2,2,21,71,113.64608706816216,114.53581511010998,"[47, 0, 207]",207,a,0.36644824006361887,1,colour,0.5,4.0
55,22,0,2,2,22,72,115.0523132897506,115.88775408928632,"[93, 0, 161]",161,l,0.3122311021143105,1,colour,0.5,4.0
55,22,0,2,2,23,73,116.39604492671788,117.35979264831985,"[45, 0, 209]",209,a,0.4404521659016609,1,colour,0.5,4.0
55,22,0,2,2,24,74,117.8803927267727,118.83176976747927,"[90, 0, 164]",164,l,0.4280972388223745,1,colour,0.5,4.0
55,22,0,2,2,25,75,119.34910723147914,120.31973621816724,"[25, 0, 229]",229,a,0.4471731359662954,1,colour,0.5,4.0
55,22,0,2,2,26,76,120.83354088981287,122.07187085968326,"[62, 0, 192]",192,a,0.7150182665209286,0,colour,0.5,4.0
55,22,0,2,2,27,77,122.58357791125309,123.5356949872803,"[70, 0, 184]",184,l,0.428891624789685,1,colour,0.5,4.0
55,22,0,2,2,28,78,124.05235543119488,124.9197516569111,"[37, 0, 217]",217,a,0.3441246945876628,1,colour,0.5,4.0
55,22,0,2,2,29,79,125.42731584975263,126.29572386402288,"[75, 0, 179]",179,l,0.34509000938851386,1,colour,0.5,4.0
55,22,0,2,2,30,80,126.80227390522487,127.68781655316707,"[11, 0, 243]",243,a,0.36221400924841873,1,colour,0.5,4.0
55,22,0,2,2,31,81,128.2085946496809,129.07174561687862,"[69, 0, 185]",185,l,0.34003067266894504,1,colour,0.5,4.0
55,22,0,2,2,32,82,129.58352828674833,130.46375323543907,"[83, 0, 171]",171,l,0.35700619281851687,1,colour,0.5,4.0
55,22,0,2,2,33,83,130.97418895436567,131.87975706046564,"[24, 0, 230]",230,a,0.38226231042062864,1,colour,0.5,4.0
55,22,0,2,2,34,84,132.39606895128964,133.19972958581639,"[52, 0, 202]",202,a,0.28042809409089386,0,colour,0.5,4.0
55,22,0,2,2,35,85,133.70850524681737,134.64766993242665,"[5, 0, 249]",249,a,0.4142291581083555,1,colour,0.5,4.0
55,22,0,2,2,36,86,135.16334103693953,136.10372034148895,"[26, 0, 228]",228,a,0.4294280421163421,1,colour,0.5,4.0
55,22,0,2,2,37,87,136.61972621449968,137.5517540294386,"[88, 0, 166]",166,l,0.4086889362661168,1,colour,0.5,4.0
55,22,0,2,2,38,88,138.07325995207066,138.91169476357754,"[9, 0, 245]",245,a,0.3155949348292779,1,colour,0.5,4.0
55,22,0,2,2,39,89,139.43253154307604,140.37564413397922,"[1, 0, 253]",253,a,0.4197106969950255,1,colour,0.5,4.0
55,22,0,2,2,40,90,140.88575453669182,141.8316697307746,"[78, 0, 176]",176,l,0.4226558721566107,1,colour,0.5,4.0
55,22,0,2,2,41,91,142.33889088436263,143.23170155347907,"[67, 0, 187]",187,l,0.3668775314290542,1,colour,0.5,4.0
55,22,0,2,2,42,92,143.74810914869886,144.6317251054279,"[57, 0, 197]",197,l,0.3603105548827443,1,colour,0.5,4.0
55,22,0,2,2,43,93,145.13872609948157,146.04783684405265,"[42, 0, 212]",212,a,0.3857813181821257,1,colour,0.5,4.0
55,22,0,2,2,44,94,146.56066832397482,147.5757033683185,"[79, 0, 175]",175,l,0.4918371622916311,1,colour,0.5,4.0
55,22,0,2,2,45,95,148.09185693331528,148.99968768068356,"[65, 0, 189]",189,l,0.3846903667144943,1,colour,0.5,4.0
55,22,0,2,2,46,96,149.51428161829244,150.42364087924943,"[3, 0, 251]",251,a,0.38671827616053633,1,colour,0.5,4.0
55,22,0,2,2,47,97,150.9362037566607,151.79964459399343,"[41, 0, 213]",213,a,0.3401697000663262,1,colour,0.5,4.0
55,22,0,2,2,48,98,152.31118662437075,153.28772053366993,"[76, 0, 178]",178,l,0.4532753750681877,1,colour,0.5,4.0
55,22,0,2,2,49,99,153.7955025229603,154.79169640198234,"[48, 0, 206]",206,a,0.4729085633007344,1,colour,0.5,4.0
55,22,0,2,2,50,100,155.30880582952523,156.27162604546174,"[36, 0, 218]",218,a,0.4396479338174686,1,colour,0.5,4.0
55,22,0,2,3,1,101,161.15217158422456,162.0876951700484,"[85, 0, 169]",169,l,0.41658592838211916,1,colour,0.5,4.0
55,22,0,2,3,2,102,162.6008614184393,163.67967183233122,"[59, 0, 195]",195,l,0.5657398698967882,1,colour,0.5,4.0
55,22,0,2,3,3,103,164.20013012649724,165.00764020497445,"[95, 0, 159]",159,l,0.2850904347433243,1,colour,0.5,4.0
55,22,0,2,3,4,104,165.5137641055626,166.32765999177354,"[33, 0, 221]",221,a,0.2906432596500963,1,colour,0.5,4.0
55,22,0,2,3,5,105,166.84182385032182,167.831656340044,"[44, 0, 210]",210,a,0.46663185075158253,1,colour,0.5,4.0
55,22,0,2,3,6,106,168.34182345648878,169.1036427539657,"[56, 0, 198]",198,a,0.2386852183553856,0,colour,0.5,4.0
55,22,0,2,3,7,107,169.6230884718243,170.16766151989577,"[86, 0, 168]",168,l,0.021392889058915898,1,colour,0.5,4.0
55,22,0,2,3,8,108,170.6855200412101,171.31967871673987,"[22, 0, 232]",232,a,0.11089226440526545,1,colour,0.5,4.0
55,22,0,2,3,9,109,171.82635754536022,172.71960498890257,"[70, 0, 184]",184,l,0.3703685761720408,1,colour,0.5,4.0
55,22,0,2,3,10,110,173.23233761364827,174.21563424059423,"[45, 0, 209]",209,a,0.45997350208926946,1,colour,0.5,4.0
55,22,0,2,3,11,111,174.73233879517647,175.56766459188657,"[8, 0, 246]",246,a,0.3120444194355514,1,colour,0.5,4.0
55,22,0,2,3,12,112,176.07609209363,177.0316557098995,"[47, 0, 207]",207,a,0.4324358386802487,1,colour,0.5,4.0
55,22,0,2,3,13,113,177.5448999396467,178.4235735317052,"[82, 0, 172]",172,l,0.3553587379283272,1,colour,0.5,4.0
55,22,0,2,3,14,114,178.93542118603364,179.8556056789239,"[58, 0, 196]",196,a,0.3968341927102301,0,colour,0.5,4.0
55,22,0,2,3,15,115,180.36063823418226,181.35961778101046,"[84, 0, 170]",170,l,0.47573991716490127,1,colour,0.5,4.0
55,22,0,2,3,16,116,181.87618330819532,182.68762041820446,"[46, 0, 208]",208,a,0.28836959073669277,1,colour,0.5,4.0
55,22,0,2,3,17,117,183.20432221586816,184.0396306833718,"[17, 0, 237]",237,a,0.32139076228486374,1,colour,0.5,4.0
55,22,0,2,3,18,118,184.5543652237684,185.5596163631708,"[36, 0, 218]",218,a,0.4819020207505673,1,colour,0.5,4.0
55,22,0,2,3,19,119,186.06325667529018,186.903571310424,"[90, 0, 164]",164,l,0.31704113478190266,1,colour,0.5,4.0
55,22,0,2,3,20,120,187.4226735951961,188.45560339462827,"[69, 0, 185]",185,l,0.509539720864268,1,colour,0.5,4.0
55,22,0,2,3,21,121,188.9695616659301,189.87158634586376,"[80, 0, 174]",174,l,0.3787626010889653,1,colour,0.5,4.0
55,22,0,2,3,22,122,190.39142275825725,191.31158007582417,"[89, 0, 165]",165,l,0.39692083865520544,1,colour,0.5,4.0
55,22,0,2,3,23,123,191.82894589667558,192.6555507768935,"[19, 0, 235]",235,a,0.3032829368894454,1,colour,0.5,4.0
55,22,0,2,3,24,124,193.17269210593076,194.0875695333816,"[24, 0, 230]",230,a,0.3916460685431957,1,colour,0.5,4.0
55,22,0,2,3,25,125,194.59454650289263,195.55158231288078,"[29, 0, 225]",225,a,0.4337690050015226,1,colour,0.5,4.0
55,22,0,2,3,26,126,196.05170991874184,196.999573465524,"[23, 0, 231]",231,a,0.4245589326310437,1,colour,0.5,4.0
55,22,0,2,3,27,127,197.52046105105546,198.46356379584176,"[63, 0, 191]",191,l,0.41989501658827066,1,colour,0.5,4.0
55,22,0,2,3,28,128,198.97360488178674,199.83959507977124,"[67, 0, 187]",187,l,0.34277892517275177,1,colour,0.5,4.0
55,22,0,2,3,29,129,200.34858814335894,201.21563030214747,"[26, 0, 228]",228,a,0.3438316736719571,1,colour,0.5,4.0
55,22,0,2,3,30,130,201.72356392187066,202.58352946827654,"[77, 0, 177]",177,l,0.33674521517241374,1,colour,0.5,4.0
55,22,0,2,3,31,131,203.09835577462218,204.06359971454367,"[51, 0, 203]",203,a,0.4418125075753778,0,colour,0.5,4.0
55,22,0,2,3,32,132,204.58296390643227,205.47954052430578,"[62, 0, 192]",192,a,0.3760927237744909,0,colour,0.5,4.0
55,22,0,2,3,33,133,205.98635680493317,206.9195700942073,"[78, 0, 176]",176,l,0.4099035551480483,1,colour,0.5,4.0
55,22,0,2,3,34,134,207.44104923537816,208.35153607543907,"[32, 0, 222]",222,a,0.38716647209366783,1,colour,0.5,4.0
55,22,0,2,3,35,135,208.86290835848195,209.90356422119658,"[27, 0, 227]",227,l,0.5174067807674874,0,colour,0.5,4.0
55,22,0,2,3,36,136,210.41016428073635,211.18358586693648,"[35, 0, 219]",219,a,0.2502406394924037,1,colour,0.5,4.0
55,22,0,2,3,37,137,211.69136470547528,212.655568499933,"[49, 0, 205]",205,a,0.44172113545937464,1,colour,0.5,4.0
55,22,0,2,3,38,138,213.1757837915211,214.09558428524178,"[64, 0, 190]",190,l,0.3967987466021441,1,colour,0.5,4.0
55,22,0,2,3,39,139,214.61419268802274,215.4954849574715,"[91, 0, 163]",163,l,0.3579325169848744,1,colour,0.5,4.0
55,22,0,2,3,40,140,216.00546027123346,216.98355302022537,"[41, 0, 213]",213,a,0.45485233163344674,1,colour,0.5,4.0
55,22,0,2,3,41,141,217.48976080986904,218.37553306960035,"[5, 0, 249]",249,a,0.3624132949335035,1,colour,0.5,4.0
55,22,0,2,3,42,142,218.89603901904775,219.82351043767994,"[0, 0, 254]",254,a,0.4041203307569958,1,colour,0.5,4.0
55,22,0,2,3,43,143,220.33356491435552,221.27957226824947,"[57, 0, 197]",197,l,0.4227842657128349,1,colour,0.5,4.0
55,22,0,2,3,44,144,221.78666936056106,222.58354955440154,"[98, 0, 156]",156,l,0.2735763673845213,1,colour,0.5,4.0
55,22,0,2,3,45,145,223.10115601471625,223.98355617100606,"[66, 0, 188]",188,l,0.3591865204216447,1,colour,0.5,4.0
55,22,0,2,3,46,146,224.49172846099827,225.3355195685872,"[9, 0, 245]",245,a,0.32061646241345443,1,colour,0.5,4.0
55,22,0,2,3,47,147,225.85109575639945,226.72753939635004,"[42, 0, 212]",212,a,0.3639166024804581,1,colour,0.5,4.0
55,22,0,2,3,48,148,227.2465857550851,228.23148612008663,"[60, 0, 194]",194,a,0.4616221385076642,0,colour,0.5,4.0
55,22,0,2,3,49,149,228.75144777531386,229.66352181194816,"[20, 0, 234]",234,a,0.38770407094853,1,colour,0.5,4.0
55,22,0,2,3,50,150,230.17443644674495,230.99951123798382,"[1, 0, 253]",253,a,0.3018288600433152,1,colour,0.5,4.0
55,22,0,2,4,1,151,235.95485469471896,238.37549486660282,"[15, 0, 239]",239,l,1.8969716446881648,0,colour,0.5,4.0
55,22,0,2,4,2,152,238.89318048983114,239.59146978339413,"[8, 0, 246]",246,a,0.175235558883287,1,colour,0.5,4.0
55,22,0,2,4,3,153,240.1119308344496,240.79947327129776,"[48, 0, 206]",206,a,0.1643697608669754,1,colour,0.5,4.0
55,22,0,2,4,4,154,241.31503961296403,241.89549787560827,"[26, 0, 228]",228,a,0.05727534671314061,1,colour,0.5,4.0
55,22,0,2,4,5,155,242.40869681315962,243.06346108097932,"[52, 0, 202]",202,a,0.13164712404250167,0,colour,0.5,4.0
55,22,0,2,4,6,156,243.58064336993266,244.43959200778045,"[39, 0, 215]",215,a,0.33852263900917023,1,colour,0.5,4.0
55,22,0,2,4,7,157,244.9527732222923,245.87946167649352,"[78, 0, 176]",176,l,0.40356461505871266,1,colour,0.5,4.0
55,22,0,2,4,8,158,246.39028060689452,247.37544996824,"[67, 0, 187]",187,l,0.4619171286467463,1,colour,0.5,4.0
55,22,0,2,4,9,159,247.8902613084647,248.76748397442861,"[97, 0, 157]",157,l,0.35383573814760894,1,colour,0.5,4.0
55,22,0,2,4,10,160,249.28087747158133,250.2475502822199,"[17, 0, 237]",237,a,0.4432839136279654,1,colour,0.5,4.0
55,22,0,2,4,11,161,250.76526189924334,251.7834547952225,"[71, 0, 183]",183,l,0.4955444281222299,1,colour,0.5,4.0
55,22,0,2,4,12,162,252.28394788954756,253.19949958016514,"[90, 0, 164]",164,l,0.39210529217962176,1,colour,0.5,4.0
55,22,0,2,4,13,163,253.7060291414091,254.64742180990288,"[56, 0, 198]",198,a,0.41879579436499625,0,colour,0.5,4.0
55,22,0,2,4,14,164,255.15905284931068,256.19143008379615,"[0, 0, 254]",254,a,0.5091773832100444,1,colour,0.5,4.0
55,22,0,2,4,15,165,256.6961117228784,257.58341919159284,"[84, 0, 170]",170,l,0.36393432549084537,1,colour,0.5,4.0
55,22,0,2,4,16,166,258.10234030755237,259.0554282122466,"[95, 0, 159]",159,l,0.4298545765632298,1,colour,0.5,4.0
55,22,0,2,4,17,167,259.57428119293763,260.4474630061013,"[49, 0, 205]",205,a,0.34986932211904787,1,colour,0.5,4.0
55,22,0,2,4,18,168,260.9649532820622,261.91938695614226,"[44, 0, 210]",210,a,0.4311782906006556,1,colour,0.5,4.0
55,22,0,2,4,19,169,262.4337630973314,263.3115127282799,"[19, 0, 235]",235,a,0.3572531338140834,1,colour,0.5,4.0
55,22,0,2,4,20,170,263.8215392419661,264.7994382190518,"[38, 0, 216]",216,a,0.4546573781990446,1,colour,0.5,4.0
55,22,0,2,4,21,171,265.30590988503536,266.6154691406409,"[9, 0, 245]",245,a,0.795482436864404,1,colour,0.5,4.0
55,22,0,2,4,22,172,267.12487456027884,268.0953893318365,"[10, 0, 244]",244,a,0.44735745558864437,1,colour,0.5,4.0
55,22,0,2,4,23,173,268.60932042781496,269.71139685899834,"[40, 0, 214]",214,a,0.5789269921078812,1,colour,0.5,4.0
55,22,0,2,4,24,174,270.2062209440628,271.63142145070015,"[96, 0, 158]",158,l,0.9019230678386521,1,colour,0.5,4.0
55,22,0,2,4,25,175,272.14375668551656,272.9994052935799,"[63, 0, 191]",191,a,0.3323628985090181,0,colour,0.5,4.0
55,22,0,2,4,26,176,273.5186257319583,274.37539916220703,"[42, 0, 212]",212,a,0.3335082006524317,1,colour,0.5,4.0
55,22,0,2,4,27,177,274.8936822487449,275.45536826897296,"[5, 0, 249]",249,a,0.03832902465364896,1,colour,0.5,4.0
55,22,0,2,4,28,178,275.9717640488525,276.53545946779195,"[1, 0, 253]",253,a,0.04046918000676669,1,colour,0.5,4.0
55,22,0,2,4,29,179,277.0498938980745,277.847414878197,"[87, 0, 167]",167,l,0.27421833522384986,1,colour,0.5,4.0
55,22,0,2,4,30,180,278.36237824271666,279.20740563073196,"[64, 0, 190]",190,l,0.321810601366451,1,colour,0.5,4.0
55,22,0,2,4,31,181,279.7216959136131,280.5353673080099,"[12, 0, 242]",242,a,0.29033802956109866,1,colour,0.5,4.0
55,22,0,2,4,32,182,281.0410485264729,281.8953501835931,"[88, 0, 166]",166,l,0.33097104920307174,1,colour,0.5,4.0
55,22,0,2,4,33,183,282.4160278495983,283.30342353964807,"[29, 0, 225]",225,a,0.36401230687624775,1,colour,0.5,4.0
55,22,0,2,4,34,184,283.8223048772197,284.75133631710196,"[81, 0, 173]",173,l,0.40571855500456877,1,colour,0.5,4.0
55,22,0,2,4,35,185,285.25986464324524,286.1594931683503,"[7, 0, 247]",247,a,0.37658187965280376,1,colour,0.5,4.0
55,22,0,2,4,36,186,286.6623115253169,287.5753914428351,"[21, 0, 233]",233,a,0.3898521031951532,1,colour,0.5,4.0
55,22,0,2,4,37,187,288.0841470177111,288.9753598564421,"[74, 0, 180]",180,l,0.3678842000372242,1,colour,0.5,4.0
55,22,0,2,4,38,188,289.4904075038503,290.3834206094616,"[34, 0, 220]",220,a,0.36971006685053,1,colour,0.5,4.0
55,22,0,2,4,39,189,290.8966825622483,291.79937047767453,"[68, 0, 186]",186,l,0.3794128396839369,1,colour,0.5,4.0
55,22,0,2,4,40,190,292.3184924547095,293.24738250413793,"[43, 0, 211]",211,a,0.4060249666508753,1,colour,0.5,4.0
55,22,0,2,4,41,191,293.75599590086495,294.67134161037393,"[85, 0, 169]",169,l,0.3920214031240903,1,colour,0.5,4.0
55,22,0,2,4,42,192,295.1779507283645,296.0874076629698,"[80, 0, 174]",174,l,0.3862318772007711,1,colour,0.5,4.0
55,22,0,2,4,43,193,296.59978582692565,297.5193118104653,"[27, 0, 227]",227,a,0.3962922615755815,1,colour,0.5,4.0
55,22,0,2,4,44,194,298.03789028100437,299.0792924805428,"[66, 0, 188]",188,l,0.518171234492911,1,colour,0.5,4.0
55,22,0,2,4,45,195,299.6003844717925,300.5273399530852,"[11, 0, 243]",243,a,0.4037532669608481,1,colour,0.5,4.0
55,22,0,2,4,46,196,301.037868225656,301.95137546531623,"[51, 0, 203]",203,a,0.3905712647247128,0,colour,0.5,4.0
55,22,0,2,4,47,197,302.459687570401,303.2873534698447,"[89, 0, 165]",165,l,0.3045318203221541,1,colour,0.5,4.0
55,22,0,2,4,48,198,303.80573580542114,304.84737628136645,"[73, 0, 181]",181,l,0.518549719825387,1,colour,0.5,4.0
55,22,0,2,4,49,199,305.36817091939156,306.2793509271869,"[69, 0, 185]",185,l,0.38639374761260115,1,colour,0.5,4.0
55,22,0,2,4,50,200,306.7916046360333,307.6873210957565,"[53, 0, 201]",201,a,0.3731455793895293,0,colour,0.5,4.0
55,22,0,2,5,1,201,312.57196223179926,313.38335089883185,"[11, 0, 243]",243,a,0.2873747374978848,1,colour,0.5,4.0
55,22,0,2,5,2,202,313.9008608670556,314.74327351609827,"[81, 0, 173]",173,l,0.31909818877466023,1,colour,0.5,4.0
55,22,0,2,5,3,203,315.2602588823938,316.16731375450036,"[44, 0, 210]",210,a,0.3838829838496167,1,colour,0.5,4.0
55,22,0,2,5,4,204,316.6821380916226,317.567341638729,"[50, 0, 204]",204,a,0.36197061283746734,1,colour,0.5,4.0
55,22,0,2,5,5,205,318.0884438699577,318.94335598731413,"[41, 0, 213]",213,a,0.33174889368820004,1,colour,0.5,4.0
55,22,0,2,5,6,206,319.4634129531041,320.3992870612419,"[96, 0, 158]",158,l,0.41264944459544495,1,colour,0.5,4.0
55,22,0,2,5,7,207,320.91645792865893,321.8633392252668,"[75, 0, 179]",179,l,0.4236290639091749,1,colour,0.5,4.0
55,22,0,2,5,8,208,322.3696183008724,323.3114898852655,"[33, 0, 221]",221,a,0.41863865009509027,1,colour,0.5,4.0
55,22,0,2,5,9,209,323.8226085319475,324.6552853251633,"[83, 0, 171]",171,l,0.30931388997123577,1,colour,0.5,4.0
55,22,0,2,5,10,210,325.16650164549355,326.04724725766573,"[76, 0, 178]",178,l,0.3576316191756632,1,colour,0.5,4.0
55,22,0,2,5,11,211,326.5570740917465,327.39925712900003,"[22, 0, 232]",232,a,0.3190572288876865,1,colour,0.5,4.0
55,22,0,2,5,12,212,327.916468562471,328.7913226427918,"[40, 0, 214]",214,a,0.35163414292037487,1,colour,0.5,4.0
55,22,0,2,5,13,213,329.3070457348949,330.2152738721343,"[24, 0, 230]",230,a,0.3850373444147408,1,colour,0.5,4.0
55,22,0,2,5,14,214,330.7289359717688,331.623279880645,"[48, 0, 206]",206,a,0.37111963916686364,1,colour,0.5,4.0
55,22,0,2,5,15,215,332.13520433480153,333.08729384167236,"[82, 0, 172]",172,l,0.42886878177523613,1,colour,0.5,4.0
55,22,0,2,5,16,216,333.60391883950797,334.511306904722,"[18, 0, 236]",236,a,0.38417364165070467,1,colour,0.5,4.0
55,22,0,2,5,17,217,335.0257771749166,335.8712917495577,"[64, 0, 190]",190,l,0.334687373455381,1,colour,0.5,4.0
55,22,0,2,5,18,218,336.3883409187838,337.3272570880363,"[2, 0, 252]",252,a,0.41561746280058287,1,colour,0.5,4.0
55,22,0,2,5,19,219,337.84144418346114,339.16725664693513,"[14, 0, 240]",240,a,0.8025862245704047,1,colour,0.5,4.0
55,22,0,2,5,20,220,339.6852069341985,340.7832677187107,"[21, 0, 233]",233,a,0.57479634261108,1,colour,0.5,4.0
55,22,0,2,5,21,221,341.29457856187946,342.15130473070894,"[36, 0, 218]",218,a,0.3334766930202022,1,colour,0.5,4.0
55,22,0,2,5,22,222,342.6695933310839,343.5753055845562,"[91, 0, 163]",163,l,0.3825218544807285,1,colour,0.5,4.0
55,22,0,2,5,23,223,344.09151665098034,344.9192628948949,"[73, 0, 181]",181,l,0.30462516169063747,1,colour,0.5,4.0
55,22,0,2,5,24,224,345.4352282018517,346.0072428150743,"[31, 0, 223]",223,a,0.048834060376975685,1,colour,0.5,4.0
55,22,0,2,5,25,225,346.513242654386,347.38330088046496,"[92, 0, 162]",162,l,0.3467815749463625,1,colour,0.5,4.0
55,22,0,2,5,26,226,347.9039356173307,348.8312565870583,"[61, 0, 193]",193,a,0.40408134009339847,0,colour,0.5,4.0
55,22,0,2,5,27,227,349.34143315578694,350.1672062347352,"[56, 0, 198]",198,a,0.30252439086325467,0,colour,0.5,4.0
55,22,0,2,5,28,228,350.68516833736794,351.6472028318967,"[89, 0, 165]",165,l,0.4388791477831546,1,colour,0.5,4.0
55,22,0,2,5,29,229,352.14456840069033,353.0712887563568,"[72, 0, 182]",182,l,0.40334091093973257,1,colour,0.5,4.0
55,22,0,2,5,30,230,353.58205018533044,354.431286598061,"[59, 0, 195]",195,l,0.3260290783655364,1,colour,0.5,4.0
55,22,0,2,5,31,231,354.9414572591195,355.7912671106169,"[70, 0, 184]",184,l,0.3267379999451805,1,colour,0.5,4.0
55,22,0,2,5,32,232,356.3009084435762,357.19124655186897,"[10, 0, 244]",244,a,0.36717370309634134,1,colour,0.5,4.0
55,22,0,2,5,33,233,357.70711024675984,358.7031875475659,"[62, 0, 192]",192,l,0.4729306186491158,1,colour,0.5,4.0
55,22,0,2,5,34,234,359.2226620161382,360.12722305979696,"[30, 0, 224]",224,a,0.3812493403092958,1,colour,0.5,4.0
55,22,0,2,5,35,235,360.64454280072823,361.607211780065,"[0, 0, 254]",254,a,0.4394356511766091,1,colour,0.5,4.0
55,22,0,2,5,36,236,362.113304566883,362.99927847541403,"[80, 0, 174]",174,l,0.36303635823423974,1,colour,0.5,4.0
55,22,0,2,5,37,237,363.51955875146086,364.4712961606274,"[66, 0, 188]",188,l,0.4285860008385498,1,colour,0.5,4.0
55,22,0,2,5,38,238,364.98827837614226,365.94321892914013,"[26, 0, 228]",228,a,0.4316572064999491,1,colour,0.5,4.0
55,22,0,2,5,39,239,366.4570153300301,367.3352525414666,"[84, 0, 170]",170,l,0.35494677574024536,1,colour,0.5,4.0
55,22,0,2,5,40,240,367.8477799727989,368.831275491626,"[37, 0, 217]",217,a,0.46026140300091356,1,colour,0.5,4.0
55,22,0,2,5,41,241,369.34776500667795,370.2312005822605,"[13, 0, 241]",241,a,0.3603050410747528,1,colour,0.5,4.0
55,22,0,2,5,42,242,370.7382897976786,371.6631882249785,"[85, 0, 169]",169,l,0.4016737637575716,1,colour,0.5,4.0
55,22,0,2,5,43,243,372.1758007268654,373.0551938742865,"[49, 0, 205]",205,a,0.35635280347196385,1,colour,0.5,4.0
55,22,0,2,5,44,244,373.5663735669805,374.4232025294332,"[46, 0, 208]",208,a,0.33373151093837805,1,colour,0.5,4.0
55,22,0,2,5,45,245,374.9413635239471,375.8872023120348,"[63, 0, 191]",191,l,0.4229154162167106,1,colour,0.5,4.0
55,22,0,2,5,46,246,376.3945168069622,377.23127226211363,"[29, 0, 225]",225,a,0.31354181928327307,1,colour,0.5,4.0
55,22,0,2,5,47,247,377.72756302705966,378.75119374509086,"[51, 0, 203]",203,a,0.5002099195262417,0,colour,0.5,4.0
55,22,0,2,5,48,248,379.2588280424243,380.1511550694995,"[20, 0, 234]",234,a,0.36912008660146967,1,colour,0.5,4.0
55,22,0,2,5,49,249,380.6652177098149,381.57517167716287,"[53, 0, 201]",201,a,0.3868773896538187,0,colour,0.5,4.0
55,22,0,2,5,50,250,382.0886498510372,383.007190827484,"[32, 0, 222]",222,a,0.39524384535616264,1,colour,0.5,4.0
55,22,0,2,6,1,251,388.775321889756,389.6871450469189,"[75, 0, 179]",179,l,0.3879801564908121,1,colour,0.5,3.9
55,22,0,2,6,2,252,390.19643979601096,391.055145825143,"[35, 0, 219]",219,a,0.3353447012777906,1,colour,0.5,3.9
55,22,0,2,6,3,253,391.5715014328016,392.46317467669724,"[98, 0, 156]",156,l,0.36673889789381064,1,colour,0.5,3.9
55,22,0,2,6,4,254,392.97938850003993,393.98322534095496,"[78, 0, 176]",176,l,0.4806176912097726,1,colour,0.5,3.9
55,22,0,2,6,5,255,394.49500013390207,395.4711500440317,"[4, 0, 250]",250,a,0.45282008990761824,1,colour,0.5,3.9
55,22,0,2,6,6,256,395.9793246970803,397.12714507844066,"[25, 0, 229]",229,a,0.6245153733761981,1,colour,0.5,3.9
55,22,0,2,6,7,257,397.6355205925938,398.6071739709296,"[85, 0, 169]",169,l,0.44830859199282713,1,colour,0.5,3.9
55,22,0,2,6,8,258,399.11998221394606,400.103105942806,"[92, 0, 162]",162,l,0.4599274221982341,1,colour,0.5,3.9
55,22,0,2,6,9,259,400.61993180174613,401.37514867659775,"[38, 0, 216]",216,a,0.23197409443673678,1,colour,0.5,3.9
55,22,0,2,6,10,260,401.88559227244696,402.74308053191635,"[7, 0, 247]",247,a,0.3341804945957847,1,colour,0.5,3.9
55,22,0,2,6,11,261,403.2605735647958,404.1031894379994,"[99, 0, 155]",155,l,0.31937742509762757,1,colour,0.5,3.9
55,22,0,2,6,12,262,404.6198459434672,405.4631163875747,"[68, 0, 186]",186,l,0.3198602794436738,1,colour,0.5,3.9
55,22,0,2,6,13,263,405.9799540618842,406.85515945221414,"[66, 0, 188]",188,l,0.35250257182633504,1,colour,0.5,3.9
55,22,0,2,6,14,264,407.3698711495672,408.17510125762783,"[43, 0, 211]",211,a,0.28193140160874464,1,colour,0.5,3.9
55,22,0,2,6,15,265,408.68238227569964,409.551095913921,"[42, 0, 212]",212,a,0.3453530980623327,1,colour,0.5,3.9
55,22,0,2,6,16,266,410.0573627803533,411.14310053925146,"[62, 0, 192]",192,l,0.5624642585462425,1,colour,0.5,3.9
55,22,0,2,6,17,267,411.65119209093973,412.5351014624175,"[74, 0, 180]",180,l,0.36079695384250954,1,colour,0.5,3.9
55,22,0,2,6,18,268,413.04177792795235,413.9590940455382,"[96, 0, 158]",158,l,0.3941627400345169,1,colour,0.5,3.9
55,22,0,2,6,19,269,414.47930421712226,415.5431611126696,"[87, 0, 167]",167,l,0.5405491306446493,1,colour,0.5,3.9
55,22,0,2,6,20,270,416.05737223263714,416.96706350520253,"[46, 0, 208]",208,a,0.3864047753158957,1,colour,0.5,3.9
55,22,0,2,6,21,271,417.4792423834151,418.3751155936043,"[8, 0, 246]",246,a,0.37257450373726897,1,colour,0.5,3.9
55,22,0,2,6,22,272,418.88550956491963,419.8151408311969,"[73, 0, 181]",181,l,0.40711631198064424,1,colour,0.5,3.9
55,22,0,2,6,23,273,420.32287989134784,421.2311682869331,"[53, 0, 201]",201,a,0.3849061939108651,0,colour,0.5,3.9
55,22,0,2,6,24,274,421.7448099066096,422.59908714535413,"[82, 0, 172]",172,l,0.330958840000676,1,colour,0.5,3.9
55,22,0,2,6,25,275,423.11984751885757,424.1271710722067,"[51, 0, 203]",203,a,0.4840528099157382,0,colour,0.5,3.9
55,22,0,2,6,26,276,424.6354646665568,425.5590783704829,"[57, 0, 197]",197,a,0.4002893975120969,0,colour,0.5,3.9
55,22,0,2,6,27,277,426.0729330604663,426.99105183477513,"[88, 0, 166]",166,l,0.39478659100132063,1,colour,0.5,3.9
55,22,0,2,6,28,278,427.5104400512355,428.5110705975676,"[86, 0, 168]",168,l,0.4774023382051382,1,colour,0.5,3.9
55,22,0,2,6,29,279,429.02610406652093,430.1110442887002,"[63, 0, 191]",191,l,0.561988887260668,1,colour,0.5,3.9
55,22,0,2,6,30,280,430.6198089219979,431.455099272629,"[12, 0, 242]",242,a,0.31205662863794714,1,colour,0.5,3.9
55,22,0,2,6,31,281,431.9635622204514,432.8551165230747,"[21, 0, 233]",233,a,0.3682729253487196,1,colour,0.5,3.9
55,22,0,2,6,32,282,433.36978922973503,434.36705003568204,"[18, 0, 236]",236,a,0.473938468756387,1,colour,0.5,3.9
55,22,0,2,6,33,283,434.8854311897012,435.81509868975263,"[64, 0, 190]",190,l,0.40641251040506177,1,colour,0.5,3.9
55,22,0,2,6,34,284,436.3229271527962,437.18304511733004,"[36, 0, 218]",218,a,0.33749745969544165,1,colour,0.5,3.9
55,22,0,2,6,35,285,437.6979651588772,438.58321557359886,"[28, 0, 226]",226,a,0.3615810998599045,1,colour,0.5,3.9
55,22,0,2,6,36,286,439.0890385763487,440.0710725352692,"[2, 0, 252]",252,a,0.45901330723427236,1,colour,0.5,3.9
55,22,0,2,6,37,287,440.58905039171805,441.39905036019627,"[16, 0, 238]",238,a,0.28669102204730734,1,colour,0.5,3.9
55,22,0,2,6,38,288,441.91839210293256,442.74301357820514,"[39, 0, 215]",215,a,0.30132788882474415,1,colour,0.5,3.9
55,22,0,2,6,39,289,443.2621056229982,444.1191346588603,"[9, 0, 245]",245,a,0.3337890123366378,1,colour,0.5,3.9
55,22,0,2,6,40,290,444.637122361426,445.47104055504315,"[0, 0, 254]",254,a,0.310690379323205,1,colour,0.5,3.9
55,22,0,2,6,41,291,445.980903229065,446.80702604263206,"[13, 0, 241]",241,a,0.3028052025474608,1,colour,0.5,3.9
55,22,0,2,6,42,292,447.3246486505959,448.2310426502954,"[81, 0, 173]",173,l,0.3836813350499142,1,colour,0.5,3.9
55,22,0,2,6,43,293,448.7464384569321,449.63903211729485,"[17, 0, 237]",237,a,0.3692370586504694,1,colour,0.5,3.9
55,22,0,2,6,44,294,450.1527883459639,451.1590260678204,"[56, 0, 198]",198,a,0.4830741043551825,0,colour,0.5,3.9
55,22,0,2,6,45,295,451.6683649276092,452.5110694160103,"[49, 0, 205]",205,a,0.3221059853385668,1,colour,0.5,3.9
55,22,0,2,6,46,296,453.02488472146797,453.799032558396,"[69, 0, 185]",185,l,0.2509475917904638,1,colour,0.5,3.9
55,22,0,2,6,47,297,454.306091053877,455.1030413521803,"[5, 0, 249]",249,a,0.2735881827538833,1,colour,0.5,3.9
55,22,0,2,6,48,298,455.61861438921187,456.4230398713262,"[22, 0, 232]",232,a,0.281212240079185,1,colour,0.5,3.9
55,22,0,2,6,49,299,456.9311373307137,457.7590029097337,"[84, 0, 170]",170,l,0.30452158037223853,1,colour,0.5,3.9
55,22,0,2,6,50,300,458.27487133073737,459.15903000629623,"[31, 0, 223]",223,a,0.3609603996446822,1,colour,0.5,3.9
55,22,0,2,7,1,301,464.0519032967859,464.72700573597103,"[90, 0, 164]",164,l,0.1510751189198345,1,colour,0.5,3.9
55,22,0,2,7,2,302,465.24023303037393,466.0071541998768,"[10, 0, 244]",244,a,0.2437335274007637,1,colour,0.5,3.9
55,22,0,2,7,3,303,466.52148898728774,467.3349796066759,"[89, 0, 165]",165,l,0.29034118028357625,1,colour,0.5,3.9
55,22,0,2,7,4,304,467.8495971750235,468.6870225610328,"[62, 0, 192]",192,l,0.31460677698487416,1,colour,0.5,3.9
55,22,0,2,7,5,305,469.1934201841068,469.75900251587154,"[94, 0, 160]",160,l,0.04250654176576063,1,colour,0.5,3.9
55,22,0,2,7,6,306,470.27412026774255,471.15899889249704,"[66, 0, 188]",188,a,0.36170201032655314,0,colour,0.5,3.9
55,22,0,2,7,7,307,471.68060209494433,472.43899927058374,"[0, 0, 254]",254,a,0.23505357082467526,1,colour,0.5,3.9
55,22,0,2,7,8,308,472.94632833779906,473.7830495283997,"[77, 0, 177]",177,l,0.3136918743257411,1,colour,0.5,3.9
55,22,0,2,7,9,309,474.28996545189875,475.1509656299022,"[88, 0, 166]",166,l,0.3377633052878082,1,colour,0.5,3.9
55,22,0,2,7,10,310,475.6649428057717,476.51895931892795,"[6, 0, 248]",248,a,0.33073040973977186,1,colour,0.5,3.9
55,22,0,2,7,11,311,477.0399382765463,477.91095078981016,"[12, 0, 242]",242,a,0.3474869519122876,1,colour,0.5,3.9
55,22,0,2,7,12,312,478.4309183527075,479.3029993682576,"[40, 0, 214]",214,a,0.34886107814963907,1,colour,0.5,3.9
55,22,0,2,7,13,313,479.821396669955,480.6309917654726,"[63, 0, 191]",191,l,0.28632041363744065,1,colour,0.5,3.9
55,22,0,2,7,14,314,481.14951115922304,481.96693668700755,"[21, 0, 233]",233,a,0.2941366674785968,1,colour,0.5,3.9
55,22,0,2,7,15,315,482.4776284053805,483.34294394636527,"[33, 0, 221]",221,a,0.34199241612805054,1,colour,0.5,3.9
55,22,0,2,7,16,316,483.8526124546479,485.56705728243105,"[31, 0, 223]",223,a,1.1911417890223674,1,colour,0.5,3.9
55,22,0,2,7,17,317,486.0870437498961,487.0389379094995,"[32, 0, 222]",222,a,0.42868879446177743,1,colour,0.5,3.9
55,22,0,2,7,18,318,487.5557744022517,490.91095512211905,"[85, 0, 169]",169,l,2.8322990955784917,1,colour,0.5,3.9
55,22,0,2,7,19,319,491.43070803931914,492.27093327156035,"[69, 0, 185]",185,l,0.3169442488288041,1,colour,0.5,3.9
55,22,0,2,7,20,320,492.7900194086833,493.59896938560996,"[98, 0, 156]",156,l,0.2856410304957535,1,colour,0.5,3.9
55,22,0,2,7,21,321,494.1182579592278,495.01487986929715,"[49, 0, 205]",205,a,0.3734023665310815,1,colour,0.5,3.9
55,22,0,2,7,22,322,495.5244180148002,496.41497234418057,"[17, 0, 237]",237,a,0.36730800435179844,1,colour,0.5,3.9
55,22,0,2,7,23,323,496.93077814378194,497.76694755713106,"[18, 0, 236]",236,a,0.3129234821535647,1,colour,0.5,3.9
55,22,0,2,7,24,324,498.27429867966566,499.2069117487117,"[56, 0, 198]",198,a,0.4092387442942709,0,colour,0.5,3.9
55,22,0,2,7,25,325,499.7274921349017,500.543035869865,"[96, 0, 158]",158,l,0.2951661791012157,1,colour,0.5,3.9
55,22,0,2,7,26,326,501.05278157180874,502.02287611045176,"[78, 0, 176]",176,l,0.4468682997103315,1,colour,0.5,3.9
55,22,0,2,7,27,327,502.537126614945,503.4549066822801,"[48, 0, 206]",206,a,0.394540043809684,1,colour,0.5,3.9
55,22,0,2,7,28,328,503.9746178518981,504.8389172719908,"[7, 0, 247]",247,a,0.34077543413150124,1,colour,0.5,3.9
55,22,0,2,7,29,329,505.3372138910636,506.25487068481743,"[22, 0, 232]",232,a,0.3943789610930253,1,colour,0.5,3.9
55,22,0,2,7,30,330,506.7747248202795,507.60689512843965,"[82, 0, 172]",172,l,0.3090122044668533,1,colour,0.5,3.9
55,22,0,2,7,31,331,508.10914871125715,509.0629463251971,"[1, 0, 253]",253,a,0.43091795887448825,1,colour,0.5,3.9
55,22,0,2,7,32,332,509.57790968968766,510.48688692069845,"[3, 0, 251]",251,a,0.3857876196852885,1,colour,0.5,3.9
55,22,0,2,7,33,333,510.9997172190633,512.0068938681507,"[52, 0, 202]",202,a,0.48409298216574825,0,colour,0.5,3.9
55,22,0,2,7,34,334,512.5150984534412,513.3669082513661,"[34, 0, 220]",220,a,0.3285548083076719,1,colour,0.5,3.9
55,22,0,2,7,35,335,513.8744854411052,514.8148655333207,"[23, 0, 231]",231,a,0.4171384933288209,1,colour,0.5,3.9
55,22,0,2,7,36,336,515.3275583796785,516.1752257127373,"[58, 0, 196]",196,a,0.3232174167933408,0,colour,0.5,3.9
55,22,0,2,7,37,337,516.688345093542,517.5589239831315,"[83, 0, 171]",171,l,0.347593683982268,1,colour,0.5,3.9
55,22,0,2,7,38,338,518.0786564203736,519.022857205855,"[72, 0, 182]",182,l,0.42091940820682794,1,colour,0.5,3.9
55,22,0,2,7,39,339,519.5317963126581,520.5668493320991,"[91, 0, 163]",163,l,0.5117787313938607,1,colour,0.5,3.9
55,22,0,2,7,40,340,521.0787088017969,521.8869167741796,"[24, 0, 230]",230,a,0.2849518012080807,1,colour,0.5,3.9
55,22,0,2,7,41,341,522.4067705157795,523.2788342021522,"[86, 0, 168]",168,l,0.34877679526107386,1,colour,0.5,3.9
55,22,0,2,7,42,342,523.7974788386782,524.7428938492376,"[57, 0, 197]",197,a,0.4221840454847552,0,colour,0.5,3.9
55,22,0,2,7,43,343,525.2484722740774,526.2068451888626,"[26, 0, 228]",228,a,0.43524356180569157,1,colour,0.5,3.9
55,22,0,2,7,44,344,526.717076108238,527.9588664029434,"[68, 0, 186]",186,l,0.7184994651470333,1,colour,0.5,3.9
55,22,0,2,7,45,345,528.4678275650658,529.2868288679165,"[14, 0, 240]",240,a,0.2964847731636837,1,colour,0.5,3.9
55,22,0,2,7,46,346,529.7952445542905,530.6228750076843,"[44, 0, 210]",210,a,0.30437113146763295,1,colour,0.5,3.9
55,22,0,2,7,47,347,531.1407847288938,531.9508528326114,"[84, 0, 170]",170,l,0.2867918464471586,1,colour,0.5,3.9
55,22,0,2,7,48,348,532.4689850764116,533.2868654955237,"[28, 0, 226]",226,a,0.29468568781157956,1,colour,0.5,3.9
55,22,0,2,7,49,349,533.797014888929,534.6308684918913,"[47, 0, 207]",207,a,0.3105135427613277,1,colour,0.5,3.9
55,22,0,2,7,50,350,535.140750464343,536.0228745350614,"[81, 0, 173]",173,l,0.35895178859937005,1,colour,0.5,3.9
55,22,0,2,8,1,351,540.9367783769558,541.942806179286,"[68, 0, 186]",186,l,0.48191186689655297,1,colour,0.5,3.9
55,22,0,2,8,2,352,542.4532560766384,543.3188150140049,"[51, 0, 203]",203,a,0.3423055231105536,0,colour,0.5,3.9
55,22,0,2,8,3,353,543.8282042859646,544.7188027260418,"[48, 0, 206]",206,a,0.36730209668166935,1,colour,0.5,3.9
55,22,0,2,8,4,354,545.2344348398619,546.09481746846,"[89, 0, 165]",165,l,0.3369441070535686,1,colour,0.5,3.9
55,22,0,2,8,5,355,546.612008815835,547.4788536581036,"[93, 0, 161]",161,l,0.3435969418496825,1,colour,0.5,3.9
55,22,0,2,8,6,356,547.9870078312233,548.9108003409056,"[41, 0, 213]",213,a,0.40054776004399173,1,colour,0.5,3.9
55,22,0,2,8,7,357,549.4148809720646,550.2868769170309,"[24, 0, 230]",230,a,0.3487661614199169,1,colour,0.5,3.9
55,22,0,2,8,8,358,550.8034408688545,551.6468404942134,"[31, 0, 223]",223,a,0.3201158850279171,1,colour,0.5,3.9
55,22,0,2,8,9,359,552.1627482997719,552.9908135583682,"[23, 0, 231]",231,a,0.3047594629460946,1,colour,0.5,3.9
55,22,0,2,8,10,360,553.5068777204724,554.4948737095692,"[95, 0, 159]",159,l,0.4648138608317822,1,colour,0.5,3.9
55,22,0,2,8,11,361,555.0068848096998,555.8227952146262,"[40, 0, 214]",214,a,0.29274442433961667,1,colour,0.5,3.9
55,22,0,2,8,12,362,556.3349437667639,557.1029062632297,"[75, 0, 179]",179,l,0.24470790068153292,1,colour,0.5,3.9
55,22,0,2,8,13,363,557.6130371459003,558.4227929303015,"[18, 0, 236]",236,a,0.2864700748177711,1,colour,0.5,3.9
55,22,0,2,8,14,364,558.9422205313167,559.7827935289533,"[16, 0, 238]",238,a,0.31781031464925036,1,colour,0.5,3.9
55,22,0,2,8,15,365,560.3015492298582,561.1427957029955,"[78, 0, 176]",176,l,0.3179457974329125,1,colour,0.5,3.9
55,22,0,2,8,16,366,561.6609669374593,562.4708038539975,"[32, 0, 222]",222,a,0.28659610531758517,1,colour,0.5,3.9
55,22,0,2,8,17,367,562.9890684298298,563.7907448717451,"[49, 0, 205]",205,a,0.27913825074210763,1,colour,0.5,3.9
55,22,0,2,8,18,368,564.3015760113485,565.1027408482041,"[92, 0, 162]",162,l,0.2779271764156874,1,colour,0.5,3.9
55,22,0,2,8,19,369,565.6139725284884,566.494750435988,"[55, 0, 199]",199,a,0.3574587210896425,0,colour,0.5,3.9
55,22,0,2,8,20,370,567.0046284699638,567.8707226430997,"[52, 0, 202]",202,a,0.3428758111258503,0,colour,0.5,3.9
55,22,0,2,8,21,371,568.3796109438408,569.5267582435627,"[62, 0, 192]",192,l,0.6238143287191633,1,colour,0.5,3.9
55,22,0,2,8,22,372,570.035881669959,570.9427494655538,"[8, 0, 246]",246,a,0.3835891752387397,1,colour,0.5,3.9
55,22,0,2,8,23,373,571.4584804345504,572.2627515292843,"[3, 0, 251]",251,a,0.28178331576054916,1,colour,0.5,3.9
55,22,0,2,8,24,374,572.7702294700139,573.5988504443376,"[6, 0, 248]",248,a,0.3053947353910189,1,colour,0.5,3.9
55,22,0,2,8,25,375,574.1140438145085,575.0067709884024,"[45, 0, 209]",209,a,0.3679038923000917,1,colour,0.5,3.9
55,22,0,2,8,26,376,575.5201420363737,576.6947565012088,"[59, 0, 195]",195,l,0.651300792262191,1,colour,0.5,3.9
55,22,0,2,8,27,377,577.2077730883902,578.0627553102095,"[63, 0, 191]",191,l,0.3317717367026489,1,colour,0.5,3.9
55,22,0,2,8,28,378,578.5827004239254,579.3747898835281,"[87, 0, 167]",167,l,0.26876475935569033,1,colour,0.5,3.9
55,22,0,2,8,29,379,579.8951264794741,580.814730050537,"[53, 0, 201]",201,l,0.3962127047998365,1,colour,0.5,3.9
55,22,0,2,8,30,380,581.3326720670739,582.0547291368421,"[34, 0, 220]",220,a,0.19875836331630126,1,colour,0.5,3.9
55,22,0,2,8,31,381,582.5670513747609,583.3827424078481,"[38, 0, 216]",216,a,0.29238838818855584,1,colour,0.5,3.9
55,22,0,2,8,32,382,583.895191463962,584.6947438981442,"[14, 0, 240]",240,a,0.2751013363886159,1,colour,0.5,3.9
55,22,0,2,8,33,383,585.2087785754411,586.6227946632425,"[61, 0, 193]",193,a,0.8906764214334544,0,colour,0.5,3.9
55,22,0,2,8,34,384,587.1307290706609,587.9107140887936,"[83, 0, 171]",171,l,0.25675011461135,1,colour,0.5,3.9
55,22,0,2,8,35,385,588.4275407354289,589.2627156893723,"[37, 0, 217]",217,a,0.3118931828357745,1,colour,0.5,3.9
55,22,0,2,8,36,386,589.7713554737275,590.566711486259,"[21, 0, 233]",233,a,0.27209984135697596,1,colour,0.5,3.9
55,22,0,2,8,37,387,591.0837866492802,591.9827070405299,"[57, 0, 197]",197,l,0.37564728475990705,1,colour,0.5,3.9
55,22,0,2,8,38,388,592.4899971170526,593.2707324104849,"[0, 0, 254]",254,a,0.257422408554703,1,colour,0.5,3.9
55,22,0,2,8,39,389,593.7868812493398,594.5828134575277,"[1, 0, 253]",253,a,0.27263428943115287,1,colour,0.5,3.9
55,22,0,2,8,40,390,595.0993919816101,595.9106940026686,"[43, 0, 211]",211,a,0.2880560898629483,1,colour,0.5,3.9
55,22,0,2,8,41,391,596.4274875663104,597.278766854608,"[26, 0, 228]",228,a,0.32800027410849,1,colour,0.5,3.9
55,22,0,2,8,42,392,597.7869316615397,598.6466778361064,"[71, 0, 183]",183,l,0.33639390516327694,1,colour,0.5,3.9
55,22,0,2,8,43,393,599.1619239815627,599.982641268376,"[66, 0, 188]",188,l,0.29750128788873553,1,colour,0.5,3.9
55,22,0,2,8,44,394,600.4900026308896,601.3427233929979,"[27, 0, 227]",227,a,0.3294287510216236,1,colour,0.5,3.9
55,22,0,2,8,45,395,601.8493478709424,602.8067247509607,"[99, 0, 155]",155,l,0.43410968116950244,1,colour,0.5,3.9
55,22,0,2,8,46,396,603.318063163344,604.16668202664,"[98, 0, 156]",156,l,0.32529179999255575,1,colour,0.5,3.9
55,22,0,2,8,47,397,604.6774225818226,605.9666791121708,"[69, 0, 185]",185,l,0.7659282854874618,1,colour,0.5,3.9
55,22,0,2,8,48,398,606.4742956864357,607.2866729051748,"[77, 0, 177]",177,l,0.28904936771141365,1,colour,0.5,3.9
55,22,0,2,8,49,399,607.8035873793124,608.7107383496477,"[72, 0, 182]",182,l,0.38392118681804277,1,colour,0.5,3.9
55,22,0,2,8,50,400,609.2148410361551,610.0627029287862,"[9, 0, 245]",245,a,0.3245757892145775,1,colour,0.5,3.9
55,22,0,2,9,1,401,615.263090236258,616.254629651492,"[54, 0, 200]",200,l,0.4674356889736373,1,colour,0.5,3.9
55,22,0,2,9,2,402,616.7638854099205,617.4946393716091,"[17, 0, 237]",237,a,0.2073638831207063,1,colour,0.5,3.9
55,22,0,2,9,3,403,618.0138956498995,618.8226861194707,"[61, 0, 193]",193,l,0.2860652018862311,1,colour,0.5,3.9
55,22,0,2,9,4,404,619.3420235298981,620.07066490539,"[7, 0, 247]",247,a,0.205468305706745,1,colour,0.5,3.9
55,22,0,2,9,5,405,620.5920625205617,621.3026244275388,"[83, 0, 171]",171,l,0.1874278278555721,1,colour,0.5,3.9
55,22,0,2,9,6,406,621.8107856898569,622.6226221589895,"[1, 0, 253]",253,a,0.28854012573719956,1,colour,0.5,3.9
55,22,0,2,9,7,407,623.1389576805232,623.9266246512416,"[3, 0, 251]",251,a,0.264798737160163,1,colour,0.5,3.9
55,22,0,2,9,8,408,624.4358414189774,625.2706410383689,"[82, 0, 172]",172,l,0.3114575899671763,1,colour,0.5,3.9
55,22,0,2,9,9,409,625.7795427298406,626.678663982224,"[23, 0, 231]",231,a,0.37586271815234795,1,colour,0.5,3.9
55,22,0,2,9,10,410,627.1857847052452,628.0466616096965,"[86, 0, 168]",168,l,0.3376167948299553,1,colour,0.5,3.9
55,22,0,2,9,11,411,628.5607998682826,629.5986527339846,"[65, 0, 189]",189,l,0.5135352814395446,1,colour,0.5,3.9
55,22,0,2,9,12,412,630.1088060658367,630.8546616317471,"[94, 0, 160]",160,l,0.22278056357754394,1,colour,0.5,3.9
55,22,0,2,9,13,413,631.3743133307144,632.1106445357145,"[74, 0, 180]",180,l,0.21285960046225227,1,colour,0.5,3.9
55,22,0,2,9,14,414,632.6245074964536,633.4786346801266,"[95, 0, 159]",159,l,0.3308442310371902,1,colour,0.5,3.9
55,22,0,2,9,15,415,633.9995821301418,634.9265821159643,"[69, 0, 185]",185,l,0.40379777149064466,1,colour,0.5,3.9
55,22,0,2,9,16,416,635.4370859701303,636.4706376513059,"[35, 0, 219]",219,a,0.5102017748286016,1,colour,0.5,3.9
55,22,0,2,9,17,417,636.9839255978877,637.8466311260709,"[47, 0, 207]",207,a,0.33944817548035644,1,colour,0.5,3.9
55,22,0,2,9,18,418,638.3618221331562,639.1906715377409,"[18, 0, 236]",236,a,0.3055132828303613,1,colour,0.5,3.9
55,22,0,2,9,19,419,639.7055009948381,640.5025942589855,"[14, 0, 240]",240,a,0.2737488716375083,1,colour,0.5,3.9
55,22,0,2,9,20,420,641.0180582008907,641.9826444191276,"[81, 0, 173]",173,l,0.4419164827268105,1,colour,0.5,3.9
55,22,0,2,9,21,421,642.5024020624987,643.3105986133451,"[31, 0, 223]",223,a,0.2848718506284058,1,colour,0.5,3.9
55,22,0,2,9,22,422,643.8305240347981,644.6945816338994,"[34, 0, 220]",220,a,0.353315468528308,1,colour,0.5,3.9
55,22,0,2,9,23,423,645.2087533693411,646.0545952294196,"[30, 0, 224]",224,a,0.32163967250380665,1,colour,0.5,3.9
55,22,0,2,9,24,424,646.5690788903739,647.3666002643586,"[9, 0, 245]",245,a,0.27411829854827374,1,colour,0.5,3.9
55,22,0,2,9,25,425,647.8816888716538,648.8066164435004,"[89, 0, 165]",165,l,0.40171866212040186,1,colour,0.5,3.9
55,22,0,2,9,26,426,649.3202564878156,650.2226502007688,"[40, 0, 214]",214,a,0.3791714124963619,1,colour,0.5,3.9
55,22,0,2,9,27,427,650.7358542583243,651.6308011443471,"[36, 0, 218]",218,a,0.37166669030557387,1,colour,0.5,3.9
55,22,0,2,9,28,428,652.1421080490982,652.9746056426957,"[67, 0, 187]",187,l,0.3092248809407465,1,colour,0.5,3.9
55,22,0,2,9,29,429,653.4858014830679,654.3265418649535,"[10, 0, 244]",244,a,0.3174003216845449,1,colour,0.5,3.9
55,22,0,2,9,30,430,654.8451612954086,655.6065769014531,"[93, 0, 161]",161,l,0.23813934877398424,1,colour,0.5,3.9
55,22,0,2,9,31,431,656.1263881077466,656.974556412024,"[42, 0, 212]",212,a,0.32501216980745085,1,colour,0.5,3.9
55,22,0,2,9,32,432,657.485832990671,658.2785478766309,"[84, 0, 170]",170,l,0.2694390225224197,1,colour,0.5,3.9
55,22,0,2,9,33,433,658.7983137907286,659.6625793401327,"[62, 0, 192]",192,l,0.34103458432946354,1,colour,0.5,3.9
55,22,0,2,9,34,434,660.1732616062218,661.3025535353809,"[29, 0, 225]",225,a,0.6059707735257689,1,colour,0.5,3.9
55,22,0,2,9,35,435,661.8139100646367,662.7505620172305,"[55, 0, 199]",199,a,0.4133335538790561,0,colour,0.5,3.9
55,22,0,2,9,36,436,663.2669948185794,664.1745163973537,"[96, 0, 158]",158,l,0.3843024290690664,1,colour,0.5,3.9
55,22,0,2,9,37,437,664.6888559109066,665.446541801939,"[16, 0, 238]",238,a,0.23434307391289622,1,colour,0.5,3.9
55,22,0,2,9,38,438,665.9545159877453,666.7345982856641,"[78, 0, 176]",176,l,0.2570833077188581,1,colour,0.5,3.9
55,22,0,2,9,39,439,667.2514253261324,668.0786067958688,"[71, 0, 183]",183,l,0.3039568061940372,1,colour,0.5,3.9
55,22,0,2,9,40,440,668.5951451477304,669.422551503143,"[68, 0, 186]",186,l,0.30412103969138116,1,colour,0.5,3.9
55,22,0,2,9,41,441,669.938888206234,670.7745408945193,"[79, 0, 175]",175,l,0.31234886185848154,1,colour,0.5,3.9
55,22,0,2,9,42,442,671.2826371723786,672.1185206540395,"[38, 0, 216]",216,a,0.31254302759771235,1,colour,0.5,3.9
55,22,0,2,9,43,443,672.6283545773476,673.5265321763582,"[41, 0, 213]",213,a,0.3749828677100595,1,colour,0.5,3.9
55,22,0,2,9,44,444,674.0345551990031,675.2705634508457,"[58, 0, 196]",196,a,0.7126776439254172,0,colour,0.5,3.9
55,22,0,2,9,45,445,675.7845678020385,676.6865684574004,"[60, 0, 194]",194,l,0.37859836759162135,1,colour,0.5,3.9
55,22,0,2,9,46,446,677.206481275789,678.0145112301107,"[70, 0, 184]",184,l,0.28502781337010674,1,colour,0.5,3.9
55,22,0,2,9,47,447,678.5345508666942,679.2945277558465,"[11, 0, 243]",243,a,0.23665730890934356,1,colour,0.5,3.9
55,22,0,2,9,48,448,679.8158178512822,680.6545728590281,"[39, 0, 215]",215,a,0.3154586643795483,1,colour,0.5,3.9
55,22,0,2,9,49,449,681.1754328753741,682.0545448172197,"[8, 0, 246]",246,a,0.3561346131609753,1,colour,0.5,3.9
55,22,0,2,9,50,450,682.5660604599689,683.3905562986038,"[43, 0, 211]",211,a,0.3011711383878719,1,colour,0.5,3.9
55,22,0,2,10,1,451,690.535769030219,691.3344939954404,"[66, 0, 188]",188,l,0.2747279710602015,1,colour,0.5,3.9
55,22,0,2,10,2,452,691.848979231756,692.6064689878258,"[0, 0, 254]",254,a,0.24653928133193403,1,colour,0.5,3.9
55,22,0,2,10,3,453,693.1179062553565,693.9024531836039,"[69, 0, 185]",185,l,0.2612911509349942,1,colour,0.5,3.9
55,22,0,2,10,4,454,694.41470531706,695.1825153953978,"[22, 0, 232]",232,a,0.2445381533470936,1,colour,0.5,3.9
55,22,0,2,10,5,455,695.6960861229454,696.4704966546851,"[27, 0, 227]",227,a,0.2510909514967352,1,colour,0.5,3.9
55,22,0,2,10,6,456,696.9774086397083,697.7505064850557,"[14, 0, 240]",240,a,0.24980898504145443,1,colour,0.5,3.9
55,22,0,2,10,7,457,698.2586413597455,699.0784996699658,"[89, 0, 165]",165,l,0.296639160515042,1,colour,0.5,3.9
55,22,0,2,10,8,458,699.586747972091,700.2624943483097,"[70, 0, 184]",184,l,0.15250477733206935,1,colour,0.5,3.9
55,22,0,2,10,9,459,700.7742250305892,701.6304147821211,"[47, 0, 207]",207,a,0.33323408433352597,1,colour,0.5,3.9
55,22,0,2,10,10,460,702.1498951583635,702.9984624279314,"[9, 0, 245]",245,a,0.3257978911860846,1,colour,0.5,3.9
55,22,0,2,10,11,461,703.5086224551778,704.2704909832973,"[96, 0, 158]",158,l,0.23756079000304453,1,colour,0.5,3.9
55,22,0,2,10,12,462,704.7920032074617,705.5744922940212,"[11, 0, 243]",243,a,0.2593400413170457,1,colour,0.5,3.9
55,22,0,2,10,13,463,706.0888983674231,706.9585300590552,"[72, 0, 182]",182,l,0.3463109298318159,1,colour,0.5,3.9
55,22,0,2,10,14,464,707.4795456443098,708.2945777742134,"[77, 0, 177]",177,l,0.2918003771628719,1,colour,0.5,3.9
55,22,0,2,10,15,465,708.8075872721674,709.6064784401096,"[2, 0, 252]",252,a,0.27558734148624353,1,colour,0.5,3.9
55,22,0,2,10,16,466,710.1201507797232,710.9264623869967,"[34, 0, 220]",220,a,0.2831070298270788,1,colour,0.5,3.9
55,22,0,2,10,17,467,711.4325981029251,712.2624537822558,"[38, 0, 216]",216,a,0.3064841114974115,1,colour,0.5,3.9
55,22,0,2,10,18,468,712.7763521890738,713.6464659473568,"[54, 0, 200]",200,a,0.34681702105444856,0,colour,0.5,3.9
55,22,0,2,10,19,469,714.1669675644662,715.0064630013949,"[92, 0, 162]",162,l,0.3161581336171366,1,colour,0.5,3.9
55,22,0,2,10,20,470,715.526317924523,716.3264953912294,"[95, 0, 159]",159,l,0.2769161755568348,1,colour,0.5,3.9
55,22,0,2,10,21,471,716.8388148722297,717.6464659473568,"[12, 0, 242]",242,a,0.28433976563974284,1,colour,0.5,3.9
55,22,0,2,10,22,472,718.1669841059775,719.0543904298684,"[62, 0, 192]",192,l,0.3640808359486982,1,colour,0.5,3.9
55,22,0,2,10,23,473,719.5731796076288,720.358497291134,"[5, 0, 249]",249,a,0.27329791875672527,1,colour,0.5,3.9
55,22,0,2,10,24,474,720.87432160147,721.9744638583797,"[43, 0, 211]",211,a,0.5768065289885271,1,colour,0.5,3.9
55,22,0,2,10,25,475,722.483677475364,723.2864704686799,"[4, 0, 250]",250,a,0.2795285514148418,1,colour,0.5,3.9
55,22,0,2,10,26,476,723.7961795430456,724.6223771872174,"[93, 0, 161]",161,l,0.3029316268803086,1,colour,0.5,3.9
55,22,0,2,10,27,477,725.1404570495943,726.0624138463463,"[21, 0, 233]",233,a,0.39922759059118107,1,colour,0.5,3.9
55,22,0,2,10,28,478,726.5779478926852,727.4544553355663,"[53, 0, 201]",201,a,0.3533245269500185,0,colour,0.5,3.9
55,22,0,2,10,29,479,727.96856523733,728.8064715084329,"[99, 0, 155]",155,l,0.314515404868871,1,colour,0.5,3.9
55,22,0,2,10,30,480,729.3279100835498,730.2143936278881,"[49, 0, 205]",205,a,0.3631635702622589,1,colour,0.5,3.9
55,22,0,2,10,31,481,730.7342375233711,731.5744426695164,"[28, 0, 226]",226,a,0.31706476549152285,1,colour,0.5,3.9
55,22,0,2,10,32,482,732.0935315635579,733.0384160644608,"[59, 0, 195]",195,l,0.4216401450976264,1,colour,0.5,3.9
55,22,0,2,10,33,483,733.5471747901174,734.3984698322311,"[40, 0, 214]",214,a,0.3279112650780007,1,colour,0.5,3.9
55,22,0,2,10,34,484,734.908637736371,735.6864203715522,"[32, 0, 222]",222,a,0.25458357160096057,1,colour,0.5,3.9
55,22,0,2,10,35,485,736.2056010315428,737.0383940091415,"[20, 0, 234]",234,a,0.3096565353916958,1,colour,0.5,3.9
55,22,0,2,10,36,486,737.5492720163311,738.398372946278,"[87, 0, 167]",167,l,0.3258317618747242,1,colour,0.5,3.9
55,22,0,2,10,37,487,738.9086007149017,739.8703890561301,"[51, 0, 203]",203,a,0.4383600596629549,0,colour,0.5,3.9
55,22,0,2,10,38,488,740.3784636725031,741.1984255640127,"[68, 0, 186]",186,l,0.29669272346654907,1,colour,0.5,3.9
55,22,0,2,10,39,489,741.7066210908815,742.5663680531434,"[48, 0, 206]",206,a,0.3365427786775399,1,colour,0.5,3.9
55,22,0,2,10,40,490,743.0815657556232,743.8944073179446,"[79, 0, 175]",175,l,0.2895353728090413,1,colour,0.5,3.9
55,22,0,2,10,41,491,744.4097416847362,745.3024200218206,"[56, 0, 198]",198,a,0.36739425646374,0,colour,0.5,3.9
55,22,0,2,10,42,492,745.8179824250401,746.6863750793564,"[46, 0, 208]",208,a,0.3451132462651003,1,colour,0.5,3.9
55,22,0,2,10,43,493,747.1929928619356,748.150375255791,"[42, 0, 212]",212,a,0.4344834403600544,1,colour,0.5,3.9
55,22,0,2,10,44,494,748.661702246638,749.5823617169808,"[15, 0, 239]",239,a,0.39732965009170584,1,colour,0.5,3.9
55,22,0,2,10,45,495,750.0992261727515,750.8863846891909,"[98, 0, 156]",156,l,0.26390431451727636,1,colour,0.5,3.9
55,22,0,2,10,46,496,751.3960784035735,752.2943706115766,"[65, 0, 189]",189,l,0.3749419078230858,1,colour,0.5,3.9
55,22,0,2,10,47,497,752.8023625204223,753.7023506262922,"[8, 0, 246]",246,a,0.3766602548712399,1,colour,0.5,3.9
55,22,0,2,10,48,498,754.1962212118669,755.1103617547778,"[86, 0, 168]",168,l,0.39153382263612,1,colour,0.5,3.9
55,22,0,2,10,49,499,755.6128331340442,756.4303594862286,"[80, 0, 174]",174,l,0.29422134420019574,1,colour,0.5,3.9
55,22,0,2,10,50,500,756.9409291125776,757.7183683146723,"[81, 0, 173]",173,l,0.25466667296132073,1,colour,0.5,3.9
55,22,0,2,11,1,501,762.8327784053108,763.670467273827,"[36, 0, 218]",218,a,0.31432123912964016,1,colour,0.5,3.9
55,22,0,2,11,2,502,764.1773520835268,764.9344042774756,"[8, 0, 246]",246,a,0.2337716043984983,1,colour,0.5,3.9
55,22,0,2,11,3,503,765.4429916804074,766.2543945258658,"[57, 0, 197]",197,l,0.28865709781530313,1,colour,0.5,3.9
55,22,0,2,11,4,504,766.7710762374045,767.5743635066028,"[79, 0, 175]",175,l,0.27891848504077643,1,colour,0.5,3.9
55,22,0,2,11,5,505,768.0847354225989,768.9422815773287,"[76, 0, 178]",178,l,0.3343163712124806,1,colour,0.5,3.9
55,22,0,2,11,6,506,769.4597564933356,770.3103497031261,"[47, 0, 207]",207,a,0.32745282916584983,1,colour,0.5,3.9
55,22,0,2,11,7,507,770.8191218194843,771.7029252465873,"[93, 0, 161]",161,l,0.3730569642211776,1,colour,0.5,3.9
55,22,0,2,11,8,508,772.212838332809,773.1502815206186,"[35, 0, 219]",219,a,0.41110832794220187,1,colour,0.5,3.9
55,22,0,2,11,9,509,773.669075818354,775.382284365769,"[67, 0, 187]",187,l,1.189998456131434,1,colour,0.5,3.9
55,22,0,2,11,10,510,775.9034196799621,776.9982761391148,"[60, 0, 194]",194,l,0.5715652357612271,1,colour,0.5,3.9
55,22,0,2,11,11,511,777.5137956131948,778.3262941362627,"[11, 0, 243]",243,a,0.28914034596527927,1,colour,0.5,3.9
55,22,0,2,11,12,512,778.8419360962289,779.7423176535522,"[30, 0, 224]",224,a,0.3770178663835395,1,colour,0.5,3.9
55,22,0,2,11,13,513,780.2637837978255,781.078292507329,"[40, 0, 214]",214,a,0.29109972636797465,1,colour,0.5,3.9
55,22,0,2,11,14,514,781.5919475177361,782.454306462052,"[13, 0, 241]",241,a,0.33922250210889615,1,colour,0.5,3.9
55,22,0,2,11,15,515,782.9668614625407,783.7743246734608,"[45, 0, 209]",209,a,0.2841432368149981,1,colour,0.5,3.9
55,22,0,2,11,16,516,784.2963079366018,785.2703996111813,"[50, 0, 204]",204,a,0.45101549071841873,1,colour,0.5,3.9
55,22,0,2,11,17,517,785.780550579977,786.6463178615086,"[48, 0, 206]",206,a,0.3424410059233196,1,colour,0.5,3.9
55,22,0,2,11,18,518,787.1555090292823,787.990340156306,"[89, 0, 165]",165,l,0.3115430543839466,1,colour,0.5,3.9
55,22,0,2,11,19,519,788.4992410601117,789.3423204892606,"[82, 0, 172]",172,l,0.3198527963832021,1,colour,0.5,3.9
55,22,0,2,11,20,520,789.858568577125,790.7823094930791,"[39, 0, 215]",215,a,0.40058714456972666,1,colour,0.5,3.9
55,22,0,2,11,21,521,791.2960881709296,792.1423679869913,"[23, 0, 231]",231,a,0.3230374294798821,1,colour,0.5,3.9
55,22,0,2,11,22,522,792.6555176939,793.5422985914338,"[28, 0, 226]",226,a,0.36361019080504775,1,colour,0.5,3.9
55,22,0,2,11,23,523,794.0635938068444,794.9502738800074,"[83, 0, 171]",171,l,0.36338057901593857,1,colour,0.5,3.9
55,22,0,2,11,24,524,795.469846022228,796.3182785967074,"[26, 0, 228]",228,a,0.3251315049419645,1,colour,0.5,3.9
55,22,0,2,11,25,525,796.8292054407357,797.6222783320409,"[46, 0, 208]",208,a,0.26973204340902157,1,colour,0.5,3.9
55,22,0,2,11,26,526,798.1416819084843,799.062260246661,"[41, 0, 213]",213,a,0.3974320498527959,1,colour,0.5,3.9
55,22,0,2,11,27,527,799.5805744469981,800.5743229405489,"[9, 0, 245]",245,a,0.4704426978714764,1,colour,0.5,3.9
55,22,0,2,11,28,528,801.080579566973,801.9502801815397,"[62, 0, 192]",192,l,0.3466248245385941,1,colour,0.5,3.9
55,22,0,2,11,29,529,802.4710393734858,803.6462898984901,"[54, 0, 200]",200,a,0.6480082455382217,0,colour,0.5,3.9
55,22,0,2,11,30,530,804.1627128536929,804.9742456680979,"[37, 0, 217]",217,a,0.28824552946025506,1,colour,0.5,3.9
55,22,0,2,11,31,531,805.4907678723102,806.3022317637806,"[6, 0, 248]",248,a,0.28771856444654986,1,colour,0.5,3.9
55,22,0,2,11,32,532,806.8189008722838,807.6702805911482,"[92, 0, 162]",162,l,0.3280979477567598,1,colour,0.5,3.9
55,22,0,2,11,33,533,808.1782673799898,809.0462736720801,"[18, 0, 236]",236,a,0.3447536655294243,1,colour,0.5,3.9
55,22,0,2,11,34,534,809.5532455215871,810.3902585515461,"[81, 0, 173]",173,l,0.31376040339819156,1,colour,0.5,3.9
55,22,0,2,11,35,535,810.89698542931,811.8142727961531,"[69, 0, 185]",185,l,0.39394258050015196,1,colour,0.5,3.9
55,22,0,2,11,36,536,812.3345282599621,813.2462990357017,"[59, 0, 195]",195,l,0.3884925492166076,1,colour,0.5,3.9
55,22,0,2,11,37,537,813.7563550877676,814.5662581703218,"[90, 0, 164]",164,l,0.2865673546330072,1,colour,0.5,3.9
55,22,0,2,11,38,538,815.0845357430226,815.9502124401624,"[70, 0, 184]",184,l,0.3427950728510041,1,colour,0.5,3.9
55,22,0,2,11,39,539,816.4594748939271,817.3102295802964,"[98, 0, 156]",156,l,0.3275256905180868,1,colour,0.5,3.9
55,22,0,2,11,40,540,817.8188488846936,818.6462292463111,"[25, 0, 229]",229,a,0.30402297221007757,1,colour,0.5,3.9
55,22,0,2,11,41,541,819.1625990323955,820.0622535512957,"[94, 0, 160]",160,l,0.37638850160874426,1,colour,0.5,3.9
55,22,0,2,11,42,542,820.5688095001678,821.446231451846,"[58, 0, 196]",196,a,0.354062986880308,0,colour,0.5,3.9
55,22,0,2,11,43,543,821.9595142784528,822.910238717508,"[1, 0, 253]",253,a,0.42752183083212003,1,colour,0.5,3.9
55,22,0,2,11,44,544,823.4281752202078,824.318195101514,"[5, 0, 249]",249,a,0.3666817903285846,1,colour,0.5,3.9
55,22,0,2,11,45,545,824.8344577616663,825.622187353787,"[3, 0, 251]",251,a,0.26450374705018476,1,colour,0.5,3.9
55,22,0,2,11,46,546,826.1313485893188,826.9582204966573,"[43, 0, 211]",211,a,0.3037980865337886,1,colour,0.5,3.9
55,22,0,2,11,47,547,827.475084952428,828.3102276110731,"[68, 0, 186]",186,l,0.31203969329362735,1,colour,0.5,3.9
55,22,0,2,11,48,548,828.8188059555541,829.7743030119746,"[80, 0, 174]",174,l,0.4321731438394636,1,colour,0.5,3.9
55,22,0,2,11,49,549,830.287533063296,831.1022111262719,"[84, 0, 170]",170,l,0.2914199225779157,1,colour,0.5,3.9
55,22,0,2,11,50,550,831.6155679958174,832.5661746750993,"[87, 0, 167]",167,l,0.4271835177205503,1,colour,0.5,3.9
55,22,0,2,12,1,551,837.6304163574823,839.198234155192,"[11, 0, 243]",243,a,1.0437085576122627,1,colour,0.5,3.9
55,22,0,2,12,2,552,839.7093689495523,840.4461743442807,"[10, 0, 244]",244,a,0.21385839211870916,1,colour,0.5,3.9
55,22,0,2,12,3,553,840.9612377455051,841.6701269914629,"[63, 0, 191]",191,l,0.18564055787282996,1,colour,0.5,3.9
55,22,0,2,12,4,554,842.180010933138,842.9661958639917,"[22, 0, 232]",232,a,0.26285392907448113,1,colour,0.5,3.9
55,22,0,2,12,5,555,843.4793404508964,844.3582070271368,"[32, 0, 222]",222,a,0.3555694451497402,1,colour,0.5,3.9
55,22,0,2,12,6,556,844.8699113217881,845.6862187227816,"[87, 0, 167]",167,l,0.29296182695543393,1,colour,0.5,3.9
55,22,0,2,12,7,557,846.1982227336848,846.9741412990843,"[4, 0, 250]",250,a,0.2528313538641669,1,colour,0.5,3.9
55,22,0,2,12,8,558,847.4949260909925,848.3422086371866,"[25, 0, 229]",229,a,0.32396611670264974,1,colour,0.5,3.9
55,22,0,2,12,9,559,848.8542941740889,849.6861356214213,"[7, 0, 247]",247,a,0.3084336457250174,1,colour,0.5,3.9
55,22,0,2,12,10,560,850.198828073917,851.0221884565544,"[55, 0, 199]",199,l,0.30096988345030695,1,colour,0.5,3.9
55,22,0,2,12,11,561,851.5417999833007,852.3581967871578,"[50, 0, 204]",204,l,0.3008028930344153,0,colour,0.5,3.9
55,22,0,2,12,12,562,852.8778476984298,853.6621528056858,"[54, 0, 200]",200,l,0.2610863513837103,1,colour,0.5,3.9
55,22,0,2,12,13,563,854.1747290738276,854.9661710517248,"[18, 0, 236]",236,a,0.26833231720956974,1,colour,0.5,3.9
55,22,0,2,12,14,564,855.4871748216101,856.3021529947291,"[95, 0, 159]",159,l,0.29174484495888464,1,colour,0.5,3.9
55,22,0,2,12,15,565,856.8173373064492,857.6301253058191,"[26, 0, 228]",228,a,0.2894822037196718,1,colour,0.5,3.9
55,22,0,2,12,16,566,858.1454675495042,858.9741050653101,"[13, 0, 241]",241,a,0.30527933870325796,1,colour,0.5,3.9
55,22,0,2,12,17,567,859.4892039126134,860.3822245012561,"[53, 0, 201]",201,l,0.36975575287942775,1,colour,0.5,3.9
55,22,0,2,12,18,568,860.8954734571744,862.102120148018,"[41, 0, 213]",213,a,0.6833538920618594,1,colour,0.5,3.9
55,22,0,2,12,19,569,862.6142175002897,863.4221210302203,"[82, 0, 172]",172,l,0.28462136499001645,1,colour,0.5,3.9
55,22,0,2,12,20,570,863.9422969373118,864.8221701821312,"[62, 0, 192]",192,l,0.3570455773442518,1,colour,0.5,3.9
55,22,0,2,12,21,571,865.3329387003323,866.5181168838171,"[60, 0, 194]",194,l,0.6619680922303814,1,colour,0.5,3.9
55,22,0,2,12,22,572,867.0360553557402,867.8621305140259,"[45, 0, 209]",209,a,0.30293202071334235,1,colour,0.5,3.9
55,22,0,2,12,23,573,868.3798153495591,869.2460765131109,"[15, 0, 239]",239,a,0.3429711216886062,1,colour,0.5,3.9
55,22,0,2,12,24,574,869.7547777373402,870.5420969426632,"[73, 0, 181]",181,l,0.263947637489764,1,colour,0.5,3.9
55,22,0,2,12,25,575,871.0516839249758,871.8061379214632,"[1, 0, 253]",253,a,0.2312246068031527,1,colour,0.5,3.9
55,22,0,2,12,26,576,872.317265232763,873.1581119528855,"[84, 0, 170]",170,l,0.31756297979154624,1,colour,0.5,3.9
55,22,0,2,12,27,577,873.6766207127948,874.4061057049257,"[3, 0, 251]",251,a,0.2061268150282558,1,colour,0.5,3.9
55,22,0,2,12,28,578,874.9266392235295,875.7981251388264,"[74, 0, 180]",180,l,0.3481407350918744,1,colour,0.5,3.9
55,22,0,2,12,29,579,876.3172321497404,877.1421289228892,"[39, 0, 215]",215,a,0.30153702065581456,1,colour,0.5,3.9
55,22,0,2,12,30,580,877.6609606359561,878.65406440472,"[40, 0, 214]",214,a,0.4698145145957824,1,colour,0.5,3.9
55,22,0,2,12,31,581,879.1609716636012,879.9420909562032,"[72, 0, 182]",182,l,0.2577886846556794,1,colour,0.5,3.9
55,22,0,2,12,32,582,880.4578274390369,881.3100814944773,"[30, 0, 224]",224,a,0.32900536732631736,1,colour,0.5,3.9
55,22,0,2,12,33,583,881.8172475097235,882.7341075544246,"[59, 0, 195]",195,l,0.3936495596135501,1,colour,0.5,3.9
55,22,0,2,12,34,584,883.2547099959338,884.0620991639444,"[85, 0, 169]",169,l,0.2841192122432403,1,colour,0.5,3.9
55,22,0,2,12,35,585,884.569196256256,885.3740656020236,"[52, 0, 202]",202,a,0.28162656535278074,0,colour,0.5,3.9
55,22,0,2,12,36,586,885.8815762319136,886.7980258898169,"[33, 0, 221]",221,a,0.3931552837602794,1,colour,0.5,3.9
55,22,0,2,12,37,587,887.3191009456932,888.0460574509925,"[0, 0, 254]",254,a,0.203590451303171,1,colour,0.5,3.9
55,22,0,2,12,38,588,888.5534873426077,889.4300641022564,"[38, 0, 216]",216,a,0.35328750548069365,1,colour,0.5,3.9
55,22,0,2,12,39,589,889.9441054749186,890.7740572525072,"[48, 0, 206]",206,a,0.30699295963859186,1,colour,0.5,3.9
55,22,0,2,12,40,590,891.2878217519028,892.1020212928415,"[96, 0, 158]",158,l,0.2913592703989707,1,colour,0.5,3.9
55,22,0,2,12,41,591,892.615992954903,893.5420445612399,"[61, 0, 193]",193,l,0.4027922844106797,1,colour,0.5,3.9
55,22,0,2,12,42,592,894.0534625303408,895.2300781231606,"[66, 0, 188]",188,l,0.6533629662590101,1,colour,0.5,3.9
55,22,0,2,12,43,593,895.7439710161416,897.078038083273,"[57, 0, 197]",197,l,0.8108093205955811,1,colour,0.5,3.9
55,22,0,2,12,44,594,897.5877510960563,898.4220572272898,"[49, 0, 205]",205,a,0.3111129752942361,1,colour,0.5,3.9
55,22,0,2,12,45,595,898.9314559515624,899.6700698838977,"[6, 0, 248]",248,a,0.21539596418733709,1,colour,0.5,3.9
55,22,0,2,12,46,596,900.1814973053115,901.0380285207066,"[71, 0, 183]",183,l,0.33345542539609596,1,colour,0.5,3.9
55,22,0,2,12,47,597,901.5571851561253,902.4380564049352,"[80, 0, 174]",174,l,0.35836062679300085,1,colour,0.5,3.9
55,22,0,2,12,48,598,902.9489340182918,903.8300592973537,"[65, 0, 189]",189,l,0.3580928120063618,1,colour,0.5,3.9
55,22,0,2,12,49,599,904.3396139843389,905.1980651955819,"[20, 0, 234]",234,a,0.33521433849819005,1,colour,0.5,3.9
55,22,0,2,12,50,600,905.7127182099794,906.5340302032128,"[99, 0, 155]",155,l,0.2979987144935876,1,colour,0.5,3.9
55,22,0,2,13,1,601,911.1828198378207,912.750167778082,"[52, 0, 202]",202,l,1.0434301089844666,1,colour,0.5,3.9
55,22,0,2,13,2,602,913.2618968850002,913.8860810344631,"[34, 0, 220]",220,a,0.1016542290453799,1,colour,0.5,3.9
55,22,0,2,13,3,603,914.4022023041616,915.1660329695733,"[55, 0, 199]",199,l,0.24024760266183876,1,colour,0.5,3.9
55,22,0,2,13,4,604,915.6834677133593,916.5340120863111,"[33, 0, 221]",221,a,0.32741265691583976,1,colour,0.5,3.9
55,22,0,2,13,5,605,917.0429606453981,917.853995245503,"[1, 0, 253]",253,a,0.2877772474021185,1,colour,0.5,3.9
55,22,0,2,13,6,606,918.3710869500064,919.1260178931698,"[66, 0, 188]",188,l,0.2316672889282927,1,colour,0.5,3.9
55,22,0,2,13,7,607,919.636700553121,920.5820060746628,"[44, 0, 210]",210,a,0.4219481321342755,1,colour,0.5,3.9
55,22,0,2,13,8,608,921.0898089377733,921.9100512471341,"[22, 0, 232]",232,a,0.2970420642523095,1,colour,0.5,3.9
55,22,0,2,13,9,609,922.4179112178099,923.2700018274481,"[85, 0, 169]",169,l,0.32774900083313696,1,colour,0.5,3.9
55,22,0,2,13,10,610,923.7782580064668,924.5579586683016,"[5, 0, 249]",249,a,0.25630664482014254,1,colour,0.5,3.9
55,22,0,2,13,11,611,925.075223270891,925.9339777429996,"[77, 0, 177]",177,l,0.33568183286115527,1,colour,0.5,3.9
55,22,0,2,13,12,612,926.4502073201584,927.3580038029759,"[6, 0, 248]",248,a,0.38457497002673335,1,colour,0.5,3.9
55,22,0,2,13,13,613,927.872065261734,928.7259545628622,"[21, 0, 233]",233,a,0.33062682845047675,1,colour,0.5,3.9
55,22,0,2,13,14,614,929.2471115385706,930.0779860956827,"[76, 0, 178]",178,l,0.3075829398876522,1,colour,0.5,3.9
55,22,0,2,13,15,615,930.590777797217,931.5339404064871,"[73, 0, 181]",181,l,0.41994267189875245,1,colour,0.5,3.9
55,22,0,2,13,16,616,932.04390548027,932.9660139074549,"[31, 0, 223]",223,a,0.3988282314676326,1,colour,0.5,3.9
55,22,0,2,13,17,617,933.4814006556699,934.3979649225657,"[8, 0, 246]",246,a,0.39327934503671713,1,colour,0.5,3.9
55,22,0,2,13,18,618,934.9189107971906,935.7819337646652,"[60, 0, 194]",194,l,0.34015394625021145,1,colour,0.5,3.9
55,22,0,2,13,19,619,936.2938956341532,937.1339353652438,"[96, 0, 158]",158,l,0.31674063080572523,1,colour,0.5,3.9
55,22,0,2,13,20,620,937.6532822279551,938.4619167347846,"[79, 0, 175]",175,l,0.28536258183885366,1,colour,0.5,3.9
55,22,0,2,13,21,621,938.9814490986464,939.8619458005705,"[67, 0, 187]",187,l,0.3573606535792351,1,colour,0.5,3.9
55,22,0,2,13,22,622,940.3720022464986,941.2300025048607,"[23, 0, 231]",231,a,0.33471612419816665,1,colour,0.5,3.9
55,22,0,2,13,23,623,941.7492146724544,942.6299953368725,"[75, 0, 179]",179,l,0.35749613639200106,1,colour,0.5,3.9
55,22,0,2,13,24,624,943.1398678570113,943.9179293347115,"[94, 0, 160]",160,l,0.2550589429156389,1,colour,0.5,3.9
55,22,0,2,13,25,625,944.4373057358025,945.3019481951487,"[45, 0, 209]",209,a,0.34151743867550977,1,colour,0.5,3.9
55,22,0,2,13,26,626,945.8122547328239,946.6382081929187,"[18, 0, 236]",236,a,0.3026878366363235,1,colour,0.5,3.9
55,22,0,2,13,27,627,947.155832770135,948.0619491088728,"[90, 0, 164]",164,l,0.38239582398091443,1,colour,0.5,3.9
55,22,0,2,13,28,628,948.5780262679036,949.4139550417603,"[29, 0, 225]",225,a,0.3124213294067886,1,colour,0.5,3.9
55,22,0,2,13,29,629,949.9219457690779,950.7739887234056,"[36, 0, 218]",218,a,0.32864893731311895,1,colour,0.5,3.9
55,22,0,2,13,30,630,951.2814410642022,952.173943746282,"[95, 0, 159]",159,l,0.36906416053534485,1,colour,0.5,3.9
55,22,0,2,13,31,631,952.6882493891462,953.5179341396142,"[81, 0, 173]",173,l,0.30649041302967817,1,colour,0.5,3.9
55,22,0,2,13,32,632,954.0319152539305,955.0939478580258,"[63, 0, 191]",191,l,0.5385838425718248,1,colour,0.5,3.9
55,22,0,2,13,33,633,955.6116547489073,956.461903344054,"[3, 0, 251]",251,a,0.32696367328753695,1,colour,0.5,3.9
55,22,0,2,13,34,634,956.9710720626463,957.9899214987527,"[59, 0, 195]",195,l,0.4957019662251696,1,colour,0.5,3.9
55,22,0,2,13,35,635,958.502302025765,959.3579175508348,"[42, 0, 212]",212,a,0.3327098762092646,1,colour,0.5,3.9
55,22,0,2,13,36,636,959.877268745855,960.741930503631,"[57, 0, 197]",197,l,0.3414548172731884,1,colour,0.5,3.9
55,22,0,2,13,37,637,961.2523335333972,962.0939088673331,"[82, 0, 172]",172,l,0.318385722610401,1,colour,0.5,3.9
55,22,0,2,13,38,638,962.6115677091002,963.3818838250882,"[2, 0, 252]",252,a,0.24733169810497202,1,colour,0.5,3.9
55,22,0,2,13,39,639,963.8928413890535,964.7898973166593,"[46, 0, 208]",208,a,0.37393208846333437,1,colour,0.5,3.9
55,22,0,2,13,40,640,965.2866461236845,966.2139265273581,"[70, 0, 184]",184,l,0.40401281099184416,1,colour,0.5,3.9
55,22,0,2,13,41,641,966.7117544705397,967.4778926755826,"[89, 0, 165]",165,l,0.2428970000182744,1,colour,0.5,3.9
55,22,0,2,13,42,642,967.9929793136544,968.8699357401929,"[61, 0, 193]",193,a,0.35376878443639725,0,colour,0.5,3.9
55,22,0,2,13,43,643,969.3836076859734,970.1818769721722,"[38, 0, 216]",216,a,0.2749839704774786,1,colour,0.5,3.9
55,22,0,2,13,44,644,970.6961129044066,971.470003166527,"[17, 0, 237]",237,a,0.2505667434015777,1,colour,0.5,3.9
55,22,0,2,13,45,645,971.9773176614253,972.7018646211945,"[93, 0, 161]",161,l,0.20130575471557677,1,colour,0.5,3.9
55,22,0,2,13,46,646,973.1994688602281,974.077911265078,"[62, 0, 192]",192,a,0.3553752794396132,0,colour,0.5,3.9
55,22,0,2,13,47,647,974.589955054369,975.3899202384346,"[26, 0, 228]",228,a,0.27665623763459735,1,colour,0.5,3.9
55,22,0,2,13,48,648,975.9024894173781,976.733907087153,"[11, 0, 243]",243,a,0.30823908615275286,1,colour,0.5,3.9
55,22,0,2,13,49,649,977.2461702482833,977.973880967329,"[14, 0, 240]",240,a,0.20437105267774314,1,colour,0.5,3.9
55,22,0,2,13,50,650,978.4806235988799,979.3418679609895,"[15, 0, 239]",239,a,0.33806892920983955,1,colour,0.5,3.9
55,22,0,2,14,1,651,984.1586747578112,985.0458546206646,"[66, 0, 188]",188,l,0.36319980400730856,1,colour,0.5,3.9
55,22,0,2,14,2,652,985.5657887067064,986.3658499890589,"[2, 0, 252]",252,a,0.2745838236878626,1,colour,0.5,3.9
55,22,0,2,14,3,653,986.8804569235654,987.6699013181205,"[60, 0, 194]",194,l,0.26609566976549104,1,colour,0.5,3.9
55,22,0,2,14,4,654,988.1783162167994,988.9898628157971,"[63, 0, 191]",191,l,0.28835619997698814,1,colour,0.5,3.9
55,22,0,2,14,5,655,989.5064039245772,990.3178756929701,"[33, 0, 221]",221,a,0.2881844834482763,1,colour,0.5,3.9
55,22,0,2,14,6,656,990.834461700113,991.6218454960617,"[5, 0, 249]",249,a,0.263939366734121,1,colour,0.5,3.9
55,22,0,2,14,7,657,992.1314175122534,992.9658421908971,"[85, 0, 169]",169,l,0.3112854795472231,1,colour,0.5,3.9
55,22,0,2,14,8,658,993.4751483615255,994.2538844961964,"[21, 0, 233]",233,a,0.26013639650773257,1,colour,0.5,3.9
55,22,0,2,14,9,659,994.7672783871822,995.6218514037319,"[39, 0, 215]",215,a,0.33134402069845237,1,colour,0.5,3.9
55,22,0,2,14,10,660,996.1422809471842,996.9979027737572,"[91, 0, 163]",163,l,0.33090882166288793,1,colour,0.5,3.9
55,22,0,2,14,11,661,997.5173024117539,998.3578604432696,"[73, 0, 181]",181,l,0.31727429118473083,1,colour,0.5,3.9
55,22,0,2,14,12,662,998.8766578917857,999.7338023243065,"[41, 0, 213]",213,a,0.3339075597759802,1,colour,0.5,3.9
55,22,0,2,14,13,663,1000.251636427216,1001.0618163830077,"[69, 0, 185]",185,l,0.286802086426178,1,colour,0.5,3.9
55,22,0,2,14,14,664,1001.581463355833,1002.4378153716098,"[71, 0, 183]",183,l,0.3329694202693645,1,colour,0.5,3.9
55,22,0,2,14,15,665,1002.9565651648445,1003.7338346196339,"[25, 0, 229]",229,a,0.2540443973848596,1,colour,0.5,3.9
55,22,0,2,14,16,666,1004.2533803742263,1005.0778159545152,"[13, 0, 241]",241,a,0.3010951262549497,1,colour,0.5,3.9
55,22,0,2,14,17,667,1005.5972041709756,1006.4139255033806,"[65, 0, 189]",189,l,0.2934899734973442,1,colour,0.5,3.9
55,22,0,2,14,18,668,1006.9253178725485,1007.7658506979642,"[87, 0, 167]",167,l,0.31738496173056774,1,colour,0.5,3.9
55,22,0,2,14,19,669,1008.2846607495449,1009.1338506885222,"[74, 0, 180]",180,l,0.32585933106020093,1,colour,0.5,3.9
55,22,0,2,14,20,670,1009.6440560079354,1010.6538162821962,"[53, 0, 201]",201,a,0.4863741341396235,0,colour,0.5,3.9
55,22,0,2,14,21,671,1011.1596676418267,1011.9658748800575,"[45, 0, 209]",209,a,0.2829191655910108,1,colour,0.5,3.9
55,22,0,2,14,22,672,1012.4721508049406,1013.4058386778051,"[61, 0, 193]",193,l,0.4104407601407729,1,colour,0.5,3.9
55,22,0,2,14,23,673,1013.9252501311421,1014.9338918847207,"[49, 0, 205]",205,a,0.4837893274088856,1,colour,0.5,3.9
55,22,0,2,14,24,674,1015.442380038643,1016.341788798105,"[23, 0, 231]",231,a,0.3884634046989959,1,colour,0.5,3.9
55,22,0,2,14,25,675,1016.8518716316321,1017.717853952694,"[3, 0, 251]",251,a,0.342694248422049,1,colour,0.5,3.9
55,22,0,2,14,26,676,1018.226914363855,1019.0937954398978,"[29, 0, 225]",225,a,0.34363632640452124,1,colour,0.5,3.9
55,22,0,2,14,27,677,1019.5959883705364,1020.46176628588,"[12, 0, 242]",242,a,0.3425158364989329,1,colour,0.5,3.9
55,22,0,2,14,28,678,1020.9709279152739,1021.9337796388136,"[10, 0, 244]",244,a,0.4395396263280418,1,colour,0.5,3.9
55,22,0,2,14,29,679,1022.4553186444682,1023.3418140041758,"[34, 0, 220]",220,a,0.37599741321173497,1,colour,0.5,3.9
55,22,0,2,14,30,680,1023.8492419265676,1024.6538044668268,"[38, 0, 216]",216,a,0.2813666274305433,1,colour,0.5,3.9
55,22,0,2,14,31,681,1025.163820740534,1026.0217709805293,"[40, 0, 214]",214,a,0.3347444810497109,1,colour,0.5,3.9
55,22,0,2,14,32,682,1026.5386933315604,1027.373828113312,"[44, 0, 210]",210,a,0.3118486783350818,1,colour,0.5,3.9
55,22,0,2,14,33,683,1027.8824446607905,1028.7097596440872,"[4, 0, 250]",250,a,0.3041044981800951,1,colour,0.5,3.9
55,22,0,2,14,34,684,1029.2272633107787,1030.1338034270739,"[52, 0, 202]",202,a,0.3832630713295657,0,colour,0.5,3.9
55,22,0,2,14,35,685,1030.649105104705,1031.50172307319,"[98, 0, 156]",156,l,0.3293547081120778,1,colour,0.5,3.9
55,22,0,2,14,36,686,1032.0084570401523,1032.845722524944,"[47, 0, 207]",207,a,0.31400301211397164,1,colour,0.5,3.9
55,22,0,2,14,37,687,1033.3522914707137,1034.1657553086407,"[55, 0, 199]",199,a,0.2902135744225234,0,colour,0.5,3.9
55,22,0,2,14,38,688,1034.680437467614,1035.6217261609272,"[32, 0, 222]",222,a,0.4180549713491928,1,colour,0.5,3.9
55,22,0,2,14,39,689,1036.1336742458225,1036.9177859750052,"[75, 0, 179]",179,l,0.2617023254279047,1,colour,0.5,3.9
55,22,0,2,14,40,690,1037.4319234459253,1038.1978399160726,"[70, 0, 184]",184,l,0.24251339468173683,1,colour,0.5,3.9
55,22,0,2,14,41,691,1038.7135378020466,1039.5577392964624,"[92, 0, 162]",162,l,0.3207881789712701,1,colour,0.5,3.9
55,22,0,2,14,42,692,1040.0729015528632,1040.8857427213516,"[76, 0, 178]",178,l,0.28983469525701366,1,colour,0.5,3.9
55,22,0,2,14,43,693,1041.4010826019512,1042.2377427465399,"[9, 0, 245]",245,a,0.313525277771987,1,colour,0.5,3.9
55,22,0,2,14,44,694,1042.7448036051064,1043.5497308461054,"[17, 0, 237]",237,a,0.2815218024770729,1,colour,0.5,3.9
55,22,0,2,14,45,695,1044.0574191002233,1044.8857383890427,"[81, 0, 173]",173,l,0.305126920575276,1,colour,0.5,3.9
55,22,0,2,14,46,696,1045.4011865771317,1046.2538076963683,"[68, 0, 186]",186,l,0.32938030804507434,1,colour,0.5,3.9
55,22,0,2,14,47,697,1046.7604849495983,1047.541669226659,"[97, 0, 157]",157,l,0.25755277133430354,1,colour,0.5,3.9
55,22,0,2,14,48,698,1048.0573375742533,1048.8537329445244,"[88, 0, 166]",166,l,0.27307578999898396,1,colour,0.5,3.9
55,22,0,2,14,49,699,1049.3698715434002,1050.1817414893885,"[8, 0, 246]",246,a,0.2885940825508442,1,colour,0.5,3.9
55,22,0,2,14,50,700,1050.6979364081635,1051.5897797931975,"[93, 0, 161]",161,l,0.368688038259279,1,colour,0.5,3.9
55,22,0,2,15,1,701,1056.7952886649582,1058.1817229786539,"[43, 0, 211]",211,l,0.8605791573936585,0,colour,0.5,3.9
55,22,0,2,15,2,702,1058.688558951544,1059.445723785262,"[22, 0, 232]",232,a,0.23422807108727284,1,colour,0.5,3.9
55,22,0,2,15,3,703,1059.9569527086278,1060.7897035447531,"[89, 0, 165]",165,l,0.30933752068085596,1,colour,0.5,3.9
55,22,0,2,15,4,704,1061.3007217608974,1062.1736869591405,"[55, 0, 199]",199,a,0.34966846101451665,0,colour,0.5,3.9
55,22,0,2,15,5,705,1062.6913556470245,1063.4776961467578,"[18, 0, 236]",236,a,0.2632095713634044,1,colour,0.5,3.9
55,22,0,2,15,6,706,1063.988210634765,1064.9576994393137,"[94, 0, 160]",160,l,0.45748006747453474,1,colour,0.5,3.9
55,22,0,2,15,7,707,1065.464936740551,1067.2216892182478,"[87, 0, 167]",167,l,1.2306818880024366,1,colour,0.5,3.9
55,22,0,2,15,8,708,1067.7335132418666,1068.6136984121695,"[47, 0, 207]",207,l,0.3546990470495075,0,colour,0.5,3.9
55,22,0,2,15,9,709,1069.126364477037,1070.005833636591,"[48, 0, 206]",206,l,0.35613658241345547,0,colour,0.5,3.9
55,22,0,2,15,10,710,1070.517007815477,1071.3256950975629,"[80, 0, 174]",174,l,0.2854070863686502,1,colour,0.5,3.9
55,22,0,2,15,11,711,1071.8451116709039,1072.6537107316544,"[95, 0, 159]",159,l,0.2853168958099559,1,colour,0.5,3.9
55,22,0,2,15,12,712,1073.1731930771493,1073.9897088222788,"[81, 0, 173]",173,l,0.2936423915962223,1,colour,0.5,3.9
55,22,0,2,15,13,713,1074.4981631055125,1075.309744362894,"[3, 0, 251]",251,a,0.28803206532029435,1,colour,0.5,3.9
55,22,0,2,15,14,714,1075.828841527662,1076.6376501141349,"[39, 0, 215]",215,a,0.2854681324097328,1,colour,0.5,3.9
55,22,0,2,15,15,715,1077.1570158814138,1077.9816535043647,"[23, 0, 231]",231,a,0.30137436257791705,1,colour,0.5,3.9
55,22,0,2,15,16,716,1078.5007349153166,1079.3657066293526,"[45, 0, 209]",209,a,0.3407561357016675,1,colour,0.5,3.9
55,22,0,2,15,17,717,1079.8675261946337,1080.7736255980562,"[19, 0, 235]",235,a,0.38283968763425946,1,colour,0.5,3.9
55,22,0,2,15,18,718,1081.2893695639505,1082.1656438504288,"[4, 0, 250]",250,a,0.35296927849412896,1,colour,0.5,3.9
55,22,0,2,15,19,719,1082.680137751333,1083.4856679695076,"[38, 0, 216]",216,a,0.2822094563744031,1,colour,0.5,3.9
55,22,0,2,15,20,720,1083.9926780220121,1085.0216307716037,"[53, 0, 201]",201,l,0.5059580917004496,1,colour,0.5,3.9
55,22,0,2,15,21,721,1085.5395345851139,1086.3496361657162,"[33, 0, 221]",221,a,0.2875291248783469,1,colour,0.5,3.9
55,22,0,2,15,22,722,1086.8625554731116,1087.6616179637494,"[44, 0, 210]",210,a,0.2744349501444958,1,colour,0.5,3.9
55,22,0,2,15,23,723,1088.164613551111,1089.0456320980738,"[83, 0, 171]",171,l,0.3578123941551894,1,colour,0.5,3.9
55,22,0,2,15,24,724,1089.5552943048242,1090.5095865884505,"[58, 0, 196]",196,l,0.4316564188047778,1,colour,0.5,3.9
55,22,0,2,15,25,725,1091.0126156526676,1091.8296875073866,"[79, 0, 175]",175,l,0.29382277277181856,1,colour,0.5,3.9
55,22,0,2,15,26,726,1092.3407262034598,1093.2455912957084,"[9, 0, 245]",245,a,0.38158529036445543,1,colour,0.5,3.9
55,22,0,2,15,27,727,1093.7625943850144,1094.6136027077737,"[15, 0, 239]",239,a,0.3277458500524517,1,colour,0.5,3.9
55,22,0,2,15,28,728,1095.1219408066245,1095.9496429398423,"[78, 0, 176]",176,l,0.3043857037264388,1,colour,0.5,3.9
55,22,0,2,15,29,729,1096.465688985103,1097.2776057986484,"[17, 0, 237]",237,a,0.28870514692971483,1,colour,0.5,3.9
55,22,0,2,15,30,730,1097.7938117450976,1098.6296530853142,"[61, 0, 193]",193,l,0.31249497848330066,1,colour,0.5,3.9
55,22,0,2,15,31,731,1099.1375351113093,1099.9576017656946,"[98, 0, 156]",156,l,0.2967584956495557,1,colour,0.5,3.9
55,22,0,2,15,32,732,1100.4563485499239,1101.2616298578796,"[30, 0, 224]",224,a,0.28198693378362805,1,colour,0.5,3.9
55,22,0,2,15,33,733,1101.7707505273574,1102.6055765343772,"[28, 0, 226]",226,a,0.31147570683970116,1,colour,0.5,3.9
55,22,0,2,15,34,734,1103.1021327510825,1104.06166554027,"[67, 0, 187]",187,l,0.44860948977293447,1,colour,0.5,3.9
55,22,0,2,15,35,735,1104.574786496465,1105.3496668856533,"[86, 0, 168]",168,l,0.25170731940306723,1,colour,0.5,3.9
55,22,0,2,15,36,736,1105.8559699858306,1106.6296109438408,"[7, 0, 247]",247,a,0.2502819932124112,1,colour,0.5,3.9
55,22,0,2,15,37,737,1107.1378706675023,1108.045668725681,"[62, 0, 192]",192,a,0.3851436826516874,0,colour,0.5,3.9
55,22,0,2,15,38,738,1108.559094518132,1109.413617910177,"[56, 0, 198]",198,a,0.33133732533315197,0,colour,0.5,3.9
55,22,0,2,15,39,739,1109.9340958966059,1110.7656395968806,"[84, 0, 170]",170,l,0.3083722058509011,1,colour,0.5,3.9
55,22,0,2,15,40,740,1111.2778763703827,1112.1735845593794,"[34, 0, 220]",220,a,0.3724854946776759,1,colour,0.5,3.9
55,22,0,2,15,41,741,1112.6840899889357,1113.5575880598626,"[20, 0, 234]",234,a,0.3505750929180067,1,colour,0.5,3.9
55,22,0,2,15,42,742,1114.075634445384,1114.9656188806111,"[57, 0, 197]",197,l,0.3670252234151121,1,colour,0.5,3.9
55,22,0,2,15,43,743,1115.4818169501668,1116.2775549926155,"[40, 0, 214]",214,a,0.27240310225170106,1,colour,0.5,3.9
55,22,0,2,15,44,744,1116.7944005438185,1117.6616427760164,"[63, 0, 191]",191,l,0.3439624303136952,1,colour,0.5,3.9
55,22,0,2,15,45,745,1118.162560435565,1119.0055725171696,"[5, 0, 249]",249,a,0.3197807226970326,1,colour,0.5,3.9
55,22,0,2,15,46,746,1119.5219348201645,1120.5816165616561,"[50, 0, 204]",204,a,0.5364393549098168,1,colour,0.5,3.9
55,22,0,2,15,47,747,1121.1002103921492,1121.9255510289513,"[69, 0, 185]",185,l,0.3019934873736929,1,colour,0.5,3.9
55,22,0,2,15,48,748,1122.4440176474163,1123.3175696751568,"[64, 0, 190]",190,l,0.35034390570945106,1,colour,0.5,3.9
55,22,0,2,15,49,749,1123.8346468074014,1124.685575573385,"[71, 0, 183]",183,l,0.32760603495989926,1,colour,0.5,3.9
55,22,0,2,15,50,750,1125.1940200105018,1126.0135813613597,"[29, 0, 225]",225,a,0.29630636124056764,1,colour,0.5,3.9
55,22,0,2,16,1,751,1131.1932114460797,1132.2135003867443,"[29, 0, 225]",225,a,0.496260832704138,1,colour,0.5,3.9
55,22,0,2,16,2,752,1132.7251838076045,1133.445565853297,"[82, 0, 172]",172,l,0.19760912272613496,1,colour,0.5,3.9
55,22,0,2,16,3,753,1133.9595532691455,1134.757551195944,"[65, 0, 189]",189,l,0.27450229768874124,1,colour,0.5,3.9
55,22,0,2,16,4,754,1135.2721380443545,1136.0775245089899,"[94, 0, 160]",160,l,0.2822181209921837,1,colour,0.5,3.9
55,22,0,2,16,5,755,1136.5845467706968,1137.405491700105,"[28, 0, 226]",226,a,0.2976651275239419,1,colour,0.5,3.9
55,22,0,2,16,6,756,1137.9135119658022,1138.8375431457534,"[68, 0, 186]",186,l,0.40078485492267646,1,colour,0.5,3.9
55,22,0,2,16,7,757,1139.3523426706088,1140.2375391285168,"[49, 0, 205]",205,a,0.362022206565598,1,colour,0.5,3.9
55,22,0,2,16,8,758,1140.7448292050394,1141.621500881418,"[52, 0, 202]",202,a,0.3534493759216275,0,colour,0.5,3.9
55,22,0,2,16,9,759,1142.135435128148,1142.9654727640154,"[39, 0, 215]",215,a,0.3072103622253053,1,colour,0.5,3.9
55,22,0,2,16,10,760,1143.4791309252032,1144.3095446833177,"[99, 0, 155]",155,l,0.30709339017630555,1,colour,0.5,3.9
55,22,0,2,16,11,761,1144.8229070666712,1145.6536961593665,"[55, 0, 199]",199,a,0.3075648229860235,0,colour,0.5,3.9
55,22,0,2,16,12,762,1146.166636734415,1146.9815262923075,"[2, 0, 252]",252,a,0.29162550982437097,1,colour,0.5,3.9
55,22,0,2,16,13,763,1147.4947854882048,1148.3495109229116,"[7, 0, 247]",247,a,0.3315303095441777,1,colour,0.5,3.9
55,22,0,2,16,14,764,1148.869799469714,1149.7015814464248,"[66, 0, 188]",188,l,0.3085647962288931,1,colour,0.5,3.9
55,22,0,2,16,15,765,1150.2135122021136,1151.005508320377,"[96, 0, 158]",158,l,0.2686611780372914,1,colour,0.5,3.9
55,22,0,2,16,16,766,1151.5260000913695,1152.3096199077845,"[35, 0, 219]",219,a,0.2604569865798112,1,colour,0.5,3.9
55,22,0,2,16,17,767,1152.8228661067842,1153.589477320027,"[38, 0, 216]",216,a,0.24336882669012994,1,colour,0.5,3.9
55,22,0,2,16,18,768,1154.1041157621657,1154.9174831079727,"[89, 0, 165]",165,l,0.28846687052282505,1,colour,0.5,3.9
55,22,0,2,16,19,769,1155.433944266173,1156.24553812659,"[40, 0, 214]",214,a,0.28843575675273314,1,colour,0.5,3.9
55,22,0,2,16,20,770,1156.7619847125025,1157.6214591338066,"[24, 0, 230]",230,a,0.33626787466346286,1,colour,0.5,3.9
55,22,0,2,16,21,771,1158.1370128724375,1159.117497443949,"[36, 0, 218]",218,a,0.4572677848918829,1,colour,0.5,3.9
55,22,0,2,16,22,772,1159.6369868786423,1160.5015084274928,"[91, 0, 163]",163,l,0.3412291439308319,1,colour,0.5,3.9
55,22,0,2,16,23,773,1161.012038275454,1161.8935188029718,"[84, 0, 170]",170,l,0.3583555068471469,1,colour,0.5,3.9
55,22,0,2,16,24,774,1162.4025689741247,1163.181448468502,"[98, 0, 156]",156,l,0.2555847263720352,1,colour,0.5,3.9
55,22,0,2,16,25,775,1163.6994609833055,1164.5895092214923,"[18, 0, 236]",236,a,0.36692636826774105,1,colour,0.5,3.9
55,22,0,2,16,26,776,1165.1056742080254,1165.965464887122,"[8, 0, 246]",246,a,0.3365301756421104,1,colour,0.5,3.9
55,22,0,2,16,27,777,1166.480745690933,1167.3734850740584,"[59, 0, 195]",195,l,0.36947494122432545,1,colour,0.5,3.9
55,22,0,2,16,28,778,1167.8870290200866,1168.7574381623417,"[34, 0, 220]",220,a,0.3472727000480518,1,colour,0.5,3.9
55,22,0,2,16,29,779,1169.280408007966,1170.1415212196007,"[3, 0, 251]",251,a,0.33782356360461563,1,colour,0.5,3.9
55,22,0,2,16,30,780,1170.6553522788745,1171.557493930828,"[25, 0, 229]",229,a,0.37885594239924103,1,colour,0.5,3.9
55,22,0,2,16,31,781,1172.0773161648249,1172.933445658011,"[31, 0, 223]",223,a,0.3329493341734633,1,colour,0.5,3.9
55,22,0,2,16,32,782,1173.4522458634456,1174.285581559845,"[21, 0, 233]",233,a,0.3100350207241718,1,colour,0.5,3.9
55,22,0,2,16,33,783,1174.7959849834733,1175.6454435249325,"[17, 0, 237]",237,a,0.32612005664850585,1,colour,0.5,3.9
55,22,0,2,16,34,784,1176.1553109250963,1177.0134884138533,"[73, 0, 181]",181,l,0.3347968624730129,1,colour,0.5,3.9
55,22,0,2,16,35,785,1177.5304505432723,1178.3654825313715,"[43, 0, 211]",211,a,0.3117825123190414,1,colour,0.5,3.9
55,22,0,2,16,36,786,1178.8625688638422,1179.70943826632,"[37, 0, 217]",217,a,0.3235687268024776,1,colour,0.5,3.9
55,22,0,2,16,37,787,1180.222563948657,1181.1574656527373,"[81, 0, 173]",173,l,0.4116029976285063,1,colour,0.5,3.9
55,22,0,2,16,38,788,1181.675691237906,1182.5174126884085,"[6, 0, 248]",248,a,0.3165641881059855,1,colour,0.5,3.9
55,22,0,2,16,39,789,1183.0370785658597,1183.869458793546,"[1, 0, 253]",253,a,0.30903032136848196,1,colour,0.5,3.9
55,22,0,2,16,40,790,1184.380861796555,1185.7014530528686,"[60, 0, 194]",194,l,0.7974047957686707,1,colour,0.5,3.9
55,22,0,2,16,41,791,1186.2089313874021,1187.1654288108693,"[92, 0, 162]",162,l,0.4333704335731454,1,colour,0.5,3.9
55,22,0,2,16,42,792,1187.678075183474,1188.837408056832,"[64, 0, 190]",190,l,0.6362866217386909,1,colour,0.5,3.9
55,22,0,2,16,43,793,1189.3499591188738,1190.1574061820866,"[71, 0, 183]",183,l,0.2842369719874114,1,colour,0.5,3.9
55,22,0,2,16,44,794,1190.6644371084403,1191.557448638603,"[61, 0, 193]",193,l,0.3696631992352195,1,colour,0.5,3.9
55,22,0,2,16,45,795,1192.0710701721837,1192.8374387767399,"[19, 0, 235]",235,a,0.2430226366268471,1,colour,0.5,3.9
55,22,0,2,16,46,796,1193.3523623629007,1194.1973984154756,"[75, 0, 179]",179,l,0.3217692475882359,1,colour,0.5,3.9
55,22,0,2,16,47,797,1194.7117142982897,1195.5254644617671,"[83, 0, 171]",171,l,0.2904313709004782,1,colour,0.5,3.9
55,22,0,2,16,48,798,1196.0406700411113,1196.853533658781,"[22, 0, 232]",232,a,0.2896842462942004,1,colour,0.5,3.9
55,22,0,2,16,49,799,1197.3656266787439,1198.301415322465,"[88, 0, 166]",166,l,0.4131074866745621,1,colour,0.5,3.9
55,22,0,2,16,50,800,1198.8180135388393,1199.7573952332023,"[70, 0, 184]",184,l,0.416067234124057,1,colour,0.5,3.9
