id,age,condition,counterbalance,block,trialinblock,trial,tstart,tend,trialstim,trialintensity,response,RT,accuracy,trialtype,colourfreq,credits
40,20,1,1,Practice,1,NA,5.907611921429634e-06,1.7968050494091585,"[79, 0, 175]",175,l,1.2725810130359605,1,colour,0.5,4
40,20,1,1,Practice,2,NA,2.3133703731000423,10.700820261263289,"[43, 0, 211]",211,l,7.8643191658193246,0,colour,0.5,4
40,20,1,1,Practice,3,NA,11.209266467369162,13.50885816803202,"[0, 0, 254]",254,a,1.776384572382085,1,colour,0.5,4
40,20,1,1,Practice,4,NA,14.021983254468068,14.636775920633227,"[2, 0, 252]",252,a,0.09000858187209815,1,colour,0.5,4
40,20,1,1,Practice,5,NA,15.165844646166079,16.068793719285168,"[30, 0, 224]",224,a,0.3815922293579206,1,colour,0.5,4
40,20,1,1,Practice,6,NA,16.586013219784945,17.988789591705427,"[83, 0, 171]",171,l,0.879475902300328,1,colour,0.5,4
40,20,1,1,Practice,7,NA,18.50687161309179,19.11677075328771,"[97, 0, 157]",157,l,0.08707010315265507,1,colour,0.5,4
40,20,1,1,Practice,8,NA,19.631897754617967,20.148816357483156,"[53, 0, 201]",201,a,0.004816726199351251,0,colour,0.5,4
40,20,1,1,Practice,9,NA,20.66779752727598,21.612833680352196,"[15, 0, 239]",239,a,0.4222236576024443,1,colour,0.5,4
40,20,1,1,Practice,10,NA,22.121138495975174,23.65279360266868,"[60, 0, 194]",194,a,1.0076323250541463,0,colour,0.5,4
40,20,1,1,1,1,1,4.268065184471197,5.111843750579283,"[63, 0, 191]",191,l,0.31959588336758316,1,colour,0.5,4.0
40,20,1,1,1,2,2,5.628401591209695,8.015814064070582,"[1, 0, 253]",253,a,1.8644790669204667,1,colour,0.5,4.0
40,20,1,1,1,3,3,8.536082713748328,9.287838967749849,"[25, 0, 229]",229,a,0.22837583383079618,1,colour,0.5,4.0
40,20,1,1,1,4,4,9.799451688770205,10.79187016969081,"[24, 0, 230]",230,a,0.469229863374494,1,colour,0.5,4.0
40,20,1,1,1,5,5,11.30093274335377,12.199888620525599,"[89, 0, 165]",165,l,0.37546439259313047,1,colour,0.5,4.0
40,20,1,1,1,6,6,12.701505945646204,13.655869927024469,"[90, 0, 164]",164,l,0.42850036756135523,1,colour,0.5,4.0
40,20,1,1,1,7,7,14.170488868141547,15.031822293880396,"[40, 0, 214]",214,a,0.33341354643926024,1,colour,0.5,4.0
40,20,1,1,1,8,8,15.55076132225804,16.607799551682547,"[92, 0, 162]",162,l,0.5336519015254453,1,colour,0.5,4.0
40,20,1,1,1,9,9,17.128952777478844,18.191821096581407,"[52, 0, 202]",202,a,0.5395320096286014,0,colour,0.5,4.0
40,20,1,1,1,10,10,18.70984640426468,19.943842014530674,"[8, 0, 246]",246,a,0.7230071338126436,1,colour,0.5,4.0
40,20,1,1,1,11,11,20.45711203594692,21.70379300438799,"[4, 0, 250]",250,a,0.7232142962748185,1,colour,0.5,4.0
40,20,1,1,1,12,12,22.22293407539837,23.30375346238725,"[83, 0, 171]",171,l,0.55751734203659,1,colour,0.5,4.0
40,20,1,1,1,13,13,23.816793478210457,24.935766219743527,"[41, 0, 213]",213,a,0.5956250105518848,1,colour,0.5,4.0
40,20,1,1,1,14,14,25.441874561016448,26.511771046789363,"[0, 0, 254]",254,a,0.5550050038145855,1,colour,0.5,4.0
40,20,1,1,1,15,15,27.027799559524283,28.16777527506929,"[7, 0, 247]",247,a,0.6166638244176283,1,colour,0.5,4.0
40,20,1,1,1,16,16,28.685778133571148,29.99975069600623,"[22, 0, 232]",232,a,0.7906232560053468,1,colour,0.5,4.0
40,20,1,1,1,17,17,30.514022265560925,31.663838595850393,"[74, 0, 180]",180,l,0.6264579654671252,1,colour,0.5,4.0
40,20,1,1,1,18,18,32.17171254497953,33.60777710250113,"[93, 0, 161]",161,l,0.9129724319791421,1,colour,0.5,4.0
40,20,1,1,1,19,19,34.1249631261453,35.34372244309634,"[97, 0, 157]",157,l,0.70721906342078,1,colour,0.5,4.0
40,20,1,1,1,20,20,35.86005815514363,37.1838772399351,"[95, 0, 159]",159,l,0.8002724619582295,1,colour,0.5,4.0
40,20,1,1,1,21,21,37.703821755130775,38.855815655202605,"[77, 0, 177]",177,l,0.6288816884625703,1,colour,0.5,4.0
40,20,1,1,1,22,22,39.37596575752832,40.50373109197244,"[6, 0, 248]",248,a,0.6048134178854525,1,colour,0.5,4.0
40,20,1,1,1,23,23,41.01804834755603,41.935744558344595,"[34, 0, 220]",220,a,0.3943449351936579,1,colour,0.5,4.0
40,20,1,1,1,24,24,42.45541850174777,43.49579038610682,"[37, 0, 217]",217,a,0.5167858770582825,1,colour,0.5,4.0
40,20,1,1,1,25,25,44.002576141036116,44.911689678323455,"[94, 0, 160]",160,l,0.38582291384227574,1,colour,0.5,4.0
40,20,1,1,1,26,26,45.4245138670085,46.39171641250141,"[86, 0, 168]",168,l,0.44400250643957406,1,colour,0.5,4.0
40,20,1,1,1,27,27,46.9091009341646,48.663762583746575,"[71, 0, 183]",183,l,1.231366693857126,1,colour,0.5,4.0
40,20,1,1,1,28,28,49.17486566922162,50.0317254079273,"[35, 0, 219]",219,a,0.3324320843676105,1,colour,0.5,4.0
40,20,1,1,1,29,29,50.55122724105604,51.39972722274251,"[88, 0, 166]",166,l,0.327969818841666,1,colour,0.5,4.0
40,20,1,1,1,30,30,51.90800683235284,53.04768755787518,"[66, 0, 188]",188,l,0.6269542103400454,1,colour,0.5,4.0
40,20,1,1,1,31,31,53.55403181235306,54.607697545783594,"[96, 0, 158]",158,l,0.5303038239944726,1,colour,0.5,4.0
40,20,1,1,1,32,32,55.11655492614955,56.01568842749111,"[38, 0, 216]",216,a,0.37569518596865237,1,colour,0.5,4.0
40,20,1,1,1,33,33,56.5229243474314,57.45567568263505,"[85, 0, 169]",169,l,0.41014324536081403,1,colour,0.5,4.0
40,20,1,1,1,34,34,57.976232626941055,58.935674060019664,"[81, 0, 173]",173,l,0.43624730163719505,1,colour,0.5,4.0
40,20,1,1,1,35,35,59.446291140513495,60.31972742755897,"[21, 0, 233]",233,a,0.3467274815775454,1,colour,0.5,4.0
40,20,1,1,1,36,36,60.840405676164664,61.68765953183174,"[29, 0, 225]",225,a,0.32402742898557335,1,colour,0.5,4.0
40,20,1,1,1,37,37,62.1998630205635,64.44769834924955,"[59, 0, 195]",195,a,1.7245017760433257,0,colour,0.5,4.0
40,20,1,1,1,38,38,64.96554800204467,65.83979561005253,"[50, 0, 204]",204,a,0.3507376128109172,1,colour,0.5,4.0
40,20,1,1,1,39,39,66.35624159872532,67.36800851020962,"[3, 0, 251]",251,a,0.4892596460413188,1,colour,0.5,4.0
40,20,1,1,1,40,40,67.88764188752975,68.77572448796127,"[15, 0, 239]",239,a,0.364633257384412,1,colour,0.5,4.0
40,20,1,1,1,41,41,69.29402312415186,70.07966699602548,"[47, 0, 207]",207,a,0.26232134690508246,1,colour,0.5,4.0
40,20,1,1,1,42,42,70.59099811781198,71.68771033792291,"[17, 0, 237]",237,a,0.573212071089074,1,colour,0.5,4.0
40,20,1,1,1,43,43,72.18819811509456,73.68768040568102,"[60, 0, 194]",194,a,0.9764244296820834,0,colour,0.5,4.0
40,20,1,1,1,44,44,74.20174796343781,75.32768034259789,"[42, 0, 212]",212,a,0.6026165495859459,1,colour,0.5,4.0
40,20,1,1,1,45,45,75.84246784937568,77.83168161241338,"[69, 0, 185]",185,l,1.4659266842063516,1,colour,0.5,4.0
40,20,1,1,1,46,46,78.34266733191907,79.35963575623464,"[54, 0, 200]",200,a,0.49384833581279963,0,colour,0.5,4.0
40,20,1,1,1,47,47,79.87498882459477,80.80759089253843,"[44, 0, 210]",210,a,0.40933034906629473,1,colour,0.5,4.0
40,20,1,1,1,48,48,81.32811987376772,84.82363338686991,"[79, 0, 175]",175,l,2.972361129242927,1,colour,0.5,4.0
40,20,1,1,1,49,49,85.34680309984833,89.91159594315104,"[13, 0, 241]",241,a,4.0417089886032045,1,colour,0.5,4.0
40,20,1,1,1,50,50,90.4224595708074,91.27160427696072,"[39, 0, 215]",215,a,0.32613056199625134,1,colour,0.5,4.0
40,20,1,1,2,1,51,99.29912578186486,99.99955456110183,"[68, 0, 186]",186,l,0.17631895781960338,1,colour,0.5,4.0
40,20,1,1,2,2,52,100.51879173028283,101.1436250845436,"[17, 0, 237]",237,a,0.10147695860359818,1,colour,0.5,4.0
40,20,1,1,2,3,53,101.65938184421975,102.97558829630725,"[44, 0, 210]",210,a,0.7926452569663525,1,colour,0.5,4.0
40,20,1,1,2,4,54,103.48765630228445,104.38352403964382,"[64, 0, 190]",190,l,0.37256569240707904,1,colour,0.5,4.0
40,20,1,1,2,5,55,104.89492250897456,105.83961641055066,"[98, 0, 156]",156,l,0.4213863428449258,1,colour,0.5,4.0
40,20,1,1,2,6,56,106.34829419758171,107.23166444071103,"[48, 0, 206]",206,a,0.3600776505190879,1,colour,0.5,4.0
40,20,1,1,2,7,57,107.73899094504304,108.76757819496561,"[78, 0, 176]",176,l,0.5051804421236739,1,colour,0.5,4.0
40,20,1,1,2,8,58,109.28594969247933,110.18355113617145,"[53, 0, 201]",201,a,0.37419306044466794,0,colour,0.5,4.0
40,20,1,1,2,9,59,110.69234707672149,111.72758991573937,"[35, 0, 219]",219,a,0.5118419388309121,1,colour,0.5,4.0
40,20,1,1,2,10,60,112.2410446505528,113.52756856940687,"[32, 0, 222]",222,a,0.7636039037024602,1,colour,0.5,4.0
40,20,1,1,2,11,61,114.03796549048275,115.0796729036374,"[28, 0, 226]",226,a,0.5182029318530113,1,colour,0.5,4.0
40,20,1,1,2,12,62,115.60068473906722,117.23153053340502,"[9, 0, 245]",245,a,1.1074767956743017,1,colour,0.5,4.0
40,20,1,1,2,13,63,117.74146626179572,118.79159211495426,"[99, 0, 155]",155,l,0.5269498386187479,1,colour,0.5,4.0
40,20,1,1,2,14,64,119.3053457782371,120.12755305191968,"[37, 0, 217]",217,a,0.31068631855305284,1,colour,0.5,4.0
40,20,1,1,2,15,65,120.63731824536808,121.45550751080737,"[21, 0, 233]",233,a,0.29521647503133863,1,colour,0.5,4.0
40,20,1,1,2,16,66,121.96561850025319,122.76754314277787,"[25, 0, 229]",229,a,0.2784229180542752,1,colour,0.5,4.0
40,20,1,1,2,17,67,123.27824647538364,124.05548608559184,"[30, 0, 224]",224,a,0.2541348817758262,1,colour,0.5,4.0
40,20,1,1,2,18,68,124.57517932751216,125.39151358231902,"[50, 0, 204]",204,a,0.2929861299926415,1,colour,0.5,4.0
40,20,1,1,2,19,69,125.90341577946674,126.79949540551752,"[69, 0, 185]",185,l,0.3726511567365378,1,colour,0.5,4.0
40,20,1,1,2,20,70,127.30977614235599,128.34351212973706,"[14, 0, 240]",240,a,0.5103910133475438,1,colour,0.5,4.0
40,20,1,1,2,21,71,128.85670692683198,129.8315059574088,"[20, 0, 234]",234,a,0.451413884293288,1,colour,0.5,4.0
40,20,1,1,2,22,72,130.34124043094926,131.09548066626303,"[45, 0, 209]",209,a,0.23083263984881341,1,colour,0.5,4.0
40,20,1,1,2,23,73,131.60701304289978,132.68751380918548,"[12, 0, 242]",242,a,0.557214081287384,1,colour,0.5,4.0
40,20,1,1,2,24,74,133.20088150410447,134.24751788936555,"[81, 0, 173]",173,l,0.5232402113033459,1,colour,0.5,4.0
40,20,1,1,2,25,75,134.76340461790096,135.82345970114693,"[83, 0, 171]",171,l,0.5368322010617703,1,colour,0.5,4.0
40,20,1,1,2,26,76,136.34172604209743,137.23153053340502,"[31, 0, 223]",223,a,0.3644639039412141,1,colour,0.5,4.0
40,20,1,1,2,27,77,137.7501855994342,138.62349861301482,"[85, 0, 169]",169,l,0.35005507920868695,1,colour,0.5,4.0
40,20,1,1,2,28,78,139.12875546107534,139.96754637220874,"[6, 0, 248]",248,a,0.32796666806098074,1,colour,0.5,4.0
40,20,1,1,2,29,79,140.48397424409632,141.64746527164243,"[56, 0, 198]",198,a,0.6399979677516967,0,colour,0.5,4.0
40,20,1,1,2,30,80,142.1560107266996,143.1594580532983,"[88, 0, 166]",166,l,0.49084329733159393,1,colour,0.5,4.0
40,20,1,1,2,31,81,143.676835091901,144.6074502110714,"[95, 0, 159]",159,l,0.40720082842744887,1,colour,0.5,4.0
40,20,1,1,2,32,82,145.1145022052806,146.11142903158907,"[84, 0, 170]",170,l,0.47089228371623904,1,colour,0.5,4.0
40,20,1,1,2,33,83,146.6191426856676,147.42348750657402,"[42, 0, 212]",212,a,0.27843079494778067,1,colour,0.5,4.0
40,20,1,1,2,34,84,147.92370943829883,148.89545065525454,"[73, 0, 181]",181,l,0.4575086379190907,1,colour,0.5,4.0
40,20,1,1,2,35,85,149.4028456886299,150.47147438686807,"[82, 0, 172]",172,l,0.5452774226432666,1,colour,0.5,4.0
40,20,1,1,2,36,86,150.98104186996352,151.68747718154918,"[54, 0, 200]",200,a,0.18308364204131067,0,colour,0.5,4.0
40,20,1,1,2,37,87,152.1999532111222,153.20745084120426,"[0, 0, 254]",254,a,0.48407506849616766,1,colour,0.5,4.0
40,20,1,1,2,38,88,153.7156694047153,154.6554378789151,"[89, 0, 165]",165,l,0.4147890426684171,1,colour,0.5,4.0
40,20,1,1,2,39,89,155.16915491456166,155.99143898801412,"[51, 0, 203]",203,a,0.2988729333737865,0,colour,0.5,4.0
40,20,1,1,2,40,90,156.51291792385746,157.39943932194728,"[24, 0, 230]",230,a,0.36329654685687274,1,colour,0.5,4.0
40,20,1,1,2,41,91,157.9193574495148,158.9674187664641,"[77, 0, 177]",177,l,0.5247309152036905,1,colour,0.5,4.0
40,20,1,1,2,42,92,159.4828864437295,160.24748953257222,"[29, 0, 225]",225,a,0.23968942952342331,1,colour,0.5,4.0
40,20,1,1,2,43,93,160.76424744655378,161.8474480212899,"[33, 0, 221]",221,a,0.5599662711611018,1,colour,0.5,4.0
40,20,1,1,2,44,94,162.3580603756709,163.34346801915672,"[87, 0, 167]",167,l,0.4623407240724191,1,colour,0.5,4.0
40,20,1,1,2,45,95,163.8612916781567,164.51943291025236,"[8, 0, 246]",246,a,0.13498687907122076,1,colour,0.5,4.0
40,20,1,1,2,46,96,165.03326888708398,166.1354437393602,"[15, 0, 239]",239,a,0.5787782844854519,1,colour,0.5,4.0
40,20,1,1,2,47,97,166.64278402831405,167.74338231841102,"[79, 0, 175]",175,l,0.5755223666783422,1,colour,0.5,4.0
40,20,1,1,2,48,98,168.25438379182015,169.38342400302645,"[7, 0, 247]",247,a,0.606039457838051,1,colour,0.5,4.0
40,20,1,1,2,49,99,169.8941493909806,172.103418615181,"[61, 0, 193]",193,a,1.685962846968323,0,colour,0.5,4.0
40,20,1,1,2,50,100,172.61324446077924,174.43943784118164,"[74, 0, 180]",180,a,1.3007342455675825,0,colour,0.5,4.0
40,20,1,1,3,1,101,179.13181091169827,180.3594014183618,"[76, 0, 178]",178,l,0.703292427235283,1,colour,0.5,4.0
40,20,1,1,3,2,102,180.8670209434349,181.6634416000452,"[56, 0, 198]",198,a,0.27296343666967005,0,colour,0.5,4.0
40,20,1,1,3,3,103,182.1796883030329,183.19939907104708,"[98, 0, 156]",156,l,0.4962724526412785,1,colour,0.5,4.0
40,20,1,1,3,4,104,183.71106771810446,184.56733117531985,"[37, 0, 217]",217,a,0.3330228520790115,1,colour,0.5,4.0
40,20,1,1,3,5,105,185.0736939405324,185.75145771924872,"[40, 0, 214]",214,a,0.15502926462795585,1,colour,0.5,4.0
40,20,1,1,3,6,106,186.26287863776088,188.19139219925273,"[71, 0, 183]",183,a,1.4054899651091546,0,colour,0.5,4.0
40,20,1,1,3,7,107,188.70058710488956,189.6153405046789,"[77, 0, 177]",177,l,0.39170696027576923,1,colour,0.5,4.0
40,20,1,1,3,8,108,190.12252601247746,190.92734581057448,"[16, 0, 238]",238,a,0.28139172273222357,1,colour,0.5,4.0
40,20,1,1,3,9,109,191.43512917519547,192.159358804347,"[25, 0, 229]",229,a,0.20089095656294376,1,colour,0.5,4.0
40,20,1,1,3,10,110,192.66959582420532,193.46340883208904,"[12, 0, 242]",242,a,0.2704231353709474,1,colour,0.5,4.0
40,20,1,1,3,11,111,193.98482475266792,195.52734328992665,"[59, 0, 195]",195,l,1.0192353968741372,1,colour,0.5,4.0
40,20,1,1,3,12,112,196.0488860287005,197.07937436900102,"[65, 0, 189]",189,l,0.5069712559925392,1,colour,0.5,4.0
40,20,1,1,3,13,113,197.59269086422864,198.5273082377389,"[83, 0, 171]",171,l,0.41123774112202227,1,colour,0.5,4.0
40,20,1,1,3,14,114,199.04592470696662,199.92740488727577,"[8, 0, 246]",246,a,0.37070831866003573,1,colour,0.5,4.0
40,20,1,1,3,15,115,200.427720554173,201.10332566779107,"[74, 0, 180]",180,l,0.15233969618566334,1,colour,0.5,4.0
40,20,1,1,3,16,116,201.61527512641624,202.45529207750224,"[20, 0, 234]",234,a,0.3165128636173904,1,colour,0.5,4.0
40,20,1,1,3,17,117,202.9768226069864,203.77528062451165,"[68, 0, 186]",186,l,0.27528200298547745,1,colour,0.5,4.0
40,20,1,1,3,18,118,204.28942970826756,205.0313910334371,"[3, 0, 251]",251,a,0.22378871939145029,1,colour,0.5,4.0
40,20,1,1,3,19,119,205.55011187167838,206.20727361086756,"[46, 0, 208]",208,a,0.12913473404478282,1,colour,0.5,4.0
40,20,1,1,3,20,120,206.71505579398945,207.35132286674343,"[42, 0, 212]",212,a,0.11265428399201483,1,colour,0.5,4.0
40,20,1,1,3,21,121,207.87147690739948,208.4793260836741,"[85, 0, 169]",169,l,0.08305997203569859,1,colour,0.5,4.0
40,20,1,1,3,22,122,208.99791774060577,209.84733498771675,"[36, 0, 218]",218,a,0.3363220929168165,1,colour,0.5,4.0
40,20,1,1,3,23,123,210.3629066401627,211.30359631811734,"[49, 0, 205]",205,a,0.417220642673783,1,colour,0.5,4.0
40,20,1,1,3,24,124,211.81119812023826,212.55130325327627,"[66, 0, 188]",188,l,0.21684050338808447,1,colour,0.5,4.0
40,20,1,1,3,25,125,213.06326964718755,213.67931355931796,"[6, 0, 248]",248,a,0.09269539336673915,1,colour,0.5,4.0
40,20,1,1,3,26,126,214.18833871779498,215.2393215780612,"[70, 0, 184]",184,l,0.5381165301660076,1,colour,0.5,4.0
40,20,1,1,3,27,127,215.75183502293658,216.2953165116487,"[19, 0, 235]",235,a,0.020072317915037274,1,colour,0.5,4.0
40,20,1,1,3,28,128,216.81444852415007,217.7433441154426,"[90, 0, 164]",164,l,0.40539504832122475,1,colour,0.5,4.0
40,20,1,1,3,29,129,218.25215344678145,219.23932000272907,"[79, 0, 175]",175,l,0.46424969157669693,1,colour,0.5,4.0
40,20,1,1,3,30,130,219.75223713880405,220.63925753883086,"[18, 0, 236]",236,a,0.3636356475763023,1,colour,0.5,4.0
40,20,1,1,3,31,131,221.15853291098028,222.02325143583585,"[50, 0, 204]",204,a,0.34116599429398775,1,colour,0.5,4.0
40,20,1,1,3,32,132,222.52119654871058,223.33533432916738,"[14, 0, 240]",240,a,0.28928753011859953,1,colour,0.5,4.0
40,20,1,1,3,33,133,223.85166885971557,224.51123187271878,"[92, 0, 162]",162,l,0.14043533278163522,1,colour,0.5,4.0
40,20,1,1,3,34,134,225.01929132291116,225.68728301592637,"[15, 0, 239]",239,a,0.1444848485989496,1,colour,0.5,4.0
40,20,1,1,3,35,135,226.20691127330065,226.82326238474343,"[78, 0, 176]",176,l,0.10341979679651558,1,colour,0.5,4.0
40,20,1,1,3,36,136,227.33713105076458,228.03130596282426,"[34, 0, 220]",220,a,0.16775282588787377,1,colour,0.5,4.0
40,20,1,1,3,37,137,228.54338381509297,229.2232408807613,"[86, 0, 168]",168,l,0.15661330986768007,1,colour,0.5,4.0
40,20,1,1,3,38,138,229.730862768949,230.51128386030905,"[11, 0, 243]",243,a,0.2570190097903833,1,colour,0.5,4.0
40,20,1,1,3,39,139,231.0279291345505,231.6873101912206,"[0, 0, 254]",254,a,0.13621134357526898,1,colour,0.5,4.0
40,20,1,1,3,40,140,232.19996935874224,232.98343487316743,"[99, 0, 155]",155,l,0.26050808385480195,1,colour,0.5,4.0
40,20,1,1,3,41,141,233.49689236481208,234.20721335255075,"[53, 0, 201]",201,a,0.18759947048965842,0,colour,0.5,4.0
40,20,1,1,3,42,142,234.71575565682724,235.3832908833865,"[60, 0, 194]",194,a,0.14396418537944555,0,colour,0.5,4.0
40,20,1,1,3,43,143,235.9033362227492,236.6152333788341,"[32, 0, 222]",222,a,0.18873374455142766,1,colour,0.5,4.0
40,20,1,1,3,44,144,237.12211680738255,237.92723080771975,"[10, 0, 244]",244,a,0.28168986341916025,1,colour,0.5,4.0
40,20,1,1,3,45,145,238.4366376021644,239.19918915152084,"[39, 0, 215]",215,a,0.23958072811365128,1,colour,0.5,4.0
40,20,1,1,3,46,146,239.71781783003826,240.711281182128,"[63, 0, 191]",191,l,0.4700490612303838,1,colour,0.5,4.0
40,20,1,1,3,47,147,241.21938277373556,241.86321285471786,"[43, 0, 211]",211,a,0.12042012251913548,1,colour,0.5,4.0
40,20,1,1,3,48,148,242.37583145627286,243.1516591317486,"[4, 0, 250]",250,a,0.25342123431619257,1,colour,0.5,4.0
40,20,1,1,3,49,149,243.67269617319107,244.2871631294256,"[72, 0, 182]",182,l,0.09131496620830148,1,colour,0.5,4.0
40,20,1,1,3,50,150,244.79845486662816,245.67922770115547,"[75, 0, 179]",179,l,0.35714035341516137,1,colour,0.5,4.0
40,20,1,1,4,1,151,250.39194011653308,251.03122443694156,"[74, 0, 180]",180,l,0.1154226214857772,1,colour,0.5,4.0
40,20,1,1,4,2,152,251.54912253271323,252.23941334395204,"[48, 0, 206]",206,a,0.16689266811590642,1,colour,0.5,4.0
40,20,1,1,4,3,153,252.7522977909539,253.43121947452892,"[43, 0, 211]",211,a,0.15554992796387523,1,colour,0.5,4.0
40,20,1,1,4,4,154,253.94315042241942,254.4712542273337,"[32, 0, 222]",222,a,0.007282590493559837,1,colour,0.5,4.0
40,20,1,1,4,5,155,254.99002705316525,255.751273399801,"[23, 0, 231]",231,a,0.2378678957466036,1,colour,0.5,4.0
40,20,1,1,4,6,156,256.2714483143063,257.0712142914999,"[82, 0, 172]",172,l,0.27666085481178015,1,colour,0.5,4.0
40,20,1,1,4,7,157,257.5714972692076,258.63124554709066,"[10, 0, 244]",244,a,0.5331765305018052,1,colour,0.5,4.0
40,20,1,1,4,8,158,259.13914942834526,259.6951473157387,"[20, 0, 234]",234,a,0.032660396420396864,1,colour,0.5,4.0
40,20,1,1,4,9,159,260.2017357542645,260.8392131130677,"[93, 0, 161]",161,l,0.11406464339233935,1,colour,0.5,4.0
40,20,1,1,4,10,160,261.3579989357386,263.00722430145834,"[54, 0, 200]",200,a,1.1261166987242177,0,colour,0.5,4.0
40,20,1,1,4,11,161,263.51573549199384,264.29524561949074,"[97, 0, 157]",157,l,0.2548552245134488,1,colour,0.5,4.0
40,20,1,1,4,12,162,264.814218124724,265.8551614783937,"[38, 0, 216]",216,a,0.5174766813870519,1,colour,0.5,4.0
40,20,1,1,4,13,163,266.37445929984096,267.02313249453437,"[98, 0, 156]",156,l,0.1251797410659492,1,colour,0.5,4.0
40,20,1,1,4,14,164,267.5318189462414,268.1431449872907,"[4, 0, 250]",250,a,0.08794680249411613,1,colour,0.5,4.0
40,20,1,1,4,15,165,268.6587768980535,269.2711938902503,"[40, 0, 214]",214,a,0.08964033657684922,1,colour,0.5,4.0
40,20,1,1,4,16,166,269.77814427250996,270.39125403831713,"[35, 0, 219]",219,a,0.10230836574919522,1,colour,0.5,4.0
40,20,1,1,4,17,167,270.9086161107989,271.5591317132348,"[70, 0, 184]",184,l,0.1271032808581367,1,colour,0.5,4.0
40,20,1,1,4,18,168,272.06487811077386,272.7271511722356,"[2, 0, 252]",252,a,0.13759885996114463,1,colour,0.5,4.0
40,20,1,1,4,19,169,273.2385409770068,273.847204231075,"[94, 0, 160]",160,l,0.08540492597967386,1,colour,0.5,4.0
40,20,1,1,4,20,170,274.3635143431602,275.0870937339496,"[67, 0, 187]",187,l,0.20029231195803732,1,colour,0.5,4.0
40,20,1,1,4,21,171,275.5978856816655,276.1831927371677,"[39, 0, 215]",215,a,0.061899460037238896,1,colour,0.5,4.0
40,20,1,1,4,22,172,276.691826807335,277.43107178260107,"[68, 0, 186]",186,l,0.2158511644229293,1,colour,0.5,4.0
40,20,1,1,4,23,173,277.945016066893,278.51113695604727,"[13, 0, 241]",241,a,0.042754647438414395,1,colour,0.5,4.0
40,20,1,1,4,24,174,279.0231687283376,279.63916616677307,"[36, 0, 218]",218,a,0.09249532013200223,1,colour,0.5,4.0
40,20,1,1,4,25,175,280.148268518853,280.72715826146305,"[59, 0, 195]",195,l,0.055359267513267696,1,colour,0.5,4.0
40,20,1,1,4,26,176,281.24210882012267,282.0233790415805,"[78, 0, 176]",176,l,0.2578512044856325,1,colour,0.5,4.0
40,20,1,1,4,27,177,282.53901646623854,283.5671220434597,"[65, 0, 189]",189,l,0.5048846644349396,1,colour,0.5,4.0
40,20,1,1,4,28,178,284.087312317919,285.9591417168267,"[33, 0, 221]",221,a,1.3483863573055714,1,colour,0.5,4.0
40,20,1,1,4,29,179,286.4649219851708,287.22311681951396,"[57, 0, 197]",197,a,0.2348793987184763,0,colour,0.5,4.0
40,20,1,1,4,30,180,287.7306343388045,288.6310624090256,"[92, 0, 162]",162,l,0.37699408712796867,1,colour,0.5,4.0
40,20,1,1,4,31,181,289.152629172313,289.9751050482737,"[95, 0, 159]",159,l,0.299103332683444,1,colour,0.5,4.0
40,20,1,1,4,32,182,290.4963634307496,291.18316753103863,"[24, 0, 230]",230,a,0.16427871794439852,1,colour,0.5,4.0
40,20,1,1,4,33,183,291.69965408579446,292.3671333862003,"[18, 0, 236]",236,a,0.1440429543145001,1,colour,0.5,4.0
40,20,1,1,4,34,184,292.887211808702,293.80716081359424,"[51, 0, 203]",203,a,0.3962349978974089,0,colour,0.5,4.0
40,20,1,1,4,35,185,294.3248828605283,294.9430499918526,"[63, 0, 191]",191,l,0.09479301271494478,1,colour,0.5,4.0
40,20,1,1,4,36,186,295.45007481088396,296.127090677619,"[75, 0, 179]",179,l,0.15338653651997447,1,colour,0.5,4.0
40,20,1,1,4,37,187,296.63799999130424,297.1676976875169,"[0, 0, 254]",254,a,0.0063688697991892695,1,colour,0.5,4.0
40,20,1,1,4,38,188,297.7004299607361,298.27106943528634,"[42, 0, 212]",212,a,0.047104667173698545,1,colour,0.5,4.0
40,20,1,1,4,39,189,298.7787106218748,299.39108941110317,"[96, 0, 158]",158,l,0.08921537781134248,1,colour,0.5,4.0
40,20,1,1,4,40,190,299.9056291892193,300.46312250662595,"[5, 0, 249]",249,a,0.03423774614930153,1,colour,0.5,4.0
40,20,1,1,4,41,191,300.9838712535566,301.607151676435,"[80, 0, 174]",174,l,0.10008944221772254,1,colour,0.5,4.0
40,20,1,1,4,42,192,302.1235106253298,304.2710678598378,"[83, 0, 171]",171,l,1.6244497491279617,1,colour,0.5,4.0
40,20,1,1,4,43,193,304.77965663792565,306.5991003001109,"[21, 0, 233]",233,a,1.2961136542726308,1,colour,0.5,4.0
40,20,1,1,4,44,194,307.1079431081889,308.11123801674694,"[72, 0, 182]",182,l,0.47993536212015897,1,colour,0.5,4.0
40,20,1,1,4,45,195,308.6237683969084,309.3990903751692,"[29, 0, 225]",225,a,0.2528438572771847,1,colour,0.5,4.0
40,20,1,1,4,46,196,309.92066895379685,310.62316187541,"[28, 0, 226]",226,a,0.1789715049089864,1,colour,0.5,4.0
40,20,1,1,4,47,197,311.1394956181757,311.6790544092655,"[46, 0, 208]",208,a,0.01644500403199345,1,colour,0.5,4.0
40,20,1,1,4,48,198,312.186577836168,312.9590790955117,"[9, 0, 245]",245,a,0.24926616810262203,1,colour,0.5,4.0
40,20,1,1,4,49,199,313.46789315296337,314.06301404174883,"[91, 0, 163]",163,l,0.07111504254862666,1,colour,0.5,4.0
40,20,1,1,4,50,200,314.5806317196693,315.2311232974753,"[61, 0, 193]",193,a,0.12705168698448688,0,colour,0.5,4.0
40,20,1,1,5,1,201,319.65867055987474,320.4389868885046,"[86, 0, 168]",168,l,0.2570276743499562,1,colour,0.4,4.0
40,20,1,1,5,2,202,320.95644702832215,321.9510285068536,"[12, 0, 242]",242,a,0.4716531925369054,1,colour,0.4,4.0
40,20,1,1,5,3,203,322.47215888963547,323.9030743157491,"[51, 0, 203]",203,a,0.9066539743216708,0,colour,0.4,4.0
40,20,1,1,5,4,204,324.4110679937294,324.951010783785,"[22, 0, 232]",232,a,0.017386687803082168,1,colour,0.4,4.0
40,20,1,1,5,5,205,325.4572979308432,325.9910286014201,"[35, 0, 219]",219,a,0.01053614541888237,1,colour,0.4,4.0
40,20,1,1,5,6,206,326.50429429044016,327.1270150593482,"[58, 0, 196]",196,a,0.10003902995958924,0,colour,0.4,4.0
40,20,1,1,5,7,207,327.64604427840095,328.2710414722096,"[66, 0, 188]",188,a,0.10240840236656368,0,colour,0.4,4.0
40,20,1,1,5,8,208,328.7866974074859,329.75097880361136,"[42, 0, 212]",212,a,0.44082614535000175,1,colour,0.4,4.0
40,20,1,1,5,9,209,330.2713277976727,332.35097431379836,"[98, 0, 156]",156,l,1.5566745133837685,1,colour,0.4,4.0
40,20,1,1,5,10,210,332.86524903413374,333.3990116061177,"[34, 0, 220]",220,a,0.010271875187754631,1,colour,0.4,4.0
40,20,1,1,5,11,211,333.9121591417352,335.6230413587764,"[13, 0, 241]",241,a,1.1938356144819409,1,colour,0.4,4.0
40,20,1,1,5,12,212,336.1326750080334,337.5590411288431,"[7, 0, 247]",247,a,0.9028927532490343,1,colour,0.4,4.0
40,20,1,1,5,13,213,338.07036201062147,339.462989386986,"[52, 0, 202]",202,a,0.8694584510521963,0,colour,0.4,4.0
40,20,1,1,5,14,214,339.9694096536841,340.8070320262341,"[84, 0, 170]",170,l,0.3142939399695024,1,colour,0.4,4.0
40,20,1,1,5,15,215,341.3216080381535,341.87102831783704,"[80, 0, 174]",174,l,0.02371105318889022,1,colour,0.4,4.0
40,20,1,1,5,16,216,342.38838605803903,342.9189616350923,"[5, 0, 249]",249,a,0.007464547059498727,1,colour,0.4,4.0
40,20,1,1,5,17,217,343.4509247286478,344.00696475745644,"[72, 0, 182]",182,l,0.032834082026965916,1,colour,0.4,4.0
40,20,1,1,5,18,218,344.50219745899085,345.19102356012445,"[30, 0, 224]",224,a,0.17893605877179652,1,colour,0.4,4.0
40,20,1,1,5,19,219,345.70848724467214,347.4149580022786,"[10, 0, 244]",244,a,1.1831769833806902,1,colour,0.4,4.0
40,20,1,1,5,20,220,347.9358485334087,348.6309883662034,"[54, 0, 200]",200,a,0.17168340052012354,0,colour,0.4,4.0
40,20,1,1,5,21,221,349.1390682962956,349.70298798487056,"[47, 0, 207]",207,a,0.04819640575442463,1,colour,0.4,4.0
40,20,1,1,5,22,222,350.20989622571506,351.26291605306324,"[64, 0, 190]",190,l,0.529684305540286,1,colour,0.4,4.0
40,20,1,1,5,23,223,351.7726528896019,354.7269534619991,"[24, 0, 230]",230,a,2.431545578292571,1,colour,0.4,4.0
40,20,1,1,5,24,224,355.23817706410773,356.206980196177,"[91, 0, 163]",163,l,0.45718056499026716,1,colour,0.4,4.0
40,20,1,1,5,25,225,356.7267120348988,358.6949531501159,"[70, 0, 184]",184,l,1.445030836155638,1,colour,0.4,4.0
40,20,1,1,5,26,226,359.2112679883139,359.75096541282255,"[50, 0, 204]",204,a,0.016476905439049006,1,colour,0.4,4.0
40,20,1,1,5,27,227,360.2581599790137,361.2308995934436,"[63, 0, 191]",191,a,0.45667329244315624,0,colour,0.4,4.0
40,20,1,1,5,28,228,361.7433854691917,362.29492227267474,"[48, 0, 206]",206,a,0.028304862906225026,1,colour,0.4,4.0
40,20,1,1,5,29,229,362.8090812024893,363.3429308143677,"[82, 0, 172]",172,l,0.010659812716767192,1,colour,0.4,4.0
40,20,1,1,5,30,230,363.85590427042916,365.5349334735656,"[33, 0, 221]",221,a,1.1559835514053702,1,colour,0.4,4.0
40,20,1,1,5,31,231,366.0436183498241,367.07088267384097,"[55, 0, 199]",199,a,0.5021143576595932,0,colour,0.4,4.0
40,20,1,1,5,32,232,367.59250811999664,368.2549296611687,"[85, 0, 169]",169,l,0.13909389625769109,1,colour,0.4,4.0
40,20,1,1,5,33,233,368.7643581170123,369.5749512912007,"[67, 0, 187]",187,a,0.28699101915117353,0,colour,0.4,4.0
40,20,1,1,5,34,234,370.092604415142,371.25490760582034,"[31, 0, 223]",223,a,0.6389979949453846,1,colour,0.4,4.0
40,20,1,1,5,35,235,371.7659126238432,373.0629080974031,"[77, 0, 177]",177,l,0.773663102532737,1,colour,0.4,4.0
40,20,1,1,5,36,236,373.5785301619908,374.4869280826533,"[6, 0, 248]",248,a,0.3855649452889338,1,colour,0.4,4.0
40,20,1,1,5,37,237,375.0005328723928,375.92685744259506,"[89, 0, 165]",165,l,0.4032194478204474,1,colour,0.4,4.0
40,20,1,1,5,38,238,376.43813145684544,377.2548772797454,"[99, 0, 155]",155,l,0.2934512610081583,1,colour,0.4,4.0
40,20,1,1,5,39,239,377.76644273940474,378.4948908437509,"[97, 0, 157]",157,l,0.20540639106184244,1,colour,0.4,4.0
40,20,1,1,5,40,240,379.01653401297517,380.09489462466445,"[17, 0, 237]",237,a,0.5558383801253513,1,colour,0.4,4.0
40,20,1,1,5,41,241,380.6102713238215,381.35884806595277,"[20, 0, 234]",234,a,0.22579851117916405,1,colour,0.4,4.0
40,20,1,1,5,42,242,381.87593168986496,382.77491159155034,"[68, 0, 186]",186,l,0.37577513651922345,1,colour,0.4,4.0
40,20,1,1,5,43,243,383.2823637324618,383.98293232673313,"[88, 0, 166]",166,l,0.17726182320620865,1,colour,0.4,4.0
40,20,1,1,5,44,244,384.50121008919086,385.1908959543798,"[74, 0, 180]",180,l,0.16617980843875557,1,colour,0.4,4.0
40,20,1,1,5,45,245,385.70437983365264,386.75883680197876,"[56, 0, 198]",198,a,0.5310529174748808,0,colour,0.4,4.0
40,20,1,1,5,46,246,387.2669706888264,387.82297724077944,"[19, 0, 235]",235,a,0.03251664282288402,1,colour,0.4,4.0
40,20,1,1,5,47,247,388.3297358204145,389.27082210045774,"[73, 0, 181]",181,l,0.41819383401889354,1,colour,0.4,4.0
40,20,1,1,5,48,248,389.7829350049142,390.3668001932092,"[15, 0, 239]",239,a,0.06052060809452087,1,colour,0.4,4.0
40,20,1,1,5,49,249,390.87668866023887,391.5028811740922,"[96, 0, 158]",158,l,0.10312874522060156,1,colour,0.4,4.0
40,20,1,1,5,50,250,392.01880216714926,392.7428514151834,"[94, 0, 160]",160,l,0.2013525429647416,1,colour,0.4,4.0
40,20,1,1,6,1,251,411.7412776099518,412.58276084659155,"[50, 0, 204]",204,a,0.3181492901640013,1,colour,0.28,3.9
40,20,1,1,6,2,252,413.1016065336298,413.6868167031789,"[4, 0, 250]",250,a,0.06259105203207582,1,colour,0.28,3.9
40,20,1,1,6,3,253,414.19525227544364,414.8388023326406,"[59, 0, 195]",195,a,0.12068754341453314,0,colour,0.28,3.9
40,20,1,1,6,4,254,415.35161825059913,416.0230458485894,"[68, 0, 186]",186,a,0.1486525178188458,0,colour,0.28,3.9
40,20,1,1,6,5,255,416.5391751858406,417.1590346697485,"[85, 0, 169]",169,l,0.09637587633915246,1,colour,0.28,3.9
40,20,1,1,6,6,256,417.6532130477717,418.44676651165355,"[87, 0, 167]",167,l,0.27008482243400067,1,colour,0.28,3.9
40,20,1,1,6,7,257,418.96587213652674,419.5427871396532,"[52, 0, 202]",202,a,0.05420293821953237,0,colour,0.28,3.9
40,20,1,1,6,8,258,420.059745914652,420.710831017117,"[39, 0, 215]",215,a,0.1285234863171354,1,colour,0.28,3.9
40,20,1,1,6,9,259,421.2316998868482,421.83075371326413,"[82, 0, 172]",172,l,0.07586481503676623,1,colour,0.28,3.9
40,20,1,1,6,10,260,422.34168508218136,423.40681407239754,"[70, 0, 184]",184,l,0.5416627118829638,1,colour,0.28,3.9
40,20,1,1,6,11,261,423.920055343071,424.62276999955066,"[96, 0, 158]",158,l,0.17943309142719954,1,colour,0.28,3.9
40,20,1,1,6,12,262,425.13885286299046,425.6867698356509,"[89, 0, 165]",165,l,0.02482563490048051,1,colour,0.28,3.9
40,20,1,1,6,13,263,426.20179049880244,426.7267852901714,"[56, 0, 198]",198,a,0.0018790352623909712,0,colour,0.28,3.9
40,20,1,1,6,14,264,427.2505977584515,428.4948014409747,"[35, 0, 219]",219,a,0.7221564282663167,1,colour,0.28,3.9
40,20,1,1,6,15,265,429.01569787971675,429.7427722522989,"[60, 0, 194]",194,a,0.20301181264221668,0,colour,0.28,3.9
40,20,1,1,6,16,266,430.25210106535815,431.0387417592574,"[22, 0, 232]",232,a,0.2626868352526799,1,colour,0.28,3.9
40,20,1,1,6,17,267,431.55028673890047,432.3507529727649,"[88, 0, 166]",166,l,0.27751313569024205,1,colour,0.28,3.9
40,20,1,1,6,18,268,432.86276347737294,433.60679327731486,"[1, 0, 253]",253,a,0.22056903538759798,1,colour,0.28,3.9
40,20,1,1,6,19,269,434.1143182795495,434.83073047630023,"[97, 0, 157]",157,l,0.19488403026480228,1,colour,0.28,3.9
40,20,1,1,6,20,270,435.3469161334215,436.02277567086276,"[58, 0, 196]",196,a,0.15247439115773886,0,colour,0.28,3.9
40,20,1,1,6,21,271,436.5346345450962,437.254767790786,"[66, 0, 188]",188,a,0.19542005355469882,0,colour,0.28,3.9
40,20,1,1,6,22,272,437.7704382983502,438.6947471690364,"[78, 0, 176]",176,l,0.40111985919065773,1,colour,0.28,3.9
40,20,1,1,6,23,273,439.20814046403393,439.75074564723764,"[45, 0, 209]",209,a,0.020251911249943078,1,colour,0.28,3.9
40,20,1,1,6,24,274,440.26961850968655,440.99073242978193,"[62, 0, 192]",192,a,0.19807023752946407,0,colour,0.28,3.9
40,20,1,1,6,25,275,441.5068613732001,442.1666988963261,"[67, 0, 187]",187,a,0.13670955772977322,0,colour,0.28,3.9
40,20,1,1,6,26,276,442.67885630519595,443.486716981628,"[15, 0, 239]",239,a,0.2937281342456117,1,colour,0.28,3.9
40,20,1,1,6,27,277,443.99795988213737,444.6387683831854,"[77, 0, 177]",177,l,0.11740051175002009,1,colour,0.28,3.9
40,20,1,1,6,28,278,445.15433018945623,445.9107251515379,"[65, 0, 189]",189,l,0.23302911419887096,1,colour,0.28,3.9
40,20,1,1,6,29,279,446.42005829687696,447.0706955974456,"[51, 0, 203]",203,a,0.1271997728617862,0,colour,0.28,3.9
40,20,1,1,6,30,280,447.591787777259,448.3186924025649,"[81, 0, 173]",173,l,0.20358958339784294,1,colour,0.28,3.9
40,20,1,1,6,31,281,448.82650845637545,449.95077683986165,"[37, 0, 217]",217,a,0.6009529477450997,1,colour,0.28,3.9
40,20,1,1,6,32,282,450.4670400843024,451.00676744105294,"[61, 0, 193]",193,a,0.016685643349774182,0,colour,0.28,3.9
40,20,1,1,6,33,283,451.514995063073,452.17466992815025,"[94, 0, 160]",160,l,0.13644686294719577,1,colour,0.28,3.9
40,20,1,1,6,34,284,452.694780252059,453.2946855716873,"[57, 0, 197]",197,a,0.0766828313935548,0,colour,0.28,3.9
40,20,1,1,6,35,285,453.80436648230534,454.40671403566375,"[18, 0, 236]",236,a,0.07946731650736183,1,colour,0.28,3.9
40,20,1,1,6,36,286,454.908862657845,455.5828526124824,"[63, 0, 191]",191,a,0.1514208554290235,0,colour,0.28,3.9
40,20,1,1,6,37,287,456.0990882877959,456.73499617376365,"[55, 0, 199]",199,a,0.11251643812283874,0,colour,0.28,3.9
40,20,1,1,6,38,288,457.2463237509364,457.8386550345458,"[5, 0, 249]",249,a,0.06874409480951726,1,colour,0.28,3.9
40,20,1,1,6,39,289,458.3582230337197,459.15870659670327,"[91, 0, 163]",163,l,0.2768951926846057,1,colour,0.28,3.9
40,20,1,1,6,40,290,459.6708537656814,460.4627554429462,"[93, 0, 161]",161,l,0.26858545397408307,1,colour,0.28,3.9
40,20,1,1,6,41,291,460.98219111014623,462.5026204485912,"[73, 0, 181]",181,l,0.9969603031640872,1,colour,0.28,3.9
40,20,1,1,6,42,292,463.0151421643095,463.7506282813847,"[80, 0, 174]",174,l,0.2127626306610182,1,colour,0.28,3.9
40,20,1,1,6,43,293,464.2652196532581,464.87062068807427,"[25, 0, 229]",229,a,0.08264997915830463,1,colour,0.28,3.9
40,20,1,1,6,44,294,465.3905482678674,466.1746411775239,"[83, 0, 171]",171,l,0.2612725372891873,1,colour,0.28,3.9
40,20,1,1,6,45,295,466.6758985280758,468.318718002527,"[32, 0, 222]",222,a,1.1195201863301918,1,colour,0.28,3.9
40,20,1,1,6,46,296,468.832631566911,469.5026740115136,"[71, 0, 183]",183,l,0.14767696347553283,1,colour,0.28,3.9
40,20,1,1,6,47,297,470.02111718896776,471.0226799665252,"[47, 0, 207]",207,a,0.47884559258818626,1,colour,0.28,3.9
40,20,1,1,6,48,298,471.5368483486818,472.11069332889747,"[48, 0, 206]",206,a,0.05052875680848956,1,colour,0.28,3.9
40,20,1,1,6,49,299,472.63064375170507,473.3185860643862,"[75, 0, 179]",179,l,0.16528577997814864,1,colour,0.28,3.9
40,20,1,1,6,50,300,473.82592320255935,474.51066394802183,"[99, 0, 155]",155,a,0.16091803729068488,0,colour,0.28,3.9
40,20,1,1,7,1,301,479.3980372332735,480.6866044206545,"[4, 0, 250]",250,a,0.7703910369891673,1,colour,0.14,3.9
40,20,1,1,7,2,302,481.19365405186545,481.99059103941545,"[67, 0, 187]",187,l,0.2859772617230192,1,colour,0.14,3.9
40,20,1,1,7,3,303,482.5062922668876,483.30261209909804,"[77, 0, 177]",177,l,0.27293035364709795,1,colour,0.14,3.9
40,20,1,1,7,4,304,483.81889661122113,484.4465967643773,"[76, 0, 178]",178,l,0.10462968912906945,1,colour,0.14,3.9
40,20,1,1,7,5,305,484.96037917828653,485.6625838052714,"[33, 0, 221]",221,a,0.17936771316453815,1,colour,0.14,3.9
40,20,1,1,7,6,306,486.17924404575024,486.81458440073766,"[97, 0, 157]",157,l,0.12220621015876532,1,colour,0.14,3.9
40,20,1,1,7,7,307,487.3253318440402,488.0466938865138,"[57, 0, 197]",197,a,0.19800564693287015,0,colour,0.14,3.9
40,20,1,1,7,8,308,488.5596842779778,489.09460829931777,"[85, 0, 169]",169,l,0.01190633256919682,1,colour,0.14,3.9
40,20,1,1,7,9,309,489.60758096759673,490.31054138345644,"[80, 0, 174]",174,l,0.17972886911593378,1,colour,0.14,3.9
40,20,1,1,7,10,310,490.82644032116514,491.4225989918923,"[93, 0, 161]",161,l,0.07375104806851596,1,colour,0.14,3.9
40,20,1,1,7,11,311,491.93585444113705,492.5106225942727,"[59, 0, 195]",195,a,0.05152518500108272,0,colour,0.14,3.9
40,20,1,1,7,12,312,493.029793991358,493.8946188543923,"[70, 0, 184]",184,l,0.33312840259168297,1,colour,0.14,3.9
40,20,1,1,7,13,313,494.41004439024255,495.01461323024705,"[65, 0, 189]",189,a,0.08062364591751248,0,colour,0.14,3.9
40,20,1,1,7,14,314,495.5361740858061,496.61456423590425,"[68, 0, 186]",186,l,0.5552818769356236,1,colour,0.14,3.9
40,20,1,1,7,15,315,497.12065130949486,497.9425891931169,"[66, 0, 188]",188,a,0.2984144976362586,0,colour,0.14,3.9
40,20,1,1,7,16,316,498.44888461078517,499.27057949185837,"[78, 0, 176]",176,l,0.2983030393952504,1,colour,0.14,3.9
40,20,1,1,7,17,317,499.77122598863207,500.63860533130355,"[60, 0, 194]",194,a,0.34173943288624287,0,colour,0.14,3.9
40,20,1,1,7,18,318,501.1534849978052,503.83055560907815,"[73, 0, 181]",181,l,2.1535539206815884,1,colour,0.14,3.9
40,20,1,1,7,19,319,504.34130384004675,504.9985723112477,"[62, 0, 192]",192,a,0.13447606179397553,0,colour,0.14,3.9
40,20,1,1,7,20,320,505.50066815828905,506.7345842117211,"[52, 0, 202]",202,a,0.7119664727943018,0,colour,0.14,3.9
40,20,1,1,7,21,321,507.25049496488646,508.08657622139435,"[74, 0, 180]",180,l,0.31404936220496893,1,colour,0.14,3.9
40,20,1,1,7,22,322,508.5934257792542,509.3106012479402,"[86, 0, 168]",168,l,0.20466556842438877,1,colour,0.14,3.9
40,20,1,1,7,23,323,509.8109200655017,510.36657570151147,"[83, 0, 171]",171,l,0.03250443376600742,1,colour,0.14,3.9
40,20,1,1,7,24,324,510.8734803976258,511.5425602848409,"[51, 0, 203]",203,a,0.1461212751455605,0,colour,0.14,3.9
40,20,1,1,7,25,325,512.0610952281859,512.6625314238481,"[89, 0, 165]",165,l,0.09053987893275917,1,colour,0.14,3.9
40,20,1,1,7,26,326,513.1757108608726,516.5905432265718,"[75, 0, 179]",179,l,2.8922073405701667,1,colour,0.14,3.9
40,20,1,1,7,27,327,517.1091644220287,517.7105273625348,"[21, 0, 233]",233,a,0.07803765870630741,1,colour,0.14,3.9
40,20,1,1,7,28,328,518.2237544548698,518.8386156499619,"[95, 0, 159]",159,l,0.09964242798741907,1,colour,0.14,3.9
40,20,1,1,7,29,329,519.3562215126585,519.9824896447826,"[56, 0, 198]",198,a,0.10287747206166387,0,colour,0.14,3.9
40,20,1,1,7,30,330,520.4969033924863,521.1025167098269,"[55, 0, 199]",199,a,0.08257672400213778,0,colour,0.14,3.9
40,20,1,1,7,31,331,521.6223379513249,522.1825031142216,"[90, 0, 164]",164,l,0.0370501943398267,1,colour,0.14,3.9
40,20,1,1,7,32,332,522.7005548096495,523.4065576791763,"[82, 0, 172]",172,l,0.18251729279290885,1,colour,0.14,3.9
40,20,1,1,7,33,333,523.9195362551836,525.3184887846,"[92, 0, 162]",162,l,0.8756871121004224,1,colour,0.14,3.9
40,20,1,1,7,34,334,525.82587003347,527.0225704775658,"[84, 0, 170]",170,l,0.6735870509874076,1,colour,0.14,3.9
40,20,1,1,7,35,335,527.5290959008271,528.2545125791803,"[91, 0, 163]",163,l,0.20202011056244373,1,colour,0.14,3.9
40,20,1,1,7,36,336,528.7635909067467,529.4305444238707,"[87, 0, 167]",167,l,0.14385784708429128,1,colour,0.14,3.9
40,20,1,1,7,37,337,529.95113760198,530.5424511897145,"[72, 0, 182]",182,a,0.06766495911870152,0,colour,0.14,3.9
40,20,1,1,7,38,338,531.0615477561951,531.622466738685,"[61, 0, 193]",193,a,0.03762993437703699,0,colour,0.14,3.9
40,20,1,1,7,39,339,532.14293624938,533.2624753402779,"[71, 0, 183]",183,a,0.5997418737970293,0,colour,0.14,3.9
40,20,1,1,7,40,340,533.7803785559954,534.902432742063,"[63, 0, 191]",191,a,0.59868006745819,0,colour,0.14,3.9
40,20,1,1,7,41,341,535.4211358572356,536.1824645174202,"[50, 0, 204]",204,a,0.23287354537751526,1,colour,0.14,3.9
40,20,1,1,7,42,342,536.6920379083604,537.3104838820873,"[96, 0, 158]",158,l,0.09548106021247804,1,colour,0.14,3.9
40,20,1,1,7,43,343,537.8170246653026,538.502459365991,"[1, 0, 253]",253,a,0.16195306240115315,1,colour,0.14,3.9
40,20,1,1,7,44,344,539.0202802680433,539.8224652421195,"[53, 0, 201]",201,a,0.2787249971879646,0,colour,0.14,3.9
40,20,1,1,7,45,345,540.3167810720624,541.0464942071121,"[99, 0, 155]",155,l,0.2064036070369184,1,colour,0.14,3.9
40,20,1,1,7,46,346,541.5668947948143,542.1264329563128,"[64, 0, 190]",190,a,0.035020710434764624,0,colour,0.14,3.9
40,20,1,1,7,47,347,542.6463006716222,543.4064639440039,"[20, 0, 234]",234,a,0.23709910991601646,1,colour,0.14,3.9
40,20,1,1,7,48,348,543.911999240634,544.7024968600599,"[28, 0, 226]",226,a,0.26712192548438907,1,colour,0.14,3.9
40,20,1,1,7,49,349,545.2222491786815,546.334625407937,"[23, 0, 231]",231,a,0.5898319423431531,1,colour,0.14,3.9
40,20,1,1,7,50,350,546.8472967847483,547.990433895262,"[54, 0, 200]",200,a,0.6197539335116744,0,colour,0.14,3.9
40,20,1,1,8,1,351,556.9923940624576,558.4384252652526,"[81, 0, 173]",173,l,0.9219272891059518,1,colour,0.06,3.9
40,20,1,1,8,2,352,558.9497272424633,559.8304083109833,"[58, 0, 196]",196,a,0.3670983340125531,0,colour,0.06,3.9
40,20,1,1,8,3,353,560.3487400301965,561.2464407229563,"[53, 0, 201]",201,a,0.37466134247370064,0,colour,0.06,3.9
40,20,1,1,8,4,354,561.7550042947987,562.5984402156901,"[72, 0, 182]",182,a,0.3200275377603248,0,colour,0.06,3.9
40,20,1,1,8,5,355,563.1145167775685,563.9103986539412,"[88, 0, 166]",166,l,0.2724411978852004,1,colour,0.06,3.9
40,20,1,1,8,6,356,564.4272573923226,566.0463803858729,"[80, 0, 174]",174,l,1.0967358509078622,1,colour,0.06,3.9
40,20,1,1,8,7,357,566.5403894104529,567.6384025010047,"[99, 0, 155]",155,l,0.5723137102322653,1,colour,0.06,3.9
40,20,1,1,8,8,358,568.1522341455566,569.3744388198247,"[92, 0, 162]",162,l,0.6987368204863742,1,colour,0.06,3.9
40,20,1,1,8,9,359,569.886808117386,570.7344345505117,"[56, 0, 198]",198,a,0.3243417172925547,0,colour,0.06,3.9
40,20,1,1,8,10,360,571.2462103235302,572.0944161028601,"[86, 0, 168]",168,l,0.32483559916727245,1,colour,0.06,3.9
40,20,1,1,8,11,361,572.6057649475988,573.4543677229667,"[71, 0, 183]",183,a,0.3258292705286294,0,colour,0.06,3.9
40,20,1,1,8,12,362,573.965197085985,574.8703422396211,"[74, 0, 180]",180,a,0.3803157772636041,0,colour,0.06,3.9
40,20,1,1,8,13,363,575.3892828433309,576.3823507749476,"[82, 0, 172]",172,l,0.4699817136861384,1,colour,0.06,3.9
40,20,1,1,8,14,364,576.8893598400755,577.8064050248358,"[90, 0, 164]",164,l,0.39384869032073766,1,colour,0.06,3.9
40,20,1,1,8,15,365,578.3270793348784,579.3583467010176,"[95, 0, 159]",159,l,0.5080275486689061,1,colour,0.06,3.9
40,20,1,1,8,16,366,579.8740668330574,580.8623660876183,"[96, 0, 158]",158,l,0.46481525304261595,1,colour,0.06,3.9
40,20,1,1,8,17,367,581.37479918811,582.190391832497,"[52, 0, 202]",202,a,0.29222719033714384,0,colour,0.06,3.9
40,20,1,1,8,18,368,582.7029025205411,583.7983375007752,"[68, 0, 186]",186,a,0.5719155328115448,0,colour,0.06,3.9
40,20,1,1,8,19,369,584.3124720123596,585.2143313158303,"[83, 0, 171]",171,l,0.3783638805616647,1,colour,0.06,3.9
40,20,1,1,8,20,370,585.7345381318592,586.5823760598432,"[84, 0, 170]",170,l,0.32458747678902,1,colour,0.06,3.9
40,20,1,1,8,21,371,587.0940214700531,587.9423879381502,"[55, 0, 199]",199,a,0.3251995120663196,0,colour,0.06,3.9
40,20,1,1,8,22,372,588.4534599098843,589.3663425451377,"[70, 0, 184]",184,a,0.38933916320092976,0,colour,0.06,3.9
40,20,1,1,8,23,373,589.877543698065,590.8223632362206,"[33, 0, 221]",221,a,0.42158641607966274,1,colour,0.06,3.9
40,20,1,1,8,24,374,591.3308287407272,592.2783595088404,"[51, 0, 203]",203,a,0.4242562922881916,0,colour,0.06,3.9
40,20,1,1,8,25,375,592.7997541618533,593.6623656150186,"[98, 0, 156]",156,l,0.3394031433854252,1,colour,0.06,3.9
40,20,1,1,8,26,376,594.1748432200402,595.5343226197874,"[76, 0, 178]",178,a,0.8361848378553987,0,colour,0.06,3.9
40,20,1,1,8,27,377,596.0512305888114,596.7423177550081,"[89, 0, 165]",165,l,0.16772958904039115,1,colour,0.06,3.9
40,20,1,1,8,28,378,597.2544074225007,598.0864935138961,"[21, 0, 233]",233,a,0.30963908426929265,1,colour,0.06,3.9
40,20,1,1,8,29,379,598.5982590469066,599.302310413681,"[85, 0, 169]",169,l,0.18086511234287173,1,colour,0.06,3.9
40,20,1,1,8,30,380,599.8160424154485,601.0943180354079,"[79, 0, 175]",175,l,0.7548495137598366,1,colour,0.06,3.9
40,20,1,1,8,31,381,601.6130613228306,602.5742742713774,"[87, 0, 167]",167,l,0.4360499852336943,1,colour,0.06,3.9
40,20,1,1,8,32,382,603.0837440809701,604.1583080254495,"[69, 0, 185]",185,a,0.5511559551814571,0,colour,0.06,3.9
40,20,1,1,8,33,383,604.6776365666883,606.5902758057928,"[91, 0, 163]",163,l,1.3890166041674092,1,colour,0.06,3.9
40,20,1,1,8,34,384,607.0997861814685,608.342333745095,"[78, 0, 176]",176,l,0.7194160536164418,1,colour,0.06,3.9
40,20,1,1,8,35,385,608.8513171559898,609.6462711332133,"[61, 0, 193]",193,a,0.27212336496450007,0,colour,0.06,3.9
40,20,1,1,8,36,386,610.1639597032918,611.0222530383617,"[54, 0, 200]",200,a,0.3350842376239598,0,colour,0.06,3.9
40,20,1,1,8,37,387,611.5390826321673,612.1902551682433,"[65, 0, 189]",189,a,0.1280863182619214,0,colour,0.06,3.9
40,20,1,1,8,38,388,612.7112142284168,613.238251894596,"[97, 0, 157]",157,l,0.004652492702007294,1,colour,0.06,3.9
40,20,1,1,8,39,389,613.7580250870669,614.4543054953683,"[14, 0, 240]",240,a,0.1728629666613415,1,colour,0.06,3.9
40,20,1,1,8,40,390,614.9612298838329,615.9583197620232,"[64, 0, 190]",190,a,0.4739879065891728,0,colour,0.06,3.9
40,20,1,1,8,41,391,616.4768677022075,617.4942894423148,"[50, 0, 204]",204,a,0.4936667731963098,1,colour,0.06,3.9
40,20,1,1,8,42,392,618.0122891500359,618.6142625504872,"[73, 0, 181]",181,l,0.07843780529219657,1,colour,0.06,3.9
40,20,1,1,8,43,393,619.1218895587372,619.8062439421192,"[75, 0, 179]",179,l,0.16096726793330163,1,colour,0.06,3.9
40,20,1,1,8,44,394,620.3250179494498,620.9902992001735,"[60, 0, 194]",194,a,0.1418350584572181,0,colour,0.06,3.9
40,20,1,1,8,45,395,621.496969164582,622.0382557542762,"[59, 0, 195]",195,a,0.017973517067730427,0,colour,0.06,3.9
40,20,1,1,8,46,396,622.5439182629343,623.2142820851877,"[62, 0, 192]",192,a,0.14568883320316672,0,colour,0.06,3.9
40,20,1,1,8,47,397,623.7329213975463,624.7102355232928,"[94, 0, 160]",160,l,0.45433818455785513,1,colour,0.06,3.9
40,20,1,1,8,48,398,625.2172690067673,625.7742463870673,"[93, 0, 161]",161,l,0.033520554192364216,1,colour,0.06,3.9
40,20,1,1,8,49,399,626.2954748374177,626.9343810663559,"[57, 0, 197]",197,a,0.11544743366539478,0,colour,0.06,3.9
40,20,1,1,8,50,400,627.4518392371247,628.1182854817016,"[77, 0, 177]",177,l,0.1439003823325038,1,colour,0.06,3.9
40,20,1,1,9,1,401,638.4228152129799,639.0621743638767,"[82, 0, 172]",172,l,0.11511699762195349,1,colour,0.06,3.8
40,20,1,1,9,2,402,639.5799440660048,640.1741965262918,"[64, 0, 190]",190,a,0.07124067912809551,0,colour,0.06,3.8
40,20,1,1,9,3,403,640.6893404629081,641.2781539217103,"[79, 0, 175]",175,l,0.06388404569588602,1,colour,0.06,3.8
40,20,1,1,9,4,404,641.7847124279942,642.5342328230618,"[63, 0, 191]",191,a,0.22626521764323115,0,colour,0.06,3.8
40,20,1,1,9,5,405,643.0504243877949,643.7662024938036,"[62, 0, 192]",192,a,0.19248827022965997,0,colour,0.06,3.8
40,20,1,1,9,6,406,644.2848130554194,644.9024366805097,"[81, 0, 173]",173,l,0.09425974637269974,1,colour,0.06,3.8
40,20,1,1,9,7,407,645.4099349012831,646.0142461665673,"[59, 0, 195]",195,a,0.08117778599262238,0,colour,0.06,3.8
40,20,1,1,9,8,408,646.5378262661397,647.3181815854041,"[57, 0, 197]",197,a,0.2579500596038997,0,colour,0.06,3.8
40,20,1,1,9,9,409,647.8347323369235,648.4221992391394,"[99, 0, 155]",155,l,0.06436374911572784,1,colour,0.06,3.8
40,20,1,1,9,10,410,648.9166741825175,649.5901418983703,"[49, 0, 205]",205,a,0.15005066816229373,1,colour,0.06,3.8
40,20,1,1,9,11,411,650.1058061044896,650.9422307939967,"[51, 0, 203]",203,a,0.3129595926729962,0,colour,0.06,3.8
40,20,1,1,9,12,412,651.4392866046401,652.1901547377929,"[52, 0, 202]",202,a,0.2275393067393452,0,colour,0.06,3.8
40,20,1,1,9,13,413,652.6997931130463,653.2861603996716,"[86, 0, 168]",168,l,0.06299277406651527,1,colour,0.06,3.8
40,20,1,1,9,14,414,653.7935585838277,655.0621274962323,"[89, 0, 165]",165,l,0.7454949037637562,1,colour,0.06,3.8
40,20,1,1,9,15,415,655.5748583436944,656.3821207693545,"[85, 0, 169]",169,l,0.2839194207917899,1,colour,0.06,3.8
40,20,1,1,9,16,416,656.9032420937438,657.7343912275974,"[96, 0, 158]",158,l,0.30789238098077476,1,colour,0.06,3.8
40,20,1,1,9,17,417,658.2471232565586,659.110148641048,"[77, 0, 177]",177,a,0.3400478679686785,0,colour,0.06,3.8
40,20,1,1,9,18,418,659.6221512687625,660.5342143123271,"[58, 0, 196]",196,a,0.38894531805999577,0,colour,0.06,3.8
40,20,1,1,9,19,419,661.0442020283081,661.8461518768454,"[92, 0, 162]",162,l,0.27885496604721993,1,colour,0.06,3.8
40,20,1,1,9,20,420,662.3581312677125,663.1102010224713,"[54, 0, 200]",200,a,0.22949159715790302,0,colour,0.06,3.8
40,20,1,1,9,21,421,663.6237892707577,664.4141435305355,"[56, 0, 198]",198,a,0.26701676880475134,0,colour,0.06,3.8
40,20,1,1,9,22,422,664.920813494944,665.7821492837975,"[88, 0, 166]",166,l,0.33787187351845205,1,colour,0.06,3.8
40,20,1,1,9,23,423,666.2959084608592,667.1421824297868,"[84, 0, 170]",170,l,0.322865585796535,1,colour,0.06,3.8
40,20,1,1,9,24,424,667.6558407825651,668.4221110178623,"[66, 0, 188]",188,a,0.2428342830389738,0,colour,0.06,3.8
40,20,1,1,9,25,425,668.9248208693461,670.3101211506873,"[60, 0, 194]",194,a,0.8615650067804381,0,colour,0.06,3.8
40,20,1,1,9,26,426,670.8310502786189,671.5981609794544,"[93, 0, 161]",161,l,0.24357313651125878,1,colour,0.06,3.8
40,20,1,1,9,27,427,672.1125479456969,673.5581120480783,"[75, 0, 179]",179,a,0.9221257870085537,0,colour,0.06,3.8
40,20,1,1,9,28,428,674.0671324804425,674.918064062018,"[65, 0, 189]",189,a,0.32944398128893226,0,colour,0.06,3.8
40,20,1,1,9,29,429,675.4252763512777,676.3740863284329,"[69, 0, 185]",185,a,0.4255410152254626,0,colour,0.06,3.8
40,20,1,1,9,30,430,676.8940225727856,677.6620729881106,"[76, 0, 178]",178,l,0.2448232009774074,1,colour,0.06,3.8
40,20,1,1,9,31,431,678.1754737661686,678.7980799260549,"[74, 0, 180]",180,l,0.09933798562269658,1,colour,0.06,3.8
40,20,1,1,9,32,432,679.3162029073574,680.1500656342832,"[15, 0, 239]",239,a,0.31062369712162763,1,colour,0.06,3.8
40,20,1,1,9,33,433,680.6600309010828,681.9901310283458,"[68, 0, 186]",186,l,0.8067602731753141,1,colour,0.06,3.8
40,20,1,1,9,34,434,682.5050303870812,683.742394948611,"[73, 0, 181]",181,l,0.7139581475639716,1,colour,0.06,3.8
40,20,1,1,9,35,435,684.2551966882311,685.0701134942938,"[67, 0, 187]",187,a,0.29175339464563876,0,colour,0.06,3.8
40,20,1,1,9,36,436,685.5830648950068,686.4780882283812,"[90, 0, 164]",164,l,0.37030265817884356,1,colour,0.06,3.8
40,20,1,1,9,37,437,686.9906950144796,687.9021420843201,"[94, 0, 160]",160,l,0.3881375417113304,1,colour,0.06,3.8
40,20,1,1,9,38,438,688.4127768878825,689.5020993915386,"[98, 0, 156]",156,l,0.566005886415951,1,colour,0.06,3.8
40,20,1,1,9,39,439,690.0223069951171,691.4140848475508,"[38, 0, 216]",216,a,0.8684742320328951,1,colour,0.06,3.8
40,20,1,1,9,40,440,691.9287132408936,692.8540945518762,"[71, 0, 183]",183,a,0.40200089081190526,0,colour,0.06,3.8
40,20,1,1,9,41,441,693.3663130068453,694.3900697459467,"[55, 0, 199]",199,a,0.5004952602321282,0,colour,0.06,3.8
40,20,1,1,9,42,442,694.8985884195426,695.4300733851269,"[78, 0, 176]",176,l,0.0077225156128406525,1,colour,0.06,3.8
40,20,1,1,9,43,443,695.945584385423,696.7740730952937,"[50, 0, 204]",204,a,0.31341802852693945,1,colour,0.06,3.8
40,20,1,1,9,44,444,697.2821341208182,699.4460288396804,"[83, 0, 171]",171,l,1.647127352654934,1,colour,0.06,3.8
40,20,1,1,9,45,445,699.9651541567873,700.7820720901946,"[80, 0, 174]",174,l,0.29348513181321323,1,colour,0.06,3.8
40,20,1,1,9,46,446,701.2933610704495,702.1821029676357,"[72, 0, 182]",182,l,0.3654792367015034,1,colour,0.06,3.8
40,20,1,1,9,47,447,702.6996851995355,703.606052060728,"[87, 0, 167]",167,l,0.3940389173803851,1,colour,0.06,3.8
40,20,1,1,9,48,448,704.1219218539773,705.6300474700984,"[91, 0, 163]",163,l,0.984997256891802,1,colour,0.06,3.8
40,20,1,1,9,49,449,706.1375476601534,707.0461102080299,"[61, 0, 193]",193,a,0.3850533403456211,0,colour,0.06,3.8
40,20,1,1,9,50,450,707.5595649428433,708.2701214499539,"[53, 0, 201]",201,a,0.18740018480457366,0,colour,0.06,3.8
40,20,1,1,10,1,451,713.1204476916464,714.3744632382877,"[69, 0, 185]",185,a,0.7309947072062641,0,colour,0.06,3.7
40,20,1,1,10,2,452,714.8749640122987,715.6861066004494,"[61, 0, 193]",193,a,0.29943770729005337,0,colour,0.06,3.7
40,20,1,1,10,3,453,716.1999287927756,716.7899765622569,"[59, 0, 195]",195,a,0.06668428471311927,0,colour,0.06,3.7
40,20,1,1,10,4,454,717.3092322421726,717.9580558857415,"[63, 0, 191]",191,a,0.12541486660484225,0,colour,0.06,3.7
40,20,1,1,10,5,455,718.465594672598,720.6859880530974,"[50, 0, 204]",204,a,1.69690386520233,1,colour,0.06,3.7
40,20,1,1,10,6,456,721.2040172992274,722.0699693469796,"[85, 0, 169]",169,l,0.3452300823992118,1,colour,0.06,3.7
40,20,1,1,10,7,457,722.5765380932717,723.7180462601827,"[79, 0, 175]",175,l,0.618282921728678,1,colour,0.06,3.7
40,20,1,1,10,8,458,724.2328377054073,725.3660235306015,"[89, 0, 165]",165,l,0.6097593251615763,1,colour,0.06,3.7
40,20,1,1,10,9,459,725.877370406175,726.8379496579291,"[66, 0, 188]",188,a,0.43802905711345375,0,colour,0.06,3.7
40,20,1,1,10,10,460,727.3454360633623,728.1419937779428,"[80, 0, 174]",174,l,0.2748810686171055,1,colour,0.06,3.7
40,20,1,1,10,11,461,728.6566587989219,729.5180461814161,"[84, 0, 170]",170,l,0.33796679018996656,1,colour,0.06,3.7
40,20,1,1,10,12,462,730.0334516311996,731.16599312576,"[81, 0, 173]",173,l,0.610062979743816,1,colour,0.06,3.7
40,20,1,1,10,13,463,731.6741790001979,733.5339650083333,"[73, 0, 181]",181,a,1.3363811696181074,0,colour,0.06,3.7
40,20,1,1,10,14,464,734.0494992455933,735.0459432177013,"[77, 0, 177]",177,l,0.4733238836051896,1,colour,0.06,3.7
40,20,1,1,10,15,465,735.5667545859469,736.4859568604734,"[17, 0, 237]",237,a,0.3957450545858592,1,colour,0.06,3.7
40,20,1,1,10,16,466,737.0044106717687,737.9339139660588,"[97, 0, 157]",157,l,0.40617919398937374,1,colour,0.06,3.7
40,20,1,1,10,17,467,738.4420265853405,739.1179755256744,"[93, 0, 161]",161,l,0.1525314988102764,1,colour,0.06,3.7
40,20,1,1,10,18,468,739.6295016007498,740.7259668799816,"[91, 0, 163]",163,l,0.5821047006174922,1,colour,0.06,3.7
40,20,1,1,10,19,469,741.2322772637708,742.03793673974,"[54, 0, 200]",200,a,0.280956917675212,0,colour,0.06,3.7
40,20,1,1,10,20,470,742.5463628596626,743.4060059020994,"[78, 0, 176]",176,l,0.34554437082260847,1,colour,0.06,3.7
40,20,1,1,10,21,471,743.912085886579,745.1980052530998,"[15, 0, 239]",239,a,0.7736946101067588,1,colour,0.06,3.7
40,20,1,1,10,22,472,745.7073636044515,746.557910399395,"[49, 0, 205]",205,a,0.3270726396003738,1,colour,0.06,3.7
40,20,1,1,10,23,473,747.0668130719569,747.8779060356319,"[56, 0, 198]",198,a,0.28790513379499316,0,colour,0.06,3.7
40,20,1,1,10,24,474,748.3950956038898,749.2379876245977,"[95, 0, 159]",159,l,0.31802168441936374,1,colour,0.06,3.7
40,20,1,1,10,25,475,749.7568490655394,750.6699183834717,"[96, 0, 158]",158,l,0.3896833839826286,1,colour,0.06,3.7
40,20,1,1,10,26,476,751.1788261759793,752.1899302459788,"[51, 0, 203]",203,a,0.48766536079347134,0,colour,0.06,3.7
40,20,1,1,10,27,477,752.7101992894895,753.7339331856929,"[72, 0, 182]",182,l,0.5006153830327094,1,colour,0.06,3.7
40,20,1,1,10,28,478,754.2415751599474,755.2379064924316,"[87, 0, 167]",167,l,0.47359918139409274,1,colour,0.06,3.7
40,20,1,1,10,29,479,755.7572141599376,756.5739272937644,"[67, 0, 187]",187,a,0.2938226570840925,0,colour,0.06,3.7
40,20,1,1,10,30,480,757.0854679411277,757.9738880668301,"[58, 0, 196]",196,a,0.3638613208895549,0,colour,0.06,3.7
40,20,1,1,10,31,481,758.4822803160641,759.3338652867824,"[62, 0, 192]",192,a,0.3290532868122682,0,colour,0.06,3.7
40,20,1,1,10,32,482,759.8417360851308,761.7339158564573,"[55, 0, 199]",199,a,1.3687249145004898,0,colour,0.06,3.7
40,20,1,1,10,33,483,762.2482212968171,763.0702025033534,"[74, 0, 180]",180,l,0.29865513707045466,1,colour,0.06,3.7
40,20,1,1,10,34,484,763.5765522716101,764.1978870994644,"[83, 0, 171]",171,l,0.09818323166109622,1,colour,0.06,3.7
40,20,1,1,10,35,485,764.7170360473683,765.6778807507362,"[88, 0, 166]",166,l,0.437296899035573,1,colour,0.06,3.7
40,20,1,1,10,36,486,766.1861004958628,768.3738649875158,"[94, 0, 160]",160,l,1.6644084899453446,1,colour,0.06,3.7
40,20,1,1,10,37,487,768.8894090707181,769.8699247636832,"[70, 0, 184]",184,a,0.45720813411753625,0,colour,0.06,3.7
40,20,1,1,10,38,488,770.3761512585916,771.2698559983401,"[64, 0, 190]",190,a,0.37067247880622745,0,colour,0.06,3.7
40,20,1,1,10,39,489,771.7825663657859,773.8058583677048,"[57, 0, 197]",197,a,1.4999856246868148,0,colour,0.06,3.7
40,20,1,1,10,40,490,774.3272636544425,775.1819316450274,"[82, 0, 172]",172,l,0.32862084498628974,1,colour,0.06,3.7
40,20,1,1,10,41,491,775.6894582225941,776.6698573373724,"[90, 0, 164]",164,l,0.45756613940466195,1,colour,0.06,3.7
40,20,1,1,10,42,492,777.1896478590788,778.2218541520415,"[52, 0, 202]",202,a,0.5090629676124081,0,colour,0.06,3.7
40,20,1,1,10,43,493,778.7383497651899,779.5898386376211,"[65, 0, 189]",189,a,0.32803598477039486,0,colour,0.06,3.7
40,20,1,1,10,44,494,780.0961848613806,781.1258473085472,"[68, 0, 186]",186,a,0.5061103105545044,0,colour,0.06,3.7
40,20,1,1,10,45,495,781.6430865012808,782.7338296044618,"[92, 0, 162]",162,l,0.5675143133848906,1,colour,0.06,3.7
40,20,1,1,10,46,496,783.2542746966938,783.7738497850951,"[71, 0, 183]",183,a,0.00258204888086766,0,colour,0.06,3.7
40,20,1,1,10,47,497,784.2947808821918,785.0298585819546,"[98, 0, 156]",156,l,0.21209978929255158,1,colour,0.06,3.7
40,20,1,1,10,48,498,785.5503288803156,786.3418252910487,"[60, 0, 194]",194,a,0.26814277202356607,0,colour,0.06,3.7
40,20,1,1,10,49,499,786.8498386612628,787.7738167020725,"[75, 0, 179]",179,a,0.40062085748650134,0,colour,0.06,3.7
40,20,1,1,10,50,500,788.2799561570864,789.0698129904922,"[76, 0, 178]",178,l,0.266445693327114,1,colour,0.06,3.7
40,20,1,1,11,1,501,806.7469804877182,807.2937533402583,"[60, 0, 194]",194,a,0.022473985562101007,0,colour,0.06,3.7
40,20,1,1,11,2,502,807.811810943298,809.965939484071,"[54, 0, 200]",200,a,1.6307008592411876,0,colour,0.06,3.7
40,20,1,1,11,3,503,810.4826985796681,811.2617932005087,"[88, 0, 166]",166,l,0.2564644757658243,1,colour,0.06,3.7
40,20,1,1,11,4,504,811.7794561707415,812.7099421086023,"[91, 0, 163]",163,l,0.4067687802016735,1,colour,0.06,3.7
40,20,1,1,11,5,505,813.2209183758823,814.1017565886723,"[92, 0, 162]",162,l,0.3577626287005842,1,colour,0.06,3.7
40,20,1,1,11,6,506,814.6119483164512,815.4939298616955,"[77, 0, 177]",177,a,0.3629988000029698,0,colour,0.06,3.7
40,20,1,1,11,7,507,816.0147896728013,816.8299321522936,"[69, 0, 185]",185,a,0.2918770620599389,0,colour,0.06,3.7
40,20,1,1,11,8,508,817.3429575958289,818.125749241095,"[76, 0, 178]",178,a,0.2724549825070426,0,colour,0.06,3.7
40,20,1,1,11,9,509,818.64361937379,819.469774945057,"[59, 0, 195]",195,a,0.30388736980967224,0,colour,0.06,3.7
40,20,1,1,11,10,510,819.987210666528,820.7097762998892,"[79, 0, 175]",175,l,0.20004025101661682,1,colour,0.06,3.7
40,20,1,1,11,11,511,821.2224488581996,822.1339955707081,"[83, 0, 171]",171,l,0.3886389065301046,1,colour,0.06,3.7
40,20,1,1,11,12,512,822.6320883756271,823.5817455137148,"[50, 0, 204]",204,a,0.4250014473218471,1,colour,0.06,3.7
40,20,1,1,11,13,513,824.0928009438794,825.1257512103766,"[34, 0, 220]",220,a,0.510460724006407,1,colour,0.06,3.7
40,20,1,1,11,14,514,825.6442140799481,826.6057263507973,"[78, 0, 176]",176,l,0.4388328950153664,1,colour,0.06,3.7
40,20,1,1,11,15,515,827.1193776143482,828.1017109026434,"[72, 0, 182]",182,l,0.4595566327916458,1,colour,0.06,3.7
40,20,1,1,11,16,516,828.6218432819005,829.8377066553803,"[70, 0, 184]",184,a,0.693268280592747,0,colour,0.06,3.7
40,20,1,1,11,17,517,830.3564125275007,831.3177270881133,"[94, 0, 160]",160,l,0.4381913213292137,1,colour,0.06,3.7
40,20,1,1,11,18,518,831.8253974192776,832.6217767220223,"[75, 0, 179]",179,a,0.27392914483789355,0,colour,0.06,3.7
40,20,1,1,11,19,519,833.1377646687906,834.0617230173666,"[62, 0, 192]",192,a,0.4013723140815273,0,colour,0.06,3.7
40,20,1,1,11,20,520,834.575367585523,835.3257536521414,"[95, 0, 159]",159,l,0.22718011995311826,1,colour,0.06,3.7
40,20,1,1,11,21,521,835.8412221171893,836.74968659773,"[84, 0, 170]",170,l,0.3848839870188385,1,colour,0.06,3.7
40,20,1,1,11,22,522,837.263181504677,838.1977059307974,"[64, 0, 190]",190,a,0.4111833905335516,0,colour,0.06,3.7
40,20,1,1,11,23,523,838.7169202569639,839.645721719251,"[98, 0, 156]",156,l,0.4054285251768306,1,colour,0.06,3.7
40,20,1,1,11,24,524,840.1547803544672,841.0219761652406,"[82, 0, 172]",172,l,0.344271463342011,1,colour,0.06,3.7
40,20,1,1,11,25,525,841.5297993082786,842.7737497483613,"[99, 0, 155]",155,l,0.7210839878534898,1,colour,0.06,3.7
40,20,1,1,11,26,526,843.279933707905,844.3976918311091,"[96, 0, 158]",158,l,0.5944289028411731,1,colour,0.06,3.7
40,20,1,1,11,27,527,844.9050364523428,846.0697133475915,"[80, 0, 174]",174,l,0.6413464935030788,1,colour,0.06,3.7
40,20,1,1,11,28,528,846.5770111012971,847.21366256685,"[90, 0, 164]",164,l,0.11343567271251231,1,colour,0.06,3.7
40,20,1,1,11,29,529,847.7343270308338,848.5736984697869,"[85, 0, 169]",169,l,0.32823448278941214,1,colour,0.06,3.7
40,20,1,1,11,30,530,849.0697480060626,850.6376628598664,"[55, 0, 199]",199,a,1.0447325378190726,0,colour,0.06,3.7
40,20,1,1,11,31,531,851.156269089086,852.0536413149675,"[81, 0, 173]",173,l,0.3738980705384165,1,colour,0.06,3.7
40,20,1,1,11,32,532,852.5628444913309,853.3657297221944,"[25, 0, 229]",229,a,0.27970724704209715,1,colour,0.06,3.7
40,20,1,1,11,33,533,853.87523655314,854.7896303723101,"[71, 0, 183]",183,l,0.3909263592213392,1,colour,0.06,3.7
40,20,1,1,11,34,534,855.2848217199789,856.1896285606781,"[74, 0, 180]",180,l,0.38133150385692716,1,colour,0.06,3.7
40,20,1,1,11,35,535,856.7068590888521,857.5416186010698,"[0, 0, 254]",254,a,0.31128102459479123,1,colour,0.06,3.7
40,20,1,1,11,36,536,858.0506894455757,858.9016009410843,"[68, 0, 186]",186,l,0.3273715680697933,1,colour,0.06,3.7
40,20,1,1,11,37,537,859.410287786508,860.2776584645035,"[52, 0, 202]",202,a,0.3566429269267246,0,colour,0.06,3.7
40,20,1,1,11,38,538,860.7985371802934,862.2776368029881,"[61, 0, 193]",193,a,0.9562591642607003,0,colour,0.06,3.7
40,20,1,1,11,39,539,862.8017103906022,863.7096404233016,"[66, 0, 188]",188,a,0.3843960128724575,0,colour,0.06,3.7
40,20,1,1,11,40,540,864.2237832054961,865.1336785254534,"[57, 0, 197]",197,a,0.3864723645383492,0,colour,0.06,3.7
40,20,1,1,11,41,541,865.6458646849496,866.4536076018121,"[86, 0, 168]",168,l,0.28421795554459095,1,colour,0.06,3.7
40,20,1,1,11,42,542,866.9741468230495,867.8136486246949,"[87, 0, 167]",167,l,0.3166511032031849,1,colour,0.06,3.7
40,20,1,1,11,43,543,868.3336368566379,869.1657587878872,"[56, 0, 198]",198,a,0.307315397891216,0,colour,0.06,3.7
40,20,1,1,11,44,544,869.6789457079722,870.3496297263773,"[51, 0, 203]",203,a,0.14769823104143143,0,colour,0.06,3.7
40,20,1,1,11,45,545,870.871019259328,871.8135745817563,"[93, 0, 161]",161,l,0.41911543160676956,1,colour,0.06,3.7
40,20,1,1,11,46,546,872.324364166474,873.493667954579,"[73, 0, 181]",181,a,0.6459292756626382,0,colour,0.06,3.7
40,20,1,1,11,47,547,874.0118736433797,875.6857005461352,"[65, 0, 189]",189,a,1.1505622731056064,0,colour,0.06,3.7
40,20,1,1,11,48,548,876.1996393165318,877.1016010198509,"[67, 0, 187]",187,a,0.3785773447016254,0,colour,0.06,3.7
40,20,1,1,11,49,549,877.6216428147163,878.5336263015633,"[89, 0, 165]",165,l,0.38857313443440944,1,colour,0.06,3.7
40,20,1,1,11,50,550,879.0435994452564,880.20563836582,"[58, 0, 196]",196,a,0.6387605062918738,0,colour,0.06,3.7
40,20,1,1,12,1,551,886.1685357900569,887.1255818569334,"[99, 0, 155]",155,l,0.43289764877408743,1,colour,0.06,3.6
40,20,1,1,12,2,552,887.6381591047393,889.1736061524134,"[80, 0, 174]",174,l,1.0120374830439687,1,colour,0.06,3.6
40,20,1,1,12,3,553,889.6852417164482,890.3335466660792,"[40, 0, 214]",214,a,0.12522188248112798,1,colour,0.06,3.6
40,20,1,1,12,4,554,890.8414572427282,891.6375273771118,"[93, 0, 161]",161,l,0.2732706358656287,1,colour,0.06,3.6
40,20,1,1,12,5,555,892.1540501655545,892.8375660526799,"[56, 0, 198]",198,a,0.1601378300692886,0,colour,0.06,3.6
40,20,1,1,12,6,556,893.3572971037356,894.341560627101,"[63, 0, 191]",191,a,0.4608027588110417,0,colour,0.06,3.6
40,20,1,1,12,7,557,894.8573764634784,895.5815596188186,"[89, 0, 165]",165,l,0.20072554145008326,1,colour,0.06,3.6
40,20,1,1,12,8,558,896.0923405389767,896.8777343190741,"[82, 0, 172]",172,l,0.2615190843353048,1,colour,0.06,3.6
40,20,1,1,12,9,559,897.3894135999726,898.1975708418759,"[67, 0, 187]",187,a,0.28523525747004896,0,colour,0.06,3.6
40,20,1,1,12,10,560,898.7174747908721,899.3895616857335,"[92, 0, 162]",162,l,0.14867733011487871,1,colour,0.06,3.6
40,20,1,1,12,11,561,899.907716568443,900.6295464991126,"[90, 0, 164]",164,l,0.1983955536270514,1,colour,0.06,3.6
40,20,1,1,12,12,562,901.1421461960999,901.8375176097034,"[97, 0, 157]",157,l,0.17342340829782188,1,colour,0.06,3.6
40,20,1,1,12,13,563,902.3439492979087,902.9015221720329,"[91, 0, 163]",163,l,0.03438189346343279,1,colour,0.06,3.6
40,20,1,1,12,14,564,903.4221897867974,906.6375659739133,"[74, 0, 180]",180,a,2.692612922284752,0,colour,0.06,3.6
40,20,1,1,12,15,565,907.1622842859942,908.0934976559365,"[87, 0, 167]",167,l,0.4078171959845349,1,colour,0.06,3.6
40,20,1,1,12,16,566,908.5998084336752,909.4535083528608,"[70, 0, 184]",184,a,0.330779510200955,0,colour,0.06,3.6
40,20,1,1,12,17,567,909.9593425778439,910.6055436066817,"[54, 0, 200]",200,a,0.12291316222399473,0,colour,0.06,3.6
40,20,1,1,12,18,568,911.1169373497833,911.6615452356637,"[62, 0, 192]",192,a,0.020999429398216307,0,colour,0.06,3.6
40,20,1,1,12,19,569,912.1694699907675,913.6455125873908,"[58, 0, 196]",196,a,0.9525471737142652,0,colour,0.06,3.6
40,20,1,1,12,20,570,914.1539268920897,916.5175459980965,"[78, 0, 176]",176,l,1.8403328148415312,1,colour,0.06,3.6
40,20,1,1,12,21,571,917.0291398145491,917.8294721411075,"[60, 0, 194]",194,a,0.2769826262956485,0,colour,0.06,3.6
40,20,1,1,12,22,572,918.3418233217672,919.0294737952063,"[81, 0, 173]",173,l,0.1766320647438988,1,colour,0.06,3.6
40,20,1,1,12,23,573,919.5489602684975,920.6695351720555,"[72, 0, 182]",182,a,0.6008501540636644,0,colour,0.06,3.6
40,20,1,1,12,24,574,921.1864029689459,921.949494480039,"[88, 0, 166]",166,l,0.23976780474185944,1,colour,0.06,3.6
40,20,1,1,12,25,575,922.4677545194281,923.1255271123955,"[64, 0, 190]",190,a,0.13453041249886155,0,colour,0.06,3.6
40,20,1,1,12,26,576,923.6398097097408,924.1975125527242,"[71, 0, 183]",183,a,0.034467751742340624,0,colour,0.06,3.6
40,20,1,1,12,27,577,924.705815399182,925.3254818989662,"[69, 0, 185]",185,a,0.09656531584914774,0,colour,0.06,3.6
40,20,1,1,12,28,578,925.8445942193503,927.9414568883367,"[75, 0, 179]",179,l,1.57447907095775,1,colour,0.06,3.6
40,20,1,1,12,29,579,928.4536907031434,929.4857237042161,"[94, 0, 160]",160,l,0.5053411310072988,1,colour,0.06,3.6
40,20,1,1,12,30,580,930.0040030420059,930.7574205348501,"[61, 0, 193]",193,a,0.23001659277360886,0,colour,0.06,3.6
40,20,1,1,12,31,581,931.2571277109673,932.0134584762855,"[50, 0, 204]",204,a,0.23307322489563376,1,colour,0.06,3.6
40,20,1,1,12,32,582,932.5136552018812,933.3654591505183,"[95, 0, 159]",159,l,0.32830419333186,1,colour,0.06,3.6
40,20,1,1,12,33,583,933.8731743800454,934.3975193268852,"[86, 0, 168]",168,l,0.0008944222936406732,1,colour,0.06,3.6
40,20,1,1,12,34,584,934.9076720640296,935.9814254752127,"[66, 0, 188]",188,a,0.5503028866369277,0,colour,0.06,3.6
40,20,1,1,12,35,585,936.5015050792135,937.3174313104246,"[51, 0, 203]",203,a,0.29333547060377896,0,colour,0.06,3.6
40,20,1,1,12,36,586,937.8278376837261,939.5015716389753,"[79, 0, 175]",175,a,1.1506784573430195,0,colour,0.06,3.6
40,20,1,1,12,37,587,940.0183882359415,940.6214612520998,"[65, 0, 189]",189,a,0.07967841753270477,0,colour,0.06,3.6
40,20,1,1,12,38,588,941.1282793022692,941.957464724197,"[36, 0, 218]",218,a,0.3059845950920135,1,colour,0.06,3.6
40,20,1,1,12,39,589,942.4717268415261,943.1094310551416,"[98, 0, 156]",156,l,0.11433600261807442,1,colour,0.06,3.6
40,20,1,1,12,40,590,943.6281192043098,944.3014258375624,"[16, 0, 238]",238,a,0.15042797185014933,1,colour,0.06,3.6
40,20,1,1,12,41,591,944.8157237947453,945.5094008865999,"[53, 0, 201]",201,a,0.17089374095667154,0,colour,0.06,3.6
40,20,1,1,12,42,592,946.0187671149615,946.9414348329883,"[77, 0, 177]",177,l,0.39882886211853474,1,colour,0.06,3.6
40,20,1,1,12,43,593,947.4588878836948,948.2853920077905,"[96, 0, 158]",158,l,0.3031225224258378,1,colour,0.06,3.6
40,20,1,1,12,44,594,948.8027761356207,949.6534714101581,"[85, 0, 169]",169,l,0.327673647319898,1,colour,0.06,3.6
40,20,1,1,12,45,595,950.1604836260667,950.9494239817141,"[52, 0, 202]",202,a,0.26571668591350317,0,colour,0.06,3.6
40,20,1,1,12,46,596,951.4574011182413,952.1974152730545,"[84, 0, 170]",170,l,0.2173930681310594,1,colour,0.06,3.6
40,20,1,1,12,47,597,952.7010935897706,953.9334220534656,"[55, 0, 199]",199,a,0.7091642644954845,0,colour,0.06,3.6
40,20,1,1,12,48,598,954.45157496701,955.189382013632,"[57, 0, 197]",197,a,0.2147515487158671,0,colour,0.06,3.6
40,20,1,1,12,49,599,955.7014441119973,956.9976546521066,"[73, 0, 181]",181,a,0.772964027361013,0,colour,0.06,3.6
40,20,1,1,12,50,600,957.5139553119661,958.4293766730698,"[59, 0, 195]",195,a,0.3919172736350447,0,colour,0.06,3.6
40,20,1,1,13,1,601,963.2507166996365,964.2134392566513,"[86, 0, 168]",168,l,0.43877736292779446,1,colour,0.06,3.6
40,20,1,1,13,2,602,964.7203400143189,965.4774179039523,"[71, 0, 183]",183,l,0.23375300166662782,1,colour,0.06,3.6
40,20,1,1,13,3,603,965.9858893160708,966.7494963704376,"[66, 0, 188]",188,a,0.24085481720976532,0,colour,0.06,3.6
40,20,1,1,13,4,604,967.2673259371659,968.6053825239651,"[76, 0, 178]",178,l,0.8153240419924259,1,colour,0.06,3.6
40,20,1,1,13,5,605,969.1113683794392,969.6933887972264,"[83, 0, 171]",171,l,0.06363040942233056,1,colour,0.06,3.6
40,20,1,1,13,6,606,970.190360718756,970.8534112306079,"[80, 0, 174]",174,l,0.1386606665328145,1,colour,0.06,3.6
40,20,1,1,13,7,607,971.3634643248515,972.8454079034273,"[87, 0, 167]",167,l,0.9556487043155357,1,colour,0.06,3.6
40,20,1,1,13,8,608,973.3561746450141,974.1413557488704,"[14, 0, 240]",240,a,0.26260176463983953,1,colour,0.06,3.6
40,20,1,1,13,9,609,974.6530921373051,976.2613320078235,"[75, 0, 179]",179,l,1.0854242243804038,1,colour,0.06,3.6
40,20,1,1,13,10,610,976.7783045674441,977.6933639849303,"[92, 0, 162]",162,l,0.39167860348243266,1,colour,0.06,3.6
40,20,1,1,13,11,611,978.2019992367132,978.9973320929566,"[60, 0, 194]",194,a,0.27220055856741965,0,colour,0.06,3.6
40,20,1,1,13,12,612,979.5145819195313,981.3013604591833,"[58, 0, 196]",196,a,1.2649230879032984,0,colour,0.06,3.6
40,20,1,1,13,13,613,981.8104561159853,982.6373718082905,"[51, 0, 203]",203,a,0.30366327182855457,0,colour,0.06,3.6
40,20,1,1,13,14,614,983.1541813160293,983.9413540946553,"[93, 0, 161]",161,l,0.2640381178352982,1,colour,0.06,3.6
40,20,1,1,13,15,615,984.4513248753501,985.2613725739066,"[62, 0, 192]",192,a,0.28711192961782217,0,colour,0.06,3.6
40,20,1,1,13,16,616,985.7797235915205,988.4932949832873,"[85, 0, 169]",169,l,2.1907206933246925,1,colour,0.06,3.6
40,20,1,1,13,17,617,989.0143950399943,989.8773050279124,"[95, 0, 159]",159,l,0.3392979868222028,1,colour,0.06,3.6
40,20,1,1,13,18,618,990.3911398232449,991.1653732134728,"[52, 0, 202]",202,a,0.2508226439822465,0,colour,0.06,3.6
40,20,1,1,13,19,619,991.671549689956,992.2213015872985,"[69, 0, 185]",185,l,0.03554728138260543,1,colour,0.06,3.6
40,20,1,1,13,20,620,992.731620526989,993.277303609997,"[96, 0, 158]",158,a,0.03320705343503505,0,colour,0.06,3.6
40,20,1,1,13,21,621,993.7991145573324,994.8772857295116,"[79, 0, 175]",175,l,0.5556264914339408,1,colour,0.06,3.6
40,20,1,1,13,22,622,995.3928825879702,996.2293840773636,"[74, 0, 180]",180,l,0.3132419796893373,1,colour,0.06,3.6
40,20,1,1,13,23,623,996.7377798712114,997.4933075862937,"[56, 0, 198]",198,a,0.23716527596116066,0,colour,0.06,3.6
40,20,1,1,13,24,624,998.0140433362685,998.8053286459763,"[6, 0, 248]",248,a,0.2679553016787395,1,colour,0.06,3.6
40,20,1,1,13,25,625,999.3266346837627,1000.0932912811404,"[50, 0, 204]",204,a,0.2436109456466511,1,colour,0.06,3.6
40,20,1,1,13,26,626,1000.6123441307573,1001.1892725246726,"[98, 0, 156]",156,l,0.07014106353744864,1,colour,0.06,3.6
40,20,1,1,13,27,627,1001.7053829572396,1002.3253121518064,"[89, 0, 165]",165,l,0.09763460548128933,1,colour,0.06,3.6
40,20,1,1,13,28,628,1002.8461069784826,1003.5092516193399,"[55, 0, 199]",199,a,0.13988788798451424,0,colour,0.06,3.6
40,20,1,1,13,29,629,1004.0195099068806,1004.7173129206058,"[90, 0, 164]",164,l,0.17486882011871785,1,colour,0.06,3.6
40,20,1,1,13,30,630,1005.2383188483072,1005.8212974913185,"[11, 0, 243]",243,a,0.05942453711759299,1,colour,0.06,3.6
40,20,1,1,13,31,631,1006.3322071987204,1006.9652833380969,"[82, 0, 172]",172,l,0.10980008821934462,1,colour,0.06,3.6
40,20,1,1,13,32,632,1007.4728729309281,1008.0932983703678,"[97, 0, 157]",157,l,0.09701705630868673,1,colour,0.06,3.6
40,20,1,1,13,33,633,1008.6136280660285,1009.3172339940211,"[68, 0, 186]",186,a,0.18017942795995623,0,colour,0.06,3.6
40,20,1,1,13,34,634,1009.826832984807,1010.5412290882086,"[73, 0, 181]",181,l,0.19123544881585985,1,colour,0.06,3.6
40,20,1,1,13,35,635,1011.0475591643481,1011.6292396937497,"[61, 0, 193]",193,a,0.05901848280336708,0,colour,0.06,3.6
40,20,1,1,13,36,636,1012.1414431824815,1012.781257224502,"[91, 0, 163]",163,l,0.11704290029592812,1,colour,0.06,3.6
40,20,1,1,13,37,637,1013.2970856640022,1013.8372265582439,"[63, 0, 191]",191,a,0.016698246588930488,0,colour,0.06,3.6
40,20,1,1,13,38,638,1014.3441576419864,1014.9652549811872,"[78, 0, 176]",176,l,0.09793589694891125,1,colour,0.06,3.6
40,20,1,1,13,39,639,1015.4848426725948,1017.1493307191413,"[59, 0, 195]",195,a,1.1397492544492707,0,colour,0.06,3.6
40,20,1,1,13,40,640,1017.6580124446191,1018.3092491774587,"[53, 0, 201]",201,a,0.12773028225637972,0,colour,0.06,3.6
40,20,1,1,13,41,641,1018.830159400939,1019.40532809461,"[57, 0, 197]",197,a,0.05179693817626685,0,colour,0.06,3.6
40,20,1,1,13,42,642,1019.9240729573648,1021.237248771009,"[70, 0, 184]",184,a,0.8023610227974132,0,colour,0.06,3.6
40,20,1,1,13,43,643,1021.7462936217198,1023.237288943259,"[67, 0, 187]",187,l,0.9677948886528611,1,colour,0.06,3.6
40,20,1,1,13,44,644,1023.7464554921025,1024.7092619381147,"[99, 0, 155]",155,l,0.4394386289641261,1,colour,0.06,3.6
40,20,1,1,13,45,645,1025.2062173181912,1026.0292051929282,"[54, 0, 200]",200,a,0.29956058703828603,0,colour,0.06,3.6
40,20,1,1,13,46,646,1026.5500791824888,1030.637200091849,"[72, 0, 182]",182,a,3.563681018538773,0,colour,0.06,3.6
40,20,1,1,13,47,647,1031.1463729421375,1031.9651955105364,"[65, 0, 189]",189,a,0.2875061685917899,0,colour,0.06,3.6
40,20,1,1,13,48,648,1032.472319578519,1033.269272319856,"[84, 0, 170]",170,l,0.2735817735083401,1,colour,0.06,3.6
40,20,1,1,13,49,649,1033.7867891734932,1035.87719514512,"[77, 0, 177]",177,a,1.5669326040660962,0,colour,0.06,3.6
40,20,1,1,13,50,650,1036.3888771828497,1037.1892567708855,"[94, 0, 160]",160,l,0.27696647867560387,1,colour,0.06,3.6
40,20,1,1,14,1,651,1042.8418625093764,1043.7251307467232,"[54, 0, 200]",200,a,0.3594467106740922,0,colour,0.06,3.5
40,20,1,1,14,2,652,1044.2333209534409,1044.7971788083669,"[89, 0, 165]",165,l,0.04024664149619639,1,colour,0.06,3.5
40,20,1,1,14,3,653,1045.3116287898738,1045.9891822553473,"[60, 0, 194]",194,a,0.15410215326119214,0,colour,0.06,3.5
40,20,1,1,14,4,654,1046.487453865935,1047.1571741452208,"[95, 0, 159]",159,l,0.14640051126480103,1,colour,0.06,3.5
40,20,1,1,14,5,655,1047.675284523517,1048.2451666338602,"[66, 0, 188]",188,a,0.04648829950019717,0,colour,0.06,3.5
40,20,1,1,14,6,656,1048.753444274189,1049.357160833315,"[65, 0, 189]",189,a,0.08064570126589388,0,colour,0.06,3.5
40,20,1,1,14,7,657,1049.8785578493262,1050.429173448938,"[99, 0, 155]",155,l,0.02724817639682442,1,colour,0.06,3.5
40,20,1,1,14,8,658,1050.9430480226874,1051.5651189470664,"[55, 0, 199]",199,a,0.09875194414053112,0,colour,0.06,3.5
40,20,1,1,14,9,659,1052.0837086348329,1052.6451545822201,"[50, 0, 204]",204,a,0.03795525059103966,1,colour,0.06,3.5
40,20,1,1,14,10,660,1053.1619711791864,1053.7651091797743,"[78, 0, 176]",176,l,0.084796829149127,1,colour,0.06,3.5
40,20,1,1,14,11,661,1054.269800072303,1054.821250229841,"[91, 0, 163]",163,l,0.02622457279358059,1,colour,0.06,3.5
40,20,1,1,14,12,662,1055.3344966205768,1056.0371206926648,"[76, 0, 178]",178,l,0.1770554482936859,1,colour,0.06,3.5
40,20,1,1,14,13,663,1056.557065207744,1057.10918687121,"[92, 0, 162]",162,l,0.02658336574677378,1,colour,0.06,3.5
40,20,1,1,14,14,664,1057.624323718599,1058.1731079383753,"[53, 0, 201]",201,a,0.019405931932851672,0,colour,0.06,3.5
40,20,1,1,14,15,665,1058.6776594097028,1059.253180988715,"[82, 0, 172]",172,l,0.050997038721106946,1,colour,0.06,3.5
40,20,1,1,14,16,666,1059.7728872274747,1060.3731312539894,"[61, 0, 193]",193,a,0.08931620209477842,0,colour,0.06,3.5
40,20,1,1,14,17,667,1060.8877667364432,1061.7331273785094,"[93, 0, 161]",161,l,0.32053481019102037,1,colour,0.06,3.5
40,20,1,1,14,18,668,1062.248788040015,1064.0211372750346,"[75, 0, 179]",179,l,1.2600720972986892,1,colour,0.06,3.5
40,20,1,1,14,19,669,1064.517379795434,1065.1330771239009,"[63, 0, 191]",191,a,0.09132402471732348,0,colour,0.06,3.5
40,20,1,1,14,20,670,1065.6307697821176,1066.2691258094274,"[90, 0, 164]",164,l,0.1148806904675439,1,colour,0.06,3.5
40,20,1,1,14,21,671,1066.770072022453,1067.4771689937916,"[86, 0, 168]",168,a,0.18384021858219057,0,colour,0.06,3.5
40,20,1,1,14,22,672,1067.9915681692073,1068.5892076977761,"[68, 0, 186]",186,a,0.07372466055676341,0,colour,0.06,3.5
40,20,1,1,14,23,673,1069.1023174241418,1070.3890701669734,"[59, 0, 195]",195,a,0.7636153250932693,0,colour,0.06,3.5
40,20,1,1,14,24,674,1070.9105018413393,1072.7730809992645,"[79, 0, 175]",175,a,1.3516592105152085,0,colour,0.06,3.5
40,20,1,1,14,25,675,1073.2829151157057,1073.9330849220278,"[98, 0, 156]",156,l,0.126690924866125,1,colour,0.06,3.5
40,20,1,1,14,26,676,1074.4269687038613,1074.9810631376458,"[71, 0, 183]",183,a,0.030964893056079745,0,colour,0.06,3.5
40,20,1,1,14,27,677,1075.489607805037,1076.60505799565,"[74, 0, 180]",180,a,0.5887847081758082,0,colour,0.06,3.5
40,20,1,1,14,28,678,1077.1237768646097,1077.6931489454582,"[96, 0, 158]",158,l,0.045538738835603,1,colour,0.06,3.5
40,20,1,1,14,29,679,1078.2019145599334,1079.2210448002443,"[69, 0, 185]",185,a,0.49575375858694315,0,colour,0.06,3.5
40,20,1,1,14,30,680,1079.7330970524345,1080.3331276148092,"[84, 0, 170]",170,a,0.07649693649727851,0,colour,0.06,3.5
40,20,1,1,14,31,681,1080.8425741875544,1081.8610384357162,"[62, 0, 192]",192,a,0.4950097850523889,0,colour,0.06,3.5
40,20,1,1,14,32,682,1082.374808640452,1083.301045776927,"[77, 0, 177]",177,a,0.40332066593691707,0,colour,0.06,3.5
40,20,1,1,14,33,683,1083.8123453911394,1084.7891132537043,"[51, 0, 203]",203,a,0.45085383660625666,0,colour,0.06,3.5
40,20,1,1,14,34,684,1085.2992270000977,1086.445105666644,"[83, 0, 171]",171,a,0.6226360922446474,0,colour,0.06,3.5
40,20,1,1,14,35,685,1086.9556648519356,1087.5810350171523,"[52, 0, 202]",202,a,0.10211420012637973,0,colour,0.06,3.5
40,20,1,1,14,36,686,1088.096309316461,1088.733074603253,"[67, 0, 187]",187,a,0.11373381339944899,0,colour,0.06,3.5
40,20,1,1,14,37,687,1089.2532798438333,1089.8930458368268,"[56, 0, 198]",198,a,0.11669198435265571,0,colour,0.06,3.5
40,20,1,1,14,38,688,1090.410630038008,1091.16504592821,"[81, 0, 173]",173,a,0.2312154573155567,0,colour,0.06,3.5
40,20,1,1,14,39,689,1091.6764487298205,1092.6130219382467,"[88, 0, 166]",166,l,0.4134905352257192,1,colour,0.06,3.5
40,20,1,1,14,40,690,1093.1333870800445,1093.9010176564334,"[85, 0, 169]",169,l,0.25613522122148424,1,colour,0.06,3.5
40,20,1,1,14,41,691,1094.418896059855,1094.9731184933335,"[57, 0, 197]",197,a,0.030871945549733937,0,colour,0.06,3.5
40,20,1,1,14,42,692,1095.4815162564628,1096.597023948445,"[64, 0, 190]",190,a,0.5908941426314414,0,colour,0.06,3.5
40,20,1,1,14,43,693,1097.1081947752973,1097.8690248274943,"[30, 0, 224]",224,a,0.23749019810929894,1,colour,0.06,3.5
40,20,1,1,14,44,694,1098.38955380884,1099.11701375572,"[14, 0, 240]",240,a,0.20413308963179588,1,colour,0.06,3.5
40,20,1,1,14,45,695,1099.6239649256459,1100.357032833621,"[72, 0, 182]",182,l,0.2081274671945721,1,colour,0.06,3.5
40,20,1,1,14,46,696,1100.87586906855,1101.6134394141845,"[80, 0, 174]",174,l,0.21432974061463028,1,colour,0.06,3.5
40,20,1,1,14,47,697,1102.1134872663533,1102.9490096566733,"[70, 0, 184]",184,l,0.3122073485283181,1,colour,0.06,3.5
40,20,1,1,14,48,698,1103.4574129335815,1104.1331834620796,"[73, 0, 181]",181,a,0.15243933896999806,0,colour,0.06,3.5
40,20,1,1,14,49,699,1104.644980108831,1105.356970212306,"[97, 0, 157]",157,l,0.19039301422890276,1,colour,0.06,3.5
40,20,1,1,14,50,700,1105.8807755913585,1106.4290907414397,"[25, 0, 229]",229,a,0.02488668088335544,1,colour,0.06,3.5
40,20,1,1,15,1,701,1111.3334592324682,1111.9009912688052,"[85, 0, 169]",169,l,0.041236374410800636,1,colour,0.06,3.5
40,20,1,1,15,2,702,1112.4146413507406,1112.9334941271227,"[89, 0, 165]",165,l,0.007680374197661877,1,colour,0.06,3.5
40,20,1,1,15,3,703,1113.4653087410843,1114.132976693334,"[63, 0, 191]",191,a,0.14433558122254908,0,colour,0.06,3.5
40,20,1,1,15,4,704,1114.6530247897608,1115.2129654609598,"[87, 0, 167]",167,l,0.036662256927229464,1,colour,0.06,3.5
40,20,1,1,15,5,705,1115.731139248237,1116.277011376922,"[53, 0, 201]",201,a,0.022490527015179396,0,colour,0.06,3.5
40,20,1,1,15,6,706,1116.79368894652,1117.8609801465645,"[64, 0, 190]",190,a,0.5441833207150921,0,colour,0.06,3.5
40,20,1,1,15,7,707,1118.3735156467883,1118.9010278964415,"[55, 0, 199]",199,a,0.014637254877015948,0,colour,0.06,3.5
40,20,1,1,15,8,708,1119.3985905856825,1120.5169528672704,"[83, 0, 171]",171,l,0.5939287195215002,1,colour,0.06,3.5
40,20,1,1,15,9,709,1121.0294930937234,1121.5570144016529,"[52, 0, 202]",202,a,0.004144826321862638,0,colour,0.06,3.5
40,20,1,1,15,10,710,1122.076467004139,1123.4209731991868,"[80, 0, 174]",174,l,0.821258106851019,1,colour,0.06,3.5
40,20,1,1,15,11,711,1123.9359686562093,1124.7729459104594,"[62, 0, 192]",192,a,0.3137740644160658,0,colour,0.06,3.5
40,20,1,1,15,12,712,1125.279845880461,1126.1089769516839,"[50, 0, 204]",204,a,0.3057660110061988,1,colour,0.06,3.5
40,20,1,1,15,13,713,1126.6236801756313,1127.436962130596,"[86, 0, 168]",168,l,0.29924787394702435,1,colour,0.06,3.5
40,20,1,1,15,14,714,1127.9583461496513,1129.0289168981835,"[76, 0, 178]",178,l,0.5472344390582293,1,colour,0.06,3.5
40,20,1,1,15,15,715,1129.536592743243,1131.1569528043037,"[68, 0, 186]",186,l,1.1020748156588525,1,colour,0.06,3.5
40,20,1,1,15,16,716,1131.6723759771558,1132.6048878545407,"[57, 0, 197]",197,a,0.4092921460978687,0,colour,0.06,3.5
40,20,1,1,15,17,717,1133.1153572431067,1134.4449146516854,"[65, 0, 189]",189,a,0.8062018007040024,0,colour,0.06,3.5
40,20,1,1,15,18,718,1134.9592165474314,1136.2289347000187,"[59, 0, 195]",195,a,0.7519523887895048,0,colour,0.06,3.5
40,20,1,1,15,19,719,1136.7352439023089,1137.988987695775,"[71, 0, 183]",183,a,0.7302668811753392,0,colour,0.06,3.5
40,20,1,1,15,20,720,1138.5009930804372,1139.78891278652,"[94, 0, 160]",160,l,0.7644963567145169,1,colour,0.06,3.5
40,20,1,1,15,21,721,1140.2981041475432,1142.2689186468488,"[72, 0, 182]",182,l,1.4474325038027018,1,colour,0.06,3.5
40,20,1,1,15,22,722,1142.7702012036461,1143.7329328190535,"[88, 0, 166]",166,l,0.4398765846854076,1,colour,0.06,3.5
40,20,1,1,15,23,723,1144.242336462601,1145.2768798327306,"[51, 0, 203]",203,a,0.522724274196662,0,colour,0.06,3.5
40,20,1,1,15,24,724,1145.7845332284924,1146.8609175252495,"[91, 0, 163]",163,l,0.5532283684005961,1,colour,0.06,3.5
40,20,1,1,15,25,725,1147.378259511548,1148.4208778886823,"[58, 0, 196]",196,a,0.5268013591412455,0,colour,0.06,3.5
40,20,1,1,15,26,726,1148.9333464351948,1150.0289007505635,"[90, 0, 164]",164,l,0.572015963261947,1,colour,0.06,3.5
40,20,1,1,15,27,727,1150.5356022226624,1151.6928894015728,"[73, 0, 181]",181,a,0.6461707027629018,0,colour,0.06,3.5
40,20,1,1,15,28,728,1152.210915103089,1153.6768524210202,"[97, 0, 157]",157,l,0.9534100884338841,1,colour,0.06,3.5
40,20,1,1,15,29,729,1154.184484943049,1155.2288366325665,"[7, 0, 247]",247,a,0.5210453122854233,1,colour,0.06,3.5
40,20,1,1,15,30,730,1155.7470580751542,1156.7968684583902,"[81, 0, 173]",173,l,0.526442566071637,1,colour,0.06,3.5
40,20,1,1,15,31,731,1157.297380654025,1160.4768456468591,"[70, 0, 184]",184,a,2.6560668495949358,0,colour,0.06,3.5
40,20,1,1,15,32,732,1160.998567978968,1162.0449011034798,"[66, 0, 188]",188,a,0.5230740086408332,0,colour,0.06,3.5
40,20,1,1,15,33,733,1162.5611029081047,1163.5170588116162,"[35, 0, 219]",219,a,0.4330008360557258,1,colour,0.06,3.5
40,20,1,1,15,34,734,1164.0299184464384,1165.3009213218465,"[56, 0, 198]",198,a,0.7476086707320064,0,colour,0.06,3.5
40,20,1,1,15,35,735,1165.8113773197401,1167.0768494277727,"[69, 0, 185]",185,a,0.7421381615567952,0,colour,0.06,3.5
40,20,1,1,15,36,736,1167.5927180395229,1168.7648531803861,"[60, 0, 194]",194,a,0.6488496373640373,0,colour,0.06,3.5
40,20,1,1,15,37,737,1169.2809332868783,1170.2368411413627,"[77, 0, 177]",177,l,0.4304896795656532,1,colour,0.06,3.5
40,20,1,1,15,38,738,1170.7517594046658,1171.636811760487,"[3, 0, 251]",251,a,0.3621114668203518,1,colour,0.06,3.5
40,20,1,1,15,39,739,1172.1583674961003,1173.0208497680724,"[61, 0, 193]",193,a,0.33966386888641864,0,colour,0.06,3.5
40,20,1,1,15,40,740,1173.5331521120388,1174.7648165527498,"[92, 0, 162]",162,l,0.7211225846549496,1,colour,0.06,3.5
40,20,1,1,15,41,741,1175.2684157066979,1176.0048529598862,"[54, 0, 200]",200,a,0.22548934281803668,0,colour,0.06,3.5
40,20,1,1,15,42,742,1176.5221252356423,1177.3168811086798,"[84, 0, 170]",170,l,0.2721477831946686,1,colour,0.06,3.5
40,20,1,1,15,43,743,1177.8366011320613,1178.676811067271,"[99, 0, 155]",155,l,0.3137665813555941,1,colour,0.06,3.5
40,20,1,1,15,44,744,1179.1748447953723,1180.5328393989475,"[78, 0, 176]",176,l,0.8342782334657386,1,colour,0.06,3.5
40,20,1,1,15,45,745,1181.0388713342836,1181.9328529472696,"[95, 0, 159]",159,l,0.37285201787017286,1,colour,0.06,3.5
40,20,1,1,15,46,746,1182.4440493739676,1183.2768569895998,"[96, 0, 158]",158,l,0.30958945967722684,1,colour,0.06,3.5
40,20,1,1,15,47,747,1183.7788142031059,1184.7728454798926,"[67, 0, 187]",187,a,0.4712987318634987,0,colour,0.06,3.5
40,20,1,1,15,48,748,1185.2790247133235,1188.0768380062655,"[74, 0, 180]",180,l,2.284444022574462,1,colour,0.06,3.5
40,20,1,1,15,49,749,1188.5902667472837,1189.3887680877233,"[82, 0, 172]",172,l,0.2873939226847142,1,colour,0.06,3.5
40,20,1,1,15,50,750,1189.8954396275803,1190.6688238877105,"[93, 0, 161]",161,l,0.2543373181251809,1,colour,0.06,3.5
40,20,1,1,16,1,751,1195.3442718570586,1196.2607762924163,"[98, 0, 156]",156,l,0.40148967993445694,1,colour,0.06,3.4
40,20,1,1,16,2,752,1196.760956870392,1197.4527884038398,"[26, 0, 228]",228,a,0.16824591998010874,1,colour,0.06,3.4
40,20,1,1,16,3,753,1197.9680595524842,1198.796795597067,"[61, 0, 193]",193,a,0.3045994417043403,0,colour,0.06,3.4
40,20,1,1,16,4,754,1199.314546394744,1200.1407681319397,"[20, 0, 234]",234,a,0.30366366577800363,1,colour,0.06,3.4
40,20,1,1,16,5,755,1200.658389748307,1201.4530479478417,"[57, 0, 197]",197,a,0.28436919196974486,0,colour,0.06,3.4
40,20,1,1,16,6,756,1201.958450912498,1202.7167556296336,"[88, 0, 166]",166,l,0.2355079755652696,1,colour,0.06,3.4
40,20,1,1,16,7,757,1203.2245114252437,1203.9647859116085,"[56, 0, 198]",198,a,0.21743205876555294,0,colour,0.06,3.4
40,20,1,1,16,8,758,1204.4743120410712,1205.1969103635056,"[50, 0, 204]",204,a,0.19982009148225188,1,colour,0.06,3.4
40,20,1,1,16,9,759,1205.706612935639,1206.4773403164,"[72, 0, 182]",182,a,0.24751513253431767,0,colour,0.06,3.4
40,20,1,1,16,10,760,1206.989811226027,1207.620782262995,"[86, 0, 168]",168,l,0.10787339764647186,1,colour,0.06,3.4
40,20,1,1,16,11,761,1208.1319487575674,1208.8527846229263,"[53, 0, 201]",201,a,0.19839476596098393,0,colour,0.06,3.4
40,20,1,1,16,12,762,1209.366219665506,1210.092763528577,"[82, 0, 172]",172,l,0.21610992052592337,1,colour,0.06,3.4
40,20,1,1,16,13,763,1210.6038437710376,1211.3087037019432,"[64, 0, 190]",190,a,0.1800474898191169,0,colour,0.06,3.4
40,20,1,1,16,14,764,1211.82415720087,1212.612734825234,"[81, 0, 173]",173,l,0.26514049049001187,1,colour,0.06,3.4
40,20,1,1,16,15,765,1213.5414323123405,1214.3567595051136,"[97, 0, 157]",157,l,0.29102517501451075,1,colour,0.06,3.4
40,20,1,1,16,16,766,1214.871161043644,1215.8207035728265,"[77, 0, 177]",177,l,0.4267583906184882,1,colour,0.06,3.4
40,20,1,1,16,17,767,1216.3400175417773,1217.3087612033123,"[93, 0, 161]",161,l,0.4461320270784199,1,colour,0.06,3.4
40,20,1,1,16,18,768,1217.8244990584208,1218.6767256029416,"[87, 0, 167]",167,l,0.3287937429267913,1,colour,0.06,3.4
40,20,1,1,16,19,769,1219.1755312675377,1220.1086929893354,"[51, 0, 203]",203,a,0.41559209290426224,0,colour,0.06,3.4
40,20,1,1,16,20,770,1220.6230374203296,1221.524774631951,"[52, 0, 202]",202,a,0.378463129629381,0,colour,0.06,3.4
40,20,1,1,16,21,771,1222.0449101618724,1222.812875506701,"[83, 0, 171]",171,l,0.2451177971670404,1,colour,0.06,3.4
40,20,1,1,16,22,772,1223.3264196442906,1224.2447078042896,"[92, 0, 162]",162,l,0.39526062505319715,1,colour,0.06,3.4
40,20,1,1,16,23,773,1224.7535230432404,1225.6127163144993,"[65, 0, 189]",189,a,0.3413893044926226,0,colour,0.06,3.4
40,20,1,1,16,24,774,1226.1234578500735,1226.8606595566962,"[58, 0, 196]",196,a,0.2137436990160495,0,colour,0.06,3.4
40,20,1,1,16,25,775,1227.3735487298109,1228.3807060776744,"[74, 0, 180]",180,l,0.483757235459052,1,colour,0.06,3.4
40,20,1,1,16,26,776,1228.8900604905793,1229.8447399419965,"[96, 0, 158]",158,l,0.4316294672898948,1,colour,0.06,3.4
40,20,1,1,16,27,777,1230.359792112722,1231.5487408967456,"[69, 0, 185]",185,a,0.6657046342734247,0,colour,0.06,3.4
40,20,1,1,16,28,778,1232.062985291006,1233.1246917669196,"[95, 0, 159]",159,a,0.5385473967762664,0,colour,0.06,3.4
40,20,1,1,16,29,779,1233.6412559091114,1234.5407151203835,"[12, 0, 242]",242,a,0.37632376281544566,1,colour,0.06,3.4
40,20,1,1,16,30,780,1235.047693465487,1235.6207121586194,"[91, 0, 163]",163,l,0.04960400843992829,1,colour,0.06,3.4
40,20,1,1,16,31,781,1236.141523133032,1237.0127743672347,"[90, 0, 164]",164,l,0.34882352547720075,1,colour,0.06,3.4
40,20,1,1,16,32,782,1237.5322982557118,1238.356695702183,"[73, 0, 181]",181,l,0.3016964092385024,1,colour,0.06,3.4
40,20,1,1,16,33,783,1238.8762101384345,1239.8286620016443,"[75, 0, 179]",179,l,0.4296047093812376,1,colour,0.06,3.4
40,20,1,1,16,34,784,1240.3469425210496,1241.4847898973385,"[70, 0, 184]",184,l,0.6153054524911568,1,colour,0.06,3.4
40,20,1,1,16,35,785,1242.002708079177,1242.5806636211928,"[54, 0, 200]",200,a,0.05550065799616277,0,colour,0.06,3.4
40,20,1,1,16,36,786,1243.0965523188934,1244.212721670745,"[60, 0, 194]",194,a,0.5928582483902574,0,colour,0.06,3.4
40,20,1,1,16,37,787,1244.7216960231308,1245.3566515914863,"[94, 0, 160]",160,l,0.11190637189429253,1,colour,0.06,3.4
40,20,1,1,16,38,788,1245.8799737226218,1246.4606818483444,"[84, 0, 170]",170,l,0.05736905930098146,1,colour,0.06,3.4
40,20,1,1,16,39,789,1246.97367893497,1247.540667465073,"[71, 0, 183]",183,l,0.04256757104303688,1,colour,0.06,3.4
40,20,1,1,16,40,790,1248.0530938701704,1249.3006858024746,"[68, 0, 186]",186,a,0.721918151830323,0,colour,0.06,3.4
40,20,1,1,16,41,791,1249.8102505287388,1250.4526442565257,"[89, 0, 165]",165,l,0.1287259227829054,1,colour,0.06,3.4
40,20,1,1,16,42,792,1250.9610235089203,1251.6126540869009,"[62, 0, 192]",192,a,0.12823243474122137,0,colour,0.06,3.4
40,20,1,1,16,43,793,1252.133164951345,1252.8767985430313,"[66, 0, 188]",188,a,0.2331803507404402,0,colour,0.06,3.4
40,20,1,1,16,44,794,1253.3897822389845,1253.988680496579,"[80, 0, 174]",174,l,0.07554501271806657,1,colour,0.06,3.4
40,20,1,1,16,45,795,1254.4995945363771,1255.0926654612413,"[59, 0, 195]",195,a,0.07008592528291047,0,colour,0.06,3.4
40,20,1,1,16,46,796,1255.6006347207585,1256.6126607822953,"[76, 0, 178]",178,l,0.4871029498754069,1,colour,0.06,3.4
40,20,1,1,16,47,797,1257.1210821761051,1257.7487933569355,"[63, 0, 191]",191,a,0.1041929149068892,0,colour,0.06,3.4
40,20,1,1,16,48,798,1258.2617459391477,1259.020632759435,"[85, 0, 169]",169,l,0.2395882112905383,1,colour,0.06,3.4
40,20,1,1,16,49,799,1259.5391192598036,1260.1490321846213,"[55, 0, 199]",199,a,0.08743204700294882,0,colour,0.06,3.4
40,20,1,1,16,50,800,1260.6568328784779,1261.2606037881924,"[79, 0, 175]",175,l,0.08096944191493094,1,colour,0.06,3.4
