id,age,condition,counterbalance,block,trialinblock,trial,tstart,tend,trialstim,trialintensity,response,RT,accuracy,trialtype,colourfreq,credits
71,23,0,1,Practice,1,NA,6.695510819554329e-06,1.3402283831965178,"[80, 0, 174]",174,a,0.7164648603647947,0,colour,0.5,4
71,23,0,1,Practice,2,NA,1.8494742955081165,4.4362317197956145,"[24, 0, 230]",230,a,2.0704041798599064,1,colour,0.5,4
71,23,0,1,Practice,3,NA,4.9449987162370235,5.940264301840216,"[61, 0, 193]",193,a,0.47832629922777414,0,colour,0.5,4
71,23,0,1,Practice,4,NA,6.448869427898899,7.356212594546378,"[8, 0, 246]",246,a,0.3911549432668835,1,colour,0.5,4
71,23,0,1,Practice,5,NA,7.864565265830606,8.82820546766743,"[23, 0, 231]",231,a,0.44726844667457044,1,colour,0.5,4
71,23,0,1,Practice,6,NA,9.33722925116308,10.332271526567638,"[65, 0, 189]",189,l,0.4780277644749731,1,colour,0.5,4
71,23,0,1,Practice,7,NA,10.841757684480399,11.764234750764444,"[41, 0, 213]",213,a,0.4060769542120397,1,colour,0.5,4
71,23,0,1,Practice,8,NA,12.273220725124702,13.244218351086602,"[55, 0, 199]",199,a,0.45397484418936074,0,colour,0.5,4
71,23,0,1,Practice,9,NA,13.754036914557219,14.660231234505773,"[19, 0, 235]",235,a,0.389628792880103,1,colour,0.5,4
71,23,0,1,Practice,10,NA,15.169276285683736,16.204218240920454,"[70, 0, 184]",184,l,0.5180971915833652,1,colour,0.5,4
71,23,0,1,1,1,1,4.3400763587560505,6.071950022596866,"[69, 0, 185]",185,a,1.212973421672359,0,colour,0.5,4.0
71,23,0,1,1,2,2,6.581051393644884,7.479994234163314,"[81, 0, 173]",173,l,0.3822630981449038,1,colour,0.5,4.0
71,23,0,1,1,3,3,7.98910269443877,8.89596694521606,"[35, 0, 219]",219,a,0.3908225379418582,1,colour,0.5,4.0
71,23,0,1,1,4,4,9.405086039332673,10.311968801077455,"[52, 0, 202]",202,a,0.3905275478027761,0,colour,0.5,4.0
71,23,0,1,1,5,5,10.820911058690399,11.671963885892183,"[99, 0, 155]",155,l,0.3345298352651298,1,colour,0.5,4.0
71,23,0,1,1,6,6,12.180769479135051,13.0239603666123,"[28, 0, 226]",226,a,0.3265654956921935,1,colour,0.5,4.0
71,23,0,1,1,7,7,13.532680889125913,14.40806272230111,"[21, 0, 233]",233,a,0.35947087686508894,1,colour,0.5,4.0
71,23,0,1,1,8,8,14.917036487255245,15.839959780452773,"[9, 0, 245]",245,a,0.4063337412662804,1,colour,0.5,4.0
71,23,0,1,1,9,9,16.348323479294777,17.199985979124904,"[86, 0, 168]",168,l,0.3353250091895461,1,colour,0.5,4.0
71,23,0,1,1,10,10,17.709025910357013,18.624040002003312,"[75, 0, 179]",179,l,0.399828992318362,1,colour,0.5,4.0
71,23,0,1,1,11,11,19.132891675224528,19.991922626737505,"[4, 0, 250]",250,a,0.3410369474440813,1,colour,0.5,4.0
71,23,0,1,1,12,12,20.500484035816044,21.431931716622785,"[27, 0, 227]",227,a,0.41459228354506195,1,colour,0.5,4.0
71,23,0,1,1,13,13,21.94064475619234,22.847954446217045,"[31, 0, 223]",223,a,0.39064215682446957,1,colour,0.5,4.0
71,23,0,1,1,14,14,23.35740397660993,24.255943125579506,"[90, 0, 164]",164,l,0.38186216354370117,1,colour,0.5,4.0
71,23,0,1,1,15,15,24.764180399943143,25.57592116482556,"[88, 0, 166]",166,l,0.29503463488072157,1,colour,0.5,4.0
71,23,0,1,1,16,16,26.084855939261615,26.91189365531318,"[1, 0, 253]",253,a,0.3109066002070904,1,colour,0.5,4.0
71,23,0,1,1,17,17,27.421998938079923,28.24793034279719,"[5, 0, 249]",249,a,0.3094147143419832,1,colour,0.5,4.0
71,23,0,1,1,18,18,28.757112846011296,29.76785458275117,"[60, 0, 194]",194,l,0.49399464670568705,1,colour,0.5,4.0
71,23,0,1,1,19,19,30.27581813489087,31.135891594924033,"[29, 0, 225]",225,a,0.3435512559954077,1,colour,0.5,4.0
71,23,0,1,1,20,20,31.64447309006937,32.51188388816081,"[13, 0, 241]",241,a,0.3508736276999116,1,colour,0.5,4.0
71,23,0,1,1,21,21,33.02095926529728,33.87188094202429,"[71, 0, 183]",183,l,0.33413677755743265,1,colour,0.5,4.0
71,23,0,1,1,22,22,34.380803507287055,35.32790614501573,"[57, 0, 197]",197,a,0.4309203219600022,0,colour,0.5,4.0
71,23,0,1,1,23,23,35.83672473509796,36.73590112593956,"[47, 0, 207]",207,a,0.38173495163209736,1,colour,0.5,4.0
71,23,0,1,1,24,24,37.244907974032685,38.11190956667997,"[50, 0, 204]",204,a,0.3507810737937689,1,colour,0.5,4.0
71,23,0,1,1,25,25,38.62148906593211,39.551929684355855,"[95, 0, 159]",159,l,0.4140219953842461,1,colour,0.5,4.0
71,23,0,1,1,26,26,40.0608207420446,41.031912497011945,"[83, 0, 171]",171,l,0.45488541456870735,1,colour,0.5,4.0
71,23,0,1,1,27,27,41.5409465203993,42.51987500931136,"[14, 0, 240]",240,a,0.4619569070637226,1,colour,0.5,4.0
71,23,0,1,1,28,28,43.02830408629961,43.90388441737741,"[37, 0, 217]",217,a,0.3586229276843369,1,colour,0.5,4.0
71,23,0,1,1,29,29,44.41294404072687,45.25589271332137,"[84, 0, 170]",170,l,0.32592195249162614,1,colour,0.5,4.0
71,23,0,1,1,30,30,45.76505158585496,46.73586883046664,"[76, 0, 178]",178,l,0.4541820068843663,1,colour,0.5,4.0
71,23,0,1,1,31,31,47.24492569710128,48.159861019812524,"[63, 0, 191]",191,l,0.3985690812114626,1,colour,0.5,4.0
71,23,0,1,1,32,32,48.669051793869585,49.431856098352,"[16, 0, 238]",238,a,0.24554718495346606,1,colour,0.5,4.0
71,23,0,1,1,33,33,49.94090902642347,50.72790015861392,"[74, 0, 180]",180,l,0.2710522129200399,1,colour,0.5,4.0
71,23,0,1,1,34,34,51.23703973274678,52.007865484571084,"[25, 0, 229]",229,a,0.2540762990247458,1,colour,0.5,4.0
71,23,0,1,1,35,35,52.51711848587729,53.35192283149809,"[10, 0, 244]",244,a,0.31826244900003076,1,colour,0.5,4.0
71,23,0,1,1,36,36,53.860635083401576,54.71989919128828,"[45, 0, 209]",209,a,0.3426918853074312,1,colour,0.5,4.0
71,23,0,1,1,37,37,55.22803721670061,56.03182191262022,"[54, 0, 200]",200,a,0.2867489173077047,0,colour,0.5,4.0
71,23,0,1,1,38,38,56.54070706246421,57.343857667408884,"[46, 0, 208]",208,a,0.28689306462183595,1,colour,0.5,4.0
71,23,0,1,1,39,39,57.852967309299856,58.65581622859463,"[89, 0, 165]",165,l,0.2866339145693928,1,colour,0.5,4.0
71,23,0,1,1,40,40,59.16409209999256,60.14388744207099,"[59, 0, 195]",195,l,0.46359254652634263,1,colour,0.5,4.0
71,23,0,1,1,41,41,60.65229091932997,61.495810667518526,"[12, 0, 242]",242,a,0.3265276865568012,1,colour,0.5,4.0
71,23,0,1,1,42,42,62.00486241397448,62.83185680722818,"[6, 0, 248]",248,a,0.31045722286216915,1,colour,0.5,4.0
71,23,0,1,1,43,43,63.34116888558492,64.20781759289093,"[26, 0, 228]",228,a,0.3494593291543424,1,colour,0.5,4.0
71,23,0,1,1,44,44,64.71686894563027,65.55985542712733,"[85, 0, 169]",169,l,0.32615392724983394,1,colour,0.5,4.0
71,23,0,1,1,45,45,66.06894458900206,66.97583010769449,"[67, 0, 187]",187,l,0.3903581944759935,1,colour,0.5,4.0
71,23,0,1,1,46,46,67.4847597621847,68.30387646169402,"[49, 0, 205]",205,a,0.3020206626970321,1,colour,0.5,4.0
71,23,0,1,1,47,47,68.81289551919326,69.63979184487835,"[7, 0, 247]",247,a,0.3101173343602568,1,colour,0.5,4.0
71,23,0,1,1,48,48,70.14937607012689,71.02379731461406,"[48, 0, 206]",206,a,0.35811092890799046,1,colour,0.5,4.0
71,23,0,1,1,49,49,71.5327541443985,72.47180658415891,"[58, 0, 196]",196,a,0.4224172020331025,0,colour,0.5,4.0
71,23,0,1,1,50,50,72.98065038025379,73.72783438651823,"[70, 0, 184]",184,l,0.2310225642286241,1,colour,0.5,4.0
71,23,0,1,2,1,51,82.73198748519644,83.55980974109843,"[48, 0, 206]",206,a,0.31045643519610167,1,colour,0.5,4.0
71,23,0,1,2,2,52,84.06896546296775,84.93576028686948,"[91, 0, 163]",163,l,0.35060581285506487,1,colour,0.5,4.0
71,23,0,1,2,3,53,85.44483408867382,86.30376894189976,"[41, 0, 213]",213,a,0.3428545433562249,1,colour,0.5,4.0
71,23,0,1,2,4,54,86.81285574077629,87.59177777031437,"[78, 0, 176]",176,l,0.26175785763189197,1,colour,0.5,4.0
71,23,0,1,2,5,55,88.1004289763514,88.90377256530337,"[71, 0, 183]",183,l,0.28710455959662795,1,colour,0.5,4.0
71,23,0,1,2,6,56,89.41279083513655,90.27987434761599,"[46, 0, 208]",208,a,0.350183610804379,1,colour,0.5,4.0
71,23,0,1,2,7,57,90.78891230956651,91.60778049263172,"[21, 0, 233]",233,a,0.3027488826774061,1,colour,0.5,4.0
71,23,0,1,2,8,58,92.11731942580082,92.98380823200569,"[51, 0, 203]",203,a,0.3501702200155705,0,colour,0.5,4.0
71,23,0,1,2,9,59,93.49285722151399,94.43173243082128,"[59, 0, 195]",195,l,0.4221407223958522,1,colour,0.5,4.0
71,23,0,1,2,10,60,94.94053408573382,95.79982694424689,"[67, 0, 187]",187,l,0.34276947285979986,1,colour,0.5,4.0
71,23,0,1,2,11,61,96.30898148450069,97.13581479503773,"[6, 0, 248]",248,a,0.3106313026510179,1,colour,0.5,4.0
71,23,0,1,2,12,62,97.64449947769754,98.51173107605428,"[53, 0, 201]",201,a,0.3508074616547674,0,colour,0.5,4.0
71,23,0,1,2,13,63,99.02081196708605,99.87173482542858,"[9, 0, 245]",245,a,0.33333451487123966,1,colour,0.5,4.0
71,23,0,1,2,14,64,100.38066723686643,101.24779289099388,"[89, 0, 165]",165,l,0.3505361024290323,1,colour,0.5,4.0
71,23,0,1,2,15,65,101.75689623109065,102.62373555963859,"[3, 0, 251]",251,a,0.34802139992825687,1,colour,0.5,4.0
71,23,0,1,2,16,66,103.13252146053128,103.95976161328144,"[0, 0, 254]",254,a,0.30987433181144297,1,colour,0.5,4.0
71,23,0,1,2,17,67,104.46809222898446,105.36771878506988,"[27, 0, 227]",227,a,0.38244663015939295,1,colour,0.5,4.0
71,23,0,1,2,18,68,105.87788983993232,106.75182547303848,"[95, 0, 159]",159,l,0.35676870425231755,1,colour,0.5,4.0
71,23,0,1,2,19,69,107.26088115782477,108.07171095837839,"[50, 0, 204]",204,a,0.2939298986457288,1,colour,0.5,4.0
71,23,0,1,2,20,70,108.58070953586139,109.43172494787723,"[31, 0, 223]",223,a,0.3348634224385023,1,colour,0.5,4.0
71,23,0,1,2,21,71,109.94182038446888,110.84774807118811,"[74, 0, 180]",180,l,0.38968117418698967,1,colour,0.5,4.0
71,23,0,1,2,22,72,111.35747723164968,112.3437107631471,"[60, 0, 194]",194,a,0.46888149506412446,0,colour,0.5,4.0
71,23,0,1,2,23,73,112.8533008962404,113.67970649059862,"[8, 0, 246]",246,a,0.3091894348617643,1,colour,0.5,4.0
71,23,0,1,2,24,74,114.18861448368989,115.0318317587953,"[70, 0, 184]",184,l,0.3270408669486642,1,colour,0.5,4.0
71,23,0,1,2,25,75,115.54087720368989,116.8637377966661,"[68, 0, 186]",186,l,0.8064057363662869,1,colour,0.5,4.0
71,23,0,1,2,26,76,117.3726930511184,118.09571070945822,"[28, 0, 226]",226,a,0.20383699843659997,1,colour,0.5,4.0
71,23,0,1,2,27,77,118.6047593052499,119.38369984575547,"[83, 0, 171]",171,l,0.2624911975581199,1,colour,0.5,4.0
71,23,0,1,2,28,78,119.92474364605732,120.78372457926162,"[26, 0, 228]",228,a,0.34039616119116545,1,colour,0.5,4.0
71,23,0,1,2,29,79,121.29277750733308,122.11971006682143,"[99, 0, 155]",155,l,0.3097612983547151,1,colour,0.5,4.0
71,23,0,1,2,30,80,122.6287050996907,123.479694517795,"[22, 0, 232]",232,a,0.33309702621772885,1,colour,0.5,4.0
71,23,0,1,2,31,81,123.9887064860668,125.16775801195763,"[62, 0, 192]",192,a,0.6626108477357775,0,colour,0.5,4.0
71,23,0,1,2,32,82,125.67668175883591,126.47975713922642,"[19, 0, 235]",235,a,0.2861191586125642,1,colour,0.5,4.0
71,23,0,1,2,33,83,126.98886835644953,127.79969815700315,"[43, 0, 211]",211,a,0.2936707485932857,1,colour,0.5,4.0
71,23,0,1,2,34,84,128.3087810173165,129.14379922067747,"[42, 0, 212]",212,a,0.3178752991370857,1,colour,0.5,4.0
71,23,0,1,2,35,85,129.65289822872728,130.5838240645826,"[56, 0, 198]",198,a,0.414057441521436,0,colour,0.5,4.0
71,23,0,1,2,36,86,131.09286478348076,131.89574599801563,"[54, 0, 200]",200,a,0.28568435343913734,0,colour,0.5,4.0
71,23,0,1,2,37,87,132.40472133876756,133.2077258268837,"[76, 0, 178]",178,l,0.28632986592128873,1,colour,0.5,4.0
71,23,0,1,2,38,88,133.71683586249128,134.52768496144563,"[11, 0, 243]",243,a,0.2937503051944077,1,colour,0.5,4.0
71,23,0,1,2,39,89,135.03665242507122,135.89574087806977,"[97, 0, 157]",157,l,0.34216964640654624,1,colour,0.5,4.0
71,23,0,1,2,40,90,136.40484185540117,137.21570670814253,"[7, 0, 247]",247,a,0.2939736156258732,1,colour,0.5,4.0
71,23,0,1,2,41,91,137.7255886804778,138.51964106503874,"[34, 0, 220]",220,a,0.2775396325159818,1,colour,0.5,4.0
71,23,0,1,2,42,92,139.02882986981422,139.8396301320754,"[86, 0, 168]",168,l,0.29452854371629655,1,colour,0.5,4.0
71,23,0,1,2,43,93,140.34859602013603,141.2076569038909,"[49, 0, 205]",205,a,0.343035712139681,1,colour,0.5,4.0
71,23,0,1,2,44,94,141.7166755674407,142.73565851710737,"[39, 0, 215]",215,a,0.5023823701776564,1,colour,0.5,4.0
71,23,0,1,2,45,95,143.24473153147846,144.03169666975737,"[37, 0, 217]",217,a,0.26982499100267887,1,colour,0.5,4.0
71,23,0,1,2,46,96,144.5408169454895,145.26365816104226,"[81, 0, 173]",173,l,0.20647497428581119,1,colour,0.5,4.0
71,23,0,1,2,47,97,145.77272802451625,146.53562291362323,"[40, 0, 214]",214,a,0.24487449740990996,1,colour,0.5,4.0
71,23,0,1,2,48,98,147.0444466236513,147.8956510813441,"[61, 0, 193]",193,a,0.3346822534222156,0,colour,0.5,4.0
71,23,0,1,2,49,99,148.40441532083787,149.18363273446448,"[44, 0, 210]",210,a,0.26218833052553236,1,colour,0.5,4.0
71,23,0,1,2,50,100,149.69348831940442,150.49562674178742,"[84, 0, 170]",170,l,0.2847009217366576,1,colour,0.5,4.0
71,23,0,1,3,1,101,157.13158725947142,157.95163697865792,"[18, 0, 236]",236,a,0.3021742624696344,1,colour,0.5,4.0
71,23,0,1,3,2,102,158.46105106268078,159.23964620078914,"[21, 0, 233]",233,a,0.2627192339859903,1,colour,0.5,4.0
71,23,0,1,3,3,103,159.74830922205,160.54360694554634,"[75, 0, 179]",179,l,0.2786388548556715,1,colour,0.5,4.0
71,23,0,1,3,4,104,161.05330223520286,161.78361548413523,"[38, 0, 216]",216,a,0.2136149958241731,1,colour,0.5,4.0
71,23,0,1,3,5,105,162.29272118746303,163.0876353054773,"[86, 0, 168]",168,l,0.2786963563412428,1,colour,0.5,4.0
71,23,0,1,3,6,106,163.5966583013069,164.47963229031302,"[61, 0, 193]",193,a,0.36652740300633013,0,colour,0.5,4.0
71,23,0,1,3,7,107,164.98874153825454,165.80760814598761,"[47, 0, 207]",207,a,0.3017894756048918,1,colour,0.5,4.0
71,23,0,1,3,8,108,166.316722513875,167.17562664719298,"[12, 0, 242]",242,a,0.34252922725863755,1,colour,0.5,4.0
71,23,0,1,3,9,109,167.68479891051538,168.5436475116294,"[29, 0, 225]",225,a,0.34254852565936744,1,colour,0.5,4.0
71,23,0,1,3,10,110,169.05361809930764,169.8956199674867,"[70, 0, 184]",184,l,0.3253922304138541,1,colour,0.5,4.0
71,23,0,1,3,11,111,170.40430858870968,171.19171247072518,"[11, 0, 243]",243,a,0.2715327041223645,1,colour,0.5,4.0
71,23,0,1,3,12,112,171.70069135609083,172.5276152510196,"[10, 0, 244]",244,a,0.3102449404541403,1,colour,0.5,4.0
71,23,0,1,3,13,113,173.03654648084193,173.8476507915184,"[68, 0, 186]",186,l,0.29430917161516845,1,colour,0.5,4.0
71,23,0,1,3,14,114,174.35683250706643,175.11162481666543,"[37, 0, 217]",217,a,0.23769942368380725,1,colour,0.5,4.0
71,23,0,1,3,15,115,175.6207159475889,176.3915960502345,"[73, 0, 181]",181,l,0.2546934545971453,1,colour,0.5,4.0
71,23,0,1,3,16,116,176.90066551975906,177.75959525303915,"[9, 0, 245]",245,a,0.34285769425332546,1,colour,0.5,4.0
71,23,0,1,3,17,117,178.2685721688904,179.17569045023993,"[91, 0, 163]",163,l,0.390879645710811,1,colour,0.5,4.0
71,23,0,1,3,18,118,179.6847335321363,180.49554600333795,"[24, 0, 230]",230,a,0.29411146114580333,1,colour,0.5,4.0
71,23,0,1,3,19,119,181.00460129464045,181.91960317711346,"[92, 0, 162]",162,l,0.39866990549489856,1,colour,0.5,4.0
71,23,0,1,3,20,120,182.4289688183926,183.28764727851376,"[81, 0, 173]",173,l,0.34113186434842646,1,colour,0.5,4.0
71,23,0,1,3,21,121,183.79669508640654,184.67953044176102,"[49, 0, 205]",205,a,0.3652095964644104,1,colour,0.5,4.0
71,23,0,1,3,22,122,185.18873145570979,186.02357636741363,"[98, 0, 156]",156,l,0.3176122105214745,1,colour,0.5,4.0
71,23,0,1,3,23,123,186.53246624348685,187.39159683790058,"[46, 0, 208]",208,a,0.3429443403147161,1,colour,0.5,4.0
71,23,0,1,3,24,124,187.90054657845758,188.76765805413015,"[85, 0, 169]",169,l,0.3500512787140906,1,colour,0.5,4.0
71,23,0,1,3,25,125,189.27682952955365,190.03954561264254,"[13, 0, 241]",241,a,0.24612613744102418,1,colour,0.5,4.0
71,23,0,1,3,26,126,190.54929485940374,191.35166171216406,"[7, 0, 247]",247,a,0.28455638070590794,1,colour,0.5,4.0
71,23,0,1,3,27,127,191.86067368020304,192.64756201882847,"[23, 0, 231]",231,a,0.2701223441399634,1,colour,0.5,4.0
71,23,0,1,3,28,128,193.1570178505499,193.97554141911678,"[17, 0, 237]",237,a,0.3018119246698916,1,colour,0.5,4.0
71,23,0,1,3,29,129,194.48462664242834,195.2715697255917,"[74, 0, 180]",180,l,0.2697489787824452,1,colour,0.5,4.0
71,23,0,1,3,30,130,195.7806175337173,196.55954153253697,"[84, 0, 170]",170,l,0.2622218073811382,1,colour,0.5,4.0
71,23,0,1,3,31,131,197.06914702546783,197.9035323197022,"[76, 0, 178]",178,l,0.317709096474573,1,colour,0.5,4.0
71,23,0,1,3,32,132,198.41190113849007,199.21552869002335,"[22, 0, 232]",232,a,0.28697577212005854,1,colour,0.5,4.0
71,23,0,1,3,33,133,199.72465369175188,200.55954271415249,"[52, 0, 202]",202,a,0.317506660008803,0,colour,0.5,4.0
71,23,0,1,3,34,134,201.06873821420595,201.8716292749159,"[4, 0, 250]",250,a,0.2863066289573908,1,colour,0.5,4.0
71,23,0,1,3,35,135,202.3805644433014,203.05550461821258,"[95, 0, 159]",159,l,0.158693662378937,1,colour,0.5,4.0
71,23,0,1,3,36,136,203.56390888313763,204.27163471002132,"[32, 0, 222]",222,a,0.19083419581875205,1,colour,0.5,4.0
71,23,0,1,3,37,137,204.78055924456567,205.55154726072215,"[99, 0, 155]",155,l,0.254843509523198,1,colour,0.5,4.0
71,23,0,1,3,38,138,206.0605946748983,206.82354312669486,"[19, 0, 235]",235,a,0.2462431094609201,1,colour,0.5,4.0
71,23,0,1,3,39,139,207.33240307075903,208.22357691871002,"[43, 0, 211]",211,l,0.3748560494277626,0,colour,0.5,4.0
71,23,0,1,3,40,140,208.7324215027038,209.56752871512435,"[14, 0, 240]",240,a,0.3180466217454523,1,colour,0.5,4.0
71,23,0,1,3,41,141,210.07661787699908,210.8794994854834,"[66, 0, 188]",188,l,0.2866992927156389,1,colour,0.5,4.0
71,23,0,1,3,42,142,211.3885394167155,212.11947257816792,"[59, 0, 195]",195,a,0.2153553981333971,0,colour,0.5,4.0
71,23,0,1,3,43,143,212.62851723539643,213.39152673329227,"[15, 0, 239]",239,a,0.24627855559810996,1,colour,0.5,4.0
71,23,0,1,3,44,144,213.90135041670874,214.5594663079828,"[79, 0, 175]",175,l,0.1418177851010114,1,colour,0.5,4.0
71,23,0,1,3,45,145,215.06846291618422,215.815539796371,"[72, 0, 182]",182,l,0.23024865798652172,1,colour,0.5,4.0
71,23,0,1,3,46,146,216.32458563521504,217.03154700854793,"[90, 0, 164]",164,l,0.19054550724104047,1,colour,0.5,4.0
71,23,0,1,3,47,147,217.54064050270244,218.24750223313458,"[56, 0, 198]",198,a,0.18993425951339304,0,colour,0.5,4.0
71,23,0,1,3,48,148,218.756505536614,219.52751994039863,"[5, 0, 249]",249,a,0.2519459896720946,1,colour,0.5,4.0
71,23,0,1,3,49,149,220.0370576919522,220.70352428522892,"[58, 0, 196]",196,a,0.1501101979520172,0,colour,0.5,4.0
71,23,0,1,3,50,150,221.21260320721194,221.95147589594126,"[54, 0, 200]",200,a,0.22192079946398735,0,colour,0.5,4.0
71,23,0,1,4,1,151,227.82774506229907,228.70346639002673,"[98, 0, 156]",156,l,0.3589982623234391,1,colour,0.5,4.0
71,23,0,1,4,2,152,229.21269064070657,229.95948473992757,"[16, 0, 238]",238,a,0.22960472106933594,1,colour,0.5,4.0
71,23,0,1,4,3,153,230.46859792643227,231.27946593007073,"[45, 0, 209]",209,a,0.2942843595519662,1,colour,0.5,4.0
71,23,0,1,4,4,154,231.78866300545633,232.55145864537917,"[7, 0, 247]",247,a,0.24566809553653002,1,colour,0.5,4.0
71,23,0,1,4,5,155,233.06021500797942,233.79947720980272,"[78, 0, 176]",176,l,0.22299717855639756,1,colour,0.5,4.0
71,23,0,1,4,6,156,234.3085002056323,235.0235038998071,"[90, 0, 164]",164,l,0.19748387997969985,1,colour,0.5,4.0
71,23,0,1,4,7,157,235.5321747979615,236.20744974142872,"[80, 0, 174]",174,l,0.15811982983723283,1,colour,0.5,4.0
71,23,0,1,4,8,158,236.71654520463198,237.4474708829075,"[44, 0, 210]",210,a,0.2147169748786837,1,colour,0.5,4.0
71,23,0,1,4,9,159,237.9562532394193,238.65562363830395,"[19, 0, 235]",235,a,0.181056592380628,1,colour,0.5,4.0
71,23,0,1,4,10,160,239.16416889964603,239.83146453741938,"[14, 0, 240]",240,a,0.15110505116172135,1,colour,0.5,4.0
71,23,0,1,4,11,161,240.3406163204927,240.99150869529694,"[4, 0, 250]",250,a,0.1338290269486606,1,colour,0.5,4.0
71,23,0,1,4,12,162,241.5006305463612,242.0874281427823,"[11, 0, 243]",243,a,0.0704215089790523,1,colour,0.5,4.0
71,23,0,1,4,13,163,242.59659725544043,243.15145399793983,"[88, 0, 166]",166,l,0.03873901744373143,1,colour,0.5,4.0
71,23,0,1,4,14,164,243.66046281554736,244.2394496719353,"[34, 0, 220]",220,a,0.06271435017697513,1,colour,0.5,4.0
71,23,0,1,4,15,165,244.74835569574498,245.28743263264187,"[46, 0, 208]",208,a,0.022345994599163532,1,colour,0.5,4.0
71,23,0,1,4,16,166,245.79669508640654,246.34346854826435,"[29, 0, 225]",225,a,0.030809336341917515,1,colour,0.5,4.0
71,23,0,1,4,17,167,246.85246633808129,248.49542981898412,"[50, 0, 204]",204,a,1.1261943357530981,1,colour,0.5,4.0
71,23,0,1,4,18,168,249.00443351641297,249.87943568266928,"[1, 0, 253]",253,a,0.3585433710832149,1,colour,0.5,4.0
71,23,0,1,4,19,169,250.38780213845894,251.39941624249332,"[64, 0, 190]",190,l,0.4946165287401527,1,colour,0.5,4.0
71,23,0,1,4,20,170,251.9091198029928,252.6394149349071,"[6, 0, 248]",248,a,0.21242400747723877,1,colour,0.5,4.0
71,23,0,1,4,21,171,253.1477640613448,253.9114269488491,"[47, 0, 207]",207,a,0.2471450155135244,1,colour,0.5,4.0
71,23,0,1,4,22,172,254.42042276915163,255.17543366295286,"[56, 0, 198]",198,a,0.23834532988257706,0,colour,0.5,4.0
71,23,0,1,4,23,173,255.6844909233041,256.43149139755405,"[12, 0, 242]",242,a,0.23022030130960047,1,colour,0.5,4.0
71,23,0,1,4,24,174,256.94142141914926,257.7194305153098,"[60, 0, 194]",194,a,0.2617539190687239,0,colour,0.5,4.0
71,23,0,1,4,25,175,258.2285484280437,258.9514833788853,"[18, 0, 236]",236,a,0.20661203237250447,1,colour,0.5,4.0
71,23,0,1,4,26,176,259.46090927836485,260.22345128213055,"[74, 0, 180]",180,a,0.246202937560156,0,colour,0.5,4.0
71,23,0,1,4,27,177,260.73263811762445,261.4875056515448,"[35, 0, 219]",219,a,0.2382126038428396,1,colour,0.5,4.0
71,23,0,1,4,28,178,261.99574647075497,262.7433806420304,"[10, 0, 244]",244,a,0.22921166359446943,1,colour,0.5,4.0
71,23,0,1,4,29,179,263.2522815458942,264.0874277490657,"[70, 0, 184]",184,l,0.31908716121688485,1,colour,0.5,4.0
71,23,0,1,4,30,180,264.59663860918954,265.3515388322994,"[87, 0, 167]",167,l,0.23816219181753695,1,colour,0.5,4.0
71,23,0,1,4,31,181,265.8611880422104,266.6473584007472,"[31, 0, 223]",223,a,0.269473287044093,1,colour,0.5,4.0
71,23,0,1,4,32,182,267.15640699653886,267.90337911387905,"[94, 0, 160]",160,l,0.22868233546614647,1,colour,0.5,4.0
71,23,0,1,4,33,183,268.41240447270684,269.1674736556597,"[95, 0, 159]",159,l,0.23778016190044582,1,colour,0.5,4.0
71,23,0,1,4,34,184,269.6764612053521,270.4314307454042,"[77, 0, 177]",177,l,0.23852964956313372,1,colour,0.5,4.0
71,23,0,1,4,35,185,270.9413505271077,271.7673926022835,"[67, 0, 187]",187,a,0.30949860345572233,0,colour,0.5,4.0
71,23,0,1,4,36,186,272.2762820846401,273.02335620787926,"[58, 0, 196]",196,a,0.22977919457480311,0,colour,0.5,4.0
71,23,0,1,4,37,187,273.53206845978275,274.34336811769754,"[22, 0, 232]",232,a,0.295242978958413,1,colour,0.5,4.0
71,23,0,1,4,38,188,274.8522816244513,275.6473863637075,"[8, 0, 246]",246,a,0.2789350263774395,1,colour,0.5,4.0
71,23,0,1,4,39,189,276.15639163646847,276.9993682720233,"[68, 0, 186]",186,l,0.324395801872015,1,colour,0.5,4.0
71,23,0,1,4,40,190,277.5084932737518,278.3673434504308,"[54, 0, 200]",200,a,0.3426694362424314,0,colour,0.5,4.0
71,23,0,1,4,41,191,278.8769583958201,279.71133541921154,"[52, 0, 202]",202,a,0.3179138961713761,0,colour,0.5,4.0
71,23,0,1,4,42,192,280.2497459696606,281.08741317666136,"[93, 0, 161]",161,l,0.32050303486175835,1,colour,0.5,4.0
71,23,0,1,4,43,193,281.5965023385361,282.56733573111705,"[69, 0, 185]",185,a,0.45465343981049955,0,colour,0.5,4.0
71,23,0,1,4,44,194,283.07641268358566,283.95134001923725,"[41, 0, 213]",213,a,0.3581885164603591,1,colour,0.5,4.0
71,23,0,1,4,45,195,284.46094275522046,285.24735139030963,"[40, 0, 214]",214,a,0.2701412485912442,1,colour,0.5,4.0
71,23,0,1,4,46,196,285.7563822630327,286.5273690975737,"[72, 0, 182]",182,l,0.2524335701018572,1,colour,0.5,4.0
71,23,0,1,4,47,197,287.03632041369565,287.88734212704003,"[17, 0, 237]",237,a,0.3347125796135515,1,colour,0.5,4.0
71,23,0,1,4,48,198,288.3963793013245,289.23129904363304,"[85, 0, 169]",169,l,0.3187031620182097,1,colour,0.5,4.0
71,23,0,1,4,49,199,289.74036930082366,290.5273789437488,"[82, 0, 172]",172,l,0.2698052986524999,1,colour,0.5,4.0
71,23,0,1,4,50,200,291.0369281168096,291.8873070748523,"[20, 0, 234]",234,a,0.3337964953389019,1,colour,0.5,4.0
71,23,0,1,5,1,201,298.6352606546134,299.4153468909208,"[51, 0, 203]",203,a,0.2629882302135229,0,colour,0.5,3.9
71,23,0,1,5,2,202,299.9243683114182,300.7193387495354,"[2, 0, 252]",252,a,0.2792032351717353,1,colour,0.5,3.9
71,23,0,1,5,3,203,301.2292703464627,301.9673214738723,"[18, 0, 236]",236,a,0.2212032130919397,1,colour,0.5,3.9
71,23,0,1,5,4,204,302.47642205725424,303.1194690335542,"[66, 0, 188]",188,l,0.12634754180908203,1,colour,0.5,3.9
71,23,0,1,5,5,205,303.6283116482664,304.375344023807,"[10, 0, 244]",244,a,0.2296657671686262,1,colour,0.5,3.9
71,23,0,1,5,6,206,304.8844194011763,305.58330143173225,"[52, 0, 202]",202,a,0.18206601776182652,0,colour,0.5,3.9
71,23,0,1,5,7,207,306.092519775033,306.7273160859477,"[80, 0, 174]",174,l,0.11777628632262349,1,colour,0.5,3.9
71,23,0,1,5,8,208,307.2363997339271,308.00731685804203,"[59, 0, 195]",195,l,0.2548848632723093,1,colour,0.5,3.9
71,23,0,1,5,9,209,308.51629022927955,309.2714685073588,"[83, 0, 171]",171,l,0.23892743326723576,1,colour,0.5,3.9
71,23,0,1,5,10,210,309.780500955414,310.5432843861636,"[82, 0, 172]",172,l,0.2465703950729221,1,colour,0.5,3.9
71,23,0,1,5,11,211,311.05229832348414,311.8393004834652,"[35, 0, 219]",219,a,0.27074934588745236,1,colour,0.5,3.9
71,23,0,1,5,12,212,312.3482750363182,313.1512858259957,"[23, 0, 231]",231,a,0.28653151472099125,1,colour,0.5,3.9
71,23,0,1,5,13,213,313.66023241588846,314.4473570617847,"[3, 0, 251]",251,a,0.26963161304593086,1,colour,0.5,3.9
71,23,0,1,5,14,214,314.9572555755731,315.7272928492166,"[85, 0, 169]",169,l,0.2537781579885632,1,colour,0.5,3.9
71,23,0,1,5,15,215,316.2366868471727,317.0232668048702,"[26, 0, 228]",228,a,0.27020111307501793,1,colour,0.5,3.9
71,23,0,1,5,16,216,317.532641898375,318.3272909587249,"[16, 0, 238]",238,a,0.278350560227409,1,colour,0.5,3.9
71,23,0,1,5,17,217,318.8363332529552,319.59127955604345,"[67, 0, 187]",187,l,0.23865961842238903,1,colour,0.5,3.9
71,23,0,1,5,18,218,320.1002450506203,320.8713094724808,"[89, 0, 165]",165,l,0.25368599803186953,1,colour,0.5,3.9
71,23,0,1,5,19,219,321.38029072084464,322.15125471237116,"[5, 0, 249]",249,a,0.25425431691110134,1,colour,0.5,3.9
71,23,0,1,5,20,220,322.6607251164969,323.4152586697601,"[99, 0, 155]",155,l,0.23740797815844417,1,colour,0.5,3.9
71,23,0,1,5,21,221,323.92485077190213,324.65527744824067,"[97, 0, 157]",157,l,0.21385051519609988,1,colour,0.5,3.9
71,23,0,1,5,22,222,325.1638132573571,325.95122107793577,"[96, 0, 158]",158,l,0.271217233967036,1,colour,0.5,3.9
71,23,0,1,5,23,223,326.460246830713,327.1832806367893,"[95, 0, 159]",159,l,0.20656201406382024,1,colour,0.5,3.9
71,23,0,1,5,24,224,327.69236586010084,328.5592457547318,"[58, 0, 196]",196,a,0.3492320803925395,0,colour,0.5,3.9
71,23,0,1,5,25,225,329.0681821045,329.8232284444384,"[9, 0, 245]",245,a,0.23884905804879963,1,colour,0.5,3.9
71,23,0,1,5,26,226,330.3324897165876,331.15924189495854,"[49, 0, 205]",205,a,0.3098077718168497,1,colour,0.5,3.9
71,23,0,1,5,27,227,331.66825031861663,332.57527486467734,"[11, 0, 243]",243,a,0.38986903871409595,1,colour,0.5,3.9
71,23,0,1,5,28,228,333.0852537229657,333.8232946104836,"[87, 0, 167]",167,l,0.22178216581232846,1,colour,0.5,3.9
71,23,0,1,5,29,229,334.3325007443782,335.1912288288586,"[14, 0, 240]",240,a,0.34244021819904447,1,colour,0.5,3.9
71,23,0,1,5,30,230,335.6998855485581,336.5752508400474,"[12, 0, 242]",242,a,0.35831690998747945,1,colour,0.5,3.9
71,23,0,1,5,31,231,337.08426162670366,337.815216449555,"[98, 0, 156]",156,l,0.21443222486414015,1,colour,0.5,3.9
71,23,0,1,5,32,232,338.3242551991716,339.15119130327366,"[94, 0, 160]",160,l,0.31065965932793915,1,colour,0.5,3.9
71,23,0,1,5,33,233,339.6602036652621,340.3992445259355,"[22, 0, 232]",232,a,0.22244461346417665,1,colour,0.5,3.9
71,23,0,1,5,34,234,340.9084593243897,341.6712474813685,"[34, 0, 220]",220,a,0.2462253866251558,1,colour,0.5,3.9
71,23,0,1,5,35,235,342.1803579109255,342.92720478540286,"[61, 0, 193]",193,l,0.23062832513824105,1,colour,0.5,3.9
71,23,0,1,5,36,236,343.4362675596494,344.1832073815167,"[0, 0, 254]",254,a,0.23058815277181566,1,colour,0.5,3.9
71,23,0,1,5,37,237,344.6922437681351,345.3832189606037,"[1, 0, 253]",253,a,0.17399022006429732,1,colour,0.5,3.9
71,23,0,1,5,38,238,345.8918189667165,346.59921632660553,"[74, 0, 180]",180,l,0.19066129787825048,1,colour,0.5,3.9
71,23,0,1,5,39,239,347.1082279009279,347.6952094233129,"[44, 0, 210]",210,a,0.06988312257453799,1,colour,0.5,3.9
71,23,0,1,5,40,240,348.20496142678894,348.9352671925444,"[28, 0, 226]",226,a,0.21270836400799453,1,colour,0.5,3.9
71,23,0,1,5,41,241,349.44867998803966,350.09519752906635,"[6, 0, 248]",248,a,0.12975824205204844,1,colour,0.5,3.9
71,23,0,1,5,42,242,350.60417365748435,351.32717989431694,"[65, 0, 189]",189,l,0.20594485849142075,1,colour,0.5,3.9
71,23,0,1,5,43,243,351.83683895040303,352.4392052516341,"[42, 0, 212]",212,a,0.0860169951338321,1,colour,0.5,3.9
71,23,0,1,5,44,244,352.9481727152597,353.6711785583757,"[84, 0, 170]",170,l,0.20603229221887887,1,colour,0.5,3.9
71,23,0,1,5,45,245,354.1801952526439,354.91921878419816,"[33, 0, 221]",221,a,0.22263405309058726,1,colour,0.5,3.9
71,23,0,1,5,46,246,355.4282961306162,356.19122607191093,"[78, 0, 176]",176,l,0.2462261742912233,1,colour,0.5,3.9
71,23,0,1,5,47,247,356.7001545447856,357.4632849532645,"[45, 0, 209]",209,a,0.24679409922100604,1,colour,0.5,3.9
71,23,0,1,5,48,248,357.9724138935562,358.7272384983953,"[50, 0, 204]",204,a,0.23655845364555717,1,colour,0.5,3.9
71,23,0,1,5,49,249,359.2362748850137,360.02317228214815,"[41, 0, 213]",213,a,0.26985689252614975,1,colour,0.5,3.9
71,23,0,1,5,50,250,360.5326395353768,361.10319889034145,"[79, 0, 175]",175,l,0.0538804002571851,1,colour,0.5,3.9
71,23,0,1,6,1,251,368.12336534494534,369.35915895109065,"[65, 0, 189]",189,l,0.7184781974647194,1,colour,0.5,3.9
71,23,0,1,6,2,252,369.8681634364184,370.5512215504423,"[76, 0, 178]",178,l,0.1668734352570027,1,colour,0.5,3.9
71,23,0,1,6,3,253,371.06030204775743,371.8071260792203,"[10, 0, 244]",244,a,0.22941488749347627,1,colour,0.5,3.9
71,23,0,1,6,4,254,372.31621839199215,372.91117685707286,"[36, 0, 218]",218,a,0.07848352240398526,1,colour,0.5,3.9
71,23,0,1,6,5,255,373.4203408493195,374.0871603281703,"[21, 0, 233]",233,a,0.15054382174275815,1,colour,0.5,3.9
71,23,0,1,6,6,256,374.59656771691516,375.2071846835315,"[0, 0, 254]",254,a,0.09367256029509008,1,colour,0.5,3.9
71,23,0,1,6,7,257,375.7161643563304,376.43916429183446,"[39, 0, 215]",215,a,0.20558803481981158,1,colour,0.5,3.9
71,23,0,1,6,8,258,376.94811521377414,377.5991426776163,"[75, 0, 179]",179,l,0.1334265172481537,1,colour,0.5,3.9
71,23,0,1,6,9,259,378.1081447994802,378.7593042012304,"[26, 0, 228]",228,a,0.13495975686237216,1,colour,0.5,3.9
71,23,0,1,6,10,260,379.2679849455599,380.0791503023356,"[57, 0, 197]",197,a,0.2930484728422016,0,colour,0.5,3.9
71,23,0,1,6,11,261,380.58801772934385,381.3351954338141,"[69, 0, 185]",185,l,0.22973193298093975,1,colour,0.5,3.9
71,23,0,1,6,12,262,381.84426923585124,382.6711624106392,"[33, 0, 221]",221,a,0.3101496296003461,1,colour,0.5,3.9
71,23,0,1,6,13,263,383.1807324576657,383.92716579465196,"[93, 0, 161]",161,l,0.2291242298670113,1,colour,0.5,3.9
71,23,0,1,6,14,264,384.43617776292376,385.1911977150012,"[53, 0, 201]",201,a,0.2383945605251938,0,colour,0.5,3.9
71,23,0,1,6,15,265,385.7002274063416,386.4791108390782,"[31, 0, 223]",223,a,0.2621367368847132,1,colour,0.5,3.9
71,23,0,1,6,16,266,386.98821024084464,388.19116620742716,"[59, 0, 195]",195,l,0.6861214430537075,1,colour,0.5,3.9
71,23,0,1,6,17,267,388.7001710864715,389.3831110470928,"[6, 0, 248]",248,a,0.1650058210361749,1,colour,0.5,3.9
71,23,0,1,6,18,268,389.8918811941985,390.62313100718893,"[49, 0, 205]",205,a,0.21485954709351063,1,colour,0.5,3.9
71,23,0,1,6,19,269,391.1322284396738,391.9031936128158,"[27, 0, 227]",227,a,0.25519324420019984,1,colour,0.5,3.9
71,23,0,1,6,20,270,392.4121953409631,393.09510379401036,"[72, 0, 182]",182,l,0.1665812022984028,1,colour,0.5,3.9
71,23,0,1,6,21,271,393.6041874419898,394.56707618688233,"[58, 0, 196]",196,l,0.44661230011843145,1,colour,0.5,3.9
71,23,0,1,6,22,272,395.0761535335332,395.83111322741024,"[90, 0, 164]",164,a,0.23839377285912633,0,colour,0.5,3.9
71,23,0,1,6,23,273,396.3400621803012,397.80709181469865,"[54, 0, 200]",200,a,0.9495503860525787,0,colour,0.5,3.9
71,23,0,1,6,24,274,398.31592773413286,399.0151437455788,"[83, 0, 171]",171,l,0.18255162914283574,1,colour,0.5,3.9
71,23,0,1,6,25,275,399.525160019286,400.2711085327901,"[32, 0, 222]",222,a,0.2285015603993088,1,colour,0.5,3.9
71,23,0,1,6,26,276,400.78019375610165,401.5430854943115,"[20, 0, 234]",234,a,0.24671060405671597,1,colour,0.5,3.9
71,23,0,1,6,27,277,402.0521187300328,402.8310970796738,"[1, 0, 253]",253,a,0.2620926261879504,1,colour,0.5,3.9
71,23,0,1,6,28,278,403.34016891242936,404.0631814508233,"[3, 0, 251]",251,a,0.2061110611539334,1,colour,0.5,3.9
71,23,0,1,6,29,279,404.5722202004399,405.2390896973666,"[67, 0, 187]",187,l,0.14927957812324166,1,colour,0.5,3.9
71,23,0,1,6,30,280,405.74820721615106,406.3591140527278,"[2, 0, 252]",252,a,0.09430665103718638,1,colour,0.5,3.9
71,23,0,1,6,31,281,406.86845921422355,407.8870778568089,"[56, 0, 198]",198,l,0.5019987649284303,1,colour,0.5,3.9
71,23,0,1,6,32,282,408.39617253257893,409.1030413522385,"[91, 0, 163]",163,l,0.19068177789449692,1,colour,0.5,3.9
71,23,0,1,6,33,283,409.61195288971066,410.63106265757233,"[95, 0, 159]",159,l,0.5023815825115889,1,colour,0.5,3.9
71,23,0,1,6,34,284,411.140024213586,412.13533390988596,"[64, 0, 190]",190,l,0.47633501747623086,1,colour,0.5,3.9
71,23,0,1,6,35,285,412.64435021043755,413.4951840597205,"[63, 0, 191]",191,l,0.33411905472166836,1,colour,0.5,3.9
71,23,0,1,6,36,286,414.00469266669825,414.68704225332476,"[12, 0, 242]",242,a,0.16504166112281382,1,colour,0.5,3.9
71,23,0,1,6,37,287,415.19612787058577,416.00704195396975,"[8, 0, 246]",246,a,0.2946486664004624,1,colour,0.5,3.9
71,23,0,1,6,38,288,416.5159987837542,417.1110517717898,"[13, 0, 241]",241,a,0.07867768802680075,1,colour,0.5,3.9
71,23,0,1,6,39,289,417.6206403293181,418.5750763665419,"[50, 0, 204]",204,l,0.4382761705201119,0,colour,0.5,3.9
71,23,0,1,6,40,290,419.0840780946892,419.7430655658245,"[28, 0, 226]",226,a,0.14216751977801323,1,colour,0.5,3.9
71,23,0,1,6,41,291,420.2523118718527,420.92708229948767,"[19, 0, 235]",235,a,0.15850855503231287,1,colour,0.5,3.9
71,23,0,1,6,42,292,421.43600289546885,422.10337966517545,"[86, 0, 168]",168,l,0.1497785800602287,1,colour,0.5,3.9
71,23,0,1,6,43,293,422.6114515247755,423.35918809566647,"[24, 0, 230]",230,a,0.23106667469255626,1,colour,0.5,3.9
71,23,0,1,6,44,294,423.8677558063064,424.615006766282,"[96, 0, 158]",158,l,0.22979376697912812,1,colour,0.5,3.9
71,23,0,1,6,45,295,425.12445590272546,425.87104914081283,"[45, 0, 209]",209,a,0.22968979156576097,1,colour,0.5,3.9
71,23,0,1,6,46,296,426.37899300060235,427.1911910197232,"[25, 0, 229]",229,a,0.29601137107238173,1,colour,0.5,3.9
71,23,0,1,6,47,297,427.7003845504951,428.3350449849386,"[68, 0, 186]",186,l,0.11927408003248274,1,colour,0.5,3.9
71,23,0,1,6,48,298,428.84255088865757,429.4791230482515,"[78, 0, 176]",176,l,0.12003223225474358,1,colour,0.5,3.9
71,23,0,1,6,49,299,429.9877679524943,430.68704225332476,"[73, 0, 181]",181,l,0.1831345201935619,1,colour,0.5,3.9
71,23,0,1,6,50,300,431.19497390370816,431.9110882417299,"[9, 0, 245]",245,a,0.19976148731075227,1,colour,0.5,3.9
71,23,0,1,7,1,301,437.8116328511387,438.5509809111245,"[4, 0, 250]",250,a,0.2219479747582227,1,colour,0.5,3.9
71,23,0,1,7,2,302,439.0601279682014,439.7591372109018,"[29, 0, 225]",225,a,0.1827985702548176,1,colour,0.5,3.9
71,23,0,1,7,3,303,440.2682236158289,440.9350454576779,"[73, 0, 181]",181,l,0.14988176780752838,1,colour,0.5,3.9
71,23,0,1,7,4,304,441.4441074440256,442.1030382013414,"[33, 0, 221]",221,a,0.14226479944773018,1,colour,0.5,3.9
71,23,0,1,7,5,305,442.6115740106907,443.9749671926256,"[46, 0, 208]",208,l,0.8458851829636842,0,colour,0.5,3.9
71,23,0,1,7,6,306,444.4840090931393,445.13503104285337,"[59, 0, 195]",195,l,0.13429100764915347,1,colour,0.5,3.9
71,23,0,1,7,7,307,445.6440532510169,446.45498072518967,"[94, 0, 160]",160,l,0.2937853573821485,1,colour,0.5,3.9
71,23,0,1,7,8,308,446.96428886498325,447.6789774829522,"[79, 0, 175]",175,l,0.1982711765449494,1,colour,0.5,3.9
71,23,0,1,7,9,309,448.18799772206694,448.95901645789854,"[37, 0, 217]",217,a,0.254639103775844,1,colour,0.5,3.9
71,23,0,1,7,10,310,449.4673592830077,450.21496076509356,"[5, 0, 249]",249,a,0.2308654198423028,1,colour,0.5,3.9
71,23,0,1,7,11,311,450.72410821611993,452.3349851204548,"[62, 0, 192]",192,a,1.094295229529962,0,colour,0.5,3.9
71,23,0,1,7,12,312,452.84403568552807,453.62299119192176,"[49, 0, 205]",205,a,0.261754313018173,1,colour,0.5,3.9
71,23,0,1,7,13,313,454.1313615862746,454.8949665783439,"[6, 0, 248]",248,a,0.24647666001692414,1,colour,0.5,3.9
71,23,0,1,7,14,314,455.40395846031606,456.19100906304084,"[60, 0, 194]",194,l,0.271002194378525,1,colour,0.5,3.9
71,23,0,1,7,15,315,456.7000773511827,457.75896588829346,"[55, 0, 199]",199,a,0.5424159574322402,0,colour,0.5,3.9
71,23,0,1,7,16,316,458.2679896717891,458.97501406027004,"[74, 0, 180]",180,l,0.19021979719400406,1,colour,0.5,3.9
71,23,0,1,7,17,317,459.48435370763764,460.19895843672566,"[96, 0, 158]",158,l,0.19831843813881278,1,colour,0.5,3.9
71,23,0,1,7,18,318,460.7079889154993,461.37497026473284,"[84, 0, 170]",170,l,0.14977227873168886,1,colour,0.5,3.9
71,23,0,1,7,19,319,461.8839641159866,462.65498048882,"[40, 0, 214]",214,a,0.25482302950695157,1,colour,0.5,3.9
71,23,0,1,7,20,320,463.1637199160177,463.96698237303644,"[63, 0, 191]",191,l,0.2870931380894035,1,colour,0.5,3.9
71,23,0,1,7,21,321,464.476029393496,465.1989257475361,"[77, 0, 177]",177,l,0.20668765087611973,1,colour,0.5,3.9
71,23,0,1,7,22,322,465.7083051733207,466.43897170131095,"[2, 0, 252]",252,a,0.21375599224120378,1,colour,0.5,3.9
71,23,0,1,7,23,323,466.94814199535176,468.08697522082366,"[58, 0, 196]",196,a,0.6224851007573307,0,colour,0.5,3.9
71,23,0,1,7,24,324,468.5964089971967,469.3669456667267,"[44, 0, 210]",210,a,0.25368639221414924,1,colour,0.5,3.9
71,23,0,1,7,25,325,469.8760324653704,470.6309523808304,"[34, 0, 220]",220,a,0.2387265721336007,1,colour,0.5,3.9
71,23,0,1,7,26,326,471.1399273276329,471.8069508180488,"[11, 0, 243]",243,a,0.14792908262461424,1,colour,0.5,3.9
71,23,0,1,7,27,327,472.31567921768874,473.0070356524084,"[0, 0, 254]",254,a,0.17321080015972257,1,colour,0.5,3.9
71,23,0,1,7,28,328,473.51587708550505,474.287039575167,"[31, 0, 223]",223,a,0.25406408961862326,1,colour,0.5,3.9
71,23,0,1,7,29,329,474.79514451744035,475.4470766438171,"[99, 0, 155]",155,l,0.1348664155229926,1,colour,0.5,3.9
71,23,0,1,7,30,330,475.9561339041684,476.7669136864133,"[61, 0, 193]",193,l,0.29257073858752847,1,colour,0.5,3.9
71,23,0,1,7,31,331,477.2759725220967,478.0469471474644,"[35, 0, 219]",219,a,0.25476395268924534,1,colour,0.5,3.9
71,23,0,1,7,32,332,478.5567511385307,479.30294107901864,"[15, 0, 239]",239,a,0.22947987192310393,1,colour,0.5,3.9
71,23,0,1,7,33,333,479.8128147807438,480.52716390416026,"[82, 0, 172]",172,l,0.196922650327906,1,colour,0.5,3.9
71,23,0,1,7,34,334,481.0347182508558,481.75094877323136,"[64, 0, 190]",190,l,0.19993674848228693,1,colour,0.5,3.9
71,23,0,1,7,35,335,482.26005762745626,483.2069192316849,"[43, 0, 211]",211,a,0.43022597255185246,1,colour,0.5,3.9
71,23,0,1,7,36,336,483.7161249718629,485.1269414604176,"[8, 0, 246]",246,a,0.8934782368596643,1,colour,0.5,3.9
71,23,0,1,7,37,337,485.6362527508754,486.58292137109675,"[45, 0, 209]",209,a,0.4289955999702215,1,colour,0.5,3.9
71,23,0,1,7,38,338,487.092700549867,487.8228909189347,"[52, 0, 202]",202,a,0.21401789947412908,0,colour,0.5,3.9
71,23,0,1,7,39,339,488.3317752813455,489.04690973227844,"[98, 0, 156]",156,l,0.1984224133193493,1,colour,0.5,3.9
71,23,0,1,7,40,340,489.55587955890223,490.4228988746181,"[75, 0, 179]",179,l,0.34877718915231526,1,colour,0.5,3.9
71,23,0,1,7,41,341,490.9314862776082,491.65494779963046,"[23, 0, 231]",231,a,0.2074970027897507,1,colour,0.5,3.9
71,23,0,1,7,42,342,492.1637738728896,492.87891265610233,"[69, 0, 185]",185,l,0.1982774781063199,1,colour,0.5,3.9
71,23,0,1,7,43,343,493.38786042737775,493.9268802567385,"[97, 0, 157]",157,l,0.022186881164088845,1,colour,0.5,3.9
71,23,0,1,7,44,344,494.43606000300497,496.15889216028154,"[88, 0, 166]",166,l,1.2062532391864806,1,colour,0.5,3.9
71,23,0,1,7,45,345,496.66780527331866,497.3989578066394,"[28, 0, 226]",226,a,0.21471382421441376,1,colour,0.5,3.9
71,23,0,1,7,46,346,497.9071651487611,498.59885989665054,"[27, 0, 227]",227,a,0.17523162043653429,1,colour,0.5,3.9
71,23,0,1,7,47,347,499.10786320012994,499.8228759528138,"[9, 0, 245]",245,a,0.1978753621224314,1,colour,0.5,3.9
71,23,0,1,7,48,348,500.3312120824121,501.07886673370376,"[72, 0, 182]",182,l,0.2315294430591166,1,colour,0.5,3.9
71,23,0,1,7,49,349,501.5877298284322,502.26301067951135,"[14, 0, 240]",240,a,0.15871965629048645,1,colour,0.5,3.9
71,23,0,1,7,50,350,502.77211047522724,504.4388819045853,"[68, 0, 186]",186,l,1.1485682935453951,1,colour,0.5,3.9
71,23,0,1,8,1,351,511.77913785679266,512.878841763828,"[61, 0, 193]",193,l,0.5817890658508986,1,colour,0.5,3.9
71,23,0,1,8,2,352,513.387850187486,514.1188668441027,"[25, 0, 229]",229,a,0.21398245356976986,1,colour,0.5,3.9
71,23,0,1,8,3,353,514.6279477351345,515.6468944509979,"[31, 0, 223]",223,a,0.5021586660295725,1,colour,0.5,3.9
71,23,0,1,8,4,354,516.1563632797915,516.8948271570262,"[68, 0, 186]",186,l,0.22050728858448565,1,colour,0.5,3.9
71,23,0,1,8,5,355,517.4038509405218,518.1188357302453,"[10, 0, 244]",244,a,0.19901475659571588,1,colour,0.5,3.9
71,23,0,1,8,6,356,518.6275700374972,519.6308102027979,"[2, 0, 252]",252,a,0.48694442212581635,1,colour,0.5,3.9
71,23,0,1,8,7,357,520.1392987505533,520.870836858172,"[5, 0, 249]",249,a,0.21297460328787565,1,colour,0.5,3.9
71,23,0,1,8,8,358,521.3797838420141,521.998826341005,"[88, 0, 166]",166,l,0.10185863473452628,1,colour,0.5,3.9
71,23,0,1,8,9,359,522.5087094949558,523.1348089140374,"[98, 0, 156]",156,l,0.10986944800242782,1,colour,0.5,3.9
71,23,0,1,8,10,360,523.6440678231884,524.3748418709729,"[12, 0, 242]",242,a,0.21412541903555393,1,colour,0.5,3.9
71,23,0,1,8,11,361,524.8833851632662,525.9908730289899,"[82, 0, 172]",172,l,0.5912645899225026,1,colour,0.5,3.9
71,23,0,1,8,12,362,526.4999720370397,527.1668486231938,"[51, 0, 203]",203,a,0.15023701614700258,0,colour,0.5,3.9
71,23,0,1,8,13,363,527.6765880235471,528.8309084277134,"[49, 0, 205]",205,a,0.6372704470995814,1,colour,0.5,3.9
71,23,0,1,8,14,364,529.3397467101458,530.0789273858536,"[45, 0, 209]",209,a,0.22017960925586522,1,colour,0.5,3.9
71,23,0,1,8,15,365,530.5880315138493,531.3348208870739,"[53, 0, 201]",201,a,0.22890446428209543,0,colour,0.5,3.9
71,23,0,1,8,16,366,531.8439254087862,532.550789896166,"[34, 0, 220]",220,a,0.1897968074772507,1,colour,0.5,3.9
71,23,0,1,8,17,367,533.0605568657629,533.7668183757924,"[24, 0, 230]",230,a,0.19036236917600036,1,colour,0.5,3.9
71,23,0,1,8,18,368,534.2767354005482,534.9348146643024,"[29, 0, 225]",225,a,0.14029990532435477,1,colour,0.5,3.9
71,23,0,1,8,19,369,535.4441716407891,536.1268264574464,"[37, 0, 217]",217,a,0.1658447114750743,1,colour,0.5,3.9
71,23,0,1,8,20,370,536.6358604810666,537.3509567289148,"[99, 0, 155]",155,l,0.1988284676335752,1,colour,0.5,3.9
71,23,0,1,8,21,371,537.858389377594,538.6147897574119,"[19, 0, 235]",235,a,0.23932442930527031,1,colour,0.5,3.9
71,23,0,1,8,22,372,539.1237170489039,540.0148097646888,"[65, 0, 189]",189,l,0.37442478886805475,1,colour,0.5,3.9
71,23,0,1,8,23,373,540.5236082687043,541.278771974612,"[13, 0, 241]",241,a,0.2389132548123598,1,colour,0.5,3.9
71,23,0,1,8,24,374,541.7879757452756,542.6788195511326,"[66, 0, 188]",188,l,0.37351500638760626,1,colour,0.5,3.9
71,23,0,1,8,25,375,543.1887117635924,544.2468846836127,"[9, 0, 245]",245,a,0.5413923533633351,1,colour,0.5,3.9
71,23,0,1,8,26,376,544.7566114810761,545.5587920448743,"[8, 0, 246]",246,a,0.28529917262494564,1,colour,0.5,3.9
71,23,0,1,8,27,377,546.0678300068248,546.774755540071,"[75, 0, 179]",179,l,0.19063254701904953,1,colour,0.5,3.9
71,23,0,1,8,28,378,547.2837718406226,548.4548101902474,"[36, 0, 218]",218,a,0.6550525627098978,1,colour,0.5,3.9
71,23,0,1,8,29,379,548.9636528049596,549.7267544625793,"[91, 0, 163]",163,l,0.2465833919122815,1,colour,0.5,3.9
71,23,0,1,8,30,380,550.2364686569199,551.7347585805692,"[50, 0, 204]",204,a,0.9821056385990232,1,colour,0.5,3.9
71,23,0,1,8,31,381,552.2439024869818,555.0787643338554,"[30, 0, 224]",224,a,2.317800468299538,1,colour,0.5,3.9
71,23,0,1,8,32,382,555.587836954277,556.26291143056,"[63, 0, 191]",191,l,0.15875077014788985,1,colour,0.5,3.9
71,23,0,1,8,33,383,556.7717024513986,561.2628720458597,"[62, 0, 192]",192,l,3.9740841914899647,1,colour,0.5,3.9
71,23,0,1,8,34,384,561.7711530372035,562.534728884697,"[26, 0, 228]",228,a,0.24729743343777955,1,colour,0.5,3.9
71,23,0,1,8,35,385,563.0440677443985,563.7507620905526,"[70, 0, 184]",184,l,0.1901118834502995,1,colour,0.5,3.9
71,23,0,1,8,36,386,564.2587803869974,564.9827381542418,"[87, 0, 167]",167,l,0.20567074208520353,1,colour,0.5,3.9
71,23,0,1,8,37,387,565.4907288816758,566.1267295714933,"[56, 0, 198]",198,a,0.11976717435754836,0,colour,0.5,3.9
71,23,0,1,8,38,388,566.6357214536984,567.3027280087117,"[78, 0, 176]",176,l,0.15080336551181972,1,colour,0.5,3.9
71,23,0,1,8,39,389,567.8124477169476,568.5427515134215,"[60, 0, 194]",194,a,0.21318885497748852,0,colour,0.5,3.9
71,23,0,1,8,40,390,569.0509856371209,569.7107836417854,"[93, 0, 161]",161,l,0.14321002829819918,1,colour,0.5,3.9
71,23,0,1,8,41,391,570.2198334191926,570.9987546610646,"[84, 0, 170]",170,l,0.26138567365705967,1,colour,0.5,3.9
71,23,0,1,8,42,392,571.5080494103022,572.2067565736361,"[54, 0, 200]",200,a,0.18249688460491598,0,colour,0.5,3.9
71,23,0,1,8,43,393,572.7160521103069,573.950787454145,"[7, 0, 247]",247,a,0.7169579544570297,1,colour,0.5,3.9
71,23,0,1,8,44,394,574.459841563832,575.5986960569862,"[72, 0, 182]",182,l,0.6219372621271759,1,colour,0.5,3.9
71,23,0,1,8,45,395,576.1078844678123,576.7587248547934,"[21, 0, 233]",233,a,0.13396766036748886,1,colour,0.5,3.9
71,23,0,1,8,46,396,577.2677931429353,579.3747481359169,"[1, 0, 253]",253,a,1.590702572837472,1,colour,0.5,3.9
71,23,0,1,8,47,397,579.8846167176962,581.0147254818585,"[39, 0, 215]",215,a,0.613132456317544,1,colour,0.5,3.9
71,23,0,1,8,48,398,581.5241025446448,582.1507261719089,"[77, 0, 177]",177,l,0.11045982223004103,1,colour,0.5,3.9
71,23,0,1,8,49,399,582.6597054509912,583.3827463462949,"[0, 0, 254]",254,a,0.20614926423877478,1,colour,0.5,3.9
71,23,0,1,8,50,400,583.8918457480613,584.5746927612927,"[23, 0, 231]",231,a,0.16596089582890272,1,colour,0.5,3.9
71,23,0,1,9,1,401,594.2989904168062,596.1026723191608,"[31, 0, 223]",223,a,1.2872707624919713,1,colour,0.5,3.9
71,23,0,1,9,2,402,596.6109123504721,597.3907729135826,"[50, 0, 204]",204,a,0.2636361059267074,1,colour,0.5,3.9
71,23,0,1,9,3,403,597.8998073309194,599.6387150718365,"[58, 0, 196]",196,a,1.2218191872816533,0,colour,0.5,3.9
71,23,0,1,9,4,404,600.1471020074096,601.0226563448086,"[47, 0, 207]",207,a,0.3589880224317312,1,colour,0.5,3.9
71,23,0,1,9,5,405,601.5313504796941,602.4067551558837,"[39, 0, 215]",215,a,0.3583346330560744,1,colour,0.5,3.9
71,23,0,1,9,6,406,602.915612736484,603.7506486631464,"[96, 0, 158]",158,l,0.3184956053737551,1,colour,0.5,3.9
71,23,0,1,9,7,407,604.2597334927414,604.9507783958688,"[3, 0, 251]",251,a,0.17424149345606565,1,colour,0.5,3.9
71,23,0,1,9,8,408,605.4599573544692,606.1026845283341,"[12, 0, 242]",242,a,0.12628176948055625,1,colour,0.5,3.9
71,23,0,1,9,9,409,606.6116842871998,607.2067506660242,"[33, 0, 221]",221,a,0.07879781094379723,1,colour,0.5,3.9
71,23,0,1,9,10,410,607.7155802836642,608.4547058211174,"[67, 0, 187]",187,l,0.22226029401645064,1,colour,0.5,3.9
71,23,0,1,9,11,411,608.9634098024108,609.4946870268323,"[30, 0, 224]",224,a,0.01469870051369071,1,colour,0.5,3.9
71,23,0,1,9,12,412,610.0041215911042,610.72677376098,"[1, 0, 253]",253,a,0.20622291322797537,1,colour,0.5,3.9
71,23,0,1,9,13,413,611.2358897044323,611.7986662823241,"[8, 0, 246]",246,a,0.04532489879056811,1,colour,0.5,3.9
71,23,0,1,9,14,414,612.3076542257331,613.006710336078,"[61, 0, 193]",193,l,0.18228578357957304,1,colour,0.5,3.9
71,23,0,1,9,15,415,613.5161417496856,614.2226336591411,"[4, 0, 250]",250,a,0.18947976175695658,1,colour,0.5,3.9
71,23,0,1,9,16,416,614.7311411115807,615.4066527560353,"[66, 0, 188]",188,l,0.15933326724916697,1,colour,0.5,3.9
71,23,0,1,9,17,417,615.9155174260959,616.638659145683,"[78, 0, 176]",176,l,0.2070094223599881,1,colour,0.5,3.9
71,23,0,1,9,18,418,617.1474757667165,617.9266171681229,"[57, 0, 197]",197,a,0.2623202686663717,0,colour,0.5,3.9
71,23,0,1,9,19,419,618.4356346500572,619.126607873477,"[21, 0, 233]",233,a,0.17425803490914404,1,colour,0.5,3.9
71,23,0,1,9,20,420,619.6356667091604,620.3266068494413,"[74, 0, 180]",180,l,0.17468417552299798,1,colour,0.5,3.9
71,23,0,1,9,21,421,620.8355270517059,621.622646183474,"[55, 0, 199]",199,a,0.2709604469127953,0,colour,0.5,3.9
71,23,0,1,9,22,422,622.1313777337782,622.9105963290203,"[32, 0, 222]",222,a,0.2632694358471781,1,colour,0.5,3.9
71,23,0,1,9,23,423,623.4195452819113,624.0706932621542,"[86, 0, 168]",168,l,0.13476204639300704,1,colour,0.5,3.9
71,23,0,1,9,24,424,624.5797820303123,625.230639352696,"[80, 0, 174]",174,l,0.13390582683496177,1,colour,0.5,3.9
71,23,0,1,9,25,425,625.7393453030381,626.374678425258,"[75, 0, 179]",179,l,0.11716661392711103,1,colour,0.5,3.9
71,23,0,1,9,26,426,626.8837608918548,627.4148183506913,"[98, 0, 156]",156,l,0.014363538241013885,1,colour,0.5,3.9
71,23,0,1,9,27,427,627.9239484723657,628.5665913634002,"[11, 0, 243]",243,a,0.1264345815870911,1,colour,0.5,3.9
71,23,0,1,9,28,428,629.0755907285493,629.7265851092525,"[27, 0, 227]",227,a,0.1348412095103413,1,colour,0.5,3.9
71,23,0,1,9,29,429,630.2359751688782,630.9106211413164,"[70, 0, 184]",184,l,0.15857826569117606,1,colour,0.5,3.9
71,23,0,1,9,30,430,631.4188328157179,632.078641848173,"[79, 0, 175]",175,l,0.14324508048593998,1,colour,0.5,3.9
71,23,0,1,9,31,431,632.5876018286217,633.318580676103,"[94, 0, 160]",160,l,0.2147732947487384,1,colour,0.5,3.9
71,23,0,1,9,32,432,633.8277612100355,634.4865852352232,"[93, 0, 161]",161,l,0.14197650481946766,1,colour,0.5,3.9
71,23,0,1,9,33,433,634.996403798461,635.7185880802572,"[37, 0, 217]",217,a,0.20561954216100276,1,colour,0.5,3.9
71,23,0,1,9,34,434,636.2277091436554,636.9425946841948,"[77, 0, 177]",177,l,0.1978544881567359,1,colour,0.5,3.9
71,23,0,1,9,35,435,637.4523013955913,638.1825910136104,"[42, 0, 212]",212,a,0.2145551044959575,1,colour,0.5,3.9
71,23,0,1,9,36,436,638.6916136157233,639.3745657855179,"[82, 0, 172]",172,l,0.16517911292612553,1,colour,0.5,3.9
71,23,0,1,9,37,437,639.8844316103496,641.2146401749924,"[63, 0, 191]",191,a,0.8136473698541522,0,colour,0.5,3.9
71,23,0,1,9,38,438,641.723703736905,642.3265395017806,"[45, 0, 209]",209,a,0.08658925234340131,1,colour,0.5,3.9
71,23,0,1,9,39,439,642.8350548311137,643.4785547296051,"[13, 0, 241]",241,a,0.1274526717606932,1,colour,0.5,3.9
71,23,0,1,9,40,440,643.9882850714494,644.614591653226,"[14, 0, 240]",240,a,0.11006164457648993,1,colour,0.5,3.9
71,23,0,1,9,41,441,645.124216838507,645.8145540016703,"[72, 0, 182]",182,l,0.1734207198023796,1,colour,0.5,3.9
71,23,0,1,9,42,442,646.3235175269656,647.0305895705242,"[10, 0, 244]",244,a,0.19052975345402956,1,colour,0.5,3.9
71,23,0,1,9,43,443,647.5397137845866,648.2465841795783,"[25, 0, 229]",229,a,0.18889805232174695,1,colour,0.5,3.9
71,23,0,1,9,44,444,648.7566142380238,649.4546711628791,"[92, 0, 162]",162,l,0.18138269637711346,1,colour,0.5,3.9
71,23,0,1,9,45,445,649.9636307496112,650.6705354091246,"[41, 0, 213]",213,a,0.19015875132754445,1,colour,0.5,3.9
71,23,0,1,9,46,446,651.179609998595,651.8626027344726,"[89, 0, 165]",165,l,0.1656572411302477,1,colour,0.5,3.9
71,23,0,1,9,47,447,652.3717005609069,652.9505239718128,"[64, 0, 190]",190,a,0.061544236028566957,0,colour,0.5,3.9
71,23,0,1,9,48,448,653.4595028569456,654.566532680532,"[26, 0, 228]",228,a,0.590708086732775,1,colour,0.5,3.9
71,23,0,1,9,49,449,655.0764780619647,655.822484470671,"[15, 0, 239]",239,a,0.22915455605834723,1,colour,0.5,3.9
71,23,0,1,9,50,450,656.3313038484193,656.9425423028879,"[20, 0, 234]",234,a,0.09486118517816067,1,colour,0.5,3.9
71,23,0,1,10,1,451,662.8345306229312,663.638563047396,"[35, 0, 219]",219,a,0.28668353892862797,1,colour,0.5,3.9
71,23,0,1,10,2,452,664.1471870781388,664.7584964246489,"[64, 0, 190]",190,l,0.09533970733173192,1,colour,0.5,3.9
71,23,0,1,10,3,453,665.2678896349389,665.798528830288,"[11, 0, 243]",243,a,0.013291885145008564,1,colour,0.5,3.9
71,23,0,1,10,4,454,666.307772773318,666.8465247878339,"[45, 0, 209]",209,a,0.021997835487127304,1,colour,0.5,3.9
71,23,0,1,10,5,455,667.3557608539704,667.9745296305045,"[58, 0, 196]",196,a,0.09981733444146812,0,colour,0.5,3.9
71,23,0,1,10,6,456,668.4835506570525,670.3985336350743,"[77, 0, 177]",177,l,1.3991803291719407,1,colour,0.5,3.9
71,23,0,1,10,7,457,670.907592077041,671.5505232629366,"[0, 0, 254]",254,a,0.12670279038138688,1,colour,0.5,3.9
71,23,0,1,10,8,458,672.0595608309377,672.8545084258076,"[99, 0, 155]",155,l,0.2787916667293757,1,colour,0.5,3.9
71,23,0,1,10,9,459,673.3633817604277,674.0864671603777,"[66, 0, 188]",188,a,0.20659352163784206,0,colour,0.5,3.9
71,23,0,1,10,10,460,674.5962112869602,675.3745047394186,"[54, 0, 200]",200,a,0.26136991987004876,0,colour,0.5,3.9
71,23,0,1,10,11,461,675.8834989846218,676.6145246995147,"[62, 0, 192]",192,a,0.2126311701722443,0,colour,0.5,3.9
71,23,0,1,10,12,462,677.1225146392826,677.9024634235539,"[16, 0, 238]",238,l,0.26109068375080824,0,colour,0.5,3.9
71,23,0,1,10,13,463,678.4114367947914,679.1105173237156,"[15, 0, 239]",239,a,0.18266111821867526,1,colour,0.5,3.9
71,23,0,1,10,14,464,679.6196442947257,680.2064757619519,"[27, 0, 227]",227,a,0.07072161906398833,1,colour,0.5,3.9
71,23,0,1,10,15,465,680.7156405420974,681.2705185525119,"[87, 0, 167]",167,l,0.03854760876856744,1,colour,0.5,3.9
71,23,0,1,10,16,466,681.7797750984319,682.9024716943968,"[59, 0, 195]",195,a,0.6064319664146751,0,colour,0.5,3.9
71,23,0,1,10,17,467,683.4114430963527,684.1104775452986,"[83, 0, 171]",171,l,0.18236849107779562,1,colour,0.5,3.9
71,23,0,1,10,18,468,684.6203579423018,685.5586376576684,"[6, 0, 248]",248,a,0.4220832211431116,1,colour,0.5,3.9
71,23,0,1,10,19,469,686.0676846778952,686.798479993362,"[7, 0, 247]",247,a,0.21397733339108527,1,colour,0.5,3.9
71,23,0,1,10,20,470,687.3070807871409,687.846439323388,"[10, 0, 244]",244,a,0.02252598199993372,1,colour,0.5,3.9
71,23,0,1,10,21,471,688.3556135557592,688.9825187823735,"[69, 0, 185]",185,l,0.1084933525417,1,colour,0.5,3.9
71,23,0,1,10,22,472,689.4916193657555,690.0464879239444,"[67, 0, 187]",187,l,0.038382981438189745,1,colour,0.5,3.9
71,23,0,1,10,23,473,690.5556696392596,691.4864481769037,"[2, 0, 252]",252,a,0.4125155371148139,1,colour,0.5,3.9
71,23,0,1,10,24,474,691.9952443179209,692.8144740511198,"[73, 0, 181]",181,l,0.30294816847890615,1,colour,0.5,3.9
71,23,0,1,10,25,475,693.323364714859,694.0144816916436,"[21, 0, 233]",233,a,0.1744978865608573,1,colour,0.5,3.9
71,23,0,1,10,26,476,694.5220640012994,695.1984641607851,"[34, 0, 220]",220,a,0.15807256824336946,1,colour,0.5,3.9
71,23,0,1,10,27,477,695.7076549348421,696.3584779927041,"[8, 0, 246]",246,a,0.13424768461845815,1,colour,0.5,3.9
71,23,0,1,10,28,478,696.8676175666042,697.6464438920375,"[13, 0, 241]",241,a,0.262175727635622,1,colour,0.5,3.9
71,23,0,1,10,29,479,698.1563857288565,698.7664170474745,"[79, 0, 175]",175,l,0.09174901968799531,1,colour,0.5,3.9
71,23,0,1,10,30,480,699.2754112926777,699.8864622765686,"[33, 0, 221]",221,a,0.09427317418158054,1,colour,0.5,3.9
71,23,0,1,10,31,481,700.395404928131,701.9824782162905,"[38, 0, 216]",216,a,1.0698189255781472,1,colour,0.5,3.9
71,23,0,1,10,32,482,702.4914728554431,703.0224436682183,"[42, 0, 212]",212,a,0.014015378896147013,1,colour,0.5,3.9
71,23,0,1,10,33,483,703.5308105177246,704.2544555717614,"[91, 0, 163]",163,l,0.20772464526817203,1,colour,0.5,3.9
71,23,0,1,10,34,484,704.7635010168888,705.4944538704585,"[49, 0, 205]",205,a,0.21465395973064005,1,colour,0.5,3.9
71,23,0,1,10,35,485,706.0041145018768,706.6544822745491,"[53, 0, 201]",201,a,0.13392512523569167,0,colour,0.5,3.9
71,23,0,1,10,36,486,707.1625383801293,707.8144397865981,"[24, 0, 230]",230,a,0.1353654176928103,1,colour,0.5,3.9
71,23,0,1,10,37,487,708.323419459397,708.9344602033962,"[28, 0, 226]",226,a,0.0940033900551498,1,colour,0.5,3.9
71,23,0,1,10,38,488,709.4435017099604,710.0464572040364,"[43, 0, 211]",211,a,0.08559991302900016,1,colour,0.5,3.9
71,23,0,1,10,39,489,710.5554368768353,711.102421045769,"[86, 0, 168]",168,l,0.028981106355786324,1,colour,0.5,3.9
71,23,0,1,10,40,490,711.6116480533965,712.2704334817827,"[50, 0, 204]",204,a,0.14181384653784335,1,colour,0.5,3.9
71,23,0,1,10,41,491,712.7780902283266,713.8704107175581,"[32, 0, 222]",222,a,0.5758546048309654,1,colour,0.5,3.9
71,23,0,1,10,42,492,714.3795278423931,715.0784760392271,"[61, 0, 193]",193,l,0.18156740977428854,1,colour,0.5,3.9
71,23,0,1,10,43,493,715.5871985310223,716.3744113980792,"[81, 0, 173]",173,l,0.2707903056871146,1,colour,0.5,3.9
71,23,0,1,10,44,494,716.883429273963,717.5423876005225,"[92, 0, 162]",162,l,0.14219430135563016,1,colour,0.5,3.9
71,23,0,1,10,45,495,718.0511656245217,718.7264441126026,"[37, 0, 217]",217,a,0.1588661668356508,1,colour,0.5,3.9
71,23,0,1,10,46,496,719.2354233914521,719.9024082852993,"[48, 0, 206]",206,a,0.15039494819939137,1,colour,0.5,3.9
71,23,0,1,10,47,497,720.4115261978004,721.0943929031491,"[71, 0, 183]",183,l,0.16585258836857975,1,colour,0.5,3.9
71,23,0,1,10,48,498,721.6033536714967,722.3184121102095,"[84, 0, 170]",170,l,0.19788638968020678,1,colour,0.5,3.9
71,23,0,1,10,49,499,722.8280845570844,723.4303929631133,"[88, 0, 166]",166,l,0.08590041706338525,1,colour,0.5,3.9
71,23,0,1,10,50,500,723.939393509645,724.5504259830341,"[93, 0, 161]",161,l,0.09162574610672891,1,colour,0.5,3.9
71,23,0,1,11,1,501,735.9946177101228,736.5903595334385,"[75, 0, 179]",179,l,0.07820467976853251,1,colour,0.5,3.9
71,23,0,1,11,2,502,737.1001249277033,737.6943665943108,"[92, 0, 162]",162,l,0.07638708385638893,1,colour,0.5,3.9
71,23,0,1,11,3,503,738.2035018361639,738.7343273200095,"[87, 0, 167]",167,l,0.013840511441230774,1,colour,0.5,3.9
71,23,0,1,11,4,504,739.2442632492166,740.1503756495658,"[55, 0, 199]",199,a,0.38946652854792774,0,colour,0.5,3.9
71,23,0,1,11,5,505,740.6594029776752,741.3823812515475,"[13, 0, 241]",241,a,0.205987787572667,1,colour,0.5,3.9
71,23,0,1,11,6,506,741.8925144975074,742.5264136288315,"[27, 0, 227]",227,a,0.11683775298297405,1,colour,0.5,3.9
71,23,0,1,11,7,507,743.0355382368434,743.7663201615214,"[99, 0, 155]",155,l,0.21347754378803074,1,colour,0.5,3.9
71,23,0,1,11,8,508,744.275405384833,745.3983859431464,"[90, 0, 164]",164,l,0.6067368027288467,1,colour,0.5,3.9
71,23,0,1,11,9,509,745.9073766437359,746.5743375127204,"[84, 0, 170]",170,l,0.14988137362524867,1,colour,0.5,3.9
71,23,0,1,11,10,510,747.0840521010105,747.7823575420771,"[94, 0, 160]",160,l,0.18210500851273537,1,colour,0.5,3.9
71,23,0,1,11,11,511,748.2911851906683,749.350373837864,"[8, 0, 246]",246,a,0.5423883881885558,1,colour,0.5,3.9
71,23,0,1,11,12,512,749.8595130180474,752.5903138474096,"[83, 0, 171]",171,l,2.2139261334668845,1,colour,0.5,3.9
71,23,0,1,11,13,513,753.0996105656959,753.7824831788894,"[97, 0, 157]",157,l,0.1666816328652203,1,colour,0.5,3.9
71,23,0,1,11,14,514,754.2923387635965,755.1423526268918,"[17, 0, 237]",237,a,0.3334254929795861,1,colour,0.5,3.9
71,23,0,1,11,15,515,755.6512590446509,756.4302905632649,"[5, 0, 249]",249,a,0.26252034213393927,1,colour,0.5,3.9
71,23,0,1,11,16,516,756.9391965870745,757.590302819619,"[48, 0, 206]",206,a,0.13286253064870834,1,colour,0.5,3.9
71,23,0,1,11,17,517,758.099431366194,759.0463012412656,"[79, 0, 175]",175,l,0.43053435371257365,1,colour,0.5,3.9
71,23,0,1,11,18,518,759.5559224879835,760.1983916931786,"[31, 0, 223]",223,a,0.12378242705017328,1,colour,0.5,3.9
71,23,0,1,11,19,519,760.7077459129505,761.7502902639098,"[77, 0, 177]",177,l,0.5255727691110224,1,colour,0.5,3.9
71,23,0,1,11,20,520,762.2596425144002,762.8863689352293,"[50, 0, 204]",204,a,0.11001871549524367,1,colour,0.5,3.9
71,23,0,1,11,21,521,763.3953399437014,764.0303233312443,"[51, 0, 203]",203,a,0.11859587859362364,0,colour,0.5,3.9
71,23,0,1,11,22,522,764.5391438906081,765.3742983646225,"[67, 0, 187]",187,l,0.3172022176440805,1,colour,0.5,3.9
71,23,0,1,11,23,523,765.88329576049,766.5182811173145,"[39, 0, 215]",215,a,0.11799487052485347,1,colour,0.5,3.9
71,23,0,1,11,24,524,767.0273631899618,767.8223257509526,"[81, 0, 173]",173,l,0.2787195930723101,1,colour,0.5,3.9
71,23,0,1,11,25,525,768.3311982979067,769.070317927748,"[0, 0, 254]",254,a,0.22165928618051112,1,colour,0.5,3.9
71,23,0,1,11,26,526,769.5795949536841,770.7822673516348,"[63, 0, 191]",191,a,0.6858236959669739,0,colour,0.5,3.9
71,23,0,1,11,27,527,771.2916381128598,772.0703061122913,"[53, 0, 201]",201,a,0.26247071754187346,0,colour,0.5,3.9
71,23,0,1,11,28,528,772.5793633726425,773.4703072151169,"[21, 0, 233]",233,a,0.3742759155575186,1,colour,0.5,3.9
71,23,0,1,11,29,529,773.9793991337065,774.750293414807,"[32, 0, 222]",222,a,0.2539061577990651,1,colour,0.5,3.9
71,23,0,1,11,30,530,775.2585330521688,776.1422978825867,"[25, 0, 229]",229,a,0.3670208912808448,1,colour,0.5,3.9
71,23,0,1,11,31,531,776.6511625524145,777.3902802129742,"[3, 0, 251]",251,a,0.2228514556773007,1,colour,0.5,3.9
71,23,0,1,11,32,532,777.8993055720348,778.6702664126642,"[85, 0, 169]",169,l,0.25399871123954654,1,colour,0.5,3.9
71,23,0,1,11,33,533,779.1796631678008,780.2142994988244,"[45, 0, 209]",209,a,0.518135788384825,1,colour,0.5,3.9
71,23,0,1,11,34,534,780.7232807469554,781.5582871353254,"[62, 0, 192]",192,l,0.31785993929952383,1,colour,0.5,3.9
71,23,0,1,11,35,535,782.0682529967744,783.2222957399208,"[58, 0, 196]",196,a,0.6378474305383861,0,colour,0.5,3.9
71,23,0,1,11,36,536,783.7305790942628,784.7262613682542,"[59, 0, 195]",195,l,0.47889225487597287,1,colour,0.5,3.9
71,23,0,1,11,37,537,785.2345073074102,785.9662836913485,"[36, 0, 218]",218,a,0.21569607430137694,1,colour,0.5,3.9
71,23,0,1,11,38,538,786.4751546629705,787.1262727109715,"[1, 0, 253]",253,a,0.13500859355553985,1,colour,0.5,3.9
71,23,0,1,11,39,539,787.6353075222578,788.3902455547359,"[37, 0, 217]",217,a,0.23765610065311193,1,colour,0.5,3.9
71,23,0,1,11,40,540,788.8990546923596,789.6942610437982,"[38, 0, 216]",216,a,0.27883420209400356,1,colour,0.5,3.9
71,23,0,1,11,41,541,790.2032757687848,790.8222725819796,"[35, 0, 219]",219,a,0.10277944523841143,1,colour,0.5,3.9
71,23,0,1,11,42,542,791.3311057442334,792.0222211456858,"[40, 0, 214]",214,a,0.174572323448956,1,colour,0.5,3.9
71,23,0,1,11,43,543,792.5310968433041,793.1502216560766,"[18, 0, 236]",236,a,0.10261639300733805,1,colour,0.5,3.9
71,23,0,1,11,44,544,793.6592793103773,794.3822627041955,"[95, 0, 159]",159,l,0.20592240919359028,1,colour,0.5,3.9
71,23,0,1,11,45,545,794.8913628938608,795.5662628964055,"[47, 0, 207]",207,a,0.1586184378247708,1,colour,0.5,3.9
71,23,0,1,11,46,546,796.0753532398958,797.0942200052086,"[23, 0, 231]",231,a,0.5019223589915782,1,colour,0.5,3.9
71,23,0,1,11,47,547,797.6032725393306,798.2222736845724,"[78, 0, 176]",176,l,0.10212408634833992,1,colour,0.5,3.9
71,23,0,1,11,48,548,798.7320796449203,799.4703174550086,"[41, 0, 213]",213,a,0.22031548572704196,1,colour,0.5,3.9
71,23,0,1,11,49,549,799.9793349369429,802.0222361118067,"[88, 0, 166]",166,l,1.5260201774071902,1,colour,0.5,3.9
71,23,0,1,11,50,550,802.5312315383926,803.2062457562424,"[26, 0, 228]",228,a,0.1589878648519516,1,colour,0.5,3.9
71,23,0,1,12,1,551,811.5785181806423,812.2382208746858,"[94, 0, 160]",160,l,0.14234632556326687,1,colour,0.5,3.8
71,23,0,1,12,2,552,812.7483446681872,813.3742069923319,"[44, 0, 210]",210,a,0.1099730294663459,1,colour,0.5,3.8
71,23,0,1,12,3,553,813.8834080062807,814.4781927857548,"[53, 0, 201]",201,a,0.07806762168183923,0,colour,0.5,3.8
71,23,0,1,12,4,554,814.9869853819255,815.5582390860654,"[54, 0, 200]",200,a,0.054944176226854324,0,colour,0.5,3.8
71,23,0,1,12,5,555,816.0675078413915,816.6061952651944,"[98, 0, 156]",156,l,0.02247241884469986,1,colour,0.5,3.8
71,23,0,1,12,6,556,817.11560107884,817.7662039771676,"[4, 0, 250]",250,a,0.13317918218672276,1,colour,0.5,3.8
71,23,0,1,12,7,557,818.2753293728456,819.5182783603668,"[99, 0, 155]",155,l,0.7248978759162128,1,colour,0.5,3.8
71,23,0,1,12,8,558,820.027319079265,821.0862056470942,"[69, 0, 185]",185,l,0.5422288808040321,1,colour,0.5,3.8
71,23,0,1,12,9,559,821.5950833139941,822.2622084165923,"[12, 0, 242]",242,a,0.1498022109735757,1,colour,0.5,3.8
71,23,0,1,12,10,560,822.7709671421908,823.414168899646,"[80, 0, 174]",174,l,0.12639795383438468,1,colour,0.5,3.8
71,23,0,1,12,11,561,823.9232879937626,824.718220228795,"[58, 0, 196]",196,a,0.2779590778518468,0,colour,0.5,3.8
71,23,0,1,12,12,562,825.2278245403431,825.9101709760725,"[70, 0, 184]",184,l,0.16580493305809796,1,colour,0.5,3.8
71,23,0,1,12,13,563,826.4189147355501,827.0781964089256,"[26, 0, 228]",228,a,0.14307612064294517,1,colour,0.5,3.8
71,23,0,1,12,14,564,827.5872958109248,828.2861490908545,"[50, 0, 204]",204,a,0.18280565948225558,1,colour,0.5,3.8
71,23,0,1,12,15,565,828.7951279759873,829.5101911409292,"[14, 0, 240]",240,a,0.1977560268715024,1,colour,0.5,3.8
71,23,0,1,12,16,566,830.0192732135765,830.6861604335718,"[81, 0, 173]",173,l,0.1504528431687504,1,colour,0.5,3.8
71,23,0,1,12,17,567,831.1949420021847,831.8861881603952,"[90, 0, 164]",164,l,0.1742982070427388,1,colour,0.5,3.8
71,23,0,1,12,18,568,832.3947491755243,832.9901727719698,"[6, 0, 248]",248,a,0.07884270907379687,1,colour,0.5,3.8
71,23,0,1,12,19,569,833.4990425619762,834.2381259580143,"[96, 0, 158]",158,l,0.2228699664119631,1,colour,0.5,3.8
71,23,0,1,12,20,570,834.74680315773,835.4061572987121,"[51, 0, 203]",203,a,0.14312574546784163,0,colour,0.5,3.8
71,23,0,1,12,21,571,835.9154362939298,836.5741086886264,"[17, 0, 237]",237,a,0.1411529742181301,1,colour,0.5,3.8
71,23,0,1,12,22,572,837.0832136042882,837.8701389643829,"[43, 0, 211]",211,a,0.27061386313289404,1,colour,0.5,3.8
71,23,0,1,12,23,573,838.3791343909688,839.0382029940374,"[72, 0, 182]",182,l,0.1423691683448851,1,colour,0.5,3.8
71,23,0,1,12,24,574,839.546878618421,840.2861589370295,"[34, 0, 220]",220,a,0.22311966447159648,1,colour,0.5,3.8
71,23,0,1,12,25,575,840.7954926767852,841.4141925305594,"[35, 0, 219]",219,a,0.10127023002132773,1,colour,0.5,3.8
71,23,0,1,12,26,576,841.923200560268,842.9662982637528,"[36, 0, 218]",218,a,0.5268630064092577,1,colour,0.5,3.8
71,23,0,1,12,27,577,843.4752161027864,844.2781343390234,"[57, 0, 197]",197,l,0.28618729393929243,1,colour,0.5,3.8
71,23,0,1,12,28,578,844.787117556436,845.4221781378146,"[55, 0, 199]",199,a,0.11820794083178043,0,colour,0.5,3.8
71,23,0,1,12,29,579,845.9311420568265,846.7901340175886,"[16, 0, 238]",238,a,0.3423626306466758,1,colour,0.5,3.8
71,23,0,1,12,30,580,847.2991845826618,848.0301134116016,"[79, 0, 175]",175,l,0.21369376475922763,1,colour,0.5,3.8
71,23,0,1,12,31,581,848.5392187212128,849.0861182133667,"[77, 0, 177]",177,l,0.02847068291157484,1,colour,0.5,3.8
71,23,0,1,12,32,582,849.5954673131928,850.2141470806673,"[75, 0, 179]",179,l,0.1013391527812928,1,colour,0.5,3.8
71,23,0,1,12,33,583,850.7242149480153,851.3661682161037,"[3, 0, 251]",251,a,0.12546808528713882,1,colour,0.5,3.8
71,23,0,1,12,34,584,851.875208147103,852.4861350699794,"[37, 0, 217]",217,a,0.09462369652464986,1,colour,0.5,3.8
71,23,0,1,12,35,585,852.9952049334534,853.6141903249081,"[11, 0, 243]",243,a,0.1017463889438659,1,colour,0.5,3.8
71,23,0,1,12,36,586,854.1232838190626,854.7821866134182,"[22, 0, 232]",232,a,0.14223604882135987,1,colour,0.5,3.8
71,23,0,1,12,37,587,855.2911320216954,855.8941320199519,"[46, 0, 208]",208,a,0.0863931174390018,1,colour,0.5,3.8
71,23,0,1,12,38,588,856.4032617479097,856.9581515737809,"[18, 0, 236]",236,a,0.03746138350106776,1,colour,0.5,3.8
71,23,0,1,12,39,589,857.4662317039911,857.9902054611593,"[42, 0, 212]",212,a,0.006565795047208667,1,colour,0.5,3.8
71,23,0,1,12,40,590,858.5036529151257,859.0940927930642,"[10, 0, 244]",244,a,0.07427055900916457,1,colour,0.5,3.8
71,23,0,1,12,41,591,859.6035643788055,860.1501590346452,"[33, 0, 221]",221,a,0.02966364030726254,1,colour,0.5,3.8
71,23,0,1,12,42,592,860.6593206641264,861.278056751471,"[68, 0, 186]",186,l,0.1018736008554697,1,colour,0.5,3.8
71,23,0,1,12,43,593,861.7875826878008,862.4621010543779,"[52, 0, 202]",202,l,0.1581777250394225,1,colour,0.5,3.8
71,23,0,1,12,44,594,862.9712055760901,863.6781090542208,"[7, 0, 247]",247,a,0.18972670286893845,1,colour,0.5,3.8
71,23,0,1,12,45,595,864.187171434518,864.7980900865514,"[28, 0, 226]",226,a,0.0937403014395386,1,colour,0.5,3.8
71,23,0,1,12,46,596,865.3071764914785,865.958072804613,"[60, 0, 194]",194,l,0.1347116343677044,1,colour,0.5,3.8
71,23,0,1,12,47,597,866.4668193210382,867.0141055693384,"[24, 0, 230]",230,a,0.030203995993360877,1,colour,0.5,3.8
71,23,0,1,12,48,598,867.5241970675997,868.0780628954526,"[88, 0, 166]",166,l,0.036940719932317734,1,colour,0.5,3.8
71,23,0,1,12,49,599,868.5872619401198,869.4780667552259,"[65, 0, 189]",189,l,0.37381590413860977,1,colour,0.5,3.8
71,23,0,1,12,50,600,869.9875131347217,870.5100682612974,"[15, 0, 239]",239,a,0.006164466729387641,1,colour,0.5,3.8
71,23,0,1,13,1,601,889.9467576290481,890.6460740712937,"[53, 0, 201]",201,a,0.1822357652708888,0,colour,0.5,3.8
71,23,0,1,13,2,602,891.1552211283706,891.7339984592982,"[38, 0, 216]",216,a,0.06260092300362885,1,colour,0.5,3.8
71,23,0,1,13,3,603,892.2430064890068,892.782062551938,"[14, 0, 240]",240,a,0.022359385387971997,1,colour,0.5,3.8
71,23,0,1,13,4,604,893.2915337437298,894.2700971378945,"[35, 0, 219]",219,a,0.4618860147893429,1,colour,0.5,3.8
71,23,0,1,13,5,605,894.7780925913248,895.4300349575933,"[54, 0, 200]",200,a,0.13575650588609278,0,colour,0.5,3.8
71,23,0,1,13,6,606,895.9391056087334,896.5980426676106,"[39, 0, 215]",215,a,0.1408024518750608,1,colour,0.5,3.8
71,23,0,1,13,7,607,897.1071215893608,897.7900276794098,"[93, 0, 161]",161,l,0.1659644404426217,1,colour,0.5,3.8
71,23,0,1,13,8,608,898.2989033770282,898.9980280166492,"[24, 0, 230]",230,a,0.18276942567899823,1,colour,0.5,3.8
71,23,0,1,13,9,609,899.5069962679408,900.2860329065006,"[92, 0, 162]",162,l,0.2627259292639792,1,colour,0.5,3.8
71,23,0,1,13,10,610,900.7950460561551,901.4860051011201,"[59, 0, 195]",195,a,0.17441990529187024,0,colour,0.5,3.8
71,23,0,1,13,11,611,901.9956054741051,902.5740003811661,"[82, 0, 172]",172,a,0.06149303610436618,0,colour,0.5,3.8
71,23,0,1,13,12,612,903.0828205468133,903.7259931596927,"[85, 0, 169]",169,l,0.12566934013739228,1,colour,0.5,3.8
71,23,0,1,13,13,613,904.235319810221,905.0860150258522,"[95, 0, 159]",159,l,0.3338650243822485,1,colour,0.5,3.8
71,23,0,1,13,14,614,905.5952688150574,906.6461043972522,"[69, 0, 185]",185,l,0.533799015916884,1,colour,0.5,3.8
71,23,0,1,13,15,615,907.154338127235,907.8621442986187,"[11, 0, 243]",243,a,0.19091847888194025,1,colour,0.5,3.8
71,23,0,1,13,16,616,908.372122369241,909.2221267803106,"[26, 0, 228]",228,a,0.3323183939792216,1,colour,0.5,3.8
71,23,0,1,13,17,617,909.7319303776603,910.4139786723536,"[18, 0, 236]",236,a,0.16527875582687557,1,colour,0.5,3.8
71,23,0,1,13,18,618,910.9228480686434,911.7900398885831,"[30, 0, 224]",224,a,0.3490134961903095,1,colour,0.5,3.8
71,23,0,1,13,19,619,912.2988659618422,913.1180090489797,"[41, 0, 213]",213,a,0.3028524639084935,1,colour,0.5,3.8
71,23,0,1,13,20,620,913.6274243146181,914.5979591724463,"[86, 0, 168]",168,l,0.4537901310250163,1,colour,0.5,3.8
71,23,0,1,13,21,621,915.1074150041677,915.749966916861,"[99, 0, 155]",155,l,0.12632509251125157,1,colour,0.5,3.8
71,23,0,1,13,22,622,916.2591210631654,917.0059766024351,"[13, 0, 241]",241,a,0.22962126275524497,1,colour,0.5,3.8
71,23,0,1,13,23,623,917.5141032063402,919.1179515474942,"[52, 0, 202]",202,a,1.0878621605224907,0,colour,0.5,3.8
71,23,0,1,13,24,624,919.6269469743129,920.2539542068262,"[36, 0, 218]",218,a,0.11072566779330373,1,colour,0.5,3.8
71,23,0,1,13,25,625,920.7629484517965,921.4939914960414,"[67, 0, 187]",187,l,0.21436093864031136,1,colour,0.5,3.8
71,23,0,1,13,26,626,922.0033027867321,922.5339589172509,"[61, 0, 193]",193,l,0.014360781293362379,1,colour,0.5,3.8
71,23,0,1,13,27,627,923.043076829752,923.7499625845812,"[15, 0, 239]",239,a,0.1898862102534622,1,colour,0.5,3.8
71,23,0,1,13,28,628,924.2589237468783,924.7979325484484,"[9, 0, 245]",245,a,0.02162604546174407,1,colour,0.5,3.8
71,23,0,1,13,29,629,925.3073619925417,926.0699150238652,"[46, 0, 208]",208,a,0.24640694935806096,1,colour,0.5,3.8
71,23,0,1,13,30,630,926.5789222659077,927.1820010333322,"[17, 0, 237]",237,a,0.08622927777469158,1,colour,0.5,3.8
71,23,0,1,13,31,631,927.6910929521546,928.3739419346675,"[65, 0, 189]",189,l,0.16615466796793044,1,colour,0.5,3.8
71,23,0,1,13,32,632,928.8829688688274,929.4779552968685,"[74, 0, 180]",180,l,0.07829802110791206,1,colour,0.5,3.8
71,23,0,1,13,33,633,929.9872059354093,930.6539742141031,"[90, 0, 164]",164,l,0.14976755250245333,1,colour,0.5,3.8
71,23,0,1,13,34,634,931.162845185725,931.8860526776407,"[34, 0, 220]",220,a,0.20686606271192431,1,colour,0.5,3.8
71,23,0,1,13,35,635,932.3951292363927,933.1419733539224,"[64, 0, 190]",190,a,0.23011081223376095,0,colour,0.5,3.8
71,23,0,1,13,36,636,933.650999500649,934.413931804942,"[55, 0, 199]",199,a,0.24681812385097146,0,colour,0.5,3.8
71,23,0,1,13,37,637,934.9229000562336,935.9579259003513,"[8, 0, 246]",246,a,0.5180767115671188,1,colour,0.5,3.8
71,23,0,1,13,38,638,936.4661375747528,937.0619873118121,"[44, 0, 210]",210,a,0.07970916875638068,1,colour,0.5,3.8
71,23,0,1,13,39,639,937.5710205477662,938.0939340733457,"[89, 0, 165]",165,l,0.005814732052385807,1,colour,0.5,3.8
71,23,0,1,13,40,640,938.6047955390532,939.3899210260715,"[1, 0, 253]",253,a,0.2686048580799252,1,colour,0.5,3.8
71,23,0,1,13,41,641,939.8987900284119,941.0699197500944,"[23, 0, 231]",231,a,0.65436727181077,1,colour,0.5,3.8
71,23,0,1,13,42,642,941.5793046897743,942.2300336186308,"[22, 0, 232]",232,a,0.1332981234882027,1,colour,0.5,3.8
71,23,0,1,13,43,643,942.7396895238198,943.7819467615336,"[56, 0, 198]",198,l,0.5250363519880921,1,colour,0.5,3.8
71,23,0,1,13,44,644,944.2915510730818,944.8379503816832,"[94, 0, 160]",160,l,0.02984441537410021,1,colour,0.5,3.8
71,23,0,1,13,45,645,945.3461104624439,955.9819394359365,"[63, 0, 191]",191,a,10.118575004627928,0,colour,0.5,3.8
71,23,0,1,13,46,646,956.490304316394,957.021861171117,"[96, 0, 158]",158,l,0.014575032982975245,1,colour,0.5,3.8
71,23,0,1,13,47,647,957.5309018900152,958.3259432201739,"[49, 0, 205]",205,a,0.277947656577453,1,colour,0.5,3.8
71,23,0,1,13,48,648,958.8352296983358,959.4538980445359,"[84, 0, 170]",170,l,0.10156325087882578,1,colour,0.5,3.8
71,23,0,1,13,49,649,959.9636921894271,960.7498672741931,"[27, 0, 227]",227,a,0.2701345533132553,1,colour,0.5,3.8
71,23,0,1,13,50,650,961.25885364227,961.9418455904815,"[33, 0, 221]",221,a,0.16686477069742978,1,colour,0.5,3.8
71,23,0,1,14,1,651,966.7707288658712,967.5418551214971,"[6, 0, 248]",248,a,0.2533012111671269,1,colour,0.5,3.8
71,23,0,1,14,2,652,968.0508568498772,968.637856882764,"[69, 0, 185]",185,l,0.07016550935804844,1,colour,0.5,3.8
71,23,0,1,14,3,653,969.1466648392379,969.7658955962397,"[20, 0, 234]",234,a,0.10272627579979599,1,colour,0.5,3.8
71,23,0,1,14,4,654,970.2749749119394,971.013815699378,"[67, 0, 187]",187,a,0.22263090242631733,0,colour,0.5,3.8
71,23,0,1,14,5,655,971.5225874218158,972.1579197563697,"[26, 0, 228]",228,l,0.1167302334215492,0,colour,0.5,3.8
71,23,0,1,14,6,656,972.6671633054502,975.4458817171399,"[80, 0, 174]",174,l,2.2621233460959047,1,colour,0.5,3.8
71,23,0,1,14,7,657,975.9550437403377,976.4858613475226,"[50, 0, 204]",204,a,0.013723933370783925,1,colour,0.5,3.8
71,23,0,1,14,8,658,976.9949800476898,977.7500003937166,"[97, 0, 157]",157,l,0.23754976224154234,1,colour,0.5,3.8
71,23,0,1,14,9,659,978.259030085057,979.3979322332889,"[25, 0, 229]",229,a,0.6213138047605753,1,colour,0.5,3.8
71,23,0,1,14,10,660,979.9069985521492,980.5098173818551,"[54, 0, 200]",200,a,0.0857125527691096,0,colour,0.5,3.8
71,23,0,1,14,11,661,981.018836833071,981.5978461387567,"[83, 0, 171]",171,l,0.06297901435755193,1,colour,0.5,3.8
71,23,0,1,14,12,662,982.1071723955683,982.741841100622,"[51, 0, 203]",203,a,0.11762268655002117,0,colour,0.5,3.8
71,23,0,1,14,13,663,983.2508428290021,984.3979137225542,"[23, 0, 231]",231,a,0.6292832645121962,1,colour,0.5,3.8
71,23,0,1,14,14,664,984.9066669344902,985.4618214243092,"[84, 0, 170]",170,l,0.038724051555618644,1,colour,0.5,3.8
71,23,0,1,14,15,665,985.9705387961585,986.621837225277,"[32, 0, 222]",222,a,0.13362028892152011,1,colour,0.5,3.8
71,23,0,1,14,16,666,987.1306325786281,987.7337885396555,"[3, 0, 251]",251,a,0.08658846467733383,1,colour,0.5,3.8
71,23,0,1,14,17,667,988.2428899107035,988.981835460756,"[59, 0, 195]",195,a,0.22184990695677698,0,colour,0.5,3.8
71,23,0,1,14,18,668,989.4907749614213,990.1978540944401,"[60, 0, 194]",194,a,0.1899728560820222,0,colour,0.5,3.8
71,23,0,1,14,19,669,990.7070106037427,991.6538470021915,"[49, 0, 205]",205,a,0.4301913143135607,1,colour,0.5,3.8
71,23,0,1,14,20,670,992.1628396718297,992.9178352055606,"[14, 0, 240]",240,a,0.2391865833196789,1,colour,0.5,3.8
71,23,0,1,14,21,671,993.4267581647728,994.061865613563,"[56, 0, 198]",198,a,0.11895191459916532,0,colour,0.5,3.8
71,23,0,1,14,22,672,994.5708618280478,995.1578721010592,"[90, 0, 164]",164,l,0.07045459188520908,1,colour,0.5,3.8
71,23,0,1,14,23,673,995.6668880076613,996.3417734380346,"[98, 0, 156]",156,l,0.15900243702344596,1,colour,0.5,3.8
71,23,0,1,14,24,674,996.8503167303279,997.5098162002396,"[45, 0, 209]",209,a,0.14280633674934506,1,colour,0.5,3.8
71,23,0,1,14,25,675,998.0196284621488,999.6778514792677,"[77, 0, 177]",177,l,1.1414542659185827,1,colour,0.5,3.8
71,23,0,1,14,26,676,1000.186093086144,1000.9338473801035,"[71, 0, 183]",183,l,0.23078153072856367,1,colour,0.5,3.8
71,23,0,1,14,27,677,1001.4430901417509,1002.0458963683341,"[5, 0, 249]",249,a,0.08585039875470102,1,colour,0.5,3.8
71,23,0,1,14,28,678,1002.5552450742107,1003.4458246096037,"[16, 0, 238]",238,a,0.3721121293492615,1,colour,0.5,3.8
71,23,0,1,14,29,679,1003.9552256970201,1004.5737688001245,"[33, 0, 221]",221,a,0.09985435591079295,1,colour,0.5,3.8
71,23,0,1,14,30,680,1005.0828335436527,1005.7178405618761,"[1, 0, 253]",253,a,0.11876168730668724,1,colour,0.5,3.8
71,23,0,1,14,31,681,1006.2269080623519,1006.8618036224507,"[40, 0, 214]",214,a,0.11828513466753066,1,colour,0.5,3.8
71,23,0,1,14,32,682,1007.3708585198037,1008.0057922827546,"[11, 0, 243]",243,a,0.11865259218029678,1,colour,0.5,3.8
71,23,0,1,14,33,683,1008.5144915378187,1009.2378030049149,"[99, 0, 155]",155,l,0.20732686179690063,1,colour,0.5,3.8
71,23,0,1,14,34,684,1009.747395894723,1010.44579704036,"[87, 0, 167]",167,l,0.1818155322689563,1,colour,0.5,3.8
71,23,0,1,14,35,685,1010.9551579556428,1011.6377403046936,"[30, 0, 224]",224,a,0.1657828779425472,1,colour,0.5,3.8
71,23,0,1,14,36,686,1012.146561257774,1013.0377674011979,"[62, 0, 192]",192,l,0.3745787823572755,1,colour,0.5,3.8
71,23,0,1,14,37,687,1013.5465997760184,1014.2459622980095,"[53, 0, 201]",201,a,0.18300967128016055,0,colour,0.5,3.8
71,23,0,1,14,38,688,1014.7551731579006,1015.4137766298372,"[36, 0, 218]",218,a,0.1401817516889423,1,colour,0.5,3.8
71,23,0,1,14,39,689,1015.9227409427986,1016.5417759586126,"[10, 0, 244]",244,a,0.1009760273154825,1,colour,0.5,3.8
71,23,0,1,14,40,690,1017.0509931202978,1017.8297568240669,"[42, 0, 212]",212,a,0.2618271743413061,1,colour,0.5,3.8
71,23,0,1,14,41,691,1018.339140582364,1019.093790319981,"[8, 0, 246]",246,a,0.23480859911069274,1,colour,0.5,3.8
71,23,0,1,14,42,692,1019.603318619309,1020.2297673791181,"[73, 0, 181]",181,l,0.10861623240634799,1,colour,0.5,3.8
71,23,0,1,14,43,693,1020.7388533903286,1021.2937459729146,"[79, 0, 175]",175,l,0.03663627756759524,1,colour,0.5,3.8
71,23,0,1,14,44,694,1021.8032975092065,1022.5897636455484,"[89, 0, 165]",165,l,0.26954811764881015,1,colour,0.5,3.8
71,23,0,1,14,45,695,1023.0986436754465,1023.7977706780657,"[4, 0, 250]",250,a,0.18234564806334674,1,colour,0.5,3.8
71,23,0,1,14,46,696,1024.3069311259314,1025.0618455274962,"[47, 0, 207]",207,a,0.23773723258636892,1,colour,0.5,3.8
71,23,0,1,14,47,697,1025.569825621089,1026.5177525768522,"[81, 0, 173]",173,l,0.4317371570505202,1,colour,0.5,3.8
71,23,0,1,14,48,698,1027.0265762871131,1028.101776320953,"[39, 0, 215]",215,a,0.5577235426753759,1,colour,0.5,3.8
71,23,0,1,14,49,699,1028.6107961661182,1029.8617583301384,"[21, 0, 233]",233,a,0.7331642948556691,1,colour,0.5,3.8
71,23,0,1,14,50,700,1030.3707742367405,1032.3577162958682,"[57, 0, 197]",197,a,1.4711728871334344,0,colour,0.5,3.8
71,23,0,1,15,1,701,1039.87402779283,1048.4137407899834,"[2, 0, 252]",252,a,8.02179776201956,1,colour,0.5,3.8
71,23,0,1,15,2,702,1048.922811047174,1050.405679170508,"[89, 0, 165]",165,l,0.964545258320868,1,colour,0.5,3.8
71,23,0,1,15,3,703,1050.914310683962,1051.605760460021,"[98, 0, 156]",156,l,0.1754628075286746,1,colour,0.5,3.8
71,23,0,1,15,4,704,1052.114409302827,1052.7496526283212,"[26, 0, 228]",228,a,0.11839107889682055,1,colour,0.5,3.8
71,23,0,1,15,5,705,1053.2586992550641,1053.981672015041,"[1, 0, 253]",253,a,0.20622330717742443,1,colour,0.5,3.8
71,23,0,1,15,6,706,1054.4907840199303,1055.1257039983757,"[5, 0, 249]",249,a,0.1179141323082149,1,colour,0.5,3.8
71,23,0,1,15,7,707,1055.6347872526385,1056.3976782031823,"[46, 0, 208]",208,a,0.24523880425840616,1,colour,0.5,3.8
71,23,0,1,15,8,708,1056.9066921405029,1057.9897033083253,"[84, 0, 170]",170,l,0.5664373699110001,1,colour,0.5,3.8
71,23,0,1,15,9,709,1058.498568766052,1060.2296827023383,"[63, 0, 191]",191,l,1.2150300818029791,1,colour,0.5,3.8
71,23,0,1,15,10,710,1060.7386564675253,1061.3737005074508,"[79, 0, 175]",175,l,0.11696417746134102,1,colour,0.5,3.8
71,23,0,1,15,11,711,1061.8828062107787,1062.6057084724307,"[68, 0, 186]",186,l,0.20657776785083115,1,colour,0.5,3.8
71,23,0,1,15,12,712,1063.1152619780041,1063.9016855789814,"[54, 0, 200]",200,a,0.26939727482385933,0,colour,0.5,3.8
71,23,0,1,15,13,713,1064.410664464347,1065.2536355860066,"[34, 0, 220]",220,a,0.32670294772833586,1,colour,0.5,3.8
71,23,0,1,15,14,714,1065.7627015109174,1066.6376509016845,"[9, 0, 245]",245,a,0.35877692117355764,1,colour,0.5,3.8
71,23,0,1,15,15,715,1067.1466542053968,1067.8216388847213,"[88, 0, 166]",166,l,0.15867948392406106,1,colour,0.5,3.8
71,23,0,1,15,16,716,1068.3303991858847,1069.0536027392372,"[45, 0, 209]",209,a,0.2065230233129114,1,colour,0.5,3.8
71,23,0,1,15,17,717,1069.5633287490346,1070.3416615859605,"[47, 0, 207]",207,a,0.2621548536699265,1,colour,0.5,3.8
71,23,0,1,15,18,718,1070.850683794124,1071.3816498809028,"[41, 0, 213]",213,a,0.01379325008019805,1,colour,0.5,3.8
71,23,0,1,15,19,719,1071.8907028089743,1072.6377210062928,"[21, 0, 233]",233,a,0.23017776594497263,1,colour,0.5,3.8
71,23,0,1,15,20,720,1073.146784961922,1073.789635409601,"[81, 0, 173]",173,l,0.12656297511421144,1,colour,0.5,3.8
71,23,0,1,15,21,721,1074.300292469561,1075.0616344264708,"[75, 0, 179]",179,l,0.2443719506263733,1,colour,0.5,3.8
71,23,0,1,15,22,722,1075.5715549958404,1076.2936392407864,"[28, 0, 226]",226,a,0.2039181306026876,1,colour,0.5,3.8
71,23,0,1,15,23,723,1076.8032029862516,1077.9176181969233,"[67, 0, 187]",187,l,0.5967205290216953,1,colour,0.5,3.8
71,23,0,1,15,24,724,1078.4266790018883,1079.141626376193,"[96, 0, 158]",158,l,0.1977705992758274,1,colour,0.5,3.8
71,23,0,1,15,25,725,1079.6512232047971,1082.9256553978194,"[82, 0, 172]",172,l,2.757512598996982,1,colour,0.5,3.8
71,23,0,1,15,26,726,1083.4345594525803,1084.1096146302298,"[44, 0, 210]",210,a,0.1581580329220742,1,colour,0.5,3.8
71,23,0,1,15,27,727,1084.6180783656891,1085.7336061892565,"[69, 0, 185]",185,a,0.5981923288200051,0,colour,0.5,3.8
71,23,0,1,15,28,728,1086.242605948355,1086.8696021530777,"[95, 0, 159]",159,l,0.11018452420830727,1,colour,0.5,3.8
71,23,0,1,15,29,729,1087.3785337768495,1088.221625021426,"[64, 0, 190]",190,a,0.3251653756015003,0,colour,0.5,3.8
71,23,0,1,15,30,730,1088.7298512682319,1089.557655801298,"[57, 0, 197]",197,a,0.31029220181517303,0,colour,0.5,3.8
71,23,0,1,15,31,731,1090.0667126677,1090.6535843072925,"[77, 0, 177]",177,l,0.07036912767216563,1,colour,0.5,3.8
71,23,0,1,15,32,732,1091.1628034380265,1091.8376097055152,"[38, 0, 216]",216,a,0.15789927635341883,1,colour,0.5,3.8
71,23,0,1,15,33,733,1092.3471025589388,1093.1096240824554,"[49, 0, 205]",205,a,0.24611432221718132,1,colour,0.5,3.8
71,23,0,1,15,34,734,1093.6186112384312,1094.4136214547325,"[14, 0, 240]",240,a,0.2784502028953284,1,colour,0.5,3.8
71,23,0,1,15,35,735,1094.9227511826903,1095.7896050834097,"[56, 0, 198]",198,a,0.35004615876823664,0,colour,0.5,3.8
71,23,0,1,15,36,736,1096.2986855807249,1097.0136097180657,"[48, 0, 206]",206,a,0.19844328705221415,1,colour,0.5,3.8
71,23,0,1,15,37,737,1097.5222624994349,1098.3415635186248,"[4, 0, 250]",250,a,0.300513023044914,1,colour,0.5,3.8
71,23,0,1,15,38,738,1098.850581000559,1099.5335434104782,"[51, 0, 203]",203,a,0.16609952948056161,0,colour,0.5,3.8
71,23,0,1,15,39,739,1100.0427282766905,1100.7977584688924,"[76, 0, 178]",178,l,0.23770493757911026,1,colour,0.5,3.8
71,23,0,1,15,40,740,1101.3069799626246,1101.9975869099144,"[83, 0, 171]",171,l,0.17348294728435576,1,colour,0.5,3.8
71,23,0,1,15,41,741,1102.5066370810382,1103.1895671954844,"[73, 0, 181]",181,l,0.1658537699840963,1,colour,0.5,3.8
71,23,0,1,15,42,742,1103.6983739703428,1104.3096049416345,"[97, 0, 157]",157,l,0.09497697581537068,1,colour,0.5,3.8
71,23,0,1,15,43,743,1104.81854011002,1105.4695904166438,"[36, 0, 218]",218,a,0.13477661879733205,1,colour,0.5,3.8
71,23,0,1,15,44,744,1105.9786445263308,1106.6696153862868,"[23, 0, 231]",231,a,0.17423991789110005,1,colour,0.5,3.8
71,23,0,1,15,45,745,1107.1790145044215,1108.1496521558147,"[93, 0, 161]",161,l,0.45399493048898876,1,colour,0.5,3.8
71,23,0,1,15,46,746,1108.6587547084782,1109.2935553516727,"[16, 0, 238]",238,a,0.11854310310445726,1,colour,0.5,3.8
71,23,0,1,15,47,747,1109.8028690053616,1110.4776709405705,"[3, 0, 251]",251,a,0.1588582897093147,1,colour,0.5,3.8
71,23,0,1,15,48,748,1110.9867711302359,1111.5815318848472,"[7, 0, 247]",247,a,0.07794710504822433,1,colour,0.5,3.8
71,23,0,1,15,49,749,1112.0906017483212,1112.8695537101012,"[6, 0, 248]",248,a,0.2619681709911674,1,colour,0.5,3.8
71,23,0,1,15,50,750,1113.3786188475788,1114.0135392199736,"[10, 0, 244]",244,a,0.11794760916382074,1,colour,0.5,3.8
71,23,0,1,16,1,751,1119.2898374521174,1120.2455432466231,"[61, 0, 193]",193,a,0.4383041337132454,0,colour,0.5,3.8
71,23,0,1,16,2,752,1120.7560912114568,1121.3975494157057,"[39, 0, 215]",215,a,0.12427827855572104,1,colour,0.5,3.8
71,23,0,1,16,3,753,1121.9063321659341,1122.485542726703,"[94, 0, 160]",160,l,0.06237682490609586,1,colour,0.5,3.8
71,23,0,1,16,4,754,1122.9946488237474,1123.6855216166005,"[73, 0, 181]",181,l,0.1742659118026495,1,colour,0.5,3.8
71,23,0,1,16,5,755,1124.1944835663307,1124.9495925277006,"[38, 0, 216]",216,a,0.23739970731548965,1,colour,0.5,3.8
71,23,0,1,16,6,756,1125.4587131971493,1126.669523226563,"[86, 0, 168]",168,l,0.6951074174139649,1,colour,0.5,3.8
71,23,0,1,16,7,757,1127.178530862555,1127.8854875096586,"[3, 0, 251]",251,a,0.1903596124611795,1,colour,0.5,3.8
71,23,0,1,16,8,758,1128.394522320712,1129.1496852387208,"[16, 0, 238]",238,a,0.23872342123650014,1,colour,0.5,3.8
71,23,0,1,16,9,759,1129.6587535268627,1130.4135139349382,"[43, 0, 211]",211,a,0.23758087609894574,1,colour,0.5,3.8
71,23,0,1,16,10,760,1130.9224550109357,1131.549505960429,"[27, 0, 227]",227,a,0.10818418418057263,1,colour,0.5,3.8
71,23,0,1,16,11,761,1132.0593721789774,1132.757529140683,"[52, 0, 202]",202,a,0.18180056638084352,0,colour,0.5,3.8
71,23,0,1,16,12,762,1133.2674989404622,1133.9495421154425,"[67, 0, 187]",187,l,0.16498219035565853,1,colour,0.5,3.8
71,23,0,1,16,13,763,1134.458844347624,1135.2695386654232,"[1, 0, 253]",253,a,0.29358961642719805,1,colour,0.5,3.8
71,23,0,1,16,14,764,1135.7787830021698,1136.5975365764461,"[49, 0, 205]",205,a,0.30120619060471654,1,colour,0.5,3.8
71,23,0,1,16,15,765,1137.1065438184887,1138.1015254415106,"[98, 0, 156]",156,l,0.4780151613522321,1,colour,0.5,3.8
71,23,0,1,16,16,766,1138.6106161787175,1139.32551707956,"[57, 0, 197]",197,a,0.1974842739291489,0,colour,0.5,3.8
71,23,0,1,16,17,767,1139.8345164444763,1140.6295168148354,"[13, 0, 241]",241,a,0.2779523825738579,1,colour,0.5,3.8
71,23,0,1,16,18,768,1141.1381479345728,1141.885565096978,"[83, 0, 171]",171,l,0.230508595937863,1,colour,0.5,3.8
71,23,0,1,16,19,769,1142.3945605237968,1143.901490231743,"[29, 0, 225]",225,a,0.9903354300186038,1,colour,0.5,3.8
71,23,0,1,16,20,770,1144.410946457414,1145.1414924687706,"[47, 0, 207]",207,a,0.21401514252647758,1,colour,0.5,3.8
71,23,0,1,16,21,771,1145.6505024677608,1146.2534823801834,"[79, 0, 175]",175,l,0.08524230169132352,1,colour,0.5,3.8
71,23,0,1,16,22,772,1146.762799578486,1147.4054936692119,"[54, 0, 200]",200,a,0.12534599308855832,0,colour,0.5,3.8
71,23,0,1,16,23,773,1147.9145765295252,1148.5654996242374,"[80, 0, 174]",174,l,0.13420396787114441,1,colour,0.5,3.8
71,23,0,1,16,24,774,1149.074514349224,1149.749462007312,"[55, 0, 199]",199,a,0.15849792142398655,0,colour,0.5,3.8
71,23,0,1,16,25,775,1150.2585007569287,1150.9175224923529,"[5, 0, 249]",249,a,0.14212971040979028,1,colour,0.5,3.8
71,23,0,1,16,26,776,1151.426666792715,1152.189482912654,"[65, 0, 189]",189,l,0.2461387407965958,1,colour,0.5,3.8
71,23,0,1,16,27,777,1152.698366487166,1153.293442318216,"[6, 0, 248]",248,a,0.07812000322155654,1,colour,0.5,3.8
71,23,0,1,16,28,778,1153.803470407147,1154.3814419305418,"[84, 0, 170]",170,l,0.061886881245300174,1,colour,0.5,3.8
71,23,0,1,16,29,779,1154.890455080429,1155.7894207637291,"[9, 0, 245]",245,a,0.38188224961049855,1,colour,0.5,3.8
71,23,0,1,16,30,780,1156.298179095611,1157.1334922893438,"[63, 0, 191]",191,l,0.31917262566275895,1,colour,0.5,3.8
71,23,0,1,16,31,781,1157.6424715681933,1158.3574536009692,"[46, 0, 208]",208,a,0.19803841412067413,1,colour,0.5,3.8
71,23,0,1,16,32,782,1158.8665439444594,1159.5254364986904,"[8, 0, 246]",246,a,0.1424688114784658,1,colour,0.5,3.8
71,23,0,1,16,33,783,1160.0345268421806,1160.861416472355,"[21, 0, 233]",233,a,0.3105875856708735,1,colour,0.5,3.8
71,23,0,1,16,34,784,1161.3701996165328,1162.3894519563764,"[42, 0, 212]",212,a,0.502371342619881,1,colour,0.5,3.8
71,23,0,1,16,35,785,1162.8986179181375,1163.4854202407878,"[85, 0, 169]",169,l,0.0702293124049902,1,colour,0.5,3.8
71,23,0,1,16,36,786,1163.9945346086752,1164.629509725608,"[11, 0, 243]",243,a,0.11816383013501763,1,colour,0.5,3.8
71,23,0,1,16,37,787,1165.1381144577172,1165.7494643703103,"[7, 0, 247]",247,a,0.09479108080267906,1,colour,0.5,3.8
71,23,0,1,16,38,788,1166.258307378972,1166.877425890183,"[2, 0, 252]",252,a,0.10129346675239503,1,colour,0.5,3.8
71,23,0,1,16,39,789,1167.3865780672058,1168.3334278562106,"[51, 0, 203]",203,a,0.42918425193056464,0,colour,0.5,3.8
71,23,0,1,16,40,790,1168.8427848329302,1169.4694316969253,"[50, 0, 204]",204,a,0.11046297289431095,1,colour,0.5,3.8
71,23,0,1,16,41,791,1169.9784223975148,1170.6295278423931,"[97, 0, 157]",157,l,0.1344812347088009,1,colour,0.5,3.8
71,23,0,1,16,42,792,1171.1385193306487,1171.7574401316233,"[81, 0, 173]",173,l,0.09972123638726771,1,colour,0.5,3.8
71,23,0,1,16,43,793,1172.2662394233048,1173.0453780677635,"[72, 0, 182]",182,l,0.26231239177286625,1,colour,0.5,3.8
71,23,0,1,16,44,794,1173.5551044712774,1174.3014259561896,"[64, 0, 190]",190,a,0.2274043073412031,0,colour,0.5,3.8
71,23,0,1,16,45,795,1174.8105131487828,1175.397458043648,"[24, 0, 230]",230,a,0.07073461613617837,1,colour,0.5,3.8
71,23,0,1,16,46,796,1175.9065062454902,1176.517423716141,"[36, 0, 218]",218,a,0.09381158766336739,1,colour,0.5,3.8
71,23,0,1,16,47,797,1177.0263706997503,1177.677419431042,"[4, 0, 250]",250,a,0.13520000246353447,1,colour,0.5,3.8
71,23,0,1,16,48,798,1178.1864467591513,1178.8854343404528,"[45, 0, 209]",209,a,0.18269971502013505,1,colour,0.5,3.8
71,23,0,1,16,49,799,1179.3945581605658,1180.0053960743826,"[70, 0, 184]",184,l,0.0943354016635567,1,colour,0.5,3.8
71,23,0,1,16,50,800,1180.5142764982302,1181.085392750334,"[75, 0, 179]",179,l,0.055126526625826955,1,colour,0.5,3.8
