id,age,condition,counterbalance,block,trialinblock,trial,tstart,tend,trialstim,trialintensity,response,RT,accuracy,trialtype,colourfreq,credits
38,22,1,1,Practice,1,NA,5.907728336751461e-06,0.7334845961304381,"[74, 0, 180]",180,a,0.11527256644330919,0,colour,0.5,4
38,22,1,1,Practice,2,NA,1.2509447360644117,2.5656652103643864,"[20, 0, 234]",234,a,0.7917303546564654,1,colour,0.5,4
38,22,1,1,Practice,3,NA,3.0790911944350228,4.013494316255674,"[91, 0, 163]",163,l,0.41094038798473775,1,colour,0.5,4
38,22,1,1,Practice,4,NA,4.532342760358006,6.029481672216207,"[60, 0, 194]",194,a,0.9737261964473873,0,colour,0.5,4
38,22,1,1,Practice,5,NA,6.548484503640793,7.573510211892426,"[6, 0, 248]",248,a,0.5020162903238088,1,colour,0.5,4
38,22,1,1,Practice,6,NA,8.079467316623777,8.99746403109748,"[36, 0, 218]",218,a,0.39457060827407986,1,colour,0.5,4
38,22,1,1,Practice,7,NA,9.517130097723566,10.12546842964366,"[75, 0, 179]",179,l,0.08499808399938047,1,colour,0.5,4
38,22,1,1,Practice,8,NA,10.642190109821968,11.525475676287897,"[48, 0, 206]",206,a,0.3599019955145195,1,colour,0.5,4
38,22,1,1,Practice,9,NA,12.032932543428615,12.989495362271555,"[25, 0, 229]",229,a,0.43323478009551764,1,colour,0.5,4
38,22,1,1,Practice,10,NA,13.501827244530432,14.485486609512009,"[95, 0, 159]",159,l,0.4592344674747437,1,colour,0.5,4
38,22,1,1,1,1,1,4.590449885348789,5.815959314117208,"[42, 0, 212]",212,a,0.7014307212084532,1,colour,0.5,4.0
38,22,1,1,1,2,2,6.327140774810687,7.207948267576285,"[96, 0, 158]",158,l,0.35762872139457613,1,colour,0.5,4.0
38,22,1,1,1,3,3,7.717764267115854,8.575938267051242,"[16, 0, 238]",238,a,0.3348333581816405,1,colour,0.5,4.0
38,22,1,1,1,4,4,9.092850568355061,9.959946736344136,"[31, 0, 223]",223,a,0.3436633663950488,1,colour,0.5,4.0
38,22,1,1,1,5,5,10.46796680195257,11.31988457182888,"[98, 0, 156]",156,l,0.32861296797636896,1,colour,0.5,4.0
38,22,1,1,1,6,6,11.828582444926724,12.695892864605412,"[23, 0, 231]",231,a,0.3441659128293395,1,colour,0.5,4.0
38,22,1,1,1,7,7,13.203823527437635,14.048015630920418,"[20, 0, 234]",234,a,0.32225197507068515,1,colour,0.5,4.0
38,22,1,1,1,8,8,14.56193589058239,15.663926423410885,"[48, 0, 206]",206,a,0.5786943954881281,1,colour,0.5,4.0
38,22,1,1,1,9,9,16.171429764130153,17.383874955703504,"[22, 0, 232]",232,a,0.6894960318459198,1,colour,0.5,4.0
38,22,1,1,1,10,10,17.890364145278,19.87193534313701,"[58, 0, 196]",196,a,1.4583313805051148,0,colour,0.5,4.0
38,22,1,1,1,11,11,20.390461228089407,21.23986744740978,"[54, 0, 200]",200,a,0.3260959036415443,0,colour,0.5,4.0
38,22,1,1,1,12,12,21.749972135410644,22.583886062144302,"[90, 0, 164]",164,l,0.3105413834564388,1,colour,0.5,4.0
38,22,1,1,1,13,13,23.093884411850013,24.007887142826803,"[13, 0, 241]",241,a,0.38908789004199207,1,colour,0.5,4.0
38,22,1,1,1,14,14,24.517503856681287,27.43188507272862,"[68, 0, 186]",186,a,2.3910965003306046,0,colour,0.5,4.0
38,22,1,1,1,15,15,27.93959754530806,28.77588399522938,"[43, 0, 211]",211,a,0.31298479880206287,1,colour,0.5,4.0
38,22,1,1,1,16,16,29.283458621939644,30.04786675737705,"[89, 0, 165]",165,l,0.24100447841919959,1,colour,0.5,4.0
38,22,1,1,1,17,17,30.56488618464209,31.61588086024858,"[93, 0, 161]",161,l,0.5277820335468277,1,colour,0.5,4.0
38,22,1,1,1,18,18,32.12976764317136,33.015872353105806,"[35, 0, 219]",219,a,0.3627825789153576,1,colour,0.5,4.0
38,22,1,1,1,19,19,33.53616305813193,34.41587763070129,"[52, 0, 202]",202,a,0.3562337219482288,0,colour,0.5,4.0
38,22,1,1,1,20,20,34.93159697507508,35.799847109243274,"[80, 0, 174]",174,l,0.3451922732638195,1,colour,0.5,4.0
38,22,1,1,1,21,21,36.306771497707814,37.13590138743166,"[8, 0, 246]",246,a,0.30581209098454565,1,colour,0.5,4.0
38,22,1,1,1,22,22,37.65052308537997,38.455826919176616,"[71, 0, 183]",183,l,0.281892693717964,1,colour,0.5,4.0
38,22,1,1,1,23,23,38.96317626652308,39.727817558217794,"[46, 0, 208]",208,a,0.24133058218285441,1,colour,0.5,4.0
38,22,1,1,1,24,24,40.24447346641682,41.08789363340475,"[15, 0, 239]",239,a,0.3198550335364416,1,colour,0.5,4.0
38,22,1,1,1,25,25,41.603981616790406,42.42385890253354,"[17, 0, 237]",237,a,0.2966429821681231,1,colour,0.5,4.0
38,22,1,1,1,26,26,42.93225390871521,43.79988334304653,"[62, 0, 192]",192,l,0.34464758541435003,1,colour,0.5,4.0
38,22,1,1,1,27,27,44.307339422404766,45.04784509597812,"[51, 0, 203]",203,a,0.21706420741975307,0,colour,0.5,4.0
38,22,1,1,1,28,28,45.55744920670986,46.29600416519679,"[76, 0, 178]",178,l,0.2151981689967215,1,colour,0.5,4.0
38,22,1,1,1,29,29,46.807479828130454,47.74386280949693,"[78, 0, 176]",176,l,0.41292379214428365,1,colour,0.5,4.0
38,22,1,1,1,30,30,48.26073848316446,49.05595988128334,"[37, 0, 217]",217,a,0.2705105689819902,1,colour,0.5,4.0
38,22,1,1,1,31,31,49.57466772268526,50.41583194467239,"[18, 0, 236]",236,a,0.31813235487788916,1,colour,0.5,4.0
38,22,1,1,1,32,32,50.93401872890536,51.767788114375435,"[14, 0, 240]",240,a,0.31050711893476546,1,colour,0.5,4.0
38,22,1,1,1,33,33,52.27782860561274,53.07981586945243,"[0, 0, 254]",254,a,0.27867182809859514,1,colour,0.5,4.0
38,22,1,1,1,34,34,53.590360876289196,54.55180501192808,"[49, 0, 205]",205,a,0.43804953701328486,1,colour,0.5,4.0
38,22,1,1,1,35,35,55.05926739284769,56.015831393306144,"[55, 0, 199]",199,a,0.433124897419475,0,colour,0.5,4.0
38,22,1,1,1,36,36,56.52806993422564,57.39978629956022,"[12, 0, 242]",242,a,0.3482083393028006,1,colour,0.5,4.0
38,22,1,1,1,37,37,57.91886081069242,58.759796996368095,"[73, 0, 181]",181,l,0.3175435563316569,1,colour,0.5,4.0
38,22,1,1,1,38,38,59.27823859837372,60.19987759285141,"[97, 0, 157]",157,l,0.39821800822392106,1,colour,0.5,4.0
38,22,1,1,1,39,39,60.715978967025876,61.83177377213724,"[85, 0, 169]",169,l,0.5924124157754704,1,colour,0.5,4.0
38,22,1,1,1,40,40,62.34105335455388,63.13575251400471,"[56, 0, 198]",198,a,0.2713569422485307,0,colour,0.5,4.0
38,22,1,1,1,41,41,63.6537289848784,64.63978017133195,"[82, 0, 172]",172,l,0.46281333826482296,1,colour,0.5,4.0
38,22,1,1,1,42,42,65.15388829517178,66.07179796998389,"[63, 0, 191]",191,a,0.39349541114643216,0,colour,0.5,4.0
38,22,1,1,1,43,43,66.59276333171874,67.559757926967,"[11, 0, 243]",243,a,0.44350153545383364,1,colour,0.5,4.0
38,22,1,1,1,44,44,68.07728344516363,68.91174599819351,"[81, 0, 173]",173,l,0.311142391175963,1,colour,0.5,4.0
38,22,1,1,1,45,45,69.42114018951543,70.25574137596413,"[21, 0, 233]",233,a,0.31122864317148924,1,colour,0.5,4.0
38,22,1,1,1,46,46,70.7649421893293,71.6077700132737,"[30, 0, 224]",224,a,0.3194166838657111,1,colour,0.5,4.0
38,22,1,1,1,47,47,72.12449287506752,73.98376530921087,"[67, 0, 187]",187,l,1.3359109185403213,1,colour,0.5,4.0
38,22,1,1,1,48,48,74.50092612684239,75.28773302328773,"[7, 0, 247]",247,a,0.2633288027718663,1,colour,0.5,4.0
38,22,1,1,1,49,49,75.79795625875704,76.82372712192591,"[66, 0, 188]",188,l,0.5023219139548019,1,colour,0.5,4.0
38,22,1,1,1,50,50,77.34491146157961,78.23180386191234,"[38, 0, 216]",216,a,0.3635714508127421,1,colour,0.5,4.0
38,22,1,1,2,1,51,118.19624358369038,119.24768881814089,"[68, 0, 186]",186,l,0.527460261946544,1,colour,0.5,4.0
38,22,1,1,2,2,52,119.75968120596372,121.9516169114504,"[0, 0, 254]",254,a,1.6689751242520288,1,colour,0.5,4.0
38,22,1,1,2,3,53,122.46296299935784,123.27159088617191,"[24, 0, 230]",230,a,0.28524352819658816,1,colour,0.5,4.0
38,22,1,1,2,4,54,123.79115455306601,124.57564367086161,"[57, 0, 197]",197,l,0.261035836301744,1,colour,0.5,4.0
38,22,1,1,2,5,55,125.08817956491839,125.99964475166053,"[45, 0, 209]",209,a,0.38682997587602586,1,colour,0.5,4.0
38,22,1,1,2,6,56,126.51139413693454,127.25565276085399,"[87, 0, 167]",167,l,0.22072381642647088,1,colour,0.5,4.0
38,22,1,1,2,7,57,127.76165830856189,128.6076219275128,"[92, 0, 162]",162,l,0.3237867895513773,1,colour,0.5,4.0
38,22,1,1,2,8,58,129.11997586512007,130.0236244071275,"[86, 0, 168]",168,l,0.38037091540172696,1,colour,0.5,4.0
38,22,1,1,2,9,59,130.54199905553833,131.11158696352504,"[53, 0, 201]",201,a,0.04626105085480958,0,colour,0.5,4.0
38,22,1,1,2,10,60,131.62024111987557,132.34366572939325,"[11, 0, 243]",243,a,0.20014186308253556,1,colour,0.5,4.0
38,22,1,1,2,11,61,132.8547266733367,133.67956050031353,"[13, 0, 241]",241,a,0.30189687642268836,1,colour,0.5,4.0
38,22,1,1,2,12,62,134.19856845156755,135.0955527399201,"[95, 0, 159]",159,l,0.37360308051574975,1,colour,0.5,4.0
38,22,1,1,2,13,63,135.60493747901637,136.41558067139704,"[26, 0, 228]",228,a,0.2875534299528226,1,colour,0.5,4.0
38,22,1,1,2,14,64,136.93313927261624,137.72759779263288,"[91, 0, 163]",163,l,0.2715207817964256,1,colour,0.5,4.0
38,22,1,1,2,15,65,138.24571329087485,139.12764875625726,"[65, 0, 189]",189,l,0.357362482114695,1,colour,0.5,4.0
38,22,1,1,2,16,66,139.6377018505009,140.47159332805313,"[35, 0, 219]",219,a,0.31054926034994423,1,colour,0.5,4.0
38,22,1,1,2,17,67,140.98120846645907,141.85556516970973,"[43, 0, 211]",211,a,0.3508553726132959,1,colour,0.5,4.0
38,22,1,1,2,18,68,142.37216515187174,143.15956439147703,"[93, 0, 161]",161,l,0.2690816988470033,1,colour,0.5,4.0
38,22,1,1,2,19,69,143.66961748572066,144.5996099356562,"[44, 0, 210]",210,a,0.40669473726302385,1,colour,0.5,4.0
38,22,1,1,2,20,70,145.10726136225276,145.8875832046615,"[88, 0, 166]",166,l,0.25710092950612307,1,colour,0.5,4.0
38,22,1,1,2,21,71,146.39895489241462,147.29558353859466,"[98, 0, 156]",156,l,0.37330336426384747,1,colour,0.5,4.0
38,22,1,1,2,22,72,147.80525460315403,148.711557661416,"[27, 0, 227]",227,a,0.38320541894063354,1,colour,0.5,4.0
38,22,1,1,2,23,73,149.23303580947686,150.2156026479788,"[42, 0, 212]",212,a,0.4592580981552601,1,colour,0.5,4.0
38,22,1,1,2,24,74,150.73323607980274,151.55168646457605,"[80, 0, 174]",174,l,0.29584780882578343,1,colour,0.5,4.0
38,22,1,1,2,25,75,152.06129018147476,152.93555039260536,"[61, 0, 193]",193,l,0.3494942437391728,1,colour,0.5,4.0
38,22,1,1,2,26,76,153.45236659573857,154.29558550787624,"[17, 0, 237]",237,a,0.32000193768180907,1,colour,0.5,4.0
38,22,1,1,2,27,77,154.81170106050558,155.62352815142367,"[90, 0, 164]",164,l,0.28865422727540135,1,colour,0.5,4.0
38,22,1,1,2,28,78,156.13999068154953,157.00760672509205,"[70, 0, 184]",184,l,0.3443242384819314,1,colour,0.5,4.0
38,22,1,1,2,29,79,157.51528887159657,158.4875519333873,"[97, 0, 157]",157,l,0.4490917734801769,1,colour,0.5,4.0
38,22,1,1,2,30,80,159.0008873330662,159.91952089522965,"[77, 0, 177]",177,l,0.39527992345392704,1,colour,0.5,4.0
38,22,1,1,2,31,81,160.4385489326669,161.29553548956756,"[18, 0, 236]",236,a,0.33395665895659477,1,colour,0.5,4.0
38,22,1,1,2,32,82,161.81366044003516,162.66348177217878,"[33, 0, 221]",221,a,0.32688438158947974,1,colour,0.5,4.0
38,22,1,1,2,33,83,163.1731276306091,163.96751959074754,"[28, 0, 226]",226,a,0.2710847952403128,1,colour,0.5,4.0
38,22,1,1,2,34,84,164.4857351257233,165.3115185132483,"[22, 0, 232]",232,a,0.30243801965843886,1,colour,0.5,4.0
38,22,1,1,2,35,85,165.82955799938645,166.64755270525347,"[76, 0, 178]",178,l,0.2949868632713333,1,colour,0.5,4.0
38,22,1,1,2,36,86,167.15771213779226,168.05552074394654,"[30, 0, 224]",224,a,0.3740969622740522,1,colour,0.5,4.0
38,22,1,1,2,37,87,168.56447776721325,169.4714936852688,"[36, 0, 218]",218,a,0.38366109784692526,1,colour,0.5,4.0
38,22,1,1,2,38,88,169.98650686524343,170.8714737566188,"[6, 0, 248]",248,a,0.36164082179311663,1,colour,0.5,4.0
38,22,1,1,2,39,89,171.39284517266788,172.22360243054572,"[81, 0, 173]",173,l,0.30737959453836083,1,colour,0.5,4.0
38,22,1,1,2,40,90,172.73670821858104,173.65553437103517,"[49, 0, 205]",205,l,0.396181435091421,0,colour,0.5,4.0
38,22,1,1,2,41,91,174.17436233512126,175.11951427860186,"[74, 0, 180]",180,l,0.4219652950996533,1,colour,0.5,4.0
38,22,1,1,2,42,92,175.62753158726264,176.51149574900046,"[8, 0, 246]",246,a,0.36062194453552365,1,colour,0.5,4.0
38,22,1,1,2,43,93,177.01959458366036,177.90350281924475,"[9, 0, 245]",245,a,0.3606113106943667,1,colour,0.5,4.0
38,22,1,1,2,44,94,178.41020468517672,179.36754534824286,"[71, 0, 183]",183,l,0.4339661506237462,1,colour,0.5,4.0
38,22,1,1,2,45,95,179.87913286325056,180.86347830633167,"[21, 0, 233]",233,a,0.46117218548897654,1,colour,0.5,4.0
38,22,1,1,2,46,96,181.37921497994103,182.32755628135055,"[4, 0, 250]",250,a,0.4250187765574083,1,colour,0.5,4.0
38,22,1,1,2,47,97,182.84813725028653,183.72744891920593,"[50, 0, 204]",204,l,0.3563967738300562,0,colour,0.5,4.0
38,22,1,1,2,48,98,184.23888480383903,185.16744641435798,"[67, 0, 187]",187,l,0.40576408128254116,1,colour,0.5,4.0
38,22,1,1,2,49,99,185.67675120278727,186.59949650836643,"[69, 0, 185]",185,l,0.3993928483687341,1,colour,0.5,4.0
38,22,1,1,2,50,100,187.11430685804226,188.12741047993768,"[47, 0, 207]",207,l,0.4898055153898895,0,colour,0.5,4.0
38,22,1,1,3,1,101,194.59967925248202,195.46344349044375,"[51, 0, 203]",203,l,0.339595339843072,1,colour,0.5,4.0
38,22,1,1,3,2,102,195.9778395150788,196.70341727614868,"[89, 0, 165]",165,l,0.20225208532065153,1,colour,0.5,4.0
38,22,1,1,3,3,103,197.21243967767805,198.17543477541767,"[53, 0, 201]",201,l,0.4397911202395335,1,colour,0.5,4.0
38,22,1,1,3,4,104,198.69681367452722,199.9913806989789,"[44, 0, 210]",210,l,0.7712122042430565,0,colour,0.5,4.0
38,22,1,1,3,5,105,200.51103849476203,201.33540285821073,"[95, 0, 159]",159,l,0.3009032050613314,1,colour,0.5,4.0
38,22,1,1,3,6,106,201.85492202057503,202.6554646603763,"[98, 0, 156]",156,l,0.2776533445576206,1,colour,0.5,4.0
38,22,1,1,3,7,107,203.16748816194013,203.91142107592896,"[64, 0, 190]",190,l,0.22052571235690266,1,colour,0.5,4.0
38,22,1,1,3,8,108,204.417673564516,205.19941994477995,"[38, 0, 216]",216,a,0.25846678449306637,1,colour,0.5,4.0
38,22,1,1,3,9,109,205.71462295821402,206.56739143352024,"[36, 0, 218]",218,a,0.3294278335524723,1,colour,0.5,4.0
38,22,1,1,3,10,110,207.07416537310928,207.911430528271,"[90, 0, 164]",164,l,0.3143668014090508,1,colour,0.5,4.0
38,22,1,1,3,11,111,208.4179398039123,209.32738377724309,"[86, 0, 168]",168,l,0.38608442700933665,1,colour,0.5,4.0
38,22,1,1,3,12,112,209.8405998419039,210.8234104705043,"[70, 0, 184]",184,l,0.4593738886760548,1,colour,0.5,4.0
38,22,1,1,3,13,113,211.34071228466928,212.3114295041887,"[96, 0, 158]",158,l,0.4474076915066689,1,colour,0.5,4.0
38,22,1,1,3,14,114,212.82522845966741,213.7834470035741,"[13, 0, 241]",241,a,0.43484166834969074,1,colour,0.5,4.0
38,22,1,1,3,15,115,214.2941641206853,215.2633918179199,"[34, 0, 220]",220,a,0.44589296309277415,1,colour,0.5,4.0
38,22,1,1,3,16,116,215.77863579127006,216.85538912087213,"[8, 0, 246]",246,a,0.5535824351245537,1,colour,0.5,4.0
38,22,1,1,3,17,117,217.37252867093775,218.4234193713637,"[31, 0, 223]",223,a,0.5324880891712382,1,colour,0.5,4.0
38,22,1,1,3,18,118,218.93568941997364,219.9354113652371,"[30, 0, 224]",224,a,0.4764069034717977,1,colour,0.5,4.0
38,22,1,1,3,19,119,220.45146784116514,221.44736397464294,"[10, 0, 244]",244,a,0.4725999962538481,1,colour,0.5,4.0
38,22,1,1,3,20,120,221.96288994105998,222.7033794670133,"[40, 0, 214]",214,a,0.21718826866708696,1,colour,0.5,4.0
38,22,1,1,3,21,121,223.21299578703474,223.80739200068638,"[7, 0, 247]",247,a,0.06681937351822853,1,colour,0.5,4.0
38,22,1,1,3,22,122,224.32682924321853,225.18337075517047,"[82, 0, 172]",172,l,0.3333359590033069,1,colour,0.5,4.0
38,22,1,1,3,23,123,225.7018371693557,226.57537113002036,"[3, 0, 251]",251,a,0.3501795342890546,1,colour,0.5,4.0
38,22,1,1,3,24,124,227.0925933874678,227.9273426597938,"[50, 0, 204]",204,l,0.3101109106792137,0,colour,0.5,4.0
38,22,1,1,3,25,125,228.43775060854387,229.47135032562073,"[39, 0, 215]",215,l,0.5104433948872611,0,colour,0.5,4.0
38,22,1,1,3,26,126,229.98468690679874,230.90337875811383,"[12, 0, 242]",242,a,0.39571079006418586,1,colour,0.5,4.0
38,22,1,1,3,27,127,231.42229612497613,232.4073630925268,"[72, 0, 182]",182,l,0.4619043436832726,1,colour,0.5,4.0
38,22,1,1,3,28,128,232.92239360173699,233.87939949636348,"[62, 0, 192]",192,l,0.4342111222213134,1,colour,0.5,4.0
38,22,1,1,3,29,129,234.39125009987038,235.36737599479966,"[35, 0, 219]",219,a,0.45281597308348864,1,colour,0.5,4.0
38,22,1,1,3,30,130,235.87575012724847,236.60743642644957,"[57, 0, 197]",197,l,0.2063429548870772,1,colour,0.5,4.0
38,22,1,1,3,31,131,237.12771767913364,238.00739247328602,"[59, 0, 195]",195,l,0.3562498694518581,1,colour,0.5,4.0
38,22,1,1,3,32,132,238.5185128878802,239.31931585946586,"[49, 0, 205]",205,l,0.27750644041225314,0,colour,0.5,4.0
38,22,1,1,3,33,133,239.831169219804,240.7593468313571,"[21, 0, 233]",233,a,0.4051370797678828,1,colour,0.5,4.0
38,22,1,1,3,34,134,241.2707669622032,242.3433506533038,"[6, 0, 248]",248,a,0.5493608090328053,1,colour,0.5,4.0
38,22,1,1,3,35,135,242.86464920802973,243.83934544504154,"[32, 0, 222]",222,a,0.45206412265542895,1,colour,0.5,4.0
38,22,1,1,3,36,136,244.33878480654676,245.19931990816258,"[61, 0, 193]",193,l,0.3374772407114506,1,colour,0.5,4.0
38,22,1,1,3,37,137,245.71380100341048,246.7113256866578,"[41, 0, 213]",213,l,0.47407297720201313,0,colour,0.5,4.0
38,22,1,1,3,38,138,247.2296388951363,248.37535844824743,"[23, 0, 231]",231,a,0.6223946651443839,1,colour,0.5,4.0
38,22,1,1,3,39,139,248.89789603976533,249.91934327105992,"[0, 0, 254]",254,a,0.4961101884255186,1,colour,0.5,4.0
38,22,1,1,3,40,140,250.43139946169686,251.23139268753584,"[76, 0, 178]",178,l,0.27664628252387047,1,colour,0.5,4.0
38,22,1,1,3,41,141,251.7463011047803,253.64729237358551,"[80, 0, 174]",174,l,1.377660866943188,1,colour,0.5,4.0
38,22,1,1,3,42,142,254.1683404428186,255.02326522034127,"[4, 0, 250]",250,a,0.33292951073963195,1,colour,0.5,4.0
38,22,1,1,3,43,143,255.54209633520804,256.5993247918086,"[2, 0, 252]",252,a,0.5338066826807335,1,colour,0.5,4.0
38,22,1,1,3,44,144,257.1204067317303,258.0154095850885,"[1, 0, 253]",253,a,0.37178706051781774,1,colour,0.5,4.0
38,22,1,1,3,45,145,258.5288206030382,259.3272880729055,"[97, 0, 157]",157,l,0.27521741238888353,1,colour,0.5,4.0
38,22,1,1,3,46,146,259.84150017180946,260.6632431020262,"[94, 0, 160]",160,l,0.30016356392297894,1,colour,0.5,4.0
38,22,1,1,3,47,147,261.18382525246125,264.84729717858136,"[85, 0, 169]",169,l,3.1401824842905626,1,colour,0.5,4.0
38,22,1,1,3,48,148,265.3584683991503,266.0632420780603,"[92, 0, 162]",162,l,0.1815110184252262,1,colour,0.5,4.0
38,22,1,1,3,49,149,266.57726591906976,267.70326446415856,"[56, 0, 198]",198,l,0.6027918106410652,1,colour,0.5,4.0
38,22,1,1,3,50,150,268.2179712327197,269.7353344867006,"[68, 0, 186]",186,l,0.9940423044608906,1,colour,0.5,4.0
38,22,1,1,4,1,151,274.3426673319191,275.7513458672911,"[43, 0, 211]",211,l,0.8847073474898934,0,colour,0.5,4.0
38,22,1,1,4,2,152,276.26675840630196,277.0712418606272,"[19, 0, 235]",235,a,0.28160991286858916,1,colour,0.5,4.0
38,22,1,1,4,3,153,277.57937811058946,278.51927222136874,"[44, 0, 210]",210,l,0.4166168781230226,0,colour,0.5,4.0
38,22,1,1,4,4,154,279.03136267652735,279.86323057778645,"[64, 0, 190]",190,l,0.3085642808582634,1,colour,0.5,4.0
38,22,1,1,4,5,155,280.37526392540894,281.31928553339094,"[46, 0, 208]",208,l,0.413110080990009,0,colour,0.5,4.0
38,22,1,1,4,6,156,281.8373533763224,282.7032825810602,"[82, 0, 172]",172,l,0.34267442114651203,1,colour,0.5,4.0
38,22,1,1,4,7,157,283.212430619169,283.9272213554941,"[79, 0, 175]",175,l,0.19150011288002133,1,colour,0.5,4.0
38,22,1,1,4,8,158,284.4468929358991,285.24721108400263,"[39, 0, 215]",215,a,0.2769448171602562,1,colour,0.5,4.0
38,22,1,1,4,9,159,285.7596177968662,286.66321277595125,"[0, 0, 254]",254,a,0.3802503988845274,1,colour,0.5,4.0
38,22,1,1,4,10,160,287.18151377525646,288.0632322318852,"[72, 0, 182]",182,l,0.35838844859972596,1,colour,0.5,4.0
38,22,1,1,4,11,161,288.5724074454047,289.3432514043525,"[6, 0, 248]",248,a,0.24765258457046002,1,colour,0.5,4.0
38,22,1,1,4,12,162,289.85364399303216,290.67918280279264,"[25, 0, 229]",229,a,0.30250694253481925,1,colour,0.5,4.0
38,22,1,1,4,13,163,291.1973849469796,292.0071927938843,"[87, 0, 167]",167,l,0.28640379605349153,1,colour,0.5,4.0
38,22,1,1,4,14,164,292.5257698786445,293.3913414719282,"[3, 0, 251]",251,a,0.34232823131605983,1,colour,0.5,4.0
38,22,1,1,4,15,165,293.9021219982533,294.75120211381,"[16, 0, 238]",238,a,0.32579539983998984,1,colour,0.5,4.0
38,22,1,1,4,16,166,295.261569496477,296.1111631861422,"[80, 0, 174]",174,l,0.3263392999069765,1,colour,0.5,4.0
38,22,1,1,4,17,167,296.6211264836602,297.52720505034085,"[18, 0, 236]",236,a,0.383473627618514,1,colour,0.5,4.0
38,22,1,1,4,18,168,298.0429984375369,298.91117137810215,"[65, 0, 189]",189,l,0.3448307233629748,1,colour,0.5,4.0
38,22,1,1,4,19,169,299.4184368364513,300.3752312362194,"[85, 0, 169]",169,l,0.4337396895280108,1,colour,0.5,4.0
38,22,1,1,4,20,170,300.89787713519763,301.7831929734675,"[75, 0, 179]",179,l,0.36004377983044833,1,colour,0.5,4.0
38,22,1,1,4,21,171,302.29070576652884,303.16721522726584,"[84, 0, 170]",170,l,0.35320544661954045,1,colour,0.5,4.0
38,22,1,1,4,22,172,303.67021494882647,304.62315242318437,"[35, 0, 219]",219,a,0.4297606721520424,1,colour,0.5,4.0
38,22,1,1,4,23,173,305.13901118864305,306.1111092293868,"[94, 0, 160]",160,l,0.45211729186121374,1,colour,0.5,4.0
38,22,1,1,4,24,174,306.62027223361656,307.559149436187,"[81, 0, 173]",173,l,0.41565353283658624,1,colour,0.5,4.0
38,22,1,1,4,25,175,308.07347299333196,308.87126462487504,"[96, 0, 158]",158,l,0.2858744681579992,1,colour,0.5,4.0
38,22,1,1,4,26,176,309.39039388054516,310.3031252793735,"[7, 0, 247]",247,a,0.3894486522767693,1,colour,0.5,4.0
38,22,1,1,4,27,177,310.8123509049183,311.687158560846,"[93, 0, 161]",161,l,0.35507306025829166,1,colour,0.5,4.0
38,22,1,1,4,28,178,312.1992285361048,313.5671791509958,"[60, 0, 194]",194,l,0.8443279800703749,1,colour,0.5,4.0
38,22,1,1,4,29,179,314.0788761549629,315.0632231734926,"[58, 0, 196]",196,l,0.46152192004956305,1,colour,0.5,4.0
38,22,1,1,4,30,180,315.57908942212816,316.5591317132348,"[23, 0, 231]",231,a,0.45691905182320625,1,colour,0.5,4.0
38,22,1,1,4,31,181,317.07911482511554,317.96711708104704,"[67, 0, 187]",187,l,0.36482624139171094,1,colour,0.5,4.0
38,22,1,1,4,32,182,318.4854807017837,319.6551421012264,"[28, 0, 226]",226,l,0.6464357605436817,0,colour,0.5,4.0
38,22,1,1,4,33,183,320.17300238786265,322.2070688114036,"[97, 0, 157]",157,l,1.5106509511824697,1,colour,0.5,4.0
38,22,1,1,4,34,184,322.72015411942266,323.71911948826164,"[29, 0, 225]",225,a,0.4756853792350739,1,colour,0.5,4.0
38,22,1,1,4,35,185,324.235906152986,325.26310824940447,"[55, 0, 199]",199,l,0.5039307713741437,1,colour,0.5,4.0
38,22,1,1,4,36,186,325.78280227899086,326.7431152914651,"[15, 0, 239]",239,a,0.4368782415986061,1,colour,0.5,4.0
38,22,1,1,4,37,187,327.25177338614594,328.2790845778072,"[45, 0, 209]",209,l,0.5040071774274111,0,colour,0.5,4.0
38,22,1,1,4,38,188,328.79883492726367,329.9591172984801,"[14, 0, 240]",240,a,0.6370279815746471,1,colour,0.5,4.0
38,22,1,1,4,39,189,330.47076310252305,331.4392078355886,"[50, 0, 204]",204,l,0.44544555502943695,0,colour,0.5,4.0
38,22,1,1,4,40,190,331.95740879816003,332.78316776733845,"[70, 0, 184]",184,l,0.30273143423255533,1,colour,0.5,4.0
38,22,1,1,4,41,191,333.30121906881686,334.2950766598806,"[71, 0, 183]",183,l,0.47046259860508144,1,colour,0.5,4.0
38,22,1,1,4,42,192,334.8014236714225,335.6871829791926,"[8, 0, 246]",246,a,0.3624761673854664,1,colour,0.5,4.0
38,22,1,1,4,43,193,336.20778048958164,337.3831479175715,"[53, 0, 201]",201,l,0.6520177277270705,1,colour,0.5,4.0
38,22,1,1,4,44,194,337.89536479709204,338.967085573473,"[52, 0, 202]",202,l,0.5484108545351774,1,colour,0.5,4.0
38,22,1,1,4,45,195,339.4737110333517,340.43911370658316,"[12, 0, 242]",242,a,0.4420699082547799,1,colour,0.5,4.0
38,22,1,1,4,46,196,340.95815552864224,341.97507550986484,"[22, 0, 232]",232,a,0.4939042617334053,1,colour,0.5,4.0
38,22,1,1,4,47,197,342.4894089131849,343.51904930500314,"[26, 0, 228]",228,a,0.5062197993975133,1,colour,0.5,4.0
38,22,1,1,4,48,198,344.0364637589082,344.79906532668974,"[66, 0, 188]",188,l,0.2381412242539227,1,colour,0.5,4.0
38,22,1,1,4,49,199,345.3073713238118,346.4230727877002,"[40, 0, 214]",214,a,0.5923702743602917,1,colour,0.5,4.0
38,22,1,1,4,50,200,346.93253393261693,347.9910927981837,"[1, 0, 253]",253,a,0.5353564633987844,1,colour,0.5,4.0
38,22,1,1,5,1,201,368.3732249890454,370.06304673082195,"[11, 0, 243]",243,a,1.1713068844983354,1,colour,0.4,3.9
38,22,1,1,5,2,202,370.5717745361617,371.9909707061015,"[64, 0, 190]",190,l,0.8961489427601919,1,colour,0.4,3.9
38,22,1,1,5,3,203,372.5093040007632,374.10306376067456,"[58, 0, 196]",196,l,1.0702564601087943,1,colour,0.4,3.9
38,22,1,1,5,4,204,374.61073015339207,375.99101481679827,"[52, 0, 202]",202,l,0.8572051409864798,1,colour,0.4,3.9
38,22,1,1,5,5,205,376.5012805873994,377.67895988642704,"[85, 0, 169]",169,l,0.6543126634787768,1,colour,0.4,3.9
38,22,1,1,5,6,206,378.18888104252983,379.2549883441534,"[2, 0, 252]",252,a,0.5440458687953651,1,colour,0.4,3.9
38,22,1,1,5,7,207,379.76624345371965,381.38298289640807,"[8, 0, 246]",246,a,1.091528824181296,1,colour,0.4,3.9
38,22,1,1,5,8,208,381.89323803328443,383.21496540657245,"[80, 0, 174]",174,l,0.7990034930408001,1,colour,0.4,3.9
38,22,1,1,5,9,209,383.7215632973239,384.8229323424166,"[1, 0, 253]",253,a,0.5786357125034556,1,colour,0.4,3.9
38,22,1,1,5,10,210,385.3309717065422,386.76695473806467,"[46, 0, 208]",208,l,0.9127176142064855,0,colour,0.4,3.9
38,22,1,1,5,11,211,387.2841982631944,388.7749990251614,"[99, 0, 155]",155,l,0.9675420400453731,1,colour,0.4,3.9
38,22,1,1,5,12,212,389.2855802658014,391.2789349165978,"[63, 0, 191]",191,l,1.4700348827755079,1,colour,0.4,3.9
38,22,1,1,5,13,213,391.78583488671575,393.64700604823884,"[41, 0, 213]",213,a,1.3378100398695096,1,colour,0.4,3.9
38,22,1,1,5,14,214,394.16100901539903,395.6869179214118,"[12, 0, 242]",242,a,1.0024327813880518,1,colour,0.4,3.9
38,22,1,1,5,15,215,396.1937395163113,397.95094540552236,"[79, 0, 175]",175,l,1.231068553053774,1,colour,0.4,3.9
38,22,1,1,5,16,216,398.462389560882,400.05490752705373,"[4, 0, 250]",250,a,1.0691615706309676,1,colour,0.4,3.9
38,22,1,1,5,17,217,400.57191986509133,403.8388948861975,"[68, 0, 186]",186,l,2.743784040561877,1,colour,0.4,3.9
38,22,1,1,5,18,218,404.354759953334,405.48694856255315,"[59, 0, 195]",195,l,0.6091063298517838,1,colour,0.4,3.9
38,22,1,1,5,19,219,405.99545305769425,406.95889910822734,"[82, 0, 172]",172,l,0.4401778762694448,1,colour,0.4,3.9
38,22,1,1,5,20,220,407.47998892504256,408.6789630372077,"[54, 0, 200]",200,l,0.6756452857516706,1,colour,0.4,3.9
38,22,1,1,5,21,221,409.1988910108339,410.1748963891296,"[47, 0, 207]",207,l,0.45274508092552423,0,colour,0.4,3.9
38,22,1,1,5,22,222,410.68474271474406,414.4469142035814,"[9, 0, 245]",245,a,3.23873632424511,1,colour,0.4,3.9
38,22,1,1,5,23,223,414.9649899234064,416.03089006245136,"[30, 0, 224]",224,a,0.5426233002217487,1,colour,0.4,3.9
38,22,1,1,5,24,224,416.5455054588383,417.59894039900973,"[94, 0, 160]",160,l,0.5301821258617565,1,colour,0.4,3.9
38,22,1,1,5,25,225,418.1080935570644,419.11096941435244,"[23, 0, 231]",231,a,0.47946392954327166,1,colour,0.4,3.9
38,22,1,1,5,26,226,419.62385583051946,422.60683975100983,"[31, 0, 223]",223,a,2.4596913277637213,1,colour,0.4,3.9
38,22,1,1,5,27,227,423.12418213125784,424.67085140256677,"[78, 0, 176]",176,l,1.0212566101690754,1,colour,0.4,3.9
38,22,1,1,5,28,228,425.1889535100199,426.27884511998855,"[51, 0, 203]",203,l,0.5665151282446459,1,colour,0.4,3.9
38,22,1,1,5,29,229,426.7984741650289,427.9188482076861,"[35, 0, 219]",219,l,0.5970109516056255,0,colour,0.4,3.9
38,22,1,1,5,30,230,428.43920704792254,429.50282052194234,"[70, 0, 184]",184,l,0.5402354169636965,1,colour,0.4,3.9
38,22,1,1,5,31,231,430.0174493091181,430.77484503167216,"[56, 0, 198]",198,l,0.234398907632567,1,colour,0.4,3.9
38,22,1,1,5,32,232,431.28319238265976,434.55886665545404,"[83, 0, 171]",171,l,2.7524340614909306,1,colour,0.4,3.9
38,22,1,1,5,33,233,435.06615416903514,436.17481919552665,"[55, 0, 199]",199,l,0.5856666361214593,1,colour,0.4,3.9
38,22,1,1,5,34,234,436.6911765689729,437.64678982726764,"[25, 0, 229]",229,a,0.4324041607324034,1,colour,0.4,3.9
38,22,1,1,5,35,235,438.1600968700368,439.1748030477902,"[76, 0, 178]",178,l,0.4915931783616543,1,colour,0.4,3.9
38,22,1,1,5,36,236,439.6914085437311,441.26277151191607,"[50, 0, 204]",204,l,1.047989243408665,0,colour,0.4,3.9
38,22,1,1,5,37,237,441.7696612419095,442.69476528593805,"[89, 0, 165]",165,l,0.40178151906002313,1,colour,0.4,3.9
38,22,1,1,5,38,238,443.2072897584876,444.23085784586146,"[19, 0, 235]",235,a,0.49813297705259174,1,colour,0.4,3.9
38,22,1,1,5,39,239,444.7439262185944,445.7589230539743,"[10, 0, 244]",244,a,0.49162862449884415,1,colour,0.4,3.9
38,22,1,1,5,40,240,446.27529618132394,447.3668825068744,"[17, 0, 237]",237,a,0.5682244161143899,1,colour,0.4,3.9
38,22,1,1,5,41,241,447.884826682508,448.8148033786565,"[53, 0, 201]",201,l,0.4068038323894143,1,colour,0.4,3.9
38,22,1,1,5,42,242,449.3223961222684,450.44676651165355,"[43, 0, 211]",211,l,0.6010852797189727,0,colour,0.4,3.9
38,22,1,1,5,43,243,450.9631400327198,452.06279388221446,"[62, 0, 192]",192,l,0.5764585365541279,1,colour,0.4,3.9
38,22,1,1,5,44,244,452.5730320838047,453.86285839404445,"[72, 0, 182]",182,l,0.7665159945609048,1,colour,0.4,3.9
38,22,1,1,5,45,245,454.3701207016129,455.56674946600106,"[67, 0, 187]",187,l,0.6734673221362755,1,colour,0.4,3.9
38,22,1,1,5,46,246,456.0732394432416,457.2547622770071,"[97, 0, 157]",157,l,0.6582877425244078,1,colour,0.4,3.9
38,22,1,1,5,47,247,457.7765405350365,458.91878519242164,"[48, 0, 206]",206,l,0.6189201632514596,0,colour,0.4,3.9
38,22,1,1,5,48,248,459.4337727725506,460.4707457732875,"[95, 0, 159]",159,l,0.5145090582082048,1,colour,0.4,3.9
38,22,1,1,5,49,249,460.9798591530416,461.8067772084614,"[87, 0, 167]",167,l,0.30213987885508686,1,colour,0.4,3.9
38,22,1,1,5,50,250,462.3252085704589,463.2227706296835,"[74, 0, 180]",180,l,0.37421511590946466,1,colour,0.4,3.9
38,22,1,1,6,1,251,489.3113200152293,490.7026729087811,"[24, 0, 230]",230,l,0.8672056568320841,0,colour,0.28,3.9
38,22,1,1,6,2,252,491.2184670837596,492.00666070904117,"[52, 0, 202]",202,a,0.26528581930324435,0,colour,0.28,3.9
38,22,1,1,6,3,253,492.51546807109844,493.34265275963116,"[26, 0, 228]",228,a,0.3038649205118418,1,colour,0.28,3.9
38,22,1,1,6,4,254,493.8593488399638,494.73469842679333,"[92, 0, 162]",162,l,0.35218026768416166,1,colour,0.28,3.9
38,22,1,1,6,5,255,495.25014168571215,496.0546629492892,"[10, 0, 244]",244,a,0.281121151172556,1,colour,0.28,3.9
38,22,1,1,6,6,256,496.56274366704747,497.35067105304915,"[81, 0, 173]",173,l,0.2646151011576876,1,colour,0.28,3.9
38,22,1,1,6,7,257,497.8609080729075,499.03865235636476,"[66, 0, 188]",188,l,0.6545277028344572,1,colour,0.28,3.9
38,22,1,1,6,8,258,499.5482820670586,500.52663555019535,"[83, 0, 171]",171,l,0.45502938283607364,1,colour,0.28,3.9
38,22,1,1,6,9,259,501.0327576760901,501.8627516620327,"[79, 0, 175]",175,l,0.3069979586871341,1,colour,0.28,3.9
38,22,1,1,6,10,260,502.3765919712605,503.19863501144573,"[87, 0, 167]",167,l,0.298732724506408,1,colour,0.28,3.9
38,22,1,1,6,11,261,503.70484260166995,504.502609420917,"[14, 0, 240]",240,a,0.274630976957269,1,colour,0.28,3.9
38,22,1,1,6,12,262,505.01744891528506,506.27065038401634,"[61, 0, 193]",193,l,0.7299529867013916,1,colour,0.28,3.9
38,22,1,1,6,13,263,506.7832252687076,507.66262634051964,"[0, 0, 254]",254,a,0.35610926675144583,1,colour,0.28,3.9
38,22,1,1,6,14,264,508.17391098861117,508.8386184069095,"[95, 0, 159]",159,l,0.13975082989782095,1,colour,0.28,3.9
38,22,1,1,6,15,265,509.34743325202726,510.1986881805351,"[89, 0, 165]",165,l,0.32796666806098074,1,colour,0.28,3.9
38,22,1,1,6,16,266,510.70682521816343,511.7506794813089,"[50, 0, 204]",204,a,0.5207243284676224,1,colour,0.28,3.9
38,22,1,1,6,17,267,512.2695728236577,513.2706334486138,"[77, 0, 177]",177,l,0.4777321923756972,1,colour,0.28,3.9
38,22,1,1,6,18,268,513.785309103434,514.654647825635,"[56, 0, 198]",198,a,0.3460252557415515,0,colour,0.28,3.9
38,22,1,1,6,19,269,515.176142908982,516.0386287256842,"[69, 0, 185]",185,a,0.33882891724351794,0,colour,0.28,3.9
38,22,1,1,6,20,270,516.5514777266653,517.3746601608582,"[51, 0, 203]",203,a,0.29974845109973103,0,colour,0.28,3.9
38,22,1,1,6,21,271,517.895426630741,518.7746087246342,"[90, 0, 164]",164,l,0.35649681044742465,1,colour,0.28,3.9
38,22,1,1,6,22,272,519.2904745794367,520.1106511874823,"[55, 0, 199]",199,a,0.296913159894757,0,colour,0.28,3.9
38,22,1,1,6,23,273,520.6186629823642,521.5345884652343,"[17, 0, 237]",237,a,0.3925883857300505,1,colour,0.28,3.9
38,22,1,1,6,24,274,522.0406353666913,522.9186441958882,"[98, 0, 156]",156,l,0.35460162756498903,1,colour,0.28,3.9
38,22,1,1,6,25,275,523.4315069814911,525.0626268918859,"[70, 0, 184]",184,l,1.1078458285192028,1,colour,0.28,3.9
38,22,1,1,6,26,276,525.5722109166672,526.4786195254419,"[68, 0, 186]",186,l,0.3830557578476146,1,colour,0.28,3.9
38,22,1,1,6,27,277,526.9941395841306,527.8305516706314,"[99, 0, 155]",155,l,0.3130596292903647,1,colour,0.28,3.9
38,22,1,1,6,28,278,528.3380483160727,529.2385646076873,"[88, 0, 166]",166,l,0.37750451057218015,1,colour,0.28,3.9
38,22,1,1,6,29,279,529.7601053771796,531.3186341134133,"[59, 0, 195]",195,l,1.0353168818401173,1,colour,0.28,3.9
38,22,1,1,6,30,280,531.8383466537343,532.8226806754246,"[7, 0, 247]",247,a,0.46116824715863913,1,colour,0.28,3.9
38,22,1,1,6,31,281,533.3384630350629,535.374634167063,"[60, 0, 194]",194,a,1.5111877621384338,0,colour,0.28,3.9
38,22,1,1,6,32,282,535.8872492240043,536.8785440647043,"[71, 0, 183]",183,l,0.46828581660520285,1,colour,0.28,3.9
38,22,1,1,6,33,283,537.3872383931885,538.5985394646414,"[64, 0, 190]",190,l,0.6882502996595576,1,colour,0.28,3.9
38,22,1,1,6,34,284,539.1060120854527,540.2545913482318,"[93, 0, 161]",161,l,0.6242737004067749,1,colour,0.28,3.9
38,22,1,1,6,35,285,540.763681097189,541.7506605767412,"[58, 0, 196]",196,a,0.46365537925157696,0,colour,0.28,3.9
38,22,1,1,6,36,286,542.2638234721962,543.2065079759341,"[25, 0, 229]",229,a,0.41938639723230153,1,colour,0.28,3.9
38,22,1,1,6,37,287,543.7170923672384,544.6785313829314,"[38, 0, 216]",216,a,0.4381251554004848,1,colour,0.28,3.9
38,22,1,1,6,38,288,545.1858728533844,546.2225587409921,"[32, 0, 222]",222,a,0.5120199569500983,1,colour,0.28,3.9
38,22,1,1,6,39,289,546.7343195477733,547.8626205116743,"[78, 0, 176]",176,l,0.6056684557115659,1,colour,0.28,3.9
38,22,1,1,6,40,290,548.3751674334053,549.6625704144826,"[74, 0, 180]",180,l,0.764115902245976,1,colour,0.28,3.9
38,22,1,1,6,41,291,550.1721292331349,551.3345395496581,"[63, 0, 191]",191,a,0.6391460807062685,0,colour,0.28,3.9
38,22,1,1,6,42,292,551.8454957308713,552.9025004834402,"[75, 0, 179]",179,l,0.5339405901031569,1,colour,0.28,3.9
38,22,1,1,6,43,293,553.4237517766887,554.4705520014977,"[18, 0, 236]",236,a,0.5159119346644729,1,colour,0.28,3.9
38,22,1,1,6,44,294,554.9783030708786,556.0545637002215,"[30, 0, 224]",224,a,0.5531362085603178,1,colour,0.28,3.9
38,22,1,1,6,45,295,556.5721057599876,557.5905002974905,"[3, 0, 251]",251,a,0.494996000546962,1,colour,0.28,3.9
38,22,1,1,6,46,296,558.1035426764283,559.0866163936444,"[85, 0, 169]",169,l,0.4598480782005936,1,colour,0.28,3.9
38,22,1,1,6,47,297,559.6036322761793,560.7185452620033,"[86, 0, 168]",168,l,0.5915711624547839,1,colour,0.28,3.9
38,22,1,1,6,48,298,561.2288346634014,562.4545217163395,"[11, 0, 243]",243,a,0.7025764167774469,1,colour,0.28,3.9
38,22,1,1,6,49,299,562.9632503094617,563.9425899807829,"[94, 0, 160]",160,l,0.4560837063472718,1,colour,0.28,3.9
38,22,1,1,6,50,300,564.4493296558503,565.8864792566746,"[57, 0, 197]",197,l,0.9139011187944561,1,colour,0.28,3.9
38,22,1,1,7,1,301,582.0290657717269,582.7664931515465,"[80, 0, 174]",174,l,0.21325296792201698,1,colour,0.14,3.9
38,22,1,1,7,2,302,583.2800640707137,585.6384659101022,"[97, 0, 157]",157,l,1.8350962498225272,1,colour,0.14,3.9
38,22,1,1,7,3,303,586.1553585191723,586.9904945472954,"[71, 0, 183]",183,l,0.312152603873983,1,colour,0.14,3.9
38,22,1,1,7,4,304,587.4990687530953,588.3024191149743,"[87, 0, 167]",167,l,0.27993173873983324,1,colour,0.14,3.9
38,22,1,1,7,5,305,588.8117353250273,589.6224080558168,"[69, 0, 185]",185,l,0.2873324828688055,1,colour,0.14,3.9
38,22,1,1,7,6,306,590.1399457831867,591.0144371814094,"[50, 0, 204]",204,a,0.3511259441729635,1,colour,0.14,3.9
38,22,1,1,7,7,307,591.5307027890813,592.2384066757513,"[0, 0, 254]",254,a,0.184644844266586,1,colour,0.14,3.9
38,22,1,1,7,8,308,592.7495483580278,593.5424259835854,"[92, 0, 162]",162,l,0.26945230702403933,1,colour,0.14,3.9
38,22,1,1,7,9,309,594.0636359232012,594.8704922945471,"[66, 0, 188]",188,l,0.28356102178804576,1,colour,0.14,3.9
38,22,1,1,7,10,310,595.3918471691431,596.1584001851734,"[35, 0, 219]",219,a,0.24314699601382017,1,colour,0.14,3.9
38,22,1,1,7,11,311,596.6732046273537,597.5104197640903,"[76, 0, 178]",178,l,0.3138859164901078,1,colour,0.14,3.9
38,22,1,1,7,12,312,598.0170657039853,598.830451240181,"[58, 0, 196]",196,l,0.29004016832914203,1,colour,0.14,3.9
38,22,1,1,7,13,313,599.3452481991844,600.1904095555656,"[54, 0, 200]",200,l,0.3219053912907839,1,colour,0.14,3.9
38,22,1,1,7,14,314,600.7047370511573,602.4944564326433,"[73, 0, 181]",181,l,1.266557545401156,1,colour,0.14,3.9
38,22,1,1,7,15,315,603.0055142258061,604.0064007712062,"[89, 0, 165]",165,l,0.48892290832009166,1,colour,0.14,3.9
38,22,1,1,7,16,316,604.5257675155299,605.4464498601155,"[79, 0, 175]",175,l,0.3973980227019638,1,colour,0.14,3.9
38,22,1,1,7,17,317,605.9633519214112,606.862425164436,"[81, 0, 173]",173,l,0.3757479611085728,1,colour,0.14,3.9
38,22,1,1,7,18,318,607.3696866843384,608.3023966657929,"[78, 0, 176]",176,l,0.409413056448102,1,colour,0.14,3.9
38,22,1,1,7,19,319,608.8228661764879,609.7903897057986,"[60, 0, 194]",194,l,0.4447968921158463,1,colour,0.14,3.9
38,22,1,1,7,20,320,610.30743788369,611.1903867125511,"[57, 0, 197]",197,a,0.3596329992869869,0,colour,0.14,3.9
38,22,1,1,7,21,321,611.6982338801026,612.7983776730252,"[56, 0, 198]",198,a,0.57733169128187,0,colour,0.14,3.9
38,22,1,1,7,22,322,613.3076044801855,614.2543644934194,"[62, 0, 192]",192,l,0.42136074288282543,1,colour,0.14,3.9
38,22,1,1,7,23,323,614.7615677241702,616.1184268721845,"[67, 0, 187]",187,l,0.8335854598553851,1,colour,0.14,3.9
38,22,1,1,7,24,324,616.6367810405791,617.422658462543,"[8, 0, 246]",246,a,0.2626494199503213,1,colour,0.14,3.9
38,22,1,1,7,25,325,617.9351132245502,618.7583149571437,"[70, 0, 184]",184,l,0.30005880107637495,1,colour,0.14,3.9
38,22,1,1,7,26,326,619.2789423996583,620.1663747617276,"[74, 0, 180]",180,l,0.3641456770710647,1,colour,0.14,3.9
38,22,1,1,7,27,327,620.6853787746513,621.5183624391211,"[93, 0, 161]",161,l,0.3096552318893373,1,colour,0.14,3.9
38,22,1,1,7,28,328,622.0291402083822,622.9663794090739,"[77, 0, 177]",177,l,0.4139836294343695,1,colour,0.14,3.9
38,22,1,1,7,29,329,623.4824059526436,624.398321983288,"[86, 0, 168]",168,l,0.3926021703518927,1,colour,0.14,3.9
38,22,1,1,7,30,330,624.9200297431089,625.9022941085277,"[64, 0, 190]",190,l,0.45963973412290215,1,colour,0.14,3.9
38,22,1,1,7,31,331,626.4201437613228,627.2142994144233,"[7, 0, 247]",247,a,0.2710615583928302,1,colour,0.14,3.9
38,22,1,1,7,32,332,627.7326500382042,628.5743116866797,"[98, 0, 156]",156,l,0.31830800976604223,1,colour,0.14,3.9
38,22,1,1,7,33,333,629.0922172653954,629.8464397776406,"[99, 0, 155]",155,l,0.23027101659681648,1,colour,0.14,3.9
38,22,1,1,7,34,334,630.3593896030216,631.1744749748614,"[26, 0, 228]",228,a,0.2918861204525456,1,colour,0.14,3.9
38,22,1,1,7,35,335,631.6874996307306,632.5903384271078,"[88, 0, 166]",166,l,0.3797636062372476,1,colour,0.14,3.9
38,22,1,1,7,36,336,633.1095862301299,634.2862722517457,"[75, 0, 179]",179,l,0.6534158780705184,1,colour,0.14,3.9
38,22,1,1,7,37,337,634.7971126424382,635.6463073669001,"[65, 0, 189]",189,l,0.3258615657687187,1,colour,0.14,3.9
38,22,1,1,7,38,338,636.1566184298135,637.1504547531949,"[84, 0, 170]",170,l,0.47064022277481854,1,colour,0.14,3.9
38,22,1,1,7,39,339,637.6566895188298,638.518336839159,"[96, 0, 158]",158,l,0.3383389738155529,1,colour,0.14,3.9
38,22,1,1,7,40,340,639.0325193997705,639.8382812754717,"[33, 0, 221]",221,a,0.28250039683189243,1,colour,0.14,3.9
38,22,1,1,7,41,341,640.3451836085878,641.2384354264941,"[91, 0, 163]",163,l,0.370113612501882,1,colour,0.14,3.9
38,22,1,1,7,42,342,641.7515762667172,643.05427934404,"[53, 0, 201]",201,l,0.7794356907252222,1,colour,0.14,3.9
38,22,1,1,7,43,343,643.5641370911617,644.5902872273,"[95, 0, 159]",159,l,0.5028642388060689,1,colour,0.14,3.9
38,22,1,1,7,44,344,645.1111308907857,646.342247492983,"[51, 0, 203]",203,l,0.707793683395721,1,colour,0.14,3.9
38,22,1,1,7,45,345,646.861185339978,647.7662729921285,"[90, 0, 164]",164,l,0.38169147830922157,1,colour,0.14,3.9
38,22,1,1,7,46,346,648.2832707578782,649.1502920951461,"[52, 0, 202]",202,l,0.34373583388514817,1,colour,0.14,3.9
38,22,1,1,7,47,347,649.65844646201,650.6303070141003,"[72, 0, 182]",182,l,0.4486341254087165,1,colour,0.14,3.9
38,22,1,1,7,48,348,651.1442646890646,652.1503011536552,"[82, 0, 172]",172,l,0.48278128716629,1,colour,0.14,3.9
38,22,1,1,7,49,349,652.6600702855503,653.5422794732731,"[83, 0, 171]",171,l,0.35887051513418555,1,colour,0.14,3.9
38,22,1,1,7,50,350,654.0507630945649,654.8862468880834,"[22, 0, 232]",232,a,0.31215536093804985,1,colour,0.14,3.9
38,22,1,1,8,1,351,660.24323639879,661.0303410423221,"[99, 0, 155]",155,l,0.26291487156413496,1,colour,0.06,3.9
38,22,1,1,8,2,352,661.5410963624017,662.3422998744063,"[52, 0, 202]",202,l,0.27789871010463685,1,colour,0.06,3.9
38,22,1,1,8,3,353,662.853673531441,663.4622635303531,"[67, 0, 187]",187,l,0.08558688242919743,1,colour,0.06,3.9
38,22,1,1,8,4,354,663.9788048295304,664.7662158845924,"[93, 0, 161]",161,l,0.26492505718488246,1,colour,0.06,3.9
38,22,1,1,8,5,355,665.275827872334,666.0542557133595,"[10, 0, 244]",244,a,0.2552337097004056,1,colour,0.06,3.9
38,22,1,1,8,6,356,666.5727067677071,667.4702195961727,"[68, 0, 186]",186,l,0.3742147219600156,1,colour,0.06,3.9
38,22,1,1,8,7,357,667.9791293579619,668.8622187896399,"[51, 0, 203]",203,l,0.3603675205959007,1,colour,0.06,3.9
38,22,1,1,8,8,358,669.3709981886204,670.2062007767381,"[15, 0, 239]",239,a,0.312029724358581,1,colour,0.06,3.9
38,22,1,1,8,9,359,670.7149364589714,671.7342592894565,"[69, 0, 185]",185,l,0.5081787852104753,1,colour,0.06,3.9
38,22,1,1,8,10,360,672.2464757751441,673.134209034848,"[71, 0, 183]",183,l,0.3643611103761941,1,colour,0.06,3.9
38,22,1,1,8,11,361,673.652868039324,674.726288257516,"[54, 0, 200]",200,l,0.5501776437740773,1,colour,0.06,3.9
38,22,1,1,8,12,362,675.246767220553,676.1102797915228,"[83, 0, 171]",171,l,0.3403649133397266,1,colour,0.06,3.9
38,22,1,1,8,13,363,676.6218566725729,677.4781965357251,"[63, 0, 191]",191,l,0.3329716521548107,1,colour,0.06,3.9
38,22,1,1,8,14,364,677.997052856721,678.7741782518569,"[92, 0, 162]",162,l,0.2539600144373253,1,colour,0.06,3.9
38,22,1,1,8,15,365,679.293922299752,680.2382136916276,"[59, 0, 195]",195,l,0.42097162385471165,1,colour,0.06,3.9
38,22,1,1,8,16,366,680.7472014348023,681.7422192937229,"[60, 0, 194]",194,l,0.4717118755215779,1,colour,0.06,3.9
38,22,1,1,8,17,367,682.2627553641796,683.1742406369885,"[58, 0, 196]",196,l,0.3879945760127157,1,colour,0.06,3.9
38,22,1,1,8,18,368,683.6849794156151,684.4941874364158,"[97, 0, 157]",157,l,0.28594811726361513,1,colour,0.06,3.9
38,22,1,1,8,19,369,685.0132036583964,685.8941663262667,"[91, 0, 163]",163,l,0.35770512733142823,1,colour,0.06,3.9
38,22,1,1,8,20,370,686.4039157659281,687.3264042843366,"[79, 0, 175]",175,l,0.39939324220176786,1,colour,0.06,3.9
38,22,1,1,8,21,371,687.8414273104863,688.7661638970021,"[53, 0, 201]",201,l,0.40167478704825044,1,colour,0.06,3.9
38,22,1,1,8,22,372,689.2803393683862,690.1261919230456,"[66, 0, 188]",188,l,0.3225477527594194,1,colour,0.06,3.9
38,22,1,1,8,23,373,690.6398423988139,691.3182036407525,"[55, 0, 199]",199,l,0.15496270486619323,1,colour,0.06,3.9
38,22,1,1,8,24,374,691.827330411179,692.6861924587283,"[95, 0, 159]",159,l,0.334841629024595,1,colour,0.06,3.9
38,22,1,1,8,25,375,693.2032461503986,694.0221526077949,"[86, 0, 168]",168,l,0.2956343446858227,1,colour,0.06,3.9
38,22,1,1,8,26,376,694.5315011130879,695.5262692741817,"[90, 0, 164]",164,l,0.4714432730106637,1,colour,0.06,3.9
38,22,1,1,8,27,377,696.0472208514111,697.2461488835979,"[50, 0, 204]",204,l,0.6761238075559959,0,colour,0.06,3.9
38,22,1,1,8,28,378,697.765933497576,698.8141621988034,"[57, 0, 197]",197,l,0.5250424466794357,1,colour,0.06,3.9
38,22,1,1,8,29,379,699.3297669341555,700.2781681001652,"[80, 0, 174]",174,l,0.4251633177045733,1,colour,0.06,3.9
38,22,1,1,8,30,380,700.7985907432158,701.9821560579585,"[87, 0, 167]",167,l,0.6605050907237455,1,colour,0.06,3.9
38,22,1,1,8,31,381,702.5018473305972,703.7262083069654,"[94, 0, 160]",160,l,0.7010093069402501,1,colour,0.06,3.9
38,22,1,1,8,32,382,704.2363980655791,708.0620908687124,"[85, 0, 169]",169,l,3.302467558067292,1,colour,0.06,3.9
38,22,1,1,8,33,383,708.5819625224685,709.3981593252392,"[74, 0, 180]",180,l,0.29296919459011406,1,colour,0.06,3.9
38,22,1,1,8,34,384,709.9101473807823,710.8941025233362,"[78, 0, 176]",176,l,0.46067160833626986,1,colour,0.06,3.9
38,22,1,1,8,35,385,711.4102956634015,712.2221633204026,"[27, 0, 227]",227,a,0.28857545810751617,1,colour,0.06,3.9
38,22,1,1,8,36,386,712.7385277831927,713.5900761262747,"[76, 0, 178]",178,l,0.3284881190629676,1,colour,0.06,3.9
38,22,1,1,8,37,387,714.0979228999931,714.9661395574221,"[84, 0, 170]",170,l,0.345048519782722,1,colour,0.06,3.9
38,22,1,1,8,38,388,715.4730643397197,716.3262010602048,"[75, 0, 179]",179,l,0.32129020511638373,1,colour,0.06,3.9
38,22,1,1,8,39,389,716.8338477606885,717.8381083774148,"[70, 0, 184]",184,l,0.49250689917244017,1,colour,0.06,3.9
38,22,1,1,8,40,390,718.353582750191,719.4861214878038,"[98, 0, 156]",156,l,0.6094206183915958,1,colour,0.06,3.9
38,22,1,1,8,41,391,719.9943621066632,721.5661724827951,"[89, 0, 165]",165,l,1.0481672612950206,1,colour,0.06,3.9
38,22,1,1,8,42,392,722.0725651803659,722.9020463799825,"[61, 0, 193]",193,l,0.3061437086435035,1,colour,0.06,3.9
38,22,1,1,8,43,393,723.4165373212891,724.230123324669,"[72, 0, 182]",182,l,0.2903516998048872,1,colour,0.06,3.9
38,22,1,1,8,44,394,724.7446800381877,725.6380882125814,"[88, 0, 166]",166,l,0.3700041235424578,1,colour,0.06,3.9
38,22,1,1,8,45,395,726.1511534345336,727.1261367846746,"[82, 0, 172]",172,l,0.4518380555091426,1,colour,0.06,3.9
38,22,1,1,8,46,396,727.635650311131,728.9181483448483,"[96, 0, 158]",158,l,0.759289330104366,1,colour,0.06,3.9
38,22,1,1,8,47,397,729.4339208583115,730.6780599502381,"[81, 0, 173]",173,l,0.721524306689389,1,colour,0.06,3.9
38,22,1,1,8,48,398,731.1842257929966,732.462088269298,"[62, 0, 192]",192,l,0.7557285760995001,1,colour,0.06,3.9
38,22,1,1,8,49,399,732.9801545368973,734.1580736875767,"[77, 0, 177]",177,l,0.6547553453128785,1,colour,0.06,3.9
38,22,1,1,8,50,400,734.6690393210156,735.8700342526427,"[64, 0, 190]",190,l,0.6776995819527656,1,colour,0.06,3.9
38,22,1,1,9,1,401,740.3874991186894,741.190125199384,"[69, 0, 185]",185,l,0.2787486279848963,1,colour,0.06,3.9
38,22,1,1,9,2,402,741.7009624392958,742.4781492743641,"[77, 0, 177]",177,l,0.2539773436728865,1,colour,0.06,3.9
38,22,1,1,9,3,403,742.997850787011,743.8380347284256,"[74, 0, 180]",180,l,0.3164892328204587,1,colour,0.06,3.9
38,22,1,1,9,4,404,744.3590134808328,745.2940573886735,"[81, 0, 173]",173,l,0.4115870817331597,1,colour,0.06,3.9
38,22,1,1,9,5,405,745.8122552005807,746.6380311050452,"[66, 0, 188]",188,l,0.30243723187595606,1,colour,0.06,3.9
38,22,1,1,9,6,406,747.1561832309235,748.1980450314004,"[54, 0, 200]",200,l,0.5185696016997099,1,colour,0.06,3.9
38,22,1,1,9,7,407,748.7187264307868,749.55813016498,"[22, 0, 232]",232,a,0.3162588335108012,1,colour,0.06,3.9
38,22,1,1,9,8,408,750.0907643706305,750.9660363700241,"[68, 0, 186]",186,l,0.3488073778571561,1,colour,0.06,3.9
38,22,1,1,9,9,409,751.4846457500244,752.4785403625574,"[70, 0, 184]",184,l,0.4710462772054598,1,colour,0.06,3.9
38,22,1,1,9,10,410,752.9871252020821,754.0220872295322,"[90, 0, 164]",164,l,0.5119703323580325,1,colour,0.06,3.9
38,22,1,1,9,11,411,754.5360094584757,755.5340193590382,"[72, 0, 182]",182,l,0.47462357266340405,1,colour,0.06,3.9
38,22,1,1,9,12,412,756.0518501071492,760.1340014784364,"[60, 0, 194]",194,l,3.55899977509398,1,colour,0.06,3.9
38,22,1,1,9,13,413,760.6459458171157,761.5339973036898,"[52, 0, 202]",202,l,0.3647502292878926,1,colour,0.06,3.9
38,22,1,1,9,14,414,762.0522963337135,762.8940328127937,"[86, 0, 168]",168,l,0.3184430986875668,1,colour,0.06,3.9
38,22,1,1,9,15,415,763.4006496081129,764.1580130354268,"[24, 0, 230]",230,a,0.23447373823728412,1,colour,0.06,3.9
38,22,1,1,9,16,416,764.6663162757177,765.4619728727266,"[98, 0, 156]",156,l,0.272289173793979,1,colour,0.06,3.9
38,22,1,1,9,17,417,765.978924558498,766.8379658055492,"[53, 0, 201]",201,l,0.3358455402776599,1,colour,0.06,3.9
38,22,1,1,9,18,418,767.3540317335865,768.2539761620574,"[62, 0, 192]",192,l,0.37685033376328647,1,colour,0.06,3.9
38,22,1,1,9,19,419,768.7604787423043,769.8059670689981,"[59, 0, 195]",195,l,0.5222103062551469,1,colour,0.06,3.9
38,22,1,1,9,20,420,770.3230097329943,771.2379517846275,"[67, 0, 187]",187,l,0.3916203143307939,1,colour,0.06,3.9
38,22,1,1,9,21,421,771.7449722712627,772.8139794545714,"[64, 0, 190]",190,l,0.5456988367950544,1,colour,0.06,3.9
38,22,1,1,9,22,422,773.3232322555268,774.1499447238166,"[82, 0, 172]",172,l,0.3033919126028195,1,colour,0.06,3.9
38,22,1,1,9,23,423,774.6670673383633,775.2459653518163,"[95, 0, 159]",159,l,0.055574700818397105,1,colour,0.06,3.9
38,22,1,1,9,24,424,775.7609403288225,776.4380601708544,"[63, 0, 191]",191,l,0.1537402095273137,1,colour,0.06,3.9
38,22,1,1,9,25,425,776.9484996271785,777.78195275506,"[80, 0, 174]",174,l,0.31020700896624476,1,colour,0.06,3.9
38,22,1,1,9,26,426,778.2923406177433,779.1099288754631,"[56, 0, 198]",198,l,0.29426848981529474,1,colour,0.06,3.9
38,22,1,1,9,27,427,779.6218192572705,780.4539167701732,"[91, 0, 163]",163,l,0.3086977943312377,1,colour,0.06,3.9
38,22,1,1,9,28,428,780.9663022154709,781.8779552662745,"[46, 0, 208]",208,l,0.38874327566009015,0,colour,0.06,3.9
38,22,1,1,9,29,429,782.3877287304495,783.1980040714843,"[83, 0, 171]",171,l,0.28722063079476357,1,colour,0.06,3.9
38,22,1,1,9,30,430,783.7158686904004,784.6059043688001,"[51, 0, 203]",203,l,0.36655679694376886,1,colour,0.06,3.9
38,22,1,1,9,31,431,785.1222956130514,785.9180628805188,"[79, 0, 175]",175,l,0.27018328371923417,1,colour,0.06,3.9
38,22,1,1,9,32,432,786.4372437298298,787.2059231158346,"[71, 0, 183]",183,l,0.2455982881365344,1,colour,0.06,3.9
38,22,1,1,9,33,433,787.7185318712145,788.4946687151678,"[61, 0, 193]",193,l,0.2528084112564102,1,colour,0.06,3.9
38,22,1,1,9,34,434,789.0157801933819,789.8939292314462,"[85, 0, 169]",169,l,0.3551746722077951,1,colour,0.06,3.9
38,22,1,1,9,35,435,790.4062985290075,791.2218750257744,"[75, 0, 179]",179,l,0.2924670419888571,1,colour,0.06,3.9
38,22,1,1,9,36,436,791.7357818947639,792.8298778015887,"[73, 0, 181]",181,l,0.5707871664781123,1,colour,0.06,3.9
38,22,1,1,9,37,437,793.3452493806835,794.3018708825111,"[76, 0, 178]",178,l,0.4338003417942673,1,colour,0.06,3.9
38,22,1,1,9,38,438,794.813572218758,795.7019423260354,"[93, 0, 161]",161,l,0.36491091817151755,1,colour,0.06,3.9
38,22,1,1,9,39,439,796.2200432519894,797.0378957798239,"[58, 0, 196]",196,l,0.2946292518172413,1,colour,0.06,3.9
38,22,1,1,9,40,440,797.5481016860576,798.3659223123686,"[99, 0, 155]",155,l,0.2946264949860051,1,colour,0.06,3.9
38,22,1,1,9,41,441,798.8764830731088,799.5579033101676,"[84, 0, 170]",170,l,0.15810480143409222,1,colour,0.06,3.9
38,22,1,1,9,42,442,800.0640392205678,801.4539482778637,"[96, 0, 158]",158,l,0.8668059040792286,1,colour,0.06,3.9
38,22,1,1,9,43,443,801.9705100569408,802.9658914349275,"[65, 0, 189]",189,l,0.4722845263313502,1,colour,0.06,3.9
38,22,1,1,9,44,444,803.486260515172,804.3578945668414,"[55, 0, 199]",199,l,0.34846985258627683,1,colour,0.06,3.9
38,22,1,1,9,45,445,804.8768686475232,806.4618937098421,"[50, 0, 204]",204,l,1.0606143433833495,0,colour,0.06,3.9
38,22,1,1,9,46,446,806.971943259472,807.7418868883979,"[88, 0, 166]",166,l,0.24661755945999175,1,colour,0.06,3.9
38,22,1,1,9,47,447,808.2631673262222,809.1499147915747,"[87, 0, 167]",167,l,0.36337216512765735,1,colour,0.06,3.9
38,22,1,1,9,48,448,809.6602030113572,810.7898245380493,"[97, 0, 157]",157,l,0.6063112110132352,1,colour,0.06,3.9
38,22,1,1,9,49,449,811.3009662202094,812.5498791091377,"[89, 0, 165]",165,l,0.7260476181982085,1,colour,0.06,3.9
38,22,1,1,9,50,450,813.06669649377,813.92594057112,"[92, 0, 162]",162,l,0.33604679512791336,1,colour,0.06,3.9
38,22,1,1,10,1,451,849.9571484666085,851.0217906641774,"[75, 0, 179]",179,l,0.5406599821290001,1,colour,0.06,3.9
38,22,1,1,10,2,452,851.5361303689424,852.3017917196266,"[97, 0, 157]",157,l,0.2423577302834019,1,colour,0.06,3.9
38,22,1,1,10,3,453,852.817481525708,853.5738158356398,"[55, 0, 199]",199,l,0.2330212373053655,1,colour,0.06,3.9
38,22,1,1,10,4,454,854.0832037254004,854.8458009609021,"[88, 0, 166]",166,l,0.2379919569939375,1,colour,0.06,3.9
38,22,1,1,10,5,455,855.3536969652632,856.0857696265448,"[82, 0, 172]",172,l,0.20884190232027322,1,colour,0.06,3.9
38,22,1,1,10,6,456,856.6037740603788,857.3737846430158,"[67, 0, 187]",187,l,0.24587397975847125,1,colour,0.06,3.9
38,22,1,1,10,7,457,857.8863036017865,858.7417092642281,"[53, 0, 201]",201,l,0.33230841695331037,1,colour,0.06,3.9
38,22,1,1,10,8,458,859.2612607218325,860.2457522816258,"[52, 0, 202]",202,l,0.4612674961099401,1,colour,0.06,3.9
38,22,1,1,10,9,459,860.7612947894959,861.6137347980402,"[58, 0, 196]",196,l,0.32904619770124555,1,colour,0.06,3.9
38,22,1,1,10,10,460,862.1208312967792,862.6937385316705,"[72, 0, 182]",182,l,0.04980683862231672,1,colour,0.06,3.9
38,22,1,1,10,11,461,863.2146991672926,863.9097204526188,"[21, 0, 233]",233,a,0.17174602183513343,1,colour,0.06,3.9
38,22,1,1,10,12,462,864.4178602471948,865.109738648287,"[90, 0, 164]",164,l,0.16903242887929082,1,colour,0.06,3.9
38,22,1,1,10,13,463,865.6209693395067,866.4137213284848,"[60, 0, 194]",194,l,0.26989420130848885,1,colour,0.06,3.9
38,22,1,1,10,14,464,866.9344058786519,867.6377361150226,"[54, 0, 200]",200,l,0.17997659766115248,1,colour,0.06,3.9
38,22,1,1,10,15,465,868.1531588940416,868.9097208464518,"[71, 0, 183]",183,l,0.23371952481102198,1,colour,0.06,3.9
38,22,1,1,10,16,466,869.4187810571166,870.1977051430149,"[62, 0, 192]",192,l,0.2555027059279382,1,colour,0.06,3.9
38,22,1,1,10,17,467,870.7159344624961,871.5337113720598,"[93, 0, 161]",161,l,0.2944138185121119,1,colour,0.06,3.9
38,22,1,1,10,18,468,872.0441189269768,872.7816876972793,"[83, 0, 171]",171,l,0.21407925500534475,1,colour,0.06,3.9
38,22,1,1,10,19,469,873.2942401327891,874.0857176389545,"[70, 0, 184]",184,l,0.26802107389084995,1,colour,0.06,3.9
38,22,1,1,10,20,470,874.6068700770847,875.4537623829674,"[63, 0, 191]",191,l,0.3235370918409899,1,colour,0.06,3.9
38,22,1,1,10,21,471,875.9663506584475,876.701684751315,"[14, 0, 240]",240,a,0.21217146911658347,1,colour,0.06,3.9
38,22,1,1,10,22,472,877.2163292922778,878.3978607906029,"[57, 0, 197]",197,l,0.6585508310236037,1,colour,0.06,3.9
38,22,1,1,10,23,473,878.9195811535465,879.6296898587607,"[96, 0, 158]",158,l,0.18707841343712062,1,colour,0.06,3.9
38,22,1,1,10,24,474,880.1384499593405,880.853657777654,"[89, 0, 165]",165,l,0.19207827746868134,1,colour,0.06,3.9
38,22,1,1,10,25,475,881.3730501218233,882.2376934222411,"[92, 0, 162]",162,l,0.34215257642790675,1,colour,0.06,3.9
38,22,1,1,10,26,476,882.7479678574018,883.5658900958952,"[66, 0, 188]",188,l,0.2944421754218638,1,colour,0.06,3.9
38,22,1,1,10,27,477,884.0763354599476,885.0142481357325,"[61, 0, 193]",193,l,0.41446372657082975,1,colour,0.06,3.9
38,22,1,1,10,28,478,885.5255197868682,886.3496762001887,"[99, 0, 155]",155,l,0.30193350405897945,1,colour,0.06,3.9
38,22,1,1,10,29,479,886.8692678300431,887.7336697032442,"[59, 0, 195]",195,l,0.3410525668878108,1,colour,0.06,3.9
38,22,1,1,10,30,480,888.2444817371434,889.0776631118497,"[81, 0, 173]",173,l,0.30982616066467017,1,colour,0.06,3.9
38,22,1,1,10,31,481,889.5930575340753,890.2536441505654,"[87, 0, 167]",167,l,0.13727590697817504,1,colour,0.06,3.9
38,22,1,1,10,32,482,890.7616516131675,891.6537246525986,"[79, 0, 175]",175,l,0.3694728264817968,1,colour,0.06,3.9
38,22,1,1,10,33,483,892.1680163083365,893.1336604085518,"[95, 0, 159]",159,l,0.4425035318126902,1,colour,0.06,3.9
38,22,1,1,10,34,484,893.6404178065713,894.5096568859881,"[56, 0, 198]",198,l,0.3462221783120185,1,colour,0.06,3.9
38,22,1,1,10,35,485,895.031200806261,895.8616733140079,"[85, 0, 169]",169,l,0.3074575759237632,1,colour,0.06,3.9
38,22,1,1,10,36,486,896.3750977227464,897.4777061985806,"[78, 0, 176]",176,l,0.5792316002771258,1,colour,0.06,3.9
38,22,1,1,10,37,487,897.9843667107634,898.8296540975571,"[8, 0, 246]",246,a,0.3221393353305757,1,colour,0.06,3.9
38,22,1,1,10,38,488,899.3439036118798,900.1496603676351,"[84, 0, 170]",170,l,0.28223809599876404,1,colour,0.06,3.9
38,22,1,1,10,39,489,900.6567044849508,901.4936711053597,"[69, 0, 185]",185,l,0.31363897549454123,1,colour,0.06,3.9
38,22,1,1,10,40,490,902.0005143616581,903.1736364784883,"[74, 0, 180]",180,l,0.6485184136545286,1,colour,0.06,3.9
38,22,1,1,10,41,491,903.6895015456248,904.6536482465453,"[50, 0, 204]",204,l,0.442287310725078,0,colour,0.06,3.9
38,22,1,1,10,42,492,905.1725561612984,906.373621984967,"[68, 0, 186]",186,l,0.6776137236738577,1,colour,0.06,3.9
38,22,1,1,10,43,493,906.8927331237355,907.9016548978398,"[98, 0, 156]",156,l,0.48637630557641387,1,colour,0.06,3.9
38,22,1,1,10,44,494,908.4084146589739,909.5175806564512,"[80, 0, 174]",174,l,0.5858036942081526,1,colour,0.06,3.9
38,22,1,1,10,45,495,910.0335532432655,911.2296306244098,"[76, 0, 178]",178,l,0.672716653207317,1,colour,0.06,3.9
38,22,1,1,10,46,496,911.7380929781357,912.3336262227967,"[73, 0, 181]",181,l,0.07233163027558476,1,colour,0.06,3.9
38,22,1,1,10,47,497,912.8474417197285,913.6696033072658,"[51, 0, 203]",203,l,0.2989804530516267,1,colour,0.06,3.9
38,22,1,1,10,48,498,914.1913929869188,915.0055945701897,"[77, 0, 177]",177,l,0.291026356513612,1,colour,0.06,3.9
38,22,1,1,10,49,499,915.5196176235331,916.3655954209389,"[65, 0, 189]",189,l,0.3226694508921355,1,colour,0.06,3.9
38,22,1,1,10,50,500,916.879155312432,917.9415982787032,"[64, 0, 190]",190,l,0.5390664846636355,1,colour,0.06,3.9
38,22,1,1,11,1,501,923.3332095346414,924.0295809211675,"[57, 0, 197]",197,l,0.17222572525497526,1,colour,0.06,3.9
38,22,1,1,11,2,502,924.5404209180269,925.2777265997138,"[91, 0, 163]",163,l,0.21388902782928199,1,colour,0.06,3.9
38,22,1,1,11,3,503,925.7904164872598,926.741565116914,"[76, 0, 178]",178,l,0.42769495432730764,1,colour,0.06,3.9
38,22,1,1,11,4,504,927.2594427326694,927.9415648018476,"[20, 0, 234]",234,a,0.15892321162391454,1,colour,0.06,3.9
38,22,1,1,11,5,505,928.4626006617909,929.2535515970085,"[97, 0, 157]",157,l,0.26766858249902725,1,colour,0.06,3.9
38,22,1,1,11,6,506,929.7609316642629,930.6215762548381,"[95, 0, 159]",159,l,0.3372334504965693,1,colour,0.06,3.9
38,22,1,1,11,7,507,931.1360522301402,932.0295470504789,"[74, 0, 180]",180,l,0.3702034092275426,1,colour,0.06,3.9
38,22,1,1,11,8,508,932.5424350420944,933.4135232244153,"[94, 0, 160]",160,l,0.3477101252647117,1,colour,0.06,3.9
38,22,1,1,11,9,509,933.9332483677426,935.0215291510103,"[93, 0, 161]",161,l,0.5651862947270274,1,colour,0.06,3.9
38,22,1,1,11,10,510,935.5427422412904,936.9256199811352,"[79, 0, 175]",175,l,0.8596213809214532,1,colour,0.06,3.9
38,22,1,1,11,11,511,937.433391924249,938.2775253448635,"[52, 0, 202]",202,l,0.3208223171532154,1,colour,0.06,3.9
38,22,1,1,11,12,512,938.7942084283568,939.9495464675128,"[58, 0, 196]",196,l,0.6319280806928873,1,colour,0.06,3.9
38,22,1,1,11,13,513,940.4661389666144,941.7336133833742,"[81, 0, 173]",173,l,0.7441507102921605,1,colour,0.06,3.9
38,22,1,1,11,14,514,942.246773521998,943.4935234134318,"[53, 0, 201]",201,l,0.7237629225710407,1,colour,0.06,3.9
38,22,1,1,11,15,515,944.0125128540676,944.9415809494676,"[54, 0, 200]",200,l,0.4057869241805747,1,colour,0.06,3.9
38,22,1,1,11,16,516,945.4501126200194,946.309500450734,"[96, 0, 158]",158,l,0.336016075219959,1,colour,0.06,3.9
38,22,1,1,11,17,517,946.8252922625979,947.9014957844047,"[82, 0, 172]",172,l,0.5505431321216747,1,colour,0.06,3.9
38,22,1,1,11,18,518,948.4214418749325,949.2855129182572,"[99, 0, 155]",155,l,0.3408757303841412,1,colour,0.06,3.9
38,22,1,1,11,19,519,949.7966148221167,950.5895278938115,"[24, 0, 230]",230,a,0.26962244824972004,1,colour,0.06,3.9
38,22,1,1,11,20,520,951.1092227110639,952.0455446464475,"[77, 0, 177]",177,l,0.4130990533158183,1,colour,0.06,3.9
38,22,1,1,11,21,521,952.5624238647288,954.077535506105,"[56, 0, 198]",198,l,0.9918135348707438,1,colour,0.06,3.9
38,22,1,1,11,22,522,954.5949405076681,955.501503109932,"[75, 0, 179]",179,l,0.38333341863472015,1,colour,0.06,3.9
38,22,1,1,11,23,523,956.0168888674816,957.0694715266582,"[88, 0, 166]",166,l,0.5292754942784086,1,colour,0.06,3.9
38,22,1,1,11,24,524,957.5794958702754,958.733462540782,"[72, 0, 182]",182,l,0.6306461148196831,1,colour,0.06,3.9
38,22,1,1,11,25,525,959.2523003509268,960.2854688075604,"[50, 0, 204]",204,l,0.5099731436930597,0,colour,0.06,3.9
38,22,1,1,11,26,526,960.7993465320906,961.8534801534843,"[65, 0, 189]",189,l,0.5291490700328723,1,colour,0.06,3.9
38,22,1,1,11,27,527,962.3636624289211,963.3815173986368,"[66, 0, 188]",188,l,0.49458600766956806,1,colour,0.06,3.9
38,22,1,1,11,28,528,963.8950174256461,965.1174497423926,"[29, 0, 225]",225,a,0.699272449943237,1,colour,0.06,3.9
38,22,1,1,11,29,529,965.6307000714587,966.501441276283,"[60, 0, 194]",194,l,0.34747066744603217,1,colour,0.06,3.9
38,22,1,1,11,30,530,967.0091927394969,967.9095073824283,"[87, 0, 167]",167,l,0.3770578901749104,1,colour,0.06,3.9
38,22,1,1,11,31,531,968.4154759086668,969.3174506088253,"[92, 0, 162]",162,l,0.3784706126898527,1,colour,0.06,3.9
38,22,1,1,11,32,532,969.8375180035364,970.9895414421335,"[78, 0, 176]",176,l,0.6289336761692539,1,colour,0.06,3.9
38,22,1,1,11,33,533,971.5109798117774,972.5254516516579,"[83, 0, 171]",171,l,0.4914821140700951,1,colour,0.06,3.9
38,22,1,1,11,34,534,973.0424840757623,973.9334527733736,"[73, 0, 181]",181,l,0.3677777169505134,1,colour,0.06,3.9
38,22,1,1,11,35,535,974.4487097435631,975.2454403562006,"[80, 0, 174]",174,l,0.2733836693223566,1,colour,0.06,3.9
38,22,1,1,11,36,536,975.7615429118741,976.5654415062163,"[85, 0, 169]",169,l,0.2808308871462941,1,colour,0.06,3.9
38,22,1,1,11,37,537,977.0739605736453,978.1334359168541,"[59, 0, 195]",195,l,0.5348637631395832,1,colour,0.06,3.9
38,22,1,1,11,38,538,978.6534643209307,979.7175397753017,"[63, 0, 191]",191,l,0.5408175201155245,1,colour,0.06,3.9
38,22,1,1,11,39,539,980.219088965212,981.4454967548372,"[69, 0, 185]",185,l,0.7069004426011816,1,colour,0.06,3.9
38,22,1,1,11,40,540,981.9660796929384,982.8374222991988,"[64, 0, 190]",190,l,0.34834224672522396,1,colour,0.06,3.9
38,22,1,1,11,41,541,983.3567843172932,984.2373901614919,"[70, 0, 184]",184,l,0.35728371306322515,1,colour,0.06,3.9
38,22,1,1,11,42,542,984.7475539261941,985.6133925465401,"[51, 0, 203]",203,l,0.3424570186762139,1,colour,0.06,3.9
38,22,1,1,11,43,543,986.1227020611987,988.1814133448061,"[98, 0, 156]",156,l,1.5338874210137874,1,colour,0.06,3.9
38,22,1,1,11,44,544,988.6868151278468,989.5494844763307,"[71, 0, 183]",183,l,0.339886391418986,1,colour,0.06,3.9
38,22,1,1,11,45,545,990.0619408136699,991.2133813613327,"[86, 0, 168]",168,l,0.6282676839036867,1,colour,0.06,3.9
38,22,1,1,11,46,546,991.7339064042317,992.6293791148346,"[55, 0, 199]",199,l,0.37211395194754004,1,colour,0.06,3.9
38,22,1,1,11,47,547,993.1403888589703,994.0454706035089,"[61, 0, 193]",193,l,0.38213809859007597,1,colour,0.06,3.9
38,22,1,1,11,48,548,994.5622844435275,995.597452452057,"[84, 0, 170]",170,l,0.5118380005005747,1,colour,0.06,3.9
38,22,1,1,11,49,549,996.1106756058289,997.0533455372788,"[90, 0, 164]",164,l,0.41921822528820485,1,colour,0.06,3.9
38,22,1,1,11,50,550,997.5638846363872,998.4053812636994,"[89, 0, 165]",165,l,0.3192500873701647,1,colour,0.06,3.9
38,22,1,1,12,1,551,1013.2208112500375,1014.021334197605,"[78, 0, 176]",176,l,0.2764938644832,1,colour,0.06,3.9
38,22,1,1,12,2,552,1014.534243850736,1015.3733592903009,"[72, 0, 182]",182,l,0.3158594744745642,1,colour,0.06,3.9
38,22,1,1,12,3,553,1015.8936649614479,1016.7814021595987,"[90, 0, 164]",164,l,0.3647073002066463,1,colour,0.06,3.9
38,22,1,1,12,4,554,1017.3000465917867,1018.2533251360292,"[94, 0, 160]",160,l,0.4300737789599225,1,colour,0.06,3.9
38,22,1,1,12,5,555,1018.7689712252468,1019.5892774083186,"[67, 0, 187]",187,l,0.29703367652837187,1,colour,0.06,3.9
38,22,1,1,12,6,556,1020.0970812529558,1020.9093585088849,"[50, 0, 204]",204,a,0.2892851671203971,1,colour,0.06,3.9
38,22,1,1,12,7,557,1021.4252944680629,1022.1973278394435,"[55, 0, 199]",199,a,0.24859269289299846,0,colour,0.06,3.9
38,22,1,1,12,8,558,1022.7079992705258,1024.125330189825,"[61, 0, 193]",193,a,0.8940635327016935,0,colour,0.06,3.9
38,22,1,1,12,9,559,1024.6456575224875,1025.3813689190429,"[98, 0, 156]",156,l,0.21239596093073487,1,colour,0.06,3.9
38,22,1,1,12,10,560,1025.8957385560498,1027.1732717779232,"[53, 0, 201]",201,l,0.7542110907379538,1,colour,0.06,3.9
38,22,1,1,12,11,561,1027.692835838534,1028.5173510448076,"[57, 0, 197]",197,l,0.30124506272841245,1,colour,0.06,3.9
38,22,1,1,12,12,562,1029.0365685217548,1029.8693087898428,"[91, 0, 163]",163,l,0.30990689888130873,1,colour,0.06,3.9
38,22,1,1,12,13,563,1030.3686264532153,1031.205315019004,"[62, 0, 192]",192,l,0.313247493468225,1,colour,0.06,3.9
38,22,1,1,12,14,564,1031.712544637383,1032.6133551312378,"[66, 0, 188]",188,l,0.3774371629115194,1,colour,0.06,3.9
38,22,1,1,12,15,565,1033.1346146953292,1033.9412969871191,"[89, 0, 165]",165,l,0.2834684681147337,1,colour,0.06,3.9
38,22,1,1,12,16,566,1034.4471867444227,1035.3173285168596,"[83, 0, 171]",171,l,0.3468798997346312,1,colour,0.06,3.9
38,22,1,1,12,17,567,1035.8378795534372,1036.781286762911,"[82, 0, 172]",172,l,0.42026191484183073,1,colour,0.06,3.9
38,22,1,1,12,18,568,1037.2910279318457,1038.109262489481,"[65, 0, 189]",189,l,0.29483759601134807,1,colour,0.06,3.9
38,22,1,1,12,19,569,1038.6194234973518,1039.4052843777463,"[69, 0, 185]",185,l,0.2631460586562753,1,colour,0.06,3.9
38,22,1,1,12,20,570,1039.9162118083332,1040.733303427347,"[71, 0, 183]",183,l,0.2936670882627368,1,colour,0.06,3.9
38,22,1,1,12,21,571,1041.244540420128,1042.0852324217558,"[79, 0, 175]",175,l,0.3174478519940749,1,colour,0.06,3.9
38,22,1,1,12,22,572,1042.6040336043807,1043.4292628518306,"[93, 0, 161]",161,l,0.30215326964389533,1,colour,0.06,3.9
38,22,1,1,12,23,573,1043.94921918225,1044.9332818445982,"[73, 0, 181]",181,l,0.4607401374960318,1,colour,0.06,3.9
38,22,1,1,12,24,574,1045.449348166585,1046.373283278197,"[59, 0, 195]",195,l,0.40066142356954515,1,colour,0.06,3.9
38,22,1,1,12,25,575,1046.8856852649478,1047.8452503653243,"[56, 0, 198]",198,l,0.43623272934928536,1,colour,0.06,3.9
38,22,1,1,12,26,576,1048.3545590923168,1049.1572477943264,"[32, 0, 222]",222,a,0.27946227532811463,1,colour,0.06,3.9
38,22,1,1,12,27,577,1049.6710802265443,1050.5013046120293,"[75, 0, 179]",179,l,0.3071417121682316,1,colour,0.06,3.9
38,22,1,1,12,28,578,1051.0149007372092,1052.0852651109453,"[63, 0, 191]",191,l,0.5470769010717049,1,colour,0.06,3.9
38,22,1,1,12,29,579,1052.5931363030104,1053.4212642507628,"[21, 0, 233]",233,a,0.3047494967468083,1,colour,0.06,3.9
38,22,1,1,12,30,580,1053.9371052932693,1054.9092588661006,"[85, 0, 169]",169,l,0.4492280437843874,1,colour,0.06,3.9
38,22,1,1,12,31,581,1055.421537973103,1056.4133329972392,"[68, 0, 186]",186,l,0.468461865442805,1,colour,0.06,3.9
38,22,1,1,12,32,582,1056.921627179021,1057.8132264226442,"[84, 0, 170]",170,l,0.36822709417901933,1,colour,0.06,3.9
38,22,1,1,12,33,583,1058.3280174740357,1059.1814054677961,"[16, 0, 238]",238,a,0.33027893293183297,1,colour,0.06,3.9
38,22,1,1,12,34,584,1059.6906681149267,1060.5652615190484,"[77, 0, 177]",177,l,0.3511259441729635,1,colour,0.06,3.9
38,22,1,1,12,35,585,1061.0815361851128,1062.0692293118918,"[64, 0, 190]",190,l,0.4644135310081765,1,colour,0.06,3.9
38,22,1,1,12,36,586,1062.5816659569973,1063.4692960293032,"[95, 0, 159]",159,l,0.3642937628319487,1,colour,0.06,3.9
38,22,1,1,12,37,587,1063.987984572188,1064.997297434602,"[76, 0, 178]",178,l,0.48612660786602646,1,colour,0.06,3.9
38,22,1,1,12,38,588,1065.5037106119562,1066.5492501384579,"[58, 0, 196]",196,l,0.522270958404988,1,colour,0.06,3.9
38,22,1,1,12,39,589,1067.066389294574,1067.909195457003,"[80, 0, 174]",174,l,0.3198282519588247,1,colour,0.06,3.9
38,22,1,1,12,40,590,1068.4258686943213,1069.2532625147142,"[88, 0, 166]",166,l,0.30414888297673315,1,colour,0.06,3.9
38,22,1,1,12,41,591,1069.7697215002263,1070.6211894989247,"[54, 0, 200]",200,l,0.3282774118706584,1,colour,0.06,3.9
38,22,1,1,12,42,592,1071.1291185863083,1071.6611970765516,"[52, 0, 202]",202,l,0.008874906576238573,1,colour,0.06,3.9
38,22,1,1,12,43,593,1072.1761169151869,1072.9892058860278,"[96, 0, 158]",158,l,0.2897695966530591,1,colour,0.06,3.9
38,22,1,1,12,44,594,1073.5043415519176,1074.4292222857475,"[81, 0, 173]",173,l,0.40166572865564376,1,colour,0.06,3.9
38,22,1,1,12,45,595,1074.9420728620607,1075.8131480475422,"[70, 0, 184]",184,l,0.34780740505084395,1,colour,0.06,3.9
38,22,1,1,12,46,596,1076.3327247112757,1077.1812250867952,"[97, 0, 157]",157,l,0.3251664291601628,1,colour,0.06,3.9
38,22,1,1,12,47,597,1077.6922226216411,1078.5891844608122,"[99, 0, 155]",155,l,0.3737298985943198,1,colour,0.06,3.9
38,22,1,1,12,48,598,1079.1004312997684,1080.2452528859721,"[87, 0, 167]",167,l,0.6193443344673142,1,colour,0.06,3.9
38,22,1,1,12,49,599,1080.7590565675637,1081.8371852044947,"[51, 0, 203]",203,l,0.5547659398289397,1,colour,0.06,3.9
38,22,1,1,12,50,600,1082.3529569301754,1083.2611921927892,"[74, 0, 180]",180,l,0.3850088359322399,1,colour,0.06,3.9
38,22,1,1,13,1,601,1093.557475200505,1094.3651740066707,"[81, 0, 173]",173,l,0.283518880372867,1,colour,0.06,3.9
38,22,1,1,13,2,602,1094.8864926474635,1095.813138201367,"[85, 0, 169]",169,l,0.4034691455308348,1,colour,0.06,3.9
38,22,1,1,13,3,603,1096.3241010779748,1097.2291729763383,"[52, 0, 202]",202,l,0.3817592195700854,1,colour,0.06,3.9
38,22,1,1,13,4,604,1097.7461628651945,1098.6931182255503,"[73, 0, 181]",181,l,0.4236694631399587,1,colour,0.06,3.9
38,22,1,1,13,5,605,1099.1993151820498,1099.98115096509,"[55, 0, 199]",199,l,0.25852271041367203,1,colour,0.06,3.9
38,22,1,1,13,6,606,1100.4968458911171,1101.3091700145742,"[70, 0, 184]",184,l,0.28901892772410065,1,colour,0.06,3.9
38,22,1,1,13,7,607,1101.8250693462323,1102.6771096019074,"[94, 0, 160]",160,l,0.3287228507688269,1,colour,0.06,3.9
38,22,1,1,13,8,608,1103.1844585554209,1104.3811306427233,"[84, 0, 170]",170,l,0.6740766005823389,1,colour,0.06,3.9
38,22,1,1,13,9,609,1104.8891180191422,1105.701162512647,"[58, 0, 196]",196,l,0.28880231291987,1,colour,0.06,3.9
38,22,1,1,13,10,610,1106.217318631243,1107.293093255721,"[65, 0, 189]",189,l,0.5524666717974469,1,colour,0.06,3.9
38,22,1,1,13,11,611,1107.8110929635586,1108.8131141768536,"[97, 0, 157]",157,l,0.47858211025595665,1,colour,0.06,3.9
38,22,1,1,13,12,612,1109.3268398770597,1110.3010843737284,"[74, 0, 180]",180,l,0.45082075358368456,1,colour,0.06,3.9
38,22,1,1,13,13,613,1110.811412765761,1111.6771474110428,"[66, 0, 188]",188,l,0.3424022742547095,1,colour,0.06,3.9
38,22,1,1,13,14,614,1112.186531756306,1113.2051822930807,"[53, 0, 201]",201,l,0.49594792420975864,1,colour,0.06,3.9
38,22,1,1,13,15,615,1113.7178910851944,1114.5490591236157,"[79, 0, 175]",175,l,0.30779707059264183,1,colour,0.06,3.9
38,22,1,1,13,16,616,1115.061752949492,1115.965063966345,"[90, 0, 164]",164,l,0.3785801016492769,1,colour,0.06,3.9
38,22,1,1,13,17,617,1116.4852187946672,1117.493083882262,"[98, 0, 156]",156,l,0.484633540851064,1,colour,0.06,3.9
38,22,1,1,13,18,618,1118.0008885145653,1119.1570382687496,"[93, 0, 161]",161,l,0.6328201399883255,1,colour,0.06,3.9
38,22,1,1,13,19,619,1119.6717418864137,1120.4450690390076,"[87, 0, 167]",167,l,0.25012790120672435,1,colour,0.06,3.9
38,22,1,1,13,20,620,1120.9529335357947,1121.8610455249436,"[91, 0, 163]",163,l,0.38273595564533025,1,colour,0.06,3.9
38,22,1,1,13,21,621,1122.3769574594917,1123.141063121846,"[54, 0, 200]",200,l,0.24068506993353367,1,colour,0.06,3.9
38,22,1,1,13,22,622,1123.6583452437771,1124.4850762228016,"[45, 0, 209]",209,l,0.3048046351177618,0,colour,0.06,3.9
38,22,1,1,13,23,623,1125.000845585484,1125.8290007084142,"[57, 0, 197]",197,l,0.3049877730663866,1,colour,0.06,3.9
38,22,1,1,13,24,624,1126.3446609760867,1127.1411564631853,"[64, 0, 190]",190,l,0.2733175033936277,1,colour,0.06,3.9
38,22,1,1,13,25,625,1127.6571991544915,1128.7970724701881,"[56, 0, 198]",198,l,0.6163991604698822,1,colour,0.06,3.9
38,22,1,1,13,26,626,1129.3135472096037,1130.24509416637,"[72, 0, 182]",182,l,0.40820946579333395,1,colour,0.06,3.9
38,22,1,1,13,27,627,1130.7667908985168,1131.3650326161878,"[77, 0, 177]",177,l,0.07478725467808545,1,colour,0.06,3.9
38,22,1,1,13,28,628,1131.876218409161,1132.6690495610237,"[67, 0, 187]",187,l,0.269434190238826,1,colour,0.06,3.9
38,22,1,1,13,29,629,1133.18884441501,1134.0451153551694,"[88, 0, 166]",166,l,0.3328814615961164,1,colour,0.06,3.9
38,22,1,1,13,30,630,1134.5640276022023,1135.3570095967734,"[76, 0, 178]",178,l,0.26972012186888605,1,colour,0.06,3.9
38,22,1,1,13,31,631,1135.8765862605069,1137.1010279752081,"[68, 0, 186]",186,l,0.7010581437498331,1,colour,0.06,3.9
38,22,1,1,13,32,632,1137.6110948539572,1138.6049918296048,"[83, 0, 171]",171,l,0.47057208768092096,1,colour,0.06,3.9
38,22,1,1,13,33,633,1139.111254164367,1140.0850717328722,"[99, 0, 155]",155,l,0.4505946864373982,1,colour,0.06,3.9
38,22,1,1,13,34,634,1140.5956903888145,1141.4210291252239,"[89, 0, 165]",165,l,0.3018980579217896,1,colour,0.06,3.9
38,22,1,1,13,35,635,1141.9418416749686,1142.74122719781,"[50, 0, 204]",204,l,0.2758952198782936,0,colour,0.06,3.9
38,22,1,1,13,36,636,1143.2544984007254,1144.0290630147792,"[71, 0, 183]",183,l,0.25134763959795237,1,colour,0.06,3.9
38,22,1,1,13,37,637,1144.5358322282555,1145.5170450271107,"[96, 0, 158]",158,l,0.4579536831006408,1,colour,0.06,3.9
38,22,1,1,13,38,638,1146.037369208876,1146.8130539185368,"[80, 0, 174]",174,l,0.24961590254679322,1,colour,0.06,3.9
38,22,1,1,13,39,639,1147.3213630664395,1148.14100168203,"[61, 0, 193]",193,l,0.2967186003224924,1,colour,0.06,3.9
38,22,1,1,13,40,640,1148.649560527876,1149.4051303843735,"[82, 0, 172]",172,l,0.23217407637275755,1,colour,0.06,3.9
38,22,1,1,13,41,641,1149.9152405861532,1150.7810035882285,"[59, 0, 195]",195,l,0.3426822980400175,1,colour,0.06,3.9
38,22,1,1,13,42,642,1151.2904084133916,1152.1169936696533,"[69, 0, 185]",185,l,0.30320562375709414,1,colour,0.06,3.9
38,22,1,1,13,43,643,1152.6342494039563,1153.389056776301,"[22, 0, 232]",232,a,0.2314517644699663,1,colour,0.06,3.9
38,22,1,1,13,44,644,1153.8999196161749,1154.9650163110346,"[75, 0, 179]",179,l,0.5416761025553569,1,colour,0.06,3.9
38,22,1,1,13,45,645,1155.4782536432613,1156.580997208017,"[86, 0, 168]",168,l,0.579391501378268,1,colour,0.06,3.9
38,22,1,1,13,46,646,1157.0877073446754,1157.988981788163,"[12, 0, 242]",242,a,0.3764407348353416,1,colour,0.06,3.9
38,22,1,1,13,47,647,1158.495454042335,1159.3733017889317,"[60, 0, 194]",194,l,0.3544409387977794,1,colour,0.06,3.9
38,22,1,1,13,48,648,1159.8863185679074,1160.8609773897333,"[78, 0, 176]",176,l,0.4514902903465554,1,colour,0.06,3.9
38,22,1,1,13,49,649,1161.370739038568,1162.2209416128462,"[92, 0, 162]",162,l,0.32723293465096503,1,colour,0.06,3.9
38,22,1,1,13,50,650,1162.730255065835,1163.6769772699336,"[62, 0, 192]",192,l,0.42337289766874164,1,colour,0.06,3.9
38,22,1,1,14,1,651,1169.7631060832646,1170.6369563016342,"[94, 0, 160]",160,l,0.3502598786726594,1,colour,0.06,3.9
38,22,1,1,14,2,652,1171.1546574748354,1172.0849098626059,"[77, 0, 177]",177,l,0.40697436744812876,1,colour,0.06,3.9
38,22,1,1,14,3,653,1172.5921997393016,1173.6369500000728,"[63, 0, 191]",191,l,0.5213304561330006,1,colour,0.06,3.9
38,22,1,1,14,4,654,1174.1548386435024,1175.2448893669061,"[81, 0, 173]",173,l,0.5667171707609668,1,colour,0.06,3.9
38,22,1,1,14,5,655,1175.7643967138138,1176.8288912195712,"[61, 0, 193]",193,l,0.5412456298945472,1,colour,0.06,3.9
38,22,1,1,14,6,656,1177.3426996272756,1178.228914220119,"[55, 0, 199]",199,l,0.36307008599396795,1,colour,0.06,3.9
38,22,1,1,14,7,657,1178.748950107256,1179.60488470376,"[75, 0, 179]",179,l,0.33118832134641707,1,colour,0.06,3.9
38,22,1,1,14,8,658,1180.1253317652736,1181.388882696745,"[83, 0, 171]",171,l,0.7402110773837194,1,colour,0.06,3.9
38,22,1,1,14,9,659,1181.9066961157368,1182.7249090118567,"[6, 0, 248]",248,a,0.2947403162252158,1,colour,0.06,3.9
38,22,1,1,14,10,660,1183.2350030660164,1183.8209552398184,"[82, 0, 172]",172,l,0.06270684255287051,1,colour,0.06,3.9
38,22,1,1,14,11,661,1184.3295113287168,1184.8768745551351,"[78, 0, 176]",176,l,0.0240993844345212,1,colour,0.06,3.9
38,22,1,1,14,12,662,1185.3921488545602,1186.1249225601787,"[97, 0, 157]",157,l,0.20958036195952445,1,colour,0.06,3.9
38,22,1,1,14,13,663,1186.6422653342597,1187.260858605965,"[74, 0, 180]",180,l,0.09535502968356013,1,colour,0.06,3.9
38,22,1,1,14,14,664,1187.7686888382304,1188.4848895401228,"[52, 0, 202]",202,l,0.19284076162148267,1,colour,0.06,3.9
38,22,1,1,14,15,665,1189.003190933261,1189.7249113749713,"[67, 0, 187]",187,l,0.1987303220666945,1,colour,0.06,3.9
38,22,1,1,14,16,666,1190.2376343454234,1191.0929017682793,"[69, 0, 185]",185,l,0.3321520604658872,1,colour,0.06,3.9
38,22,1,1,14,17,667,1191.6127237975597,1192.468921876396,"[85, 0, 169]",169,l,0.33272510510869324,1,colour,0.06,3.9
38,22,1,1,14,18,668,1192.9878857170697,1193.9648575914325,"[70, 0, 184]",184,l,0.45242015866097063,1,colour,0.06,3.9
38,22,1,1,14,19,669,1194.4737736547831,1195.2128874795744,"[90, 0, 164]",164,l,0.21580311527941376,1,colour,0.06,3.9
38,22,1,1,14,20,670,1195.7238200299907,1196.4288725513034,"[86, 0, 168]",168,l,0.18174811324570328,1,colour,0.06,3.9
38,22,1,1,14,21,671,1196.9429483797867,1197.7249220088124,"[87, 0, 167]",167,l,0.27021872985642403,1,colour,0.06,3.9
38,22,1,1,14,22,672,1198.2439287785674,1203.8368421653286,"[95, 0, 159]",159,l,5.069577864953317,1,colour,0.06,3.9
38,22,1,1,14,23,673,1204.3538261464564,1204.9649300589226,"[71, 0, 183]",183,l,0.08809803903568536,1,colour,0.06,3.9
38,22,1,1,14,24,674,1205.478778638877,1206.2849835903617,"[60, 0, 194]",194,l,0.2827075592940673,1,colour,0.06,3.9
38,22,1,1,14,25,675,1206.7914176415652,1207.3808206865797,"[58, 0, 196]",196,l,0.06602301867678761,1,colour,0.06,3.9
38,22,1,1,14,26,676,1207.9008790228982,1208.620831887587,"[88, 0, 166]",166,l,0.19659449986647815,1,colour,0.06,3.9
38,22,1,1,14,27,677,1209.1353318872862,1210.0289298951393,"[93, 0, 161]",161,l,0.37026642449200153,1,colour,0.06,3.9
38,22,1,1,14,28,678,1210.5417339977575,1211.8688357819337,"[84, 0, 170]",170,l,0.8037512962473556,1,colour,0.06,3.9
38,22,1,1,14,29,679,1212.38703477534,1213.244797600899,"[50, 0, 204]",204,l,0.33429142727982253,0,colour,0.06,3.9
38,22,1,1,14,30,680,1213.7621990579646,1214.5647948125843,"[54, 0, 200]",200,l,0.27992740646004677,1,colour,0.06,3.9
38,22,1,1,14,31,681,1215.0743197604315,1215.8368362576002,"[91, 0, 163]",163,l,0.23935111647006124,1,colour,0.06,3.9
38,22,1,1,14,32,682,1216.3555366159417,1217.2210617355304,"[56, 0, 198]",198,l,0.3422057455172762,1,colour,0.06,3.9
38,22,1,1,14,33,683,1217.7325425185263,1218.6928401709301,"[66, 0, 188]",188,l,0.4375178461195901,1,colour,0.06,3.9
38,22,1,1,14,34,684,1219.2010654298356,1220.0129819236463,"[79, 0, 175]",175,l,0.2886971563566476,1,colour,0.06,3.9
38,22,1,1,14,35,685,1220.5293483556015,1221.4287992960308,"[99, 0, 155]",155,l,0.3760362557368353,1,colour,0.06,3.9
38,22,1,1,14,36,686,1221.9356590938987,1222.5408124000533,"[96, 0, 158]",158,l,0.08178863977082074,1,colour,0.06,3.9
38,22,1,1,14,37,687,1223.0609120901208,1223.636764892959,"[98, 0, 156]",156,l,0.051373160793446004,1,colour,0.06,3.9
38,22,1,1,14,38,688,1224.155920929974,1224.9567743137013,"[92, 0, 162]",162,l,0.2775824525160715,1,colour,0.06,3.9
38,22,1,1,14,39,689,1225.4685461481567,1226.4127792508807,"[62, 0, 192]",192,l,0.420854258001782,1,colour,0.06,3.9
38,22,1,1,14,40,690,1226.9217130373,1227.5327945005847,"[65, 0, 189]",189,l,0.08777469221968204,1,colour,0.06,3.9
38,22,1,1,14,41,691,1228.046949885902,1228.8208103048382,"[80, 0, 174]",174,l,0.2505445893621072,1,colour,0.06,3.9
38,22,1,1,14,42,692,1229.3281387783354,1229.9648063916247,"[4, 0, 250]",250,a,0.11332815303467214,1,colour,0.06,3.9
38,22,1,1,14,43,693,1230.4845299595036,1231.4207873042906,"[64, 0, 190]",190,l,0.4128891337895766,1,colour,0.06,3.9
38,22,1,1,14,44,694,1231.937781131477,1232.7407341037178,"[53, 0, 201]",201,l,0.279052282567136,1,colour,0.06,3.9
38,22,1,1,14,45,695,1233.2509939665906,1234.2448046901263,"[40, 0, 214]",214,l,0.47045826632529497,0,colour,0.06,3.9
38,22,1,1,14,46,696,1234.7511064094724,1235.788784392993,"[51, 0, 203]",203,l,0.5144389538327232,1,colour,0.06,3.9
38,22,1,1,14,47,697,1236.298030104721,1237.2047203127295,"[68, 0, 186]",186,l,0.38327079720329493,1,colour,0.06,3.9
38,22,1,1,14,48,698,1237.7201115841744,1238.5648117478704,"[76, 0, 178]",178,l,0.3216115828836337,1,colour,0.06,3.9
38,22,1,1,14,49,699,1239.0796425775625,1240.4609595091315,"[57, 0, 197]",197,l,0.8580432434100658,1,colour,0.06,3.9
38,22,1,1,14,50,700,1240.9702922606375,1241.76482836809,"[73, 0, 181]",181,l,0.26938495959620923,1,colour,0.06,3.9
38,22,1,1,15,1,701,1250.3780515613034,1251.2127496338217,"[96, 0, 158]",158,l,0.3105461096856743,1,colour,0.06,3.9
38,22,1,1,15,2,702,1251.7227960326709,1252.540697003482,"[86, 0, 168]",168,l,0.29463200888130814,1,colour,0.06,3.9
38,22,1,1,15,3,703,1253.0509749832563,1253.7247152400669,"[91, 0, 163]",163,l,0.15205021994188428,1,colour,0.06,3.9
38,22,1,1,15,4,704,1254.2390726679005,1254.860741082579,"[72, 0, 182]",182,l,0.09906898939516395,1,colour,0.06,3.9
38,22,1,1,15,5,705,1255.37986915675,1256.1247283944394,"[62, 0, 192]",192,l,0.22157294652424753,1,colour,0.06,3.9
38,22,1,1,15,6,706,1256.6455700888764,1257.2607632954605,"[58, 0, 196]",196,l,0.09185374644584954,1,colour,0.06,3.9
38,22,1,1,15,7,707,1257.7706998115173,1258.5487200228963,"[78, 0, 176]",176,l,0.2549477780703455,1,colour,0.06,3.9
38,22,1,1,15,8,708,1259.067795321811,1259.7327185672475,"[57, 0, 197]",197,l,0.14176062168553472,1,colour,0.06,3.9
38,22,1,1,15,9,709,1260.2396354726516,1261.284785092459,"[29, 0, 225]",225,l,0.5224911178229377,0,colour,0.06,3.9
38,22,1,1,15,10,710,1261.8021822171286,1262.4687407076126,"[68, 0, 186]",186,l,0.14326156547758728,1,colour,0.06,3.9
38,22,1,1,15,11,711,1262.9897895645117,1263.7486878064228,"[77, 0, 177]",177,l,0.23562652303371578,1,colour,0.06,3.9
38,22,1,1,15,12,712,1264.243988249218,1265.0367213336285,"[59, 0, 195]",195,l,0.2699517027940601,1,colour,0.06,3.9
38,22,1,1,15,13,713,1265.5567107470706,1266.2606514433865,"[64, 0, 190]",190,l,0.18058942072093487,1,colour,0.06,3.9
38,22,1,1,15,14,714,1266.775585854426,1267.556763522327,"[12, 0, 242]",242,a,0.2579268227564171,1,colour,0.06,3.9
38,22,1,1,15,15,715,1268.0725171312224,1269.01298546826,"[92, 0, 162]",162,l,0.41782125656027347,1,colour,0.06,3.9
38,22,1,1,15,16,716,1269.52569071576,1270.2446778720478,"[63, 0, 191]",191,l,0.19562367151957005,1,colour,0.06,3.9
38,22,1,1,15,17,717,1270.7601140417391,1271.5727548167342,"[79, 0, 175]",175,l,0.28912565985228866,1,colour,0.06,3.9
38,22,1,1,15,18,718,1272.0884769180557,1272.9087464736076,"[90, 0, 164]",164,l,0.29691867379006,1,colour,0.06,3.9
38,22,1,1,15,19,719,1273.4165715858107,1274.420729015139,"[51, 0, 203]",203,l,0.4815997516270727,1,colour,0.06,3.9
38,22,1,1,15,20,720,1274.9347465547035,1275.932660750812,"[56, 0, 198]",198,l,0.4747590554179624,1,colour,0.06,3.9
38,22,1,1,15,21,721,1276.45034183783,1277.2447243457427,"[73, 0, 181]",181,l,0.2710111462511122,1,colour,0.06,3.9
38,22,1,1,15,22,722,1277.761668154737,1278.5806675596396,"[82, 0, 172]",172,l,0.2956272555748001,1,colour,0.06,3.9
38,22,1,1,15,23,723,1279.0899349327665,1279.964660275029,"[8, 0, 246]",246,a,0.3514874940738082,1,colour,0.06,3.9
38,22,1,1,15,24,724,1280.4826150845038,1281.348668744322,"[98, 0, 156]",156,l,0.3428075409028679,1,colour,0.06,3.9
38,22,1,1,15,25,725,1281.8577328934334,1282.7326413736446,"[61, 0, 193]",193,l,0.35154026933014393,1,colour,0.06,3.9
38,22,1,1,15,26,726,1283.2484233393334,1284.220685219625,"[99, 0, 155]",155,l,0.4489397491561249,1,colour,0.06,3.9
38,22,1,1,15,27,727,1284.732971022022,1285.620664503309,"[50, 0, 204]",204,l,0.3643914363346994,0,colour,0.06,3.9
38,22,1,1,15,28,728,1286.1392384372884,1287.0446403779788,"[70, 0, 184]",184,l,0.38109519670251757,1,colour,0.06,3.9
38,22,1,1,15,29,729,1287.5626389042009,1288.5808999282308,"[74, 0, 180]",180,l,0.49497709597926587,1,colour,0.06,3.9
38,22,1,1,15,30,730,1289.0939879931975,1289.7886496979045,"[89, 0, 165]",165,l,0.1717125449795276,1,colour,0.06,3.9
38,22,1,1,15,31,731,1290.297216026811,1291.124657502398,"[54, 0, 200]",200,l,0.3048747396096587,1,colour,0.06,3.9
38,22,1,1,15,32,732,1291.6410148758441,1292.4206309476867,"[97, 0, 157]",157,l,0.2561470365617424,1,colour,0.06,3.9
38,22,1,1,15,33,733,1292.9380201955792,1293.9086783383973,"[80, 0, 174]",174,l,0.4473501902539283,1,colour,0.06,3.9
38,22,1,1,15,34,734,1294.4252105790656,1295.3967871688074,"[88, 0, 166]",166,l,0.448237523320131,1,colour,0.06,3.9
38,22,1,1,15,35,735,1295.9096964279888,1297.1646930429852,"[83, 0, 171]",171,l,0.7316874808166176,1,colour,0.06,3.9
38,22,1,1,15,36,736,1297.6754979875404,1298.6765987847466,"[52, 0, 202]",202,l,0.478350923047401,1,colour,0.06,3.9
38,22,1,1,15,37,737,1299.19123032887,1300.2046427252935,"[94, 0, 160]",160,l,0.4901556436670944,1,colour,0.06,3.9
38,22,1,1,15,38,738,1300.72264794691,1301.4926053604577,"[81, 0, 173]",173,l,0.2467487099347636,1,colour,0.06,3.9
38,22,1,1,15,39,739,1302.0039061560528,1302.7646452301415,"[95, 0, 159]",159,l,0.23748429049737751,1,colour,0.06,3.9
38,22,1,1,15,40,740,1303.28525140509,1304.172619964229,"[76, 0, 178]",178,l,0.36393181909807026,1,colour,0.06,3.9
38,22,1,1,15,41,741,1304.6809421090875,1305.8285769311478,"[85, 0, 169]",169,l,0.6242760634049773,1,colour,0.06,3.9
38,22,1,1,15,42,742,1306.337390200817,1307.68459069042,"[87, 0, 167]",167,l,0.8242024930659682,1,colour,0.06,3.9
38,22,1,1,15,43,743,1308.1968221422285,1309.0045630898094,"[75, 0, 179]",179,l,0.28421047248411924,1,colour,0.06,3.9
38,22,1,1,15,44,744,1309.5250554435188,1310.4125732699176,"[67, 0, 187]",187,l,0.36405588034540415,1,colour,0.06,3.9
38,22,1,1,15,45,745,1310.9314425877528,1311.8846230645431,"[60, 0, 194]",194,l,0.4297716998262331,1,colour,0.06,3.9
38,22,1,1,15,46,746,1312.4002998736687,1313.532887448091,"[66, 0, 188]",188,l,0.6092099111992866,1,colour,0.06,3.9
38,22,1,1,15,47,747,1314.0410823809216,1315.0845711557195,"[71, 0, 183]",183,l,0.5202363543212414,1,colour,0.06,3.9
38,22,1,1,15,48,748,1315.6036779622082,1316.3725853846408,"[65, 0, 189]",189,l,0.24577985086943954,1,colour,0.06,3.9
38,22,1,1,15,49,749,1316.8849342021858,1317.7725473390892,"[55, 0, 199]",199,l,0.3641889999853447,1,colour,0.06,3.9
38,22,1,1,15,50,750,1318.2914387122728,1319.9645507860696,"[53, 0, 201]",201,l,1.149808059562929,1,colour,0.06,3.9
38,22,1,1,16,1,751,1348.8280795046594,1349.780458112713,"[81, 0, 173]",173,l,0.4285917397355661,1,colour,0.06,3.9
38,22,1,1,16,2,752,1350.2978383020964,1351.052462142543,"[85, 0, 169]",169,l,0.23141671216581017,1,colour,0.06,3.9
38,22,1,1,16,3,753,1351.566779792076,1352.3164340944495,"[71, 0, 183]",183,l,0.22632783907465637,1,colour,0.06,3.9
38,22,1,1,16,4,754,1352.8324913580436,1353.4045478873886,"[77, 0, 177]",177,l,0.048767875181511045,1,colour,0.06,3.9
38,22,1,1,16,5,755,1353.9261875119992,1354.6044321756344,"[66, 0, 188]",188,l,0.1547204899834469,1,colour,0.06,3.9
38,22,1,1,16,6,756,1355.1139630313264,1355.8044547035825,"[50, 0, 204]",204,l,0.16720853187143803,0,colour,0.06,3.9
38,22,1,1,16,7,757,1356.3171292311745,1357.0685081814881,"[74, 0, 180]",180,l,0.22807375458069146,1,colour,0.06,3.9
38,22,1,1,16,8,758,1357.5827829018235,1358.3085788530298,"[48, 0, 206]",206,l,0.20239859563298523,0,colour,0.06,3.9
38,22,1,1,16,9,759,1358.8173413167242,1359.4764415618265,"[59, 0, 195]",195,l,0.13573439721949399,1,colour,0.06,3.9
38,22,1,1,16,10,760,1359.9893626363482,1360.6604696444701,"[70, 0, 184]",184,l,0.14779157238081098,1,colour,0.06,3.9
38,22,1,1,16,11,761,1361.1767699104967,1361.8524770298973,"[83, 0, 171]",171,l,0.15263429237529635,1,colour,0.06,3.9
38,22,1,1,16,12,762,1362.364499743795,1363.1005069180392,"[53, 0, 201]",201,l,0.21274845232255757,1,colour,0.06,3.9
38,22,1,1,16,13,763,1363.6145717189647,1364.2764497537864,"[87, 0, 167]",167,l,0.1385850482620299,1,colour,0.06,3.9
38,22,1,1,16,14,764,1364.7863941467367,1365.5724862143397,"[51, 0, 203]",203,l,0.26282310555689037,1,colour,0.06,3.9
38,22,1,1,16,15,765,1366.0834908385295,1366.7084384078626,"[54, 0, 200]",200,l,0.10195626819040626,1,colour,0.06,3.9
38,22,1,1,16,16,766,1367.2241723245243,1367.980393600883,"[99, 0, 155]",155,l,0.22752158367075026,1,colour,0.06,3.9
38,22,1,1,16,17,767,1368.4951909538358,1369.1964160879143,"[84, 0, 170]",170,l,0.177829354070127,1,colour,0.06,3.9
38,22,1,1,16,18,768,1369.7139849290252,1370.5724161099643,"[65, 0, 189]",189,l,0.334996804012917,1,colour,0.06,3.9
38,22,1,1,16,19,769,1371.0891015564557,1372.2124258930562,"[75, 0, 179]",179,l,0.5999671532772481,1,colour,0.06,3.9
38,22,1,1,16,20,770,1372.729875005316,1373.5884207951603,"[96, 0, 158]",158,l,0.33511062525212765,1,colour,0.06,3.9
38,22,1,1,16,21,771,1374.1049715465633,1375.380406755372,"[1, 0, 253]",253,a,0.7521221361821517,1,colour,0.06,3.9
38,22,1,1,16,22,772,1375.902012903127,1376.644474411616,"[52, 0, 202]",202,l,0.21911771595478058,1,colour,0.06,3.9
38,22,1,1,16,23,773,1377.1521821580827,1377.948435036582,"[63, 0, 191]",191,l,0.27312097465619445,1,colour,0.06,3.9
38,22,1,1,16,24,774,1378.466495790286,1379.4603758306475,"[91, 0, 163]",163,l,0.47063195216469467,1,colour,0.06,3.9
38,22,1,1,16,25,775,1379.980956011801,1381.1005490594544,"[58, 0, 196]",196,l,0.5964713838184252,1,colour,0.06,3.9
38,22,1,1,16,26,776,1381.6215695594437,1382.772733234102,"[67, 0, 187]",187,l,0.6275441905017942,1,colour,0.06,3.9
38,22,1,1,16,27,777,1383.279555222718,1384.356418435229,"[55, 0, 199]",199,l,0.5535761336795986,1,colour,0.06,3.9
38,22,1,1,16,28,778,1384.8734559792792,1385.868402946042,"[95, 0, 159]",159,l,0.47158072504680604,1,colour,0.06,3.9
38,22,1,1,16,29,779,1386.3891694159247,1387.81240131706,"[98, 0, 156]",156,l,0.8999830252723768,1,colour,0.06,3.9
38,22,1,1,16,30,780,1388.3275862135924,1389.1884237882914,"[89, 0, 165]",165,l,0.33801011310424656,1,colour,0.06,3.9
38,22,1,1,16,31,781,1389.7026705456665,1390.46044554119,"[57, 0, 197]",197,l,0.2347809374332428,1,colour,0.06,3.9
38,22,1,1,16,32,782,1390.9683482409455,1391.9804881237214,"[61, 0, 193]",193,l,0.4899090966209769,1,colour,0.06,3.9
38,22,1,1,16,33,783,1392.4998064250685,1393.396402382059,"[62, 0, 192]",192,l,0.3733774072024971,1,colour,0.06,3.9
38,22,1,1,16,34,784,1393.906143944827,1394.7003862438723,"[60, 0, 194]",194,l,0.270908746519126,1,colour,0.06,3.9
38,22,1,1,16,35,785,1395.2186927569564,1395.9484799349448,"[69, 0, 185]",185,l,0.20647961914073676,1,colour,0.06,3.9
38,22,1,1,16,36,786,1396.4687982090982,1397.260382447159,"[9, 0, 245]",245,a,0.26838104822672904,1,colour,0.06,3.9
38,22,1,1,16,37,787,1397.7670264178887,1398.6123984814622,"[82, 0, 172]",172,l,0.322131852270104,1,colour,0.06,3.9
38,22,1,1,16,38,788,1399.126357731875,1399.9803510656347,"[88, 0, 166]",166,l,0.3306964087532833,1,colour,0.06,3.9
38,22,1,1,16,39,789,1400.5014373378363,1401.1965551151661,"[76, 0, 178]",178,l,0.17167158506345004,1,colour,0.06,3.9
38,22,1,1,16,40,790,1401.704607476131,1402.51636091806,"[78, 0, 176]",176,l,0.3014530128566548,1,colour,0.06,3.9
38,22,1,1,16,41,791,1403.0360777906608,1403.8363813664764,"[56, 0, 198]",198,l,0.27729218860622495,1,colour,0.06,3.9
38,22,1,1,16,42,792,1404.3487652363256,1405.132367021055,"[86, 0, 168]",168,l,0.2603288843529299,1,colour,0.06,3.9
38,22,1,1,16,43,793,1405.645594507223,1406.4283664602553,"[92, 0, 162]",162,l,0.25935096689499915,1,colour,0.06,3.9
38,22,1,1,16,44,794,1406.9426659928868,1407.7883515571011,"[68, 0, 186]",186,l,0.3224134515039623,1,colour,0.06,3.9
38,22,1,1,16,45,795,1408.2920507476665,1409.2923248639563,"[64, 0, 190]",190,l,0.4770390250487253,1,colour,0.06,3.9
38,22,1,1,16,46,796,1409.8077370090177,1410.7003141702153,"[93, 0, 161]",161,l,0.36922273482196033,1,colour,0.06,3.9
38,22,1,1,16,47,797,1411.2140800426714,1411.9083549914649,"[90, 0, 164]",164,l,0.1709236731985584,1,colour,0.06,3.9
38,22,1,1,16,48,798,1412.4172856271034,1413.0443662618054,"[80, 0, 174]",174,l,0.10368839919101447,1,colour,0.06,3.9
38,22,1,1,16,49,799,1413.558074632776,1414.228332116967,"[94, 0, 160]",160,l,0.14792469213716686,1,colour,0.06,3.9
38,22,1,1,16,50,800,1414.7456615002593,1415.3883415535092,"[73, 0, 181]",181,l,0.11941109120380133,1,colour,0.06,3.9
