id,age,condition,counterbalance,block,trialinblock,trial,tstart,tend,trialstim,trialintensity,response,RT,accuracy,trialtype,colourfreq,credits
89,22,0,1,Practice,1,NA,5.907684681005776e-06,1.130037442970206,"[64, 0, 190]",190,a,0.5755584446305875,0,colour,0.5,4
89,22,0,1,Practice,2,NA,1.6415414990042336,2.6660229903791333,"[6, 0, 248]",248,a,0.5024530722148484,1,colour,0.5,4
89,22,0,1,Practice,3,NA,3.1726075111946557,3.9780233716301154,"[57, 0, 197]",197,a,0.2831889426888665,0,colour,0.5,4
89,22,0,1,Practice,4,NA,4.485121861973312,5.0260253692104015,"[96, 0, 158]",158,l,0.018722275664913468,1,colour,0.5,4
89,22,0,1,Practice,5,NA,5.532336954478524,7.826132574205985,"[40, 0, 214]",214,a,1.7718629052251345,1,colour,0.5,4
89,22,0,1,Practice,6,NA,8.34456438817142,9.218026270333212,"[43, 0, 211]",211,a,0.3512684413581155,1,colour,0.5,4
89,22,0,1,Practice,7,NA,9.735044569621095,10.546023904113099,"[89, 0, 165]",165,l,0.28871224440808874,1,colour,0.5,4
89,22,0,1,Practice,8,NA,11.063225341960788,12.418039188502007,"[11, 0, 243]",243,a,0.8325951995648211,1,colour,0.5,4
89,22,0,1,Practice,9,NA,12.938294117382611,13.778051807341399,"[61, 0, 193]",193,a,0.3175835476286011,0,colour,0.5,4
89,22,0,1,Practice,10,NA,14.297631289678975,15.274029651118326,"[21, 0, 233]",233,a,0.45414269290631637,1,colour,0.5,4
89,22,0,1,1,1,1,4.122978534200229,4.95998796405911,"[15, 0, 239]",239,a,0.31397709625889547,1,colour,0.5,4.0
89,22,0,1,1,2,2,5.467620510113193,6.279979882325279,"[49, 0, 205]",205,a,0.2903006268752506,1,colour,0.5,4.0
89,22,0,1,1,3,3,6.795644925427041,7.583958794217324,"[25, 0, 229]",229,a,0.26600896945456043,1,colour,0.5,4.0
89,22,0,1,1,4,4,8.092462134634843,8.911958397220587,"[56, 0, 198]",198,a,0.2973146371805342,0,colour,0.5,4.0
89,22,0,1,1,5,5,9.420630697728484,10.408019342590705,"[74, 0, 180]",180,a,0.46534407799481414,0,colour,0.5,4.0
89,22,0,1,1,6,6,10.920661220821785,11.46397624949168,"[89, 0, 165]",165,l,0.021293698737281375,1,colour,0.5,4.0
89,22,0,1,1,7,7,11.983109503868036,13.20797058440803,"[21, 0, 233]",233,a,0.7026412520208396,1,colour,0.5,4.0
89,22,0,1,1,8,8,13.717510922346264,14.575934961787425,"[82, 0, 172]",172,l,0.3361782170686638,1,colour,0.5,4.0
89,22,0,1,1,9,9,15.092520423888345,15.943956840739702,"[92, 0, 162]",162,l,0.3292378560436191,1,colour,0.5,4.0
89,22,0,1,1,10,10,16.451895405436517,16.983991719782352,"[54, 0, 200]",200,a,0.009891452005831525,0,colour,0.5,4.0
89,22,0,1,1,11,11,17.498675297683803,18.311980688929907,"[8, 0, 246]",246,a,0.2909894642216386,1,colour,0.5,4.0
89,22,0,1,1,12,12,18.826853313104948,19.64798128127586,"[61, 0, 193]",193,a,0.2989467366132885,0,colour,0.5,4.0
89,22,0,1,1,13,13,20.15497185771528,20.943989136139862,"[24, 0, 230]",230,a,0.2668147791555384,1,colour,0.5,4.0
89,22,0,1,1,14,14,21.451854445404024,22.21598732761049,"[47, 0, 207]",207,a,0.2419083275308367,1,colour,0.5,4.0
89,22,0,1,1,15,15,22.73319152237673,23.520008381063235,"[6, 0, 248]",248,a,0.26464901788858697,1,colour,0.5,4.0
89,22,0,1,1,16,16,24.029963833090733,24.855971557990415,"[20, 0, 234]",234,a,0.3037217301898636,1,colour,0.5,4.0
89,22,0,1,1,17,17,25.373724774632137,26.16798572386324,"[48, 0, 206]",206,a,0.2720675084274262,1,colour,0.5,4.0
89,22,0,1,1,18,18,26.67697270763165,27.6559877844702,"[90, 0, 164]",164,l,0.45681375911226496,1,colour,0.5,4.0
89,22,0,1,1,19,19,28.161359258403536,28.98395509205875,"[96, 0, 158]",158,l,0.30035788820532616,1,colour,0.5,4.0
89,22,0,1,1,20,20,29.489509704580996,30.30401593344868,"[55, 0, 199]",199,a,0.2922793111210922,0,colour,0.5,4.0
89,22,0,1,1,21,21,30.81760895071784,31.623969254782423,"[0, 0, 254]",254,a,0.2840786416782066,1,colour,0.5,4.0
89,22,0,1,1,22,22,32.13015008304501,32.84799459327769,"[1, 0, 253]",253,a,0.19561759248608723,1,colour,0.5,4.0
89,22,0,1,1,23,23,33.36451467688312,34.127979201759445,"[32, 0, 222]",222,a,0.24133291795442346,1,colour,0.5,4.0
89,22,0,1,1,24,24,34.64571469531802,35.43996697993134,"[88, 0, 166]",166,l,0.2719639268325409,1,colour,0.5,4.0
89,22,0,1,1,25,25,35.95823771071446,36.75198744733643,"[26, 0, 228]",228,a,0.27153660349722486,1,colour,0.5,4.0
89,22,0,1,1,26,26,37.270777267665835,38.063982314721216,"[46, 0, 208]",208,a,0.27121916330361273,1,colour,0.5,4.0
89,22,0,1,1,27,27,38.58322427071107,39.32800669224525,"[57, 0, 197]",197,a,0.22303875330544543,0,colour,0.5,4.0
89,22,0,1,1,28,28,39.83322023379151,40.623993673259974,"[44, 0, 210]",210,a,0.2685150140168844,1,colour,0.5,4.0
89,22,0,1,1,29,29,41.130134723032825,41.91197336338519,"[77, 0, 177]",177,l,0.2596739503351273,1,colour,0.5,4.0
89,22,0,1,1,30,30,42.42728118781815,43.216006232236396,"[66, 0, 188]",188,a,0.2668667668913258,0,colour,0.5,4.0
89,22,0,1,1,31,31,43.723825461464,44.5039752885059,"[87, 0, 167]",167,l,0.2579213339049602,1,colour,0.5,4.0
89,22,0,1,1,32,32,45.06890460687282,45.864004055052646,"[60, 0, 194]",194,a,0.2742651712615043,0,colour,0.5,4.0
89,22,0,1,1,33,33,46.38009917840827,47.383985654538264,"[4, 0, 250]",250,a,0.48180016154947225,1,colour,0.5,4.0
89,22,0,1,1,34,34,47.895630313738366,48.44801365544845,"[97, 0, 157]",157,l,0.030148940888466313,1,colour,0.5,4.0
89,22,0,1,1,35,35,48.958231803015224,49.81597724513267,"[76, 0, 178]",178,l,0.33627707250707317,1,colour,0.5,4.0
89,22,0,1,1,36,36,50.33392580958025,51.1519825636351,"[16, 0, 238]",238,a,0.29661398446478415,1,colour,0.5,4.0
89,22,0,1,1,37,37,51.66127399067045,52.59998125291895,"[12, 0, 242]",242,a,0.4164370213984512,1,colour,0.5,4.0
89,22,0,1,1,38,38,53.11445766761608,53.85597313338076,"[39, 0, 215]",215,a,0.21998486842494458,1,colour,0.5,4.0
89,22,0,1,1,39,39,54.36441109528823,55.15998985452461,"[37, 0, 217]",217,a,0.27335853688418865,1,colour,0.5,4.0
89,22,0,1,1,40,40,55.67691599375394,56.599982828309294,"[70, 0, 184]",184,l,0.4009171107027214,1,colour,0.5,4.0
89,22,0,1,1,41,41,57.11439583373431,57.927985188231105,"[67, 0, 187]",187,a,0.2912872120796237,0,colour,0.5,4.0
89,22,0,1,1,42,42,58.442549824525486,59.29597989178728,"[91, 0, 163]",163,l,0.33119172796432395,1,colour,0.5,4.0
89,22,0,1,1,43,43,59.801931107605924,60.647985219737166,"[81, 0, 173]",173,l,0.32458810560638085,1,colour,0.5,4.0
89,22,0,1,1,44,44,61.161287578361225,61.94398598537373,"[17, 0, 237]",237,a,0.26051993237342685,1,colour,0.5,4.0
89,22,0,1,1,45,45,62.45825917534239,63.263983417491545,"[3, 0, 251]",251,a,0.283685976814013,1,colour,0.5,4.0
89,22,0,1,1,46,46,63.77064788911957,64.54398653676617,"[14, 0, 240]",240,a,0.25136064080288634,1,colour,0.5,4.0
89,22,0,1,1,47,47,65.05197236301319,65.83202136537875,"[93, 0, 161]",161,l,0.25783153693191707,1,colour,0.5,4.0
89,22,0,1,1,48,48,66.34880335684284,67.01601891408791,"[30, 0, 224]",224,a,0.14500439335824922,1,colour,0.5,4.0
89,22,0,1,1,49,49,67.53628368912905,68.52799125346064,"[59, 0, 195]",195,l,0.4695732004765887,1,colour,0.5,4.0
89,22,0,1,1,50,50,69.03627640297054,69.79997881107556,"[50, 0, 204]",204,a,0.24156410578871146,1,colour,0.5,4.0
89,22,0,1,2,1,51,79.36566667756415,80.16802510850539,"[21, 0, 233]",233,a,0.2792563865223201,1,colour,0.5,4.0
89,22,0,1,2,2,52,80.67894390880247,81.4480270462227,"[98, 0, 156]",156,l,0.24684716120827943,1,colour,0.5,4.0
89,22,0,1,2,3,53,81.96019670263922,82.72803883011511,"[34, 0, 220]",220,a,0.2462642685713945,1,colour,0.5,4.0
89,22,0,1,2,4,54,83.24143492417352,84.05601637771179,"[66, 0, 188]",188,a,0.2929232499736827,0,colour,0.5,4.0
89,22,0,1,2,5,55,84.56961254574708,85.36803802665963,"[42, 0, 212]",212,a,0.27680548044736497,1,colour,0.5,4.0
89,22,0,1,2,6,56,85.88205009647936,86.6400054981059,"[25, 0, 229]",229,a,0.23636178887682036,1,colour,0.5,4.0
89,22,0,1,2,7,57,87.1476998780272,87.94403876079014,"[64, 0, 190]",190,a,0.2743021928181406,0,colour,0.5,4.0
89,22,0,1,2,8,58,88.46018902263313,89.42407015823119,"[72, 0, 182]",182,a,0.4416396455344511,0,colour,0.5,4.0
89,22,0,1,2,9,59,89.94462047189882,90.80004064495733,"[39, 0, 215]",215,a,0.3333082584576914,1,colour,0.5,4.0
89,22,0,1,2,10,60,91.3196855057904,92.06401027782704,"[93, 0, 161]",161,l,0.2222167958971113,1,colour,0.5,4.0
89,22,0,1,2,11,61,92.56958182572271,93.35206243568973,"[57, 0, 197]",197,a,0.26040138461394235,0,colour,0.5,4.0
89,22,0,1,2,12,62,93.86648883190355,94.78404496780422,"[24, 0, 230]",230,a,0.3959853662381647,1,colour,0.5,4.0
89,22,0,1,2,13,63,95.30390368723602,96.0960536198254,"[43, 0, 211]",211,a,0.2701010334130842,1,colour,0.5,4.0
89,22,0,1,2,14,64,96.60082802265242,97.14405443587748,"[90, 0, 164]",164,l,0.02098177239531651,1,colour,0.5,4.0
89,22,0,1,2,15,65,97.66324361645093,98.38401952532877,"[73, 0, 181]",181,l,0.19852457266824786,1,colour,0.5,4.0
89,22,0,1,2,16,66,98.8976294779859,99.64000037810183,"[41, 0, 213]",213,a,0.22018848700099625,1,colour,0.5,4.0
89,22,0,1,2,17,67,100.15375369084359,100.92801787747885,"[32, 0, 222]",222,a,0.2521278535568854,1,colour,0.5,4.0
89,22,0,1,2,18,68,101.43501830007881,102.11202566618158,"[16, 0, 238]",238,a,0.15487733457121067,1,colour,0.5,4.0
89,22,0,1,2,19,69,102.62250532775943,103.37604571139673,"[81, 0, 173]",173,l,0.23135088129492942,1,colour,0.5,4.0
89,22,0,1,2,20,70,103.88817795240902,104.45601661401452,"[27, 0, 227]",227,a,0.04587286402238533,1,colour,0.5,4.0
89,22,0,1,2,21,71,104.96627847854688,105.52800503808248,"[94, 0, 160]",160,l,0.03953311873192433,1,colour,0.5,4.0
89,22,0,1,2,22,72,106.04438097392267,106.79199515096843,"[29, 0, 225]",225,a,0.22546287781733554,1,colour,0.5,4.0
89,22,0,1,2,23,73,107.30994489695877,108.0400443313556,"[18, 0, 236]",236,a,0.20778429506754037,1,colour,0.5,4.0
89,22,0,1,2,24,74,108.55997394313454,109.34408389558666,"[95, 0, 159]",159,l,0.26181214235839434,1,colour,0.5,4.0
89,22,0,1,2,25,75,109.85687267853064,110.70402640977409,"[74, 0, 180]",180,l,0.32487876423692796,1,colour,0.5,4.0
89,22,0,1,2,26,76,111.2162382077513,111.97604862586013,"[5, 0, 249]",249,a,0.237572078811354,1,colour,0.5,4.0
89,22,0,1,2,27,77,112.48184466619568,113.26403894984105,"[65, 0, 189]",189,l,0.2599594889616128,1,colour,0.5,4.0
89,22,0,1,2,28,78,113.77874300775875,114.64005118428031,"[77, 0, 177]",177,l,0.3390627479966497,1,colour,0.5,4.0
89,22,0,1,2,29,79,115.15374069390236,115.90401057714189,"[40, 0, 214]",214,a,0.22819420250016265,1,colour,0.5,4.0
89,22,0,1,2,30,80,116.41939244468813,117.28004053467885,"[23, 0, 231]",231,a,0.3384814307355555,1,colour,0.5,4.0
89,22,0,1,2,31,81,117.79432869081211,118.53602375052287,"[45, 0, 209]",209,a,0.21947089889727067,1,colour,0.5,4.0
89,22,0,1,2,32,82,119.0443541923596,119.86402926121082,"[1, 0, 253]",253,a,0.29746193572646007,1,colour,0.5,4.0
89,22,0,1,2,33,83,120.37245107542549,121.01602915409603,"[17, 0, 237]",237,a,0.12126805934531149,1,colour,0.5,4.0
89,22,0,1,2,34,84,121.52871396158298,122.29603542412224,"[75, 0, 179]",179,l,0.24511029865243472,1,colour,0.5,4.0
89,22,0,1,2,35,85,122.80994942618418,123.5520028861065,"[56, 0, 198]",198,a,0.22044448714586906,0,colour,0.5,4.0
89,22,0,1,2,36,86,124.05995050926867,125.03200947122241,"[92, 0, 162]",162,l,0.449739490300999,1,colour,0.5,4.0
89,22,0,1,2,37,87,125.54432091234776,126.32807443382626,"[4, 0, 250]",250,a,0.26148052370990627,1,colour,0.5,4.0
89,22,0,1,2,38,88,126.82873747420672,127.62401336558105,"[7, 0, 247]",247,a,0.27376538020325825,1,colour,0.5,4.0
89,22,0,1,2,39,89,128.14126797269273,128.91201983725477,"[78, 0, 176]",176,l,0.24846980832808185,1,colour,0.5,4.0
89,22,0,1,2,40,90,129.4224880772963,130.08004691498354,"[12, 0, 242]",242,a,0.13530710763006937,1,colour,0.5,4.0
89,22,0,1,2,41,91,130.59441817271,131.37603744061198,"[86, 0, 168]",168,l,0.25941991939907894,1,colour,0.5,4.0
89,22,0,1,2,42,92,131.8912787050067,132.66400689074362,"[51, 0, 203]",203,a,0.250420923330239,0,colour,0.5,4.0
89,22,0,1,2,43,93,133.17245233572612,133.96808702114504,"[36, 0, 218]",218,a,0.27400405109801795,1,colour,0.5,4.0
89,22,0,1,2,44,94,134.48502812653896,135.2560560774291,"[97, 0, 157]",157,l,0.24885853471641894,1,colour,0.5,4.0
89,22,0,1,2,45,95,135.76624389883364,136.69605810967914,"[62, 0, 192]",192,l,0.4075735084770713,1,colour,0.5,4.0
89,22,0,1,2,46,96,137.2037962065515,137.92804741596046,"[13, 0, 241]",241,a,0.20220900561253075,1,colour,0.5,4.0
89,22,0,1,2,47,97,138.43817064655013,139.28004092852643,"[26, 0, 228]",228,a,0.31988321666722186,1,colour,0.5,4.0
89,22,0,1,2,48,98,139.7974101449363,140.6640427307575,"[60, 0, 194]",194,l,0.3443828249874059,1,colour,0.5,4.0
89,22,0,1,2,49,99,141.17242437263485,142.03207445587032,"[91, 0, 163]",163,l,0.33733927620050963,1,colour,0.5,4.0
89,22,0,1,2,50,100,142.5474303295632,143.15204479136446,"[59, 0, 195]",195,a,0.08237572865618858,0,colour,0.5,4.0
89,22,0,1,3,1,101,150.84774450083205,151.92007005740015,"[65, 0, 189]",189,l,0.5493652968580136,1,colour,0.5,4.0
89,22,0,1,3,2,102,152.4266470951261,153.19207809501677,"[11, 0, 243]",243,a,0.24312294978881255,1,colour,0.5,4.0
89,22,0,1,3,3,103,153.70791446129442,154.52003910107305,"[0, 0, 254]",254,a,0.2899122943490511,1,colour,0.5,4.0
89,22,0,1,3,4,104,155.0360152828216,155.83208044234198,"[61, 0, 193]",193,l,0.273796100213076,1,colour,0.5,4.0
89,22,0,1,3,5,105,156.34853790437046,156.90409643565363,"[43, 0, 211]",211,a,0.033367847398039885,1,colour,0.5,4.0
89,22,0,1,3,6,106,157.41099603357725,158.0880742920417,"[66, 0, 188]",188,l,0.15491317459964193,1,colour,0.5,4.0
89,22,0,1,3,7,107,158.5984956643515,159.3680915897712,"[56, 0, 198]",198,a,0.24733513688261155,0,colour,0.5,4.0
89,22,0,1,3,8,108,159.87975121512136,160.4800491205242,"[19, 0, 235]",235,a,0.07803908610367216,1,colour,0.5,4.0
89,22,0,1,3,9,109,160.9891310212697,161.63203129031172,"[59, 0, 195]",195,a,0.12068595437449403,0,colour,0.5,4.0
89,22,0,1,3,10,110,162.14536751972628,162.7440864949749,"[80, 0, 174]",174,l,0.07647866672778036,1,colour,0.5,4.0
89,22,0,1,3,11,111,163.25470124585263,163.84807848256605,"[7, 0, 247]",247,a,0.07132754982740153,1,colour,0.5,4.0
89,22,0,1,3,12,112,164.36414643051103,165.33605651854305,"[71, 0, 183]",183,l,0.44970128721615765,1,colour,0.5,4.0
89,22,0,1,3,13,113,165.84849714126904,166.60808070385247,"[30, 0, 224]",224,a,0.23735270637553185,1,colour,0.5,4.0
89,22,0,1,3,14,114,167.1141299874289,167.91208876037854,"[48, 0, 206]",206,a,0.27574288290634286,1,colour,0.5,4.0
89,22,0,1,3,15,115,168.42656911355152,169.08006345653848,"[58, 0, 196]",196,a,0.13118432366172783,0,colour,0.5,4.0
89,22,0,1,3,16,116,169.59846651971748,170.32006674908916,"[21, 0, 233]",233,a,0.19937803778157104,1,colour,0.5,4.0
89,22,0,1,3,17,117,170.8328535627952,171.37606028371374,"[99, 0, 155]",155,l,0.0217036928224843,1,colour,0.5,4.0
89,22,0,1,3,18,118,171.89539794436132,172.42407921669655,"[12, 0, 242]",242,a,0.006479954608948901,1,colour,0.5,4.0
89,22,0,1,3,19,119,172.94221013202332,175.11207214006572,"[6, 0, 248]",248,a,1.6477181918889983,1,colour,0.5,4.0
89,22,0,1,3,20,120,175.62970444586244,176.43207981219166,"[45, 0, 209]",209,a,0.28011969779618084,1,colour,0.5,4.0
89,22,0,1,3,21,121,176.9423243474739,177.51207277021604,"[52, 0, 202]",202,a,0.04767746817378793,0,colour,0.5,4.0
89,22,0,1,3,22,122,178.02036619049613,178.58406670813565,"[55, 0, 199]",199,a,0.04166067692858633,0,colour,0.5,4.0
89,22,0,1,3,23,123,179.09839976274816,179.75208630277484,"[20, 0, 234]",234,a,0.1322465273551643,1,colour,0.5,4.0
89,22,0,1,3,24,124,180.27242236402526,181.0880679904949,"[73, 0, 181]",181,l,0.2934580933651887,1,colour,0.5,4.0
89,22,0,1,3,25,125,181.60052830554196,183.16006980533712,"[94, 0, 160]",160,l,1.0373137943533948,1,colour,0.5,4.0
89,22,0,1,3,26,126,183.67859259781835,184.27206199457578,"[92, 0, 162]",162,l,0.07125390056171454,1,colour,0.5,4.0
89,22,0,1,3,27,127,184.7880129701516,185.39206974547415,"[17, 0, 237]",237,a,0.08205907617229968,1,colour,0.5,4.0
89,22,0,1,3,28,128,185.89726713931304,186.4640818003245,"[93, 0, 161]",161,l,0.0444814047368709,1,colour,0.5,4.0
89,22,0,1,3,29,129,186.9754586439667,187.58407812967198,"[35, 0, 219]",219,a,0.08635909101576544,1,colour,0.5,4.0
89,22,0,1,3,30,130,188.1004887239833,189.13608140962606,"[91, 0, 163]",163,l,0.5133815217559459,1,colour,0.5,4.0
89,22,0,1,3,31,131,189.6474346224859,190.24006985260348,"[46, 0, 208]",208,a,0.07050716780941002,1,colour,0.5,4.0
89,22,0,1,3,32,132,190.75671557321039,191.28012284857687,"[42, 0, 212]",212,a,0.00108701603312511,1,colour,0.5,4.0
89,22,0,1,3,33,133,191.80359195782512,192.38412113770028,"[33, 0, 221]",221,a,0.05841765912191477,1,colour,0.5,4.0
89,22,0,1,3,34,134,192.89730494856485,193.42408039822476,"[88, 0, 166]",166,l,0.0045083595759933814,1,colour,0.5,4.0
89,22,0,1,3,35,135,193.94419117934012,194.49609009000415,"[49, 0, 205]",205,a,0.03250571766693611,1,colour,0.5,4.0
89,22,0,1,3,36,136,195.00383173150476,195.91206197883002,"[39, 0, 215]",215,a,0.38609864040336106,1,colour,0.5,4.0
89,22,0,1,3,37,137,196.42652382121014,197.2320684694132,"[97, 0, 157]",157,l,0.28412078323890455,1,colour,0.5,4.0
89,22,0,1,3,38,138,197.73824614690966,198.49611529617687,"[13, 0, 241]",241,a,0.235967548636836,1,colour,0.5,4.0
89,22,0,1,3,39,139,199.00380652533204,199.81610051904863,"[74, 0, 180]",180,l,0.2902017714368412,1,colour,0.5,4.0
89,22,0,1,3,40,140,200.33196996843617,201.10411604920228,"[14, 0, 240]",240,a,0.2499372799647972,1,colour,0.5,4.0
89,22,0,1,3,41,141,201.61321606689307,202.45611034946342,"[72, 0, 182]",182,l,0.320699266390875,1,colour,0.5,4.0
89,22,0,1,3,42,142,202.97258986688394,203.53608125209576,"[85, 0, 169]",169,l,0.04134835673903581,1,colour,0.5,4.0
89,22,0,1,3,43,143,204.05145091039594,204.79210700334806,"[4, 0, 250]",250,a,0.21923301566857845,1,colour,0.5,4.0
89,22,0,1,3,44,144,205.3007174699742,206.08808965203934,"[28, 0, 226]",226,a,0.2744105005695019,1,colour,0.5,4.0
89,22,0,1,3,45,145,206.6039776122052,207.36809237746638,"[40, 0, 214]",214,a,0.24207137993653305,1,colour,0.5,4.0
89,22,0,1,3,46,146,207.88515321216255,208.6721071293723,"[15, 0, 239]",239,a,0.264681707136333,1,colour,0.5,4.0
89,22,0,1,3,47,147,209.1820846368064,209.96011950875982,"[84, 0, 170]",170,l,0.2561844713491155,1,colour,0.5,4.0
89,22,0,1,3,48,148,210.47892114447313,212.6560988491401,"[62, 0, 192]",192,l,1.6549897777149454,1,colour,0.5,4.0
89,22,0,1,3,49,149,213.1664363321761,213.94411044083245,"[50, 0, 204]",204,a,0.25543773859681096,1,colour,0.5,4.0
89,22,0,1,3,50,150,214.46335200297472,215.2720872007485,"[51, 0, 203]",203,a,0.2853901501366636,0,colour,0.5,4.0
89,22,0,1,4,1,151,221.59501760690182,222.80810149894387,"[87, 0, 167]",167,l,0.6900751892098924,1,colour,0.5,3.9
89,22,0,1,4,2,152,223.31463757665188,224.48812021451886,"[39, 0, 215]",215,a,0.6520757082907949,1,colour,0.5,3.9
89,22,0,1,4,3,153,225.0020602104487,225.80008318036562,"[89, 0, 165]",165,l,0.2832314780971501,1,colour,0.5,3.9
89,22,0,1,4,4,154,226.30708163372765,227.096083158307,"[80, 0, 174]",174,l,0.2666513329168083,1,colour,0.5,3.9
89,22,0,1,4,5,155,227.6040087260626,228.41609043658536,"[77, 0, 177]",177,l,0.2901395437074825,1,colour,0.5,3.9
89,22,0,1,4,6,156,228.93209339988243,229.7280849101371,"[23, 0, 231]",231,a,0.2737252078659367,1,colour,0.5,3.9
89,22,0,1,4,7,157,230.24459751065297,231.02409434039146,"[3, 0, 251]",251,a,0.25732032432279084,1,colour,0.5,3.9
89,22,0,1,4,8,158,231.5414706460433,232.36010438505036,"[94, 0, 160]",160,l,0.29642808897187933,1,colour,0.5,3.9
89,22,0,1,4,9,159,232.86961518452154,233.84009285323555,"[42, 0, 212]",212,a,0.4483161294774618,1,colour,0.5,3.9
89,22,0,1,4,10,160,234.35400173529342,235.28812186868163,"[60, 0, 194]",194,a,0.40931430950877257,0,colour,0.5,3.9
89,22,0,1,4,11,161,235.79401006907574,236.6560909722175,"[41, 0, 213]",213,a,0.33986461923632305,1,colour,0.5,3.9
89,22,0,1,4,12,162,237.16906131834548,238.10410187073285,"[58, 0, 196]",196,a,0.4129030377662275,0,colour,0.5,3.9
89,22,0,1,4,13,163,238.62217961679562,239.3841014453792,"[4, 0, 250]",250,a,0.2398146401392296,1,colour,0.5,3.9
89,22,0,1,4,14,164,239.9034414691123,240.7761129015853,"[74, 0, 180]",180,l,0.3505354932422051,1,colour,0.5,3.9
89,22,0,1,4,15,165,241.29402208139072,241.8401739855908,"[91, 0, 163]",163,l,0.024025417282246053,1,colour,0.5,3.9
89,22,0,1,4,16,166,242.3564723336749,243.1520739359985,"[8, 0, 246]",246,a,0.27327543529099785,1,colour,0.5,3.9
89,22,0,1,4,17,167,243.66902094909165,244.68810280651087,"[43, 0, 211]",211,a,0.49695812743448187,1,colour,0.5,3.9
89,22,0,1,4,18,168,245.2003197245067,246.0081136294175,"[55, 0, 199]",199,a,0.2856166118144756,0,colour,0.5,3.9
89,22,0,1,4,19,169,246.52847213990754,247.38411995615752,"[27, 0, 227]",227,a,0.3334752493101405,1,colour,0.5,3.9
89,22,0,1,4,20,170,247.90341193063068,248.72812587015505,"[48, 0, 206]",206,a,0.30260714491305407,1,colour,0.5,3.9
89,22,0,1,4,21,171,249.24710828137177,250.04811542535026,"[2, 0, 252]",252,a,0.27869751848629676,1,colour,0.5,3.9
89,22,0,1,4,22,172,250.55958049058972,251.32810239691753,"[9, 0, 245]",245,a,0.24629813934734557,1,colour,0.5,3.9
89,22,0,1,4,23,173,251.8418742204376,252.57611810036178,"[0, 0, 254]",254,a,0.2120153867872432,1,colour,0.5,3.9
89,22,0,1,4,24,174,253.09189223891008,254.4241095428588,"[61, 0, 193]",193,a,0.8099703000334557,0,colour,0.5,3.9
89,22,0,1,4,25,175,254.93559154348623,255.6961160050996,"[57, 0, 197]",197,a,0.23832353772013448,0,colour,0.5,3.9
89,22,0,1,4,26,176,256.201240931201,256.74414675346634,"[44, 0, 210]",210,a,0.020678510671132244,1,colour,0.5,3.9
89,22,0,1,4,27,177,257.2636955157941,258.05611208238406,"[47, 0, 207]",207,a,0.2704637659335276,1,colour,0.5,3.9
89,22,0,1,4,28,178,258.57615394037566,259.34413470176514,"[37, 0, 217]",217,a,0.2461488715634914,1,colour,0.5,3.9
89,22,0,1,4,29,179,259.85743706040375,260.5761362172925,"[5, 0, 249]",249,a,0.19647657145105768,1,colour,0.5,3.9
89,22,0,1,4,30,180,261.091857974272,261.72813453477283,"[1, 0, 253]",253,a,0.11408351354475599,1,colour,0.5,3.9
89,22,0,1,4,31,181,262.2481374019844,263.05612350393494,"[93, 0, 161]",161,l,0.2858166857768083,1,colour,0.5,3.9
89,22,0,1,4,32,182,263.5761980511743,264.32811460614903,"[79, 0, 175]",175,l,0.24115962554060388,1,colour,0.5,3.9
89,22,0,1,4,33,183,264.84602457364963,265.5521237969515,"[97, 0, 157]",157,l,0.1839018440223299,1,colour,0.5,3.9
89,22,0,1,4,34,184,266.0647321982542,266.84013223786314,"[51, 0, 203]",203,a,0.2531490972469328,0,colour,0.5,3.9
89,22,0,1,4,35,185,267.3459684505506,268.1041459815315,"[66, 0, 188]",188,a,0.23592383168579545,0,colour,0.5,3.9
89,22,0,1,4,36,186,268.6116190197936,269.3841400423262,"[15, 0, 239]",239,a,0.25029528632876463,1,colour,0.5,3.9
89,22,0,1,4,37,187,269.8927418443345,270.72010991464776,"[71, 0, 183]",183,l,0.3049619524681475,1,colour,0.5,3.9
89,22,0,1,4,38,188,271.23660164131434,272.09614617373154,"[31, 0, 223]",223,a,0.3373778731620405,1,colour,0.5,3.9
89,22,0,1,4,39,189,272.61155836745456,273.36813963903114,"[92, 0, 162]",162,l,0.23430394149909262,1,colour,0.5,3.9
89,22,0,1,4,40,190,273.8772333551751,274.7601388859912,"[70, 0, 184]",184,l,0.36074084079882596,1,colour,0.5,3.9
89,22,0,1,4,41,191,275.26796993061726,276.19213717198,"[78, 0, 176]",176,l,0.40201476057700347,1,colour,0.5,3.9
89,22,0,1,4,42,192,276.70536391210044,277.4561572171806,"[84, 0, 170]",170,l,0.2288117536372738,1,colour,0.5,3.9
89,22,0,1,4,43,193,277.9710054228781,278.8001481650135,"[12, 0, 242]",242,a,0.30716434145870153,1,colour,0.5,3.9
89,22,0,1,4,44,194,279.3147580936493,280.1041010830377,"[63, 0, 191]",191,a,0.2671298562636366,0,colour,0.5,3.9
89,22,0,1,4,45,195,280.6116217767121,281.3201037706458,"[26, 0, 228]",228,a,0.1862074207747355,1,colour,0.5,3.9
89,22,0,1,4,46,196,281.8304030505824,282.4321479476057,"[46, 0, 208]",208,a,0.07959556701825932,1,colour,0.5,3.9
89,22,0,1,4,47,197,282.93970133054245,283.51214445025835,"[34, 0, 220]",220,a,0.050187057349830866,1,colour,0.5,3.9
89,22,0,1,4,48,198,284.01784714900714,284.60015651455615,"[85, 0, 169]",169,l,0.060097807814599946,1,colour,0.5,3.9
89,22,0,1,4,49,199,285.1116456044256,285.78415051863703,"[83, 0, 171]",171,l,0.15035440266365185,1,colour,0.5,3.9
89,22,0,1,4,50,200,286.2990676474583,286.89614388941845,"[14, 0, 240]",240,a,0.07477094879141077,1,colour,0.5,3.9
89,22,0,1,5,1,201,291.2670692039392,292.24012341571506,"[27, 0, 227]",227,a,0.4500762289681006,1,colour,0.5,3.9
89,22,0,1,5,2,202,292.7522198166989,293.5121243640897,"[73, 0, 181]",181,l,0.23766069424164016,1,colour,0.5,3.9
89,22,0,1,5,3,203,294.01783454592805,294.632134478059,"[97, 0, 157]",157,l,0.09216753751388751,1,colour,0.5,3.9
89,22,0,1,5,4,204,295.1428228782315,296.20015115824935,"[58, 0, 196]",196,a,0.5350485868548276,0,colour,0.5,3.9
89,22,0,1,5,5,205,296.7053288597672,297.3761394468311,"[82, 0, 172]",172,l,0.14883021714922506,1,colour,0.5,3.9
89,22,0,1,5,6,206,297.8927883182041,298.68016010643623,"[66, 0, 188]",188,a,0.2650720089004608,0,colour,0.5,3.9
89,22,0,1,5,7,207,299.18966145359445,299.91216674196767,"[31, 0, 223]",223,a,0.20028664141136687,1,colour,0.5,3.9
89,22,0,1,5,8,208,300.42407882284897,301.0561636762577,"[89, 0, 165]",165,l,0.10983784949348774,1,colour,0.5,3.9
89,22,0,1,5,9,209,301.56466347204696,302.3281193323055,"[67, 0, 187]",187,a,0.24125178559916094,0,colour,0.5,3.9
89,22,0,1,5,10,210,302.84592374898784,303.5041564578423,"[37, 0, 217]",217,a,0.13589078796212561,1,colour,0.5,3.9
89,22,0,1,5,11,211,304.01781130899326,304.6401275904791,"[20, 0, 234]",234,a,0.1000228037009947,1,colour,0.5,3.9
89,22,0,1,5,12,212,305.1584467643843,305.76016999986314,"[3, 0, 251]",251,a,0.0794667792506516,1,colour,0.5,3.9
89,22,0,1,5,13,213,306.2677639489557,306.9601325056865,"[42, 0, 212]",212,a,0.1701365189801436,1,colour,0.5,3.9
89,22,0,1,5,14,214,307.4709193674353,308.2401667388185,"[57, 0, 197]",197,a,0.24726857685891446,0,colour,0.5,3.9
89,22,0,1,5,15,215,308.752171767439,309.4961286869511,"[11, 0, 243]",243,a,0.22172015560499858,1,colour,0.5,3.9
89,22,0,1,5,16,216,310.00221617362695,310.67216305555485,"[83, 0, 171]",171,l,0.14779203807120211,1,colour,0.5,3.9
89,22,0,1,5,17,217,311.18965121358633,311.97613684744283,"[36, 0, 218]",218,a,0.26426580535189714,1,colour,0.5,3.9
89,22,0,1,5,18,218,312.4865125335782,313.4081374965026,"[23, 0, 231]",231,a,0.39942718981183134,1,colour,0.5,3.9
89,22,0,1,5,19,219,313.92410343824304,314.56014093400154,"[7, 0, 247]",247,a,0.1138956488284748,1,colour,0.5,3.9
89,22,0,1,5,20,220,315.0802190258546,315.6161825178715,"[28, 0, 226]",226,a,0.013720426562940702,1,colour,0.5,3.9
89,22,0,1,5,21,221,316.12713952126796,316.78414421710477,"[14, 0, 240]",240,a,0.13471515651326627,1,colour,0.5,3.9
89,22,0,1,5,22,222,317.299063708997,318.0881436089985,"[0, 0, 254]",254,a,0.26685258842189796,1,colour,0.5,3.9
89,22,0,1,5,23,223,318.5960234905797,319.1441792851838,"[60, 0, 194]",194,a,0.026043880003271624,0,colour,0.5,3.9
89,22,0,1,5,24,224,319.6583402289252,320.3201210998959,"[54, 0, 200]",200,a,0.1393054361542454,0,colour,0.5,3.9
89,22,0,1,5,25,225,320.8302695366583,321.3761788314732,"[86, 0, 168]",168,l,0.023674106298130937,1,colour,0.5,3.9
89,22,0,1,5,26,226,321.8930356537312,322.656141778396,"[40, 0, 214]",214,a,0.24118601324153133,1,colour,0.5,3.9
89,22,0,1,5,27,227,323.1739993643423,323.79220428339613,"[4, 0, 250]",250,a,0.09589411203342024,1,colour,0.5,3.9
89,22,0,1,5,28,228,324.29900187510066,324.968125618092,"[70, 0, 184]",184,l,0.1468791021470679,1,colour,0.5,3.9
89,22,0,1,5,29,229,325.48649914280395,326.05615067933104,"[64, 0, 190]",190,a,0.04743643417896237,0,colour,0.5,3.9
89,22,0,1,5,30,230,326.5646729243599,327.1201542617637,"[24, 0, 230]",230,a,0.03330246891709976,1,colour,0.5,3.9
89,22,0,1,5,31,231,327.62710939202225,328.39217253937386,"[71, 0, 183]",183,l,0.2428090542089194,1,colour,0.5,3.9
89,22,0,1,5,32,232,328.9084070843528,329.7361382810486,"[19, 0, 235]",235,a,0.306176968573709,1,colour,0.5,3.9
89,22,0,1,5,33,233,330.25212076432945,330.8561767519568,"[44, 0, 210]",210,a,0.08078852771723177,1,colour,0.5,3.9
89,22,0,1,5,34,234,331.3626017649949,331.9761758382374,"[38, 0, 216]",216,a,0.09135975858953316,1,colour,0.5,3.9
89,22,0,1,5,35,235,332.48759679267823,333.0961481429549,"[95, 0, 159]",159,l,0.08651505417947192,1,colour,0.5,3.9
89,22,0,1,5,36,236,333.6125996972987,334.3121744613454,"[50, 0, 204]",204,a,0.1773915632511489,1,colour,0.5,3.9
89,22,0,1,5,37,237,334.83132977112837,335.5441543153138,"[22, 0, 232]",232,a,0.19059014336380642,1,colour,0.5,3.9
89,22,0,1,5,38,238,336.0500988357526,336.7761826123897,"[81, 0, 173]",173,l,0.20391239122545812,1,colour,0.5,3.9
89,22,0,1,5,39,239,337.28451344808855,337.82416885612474,"[98, 0, 156]",156,l,0.017502927265013568,1,colour,0.5,3.9
89,22,0,1,5,40,240,338.33137919884757,338.9761801705463,"[77, 0, 177]",177,l,0.12261462012247648,1,colour,0.5,3.9
89,22,0,1,5,41,241,339.48759876191616,340.22413207087084,"[52, 0, 202]",202,a,0.21445526514435187,0,colour,0.5,3.9
89,22,0,1,5,42,242,340.7376077219087,341.3441591202427,"[55, 0, 199]",199,a,0.08450643761898391,0,colour,0.5,3.9
89,22,0,1,5,43,243,341.86257124188705,342.47219542972744,"[45, 0, 209]",209,a,0.0873192885046592,1,colour,0.5,3.9
89,22,0,1,5,44,244,342.9875678449753,343.62414412257203,"[16, 0, 238]",238,a,0.11450453533325344,1,colour,0.5,3.9
89,22,0,1,5,45,245,344.1438236418908,344.712171546882,"[51, 0, 203]",203,a,0.046106021080049686,0,colour,0.5,3.9
89,22,0,1,5,46,246,345.22199112191447,345.81618322679424,"[41, 0, 213]",213,a,0.07219125494884793,1,colour,0.5,3.9
89,22,0,1,5,47,247,346.3313780173048,346.88820473395754,"[91, 0, 163]",163,l,0.03465021123702172,1,colour,0.5,3.9
89,22,0,1,5,48,248,347.39380739572516,347.9441919670353,"[90, 0, 164]",164,l,0.02816080432967283,1,colour,0.5,3.9
89,22,0,1,5,49,249,348.4563135741919,349.1601359715278,"[49, 0, 205]",205,a,0.18158445188601036,1,colour,0.5,3.9
89,22,0,1,5,50,250,349.675062552662,350.62419571646024,"[1, 0, 253]",253,a,0.42682826447708067,1,colour,0.5,3.9
89,22,0,1,6,1,251,355.752505749173,358.60014824378595,"[53, 0, 201]",201,a,2.324679084122181,0,colour,0.5,3.9
89,22,0,1,6,2,252,359.1126349465485,359.7521820074471,"[34, 0, 220]",220,a,0.11728902929462492,1,colour,0.5,3.9
89,22,0,1,6,3,253,360.2688805034704,362.2801638085948,"[6, 0, 248]",248,a,1.4891402766661486,1,colour,0.5,3.9
89,22,0,1,6,4,254,362.8001339865441,363.5681895787566,"[73, 0, 181]",181,l,0.24583458216511644,1,colour,0.5,3.9
89,22,0,1,6,5,255,364.0813674819219,364.8321395193052,"[2, 0, 252]",252,a,0.22859395659179427,1,colour,0.5,3.9
89,22,0,1,6,6,256,365.3469786665228,366.10419639386237,"[92, 0, 162]",162,l,0.23499750497285277,1,colour,0.5,3.9
89,22,0,1,6,7,257,366.6126233280811,367.52817321049224,"[63, 0, 191]",191,a,0.3932556169311283,0,colour,0.5,3.9
89,22,0,1,6,8,258,368.0345328450203,368.70420245910645,"[79, 0, 175]",175,l,0.14753052408923395,1,colour,0.5,3.9
89,22,0,1,6,9,259,369.22204822963977,369.99224595235137,"[91, 0, 163]",163,l,0.2482271989574656,1,colour,0.5,3.9
89,22,0,1,6,10,260,370.5032478542271,371.2002212629013,"[76, 0, 178]",178,l,0.1748272294353228,1,colour,0.5,3.9
89,22,0,1,6,11,261,371.70634655882895,372.28818645948195,"[10, 0, 244]",244,a,0.059570447498117574,1,colour,0.5,3.9
89,22,0,1,6,12,262,372.8001300480828,374.03218867133546,"[75, 0, 179]",179,l,0.7098297362681478,1,colour,0.5,3.9
89,22,0,1,6,13,263,374.55011911883776,375.3681719344313,"[47, 0, 207]",207,a,0.2958424393873429,1,colour,0.5,3.9
89,22,0,1,6,14,264,375.87823923883843,376.4402088016068,"[31, 0, 223]",223,a,0.03971074345463421,1,colour,0.5,3.9
89,22,0,1,6,15,265,376.9563606388401,378.43219127070915,"[64, 0, 190]",190,l,0.9535962310474133,1,colour,0.5,3.9
89,22,0,1,6,16,266,378.94073281422607,379.7041969452548,"[74, 0, 180]",180,l,0.2412616317596985,1,colour,0.5,3.9
89,22,0,1,6,17,267,380.2222341251472,381.0321555882256,"[7, 0, 247]",247,a,0.2882538072008174,1,colour,0.5,3.9
89,22,0,1,6,18,268,381.5501289649983,382.3761721360788,"[42, 0, 212]",212,a,0.30388478259555995,1,colour,0.5,3.9
89,22,0,1,6,19,269,382.893837918833,383.4961948531418,"[13, 0, 241]",241,a,0.08012410887749866,1,colour,0.5,3.9
89,22,0,1,6,20,270,384.0031661311077,384.56019528479374,"[5, 0, 249]",249,a,0.034808931333827786,1,colour,0.5,3.9
89,22,0,1,6,21,271,385.0657270542142,385.6162096932676,"[87, 0, 167]",167,l,0.028260053615667857,1,colour,0.5,3.9
89,22,0,1,6,22,272,386.1281544634112,386.6722213448229,"[21, 0, 233]",233,a,0.021852172911167145,1,colour,0.5,3.9
89,22,0,1,6,23,273,387.19072090036934,387.8241913053789,"[16, 0, 238]",238,a,0.11141481043887325,1,colour,0.5,3.9
89,22,0,1,6,24,274,388.3313516296039,388.89622817253985,"[18, 0, 236]",236,a,0.042646474423236214,1,colour,0.5,3.9
89,22,0,1,6,25,275,389.40953525733494,391.0321654343861,"[30, 0, 224]",224,a,1.1004465824080398,1,colour,0.5,3.9
89,22,0,1,6,26,276,391.5500887926755,392.70417922217166,"[35, 0, 219]",219,a,0.6319206194748404,1,colour,0.5,3.9
89,22,0,1,6,27,277,393.22199821115646,394.2722222900629,"[33, 0, 221]",221,a,0.528285456719459,1,colour,0.5,3.9
89,22,0,1,6,28,278,394.78447229113954,395.56819430491305,"[95, 0, 159]",159,l,0.2614801298623206,1,colour,0.5,3.9
89,22,0,1,6,29,279,396.0813493649912,396.8961950894445,"[57, 0, 197]",197,a,0.2926956067531137,0,colour,0.5,3.9
89,22,0,1,6,30,280,397.4094202541892,398.12823244498577,"[17, 0, 237]",237,a,0.19655849150149152,1,colour,0.5,3.9
89,22,0,1,6,31,281,398.6438057218911,399.4242044598359,"[41, 0, 213]",213,a,0.2588976791012101,1,colour,0.5,3.9
89,22,0,1,6,32,282,399.9407087895961,400.51222676415637,"[51, 0, 203]",203,a,0.049253247561864555,0,colour,0.5,3.9
89,22,0,1,6,33,283,401.01876796186843,401.73621389955224,"[12, 0, 242]",242,a,0.1952241399412742,1,colour,0.5,3.9
89,22,0,1,6,34,284,402.2532451957668,402.98422211992147,"[90, 0, 164]",164,l,0.20879254181636497,1,colour,0.5,3.9
89,22,0,1,6,35,285,403.50316435880086,404.2162263923674,"[20, 0, 234]",234,a,0.19080282041977625,1,colour,0.5,3.9
89,22,0,1,6,36,286,404.7219932880689,405.3522168234631,"[68, 0, 186]",186,l,0.10832429783476982,1,colour,0.5,3.9
89,22,0,1,6,37,287,405.862573211125,406.8561877796601,"[62, 0, 192]",192,l,0.4692088925803546,1,colour,0.5,3.9
89,22,0,1,6,38,288,407.3647691016522,408.05623102399113,"[58, 0, 196]",196,a,0.1692795092385495,0,colour,0.5,3.9
89,22,0,1,6,39,289,408.5697492104373,409.2962307719281,"[94, 0, 160]",160,l,0.2061187186918687,1,colour,0.5,3.9
89,22,0,1,6,40,290,409.802267846273,410.69639957448817,"[4, 0, 250]",250,a,0.37198594282381237,1,colour,0.5,3.9
89,22,0,1,6,41,291,411.2084636800864,412.0401821775886,"[23, 0, 231]",231,a,0.30939784432121087,1,colour,0.5,3.9
89,22,0,1,6,42,292,412.5522608554893,413.3282150369778,"[85, 0, 169]",169,l,0.2537930360849714,1,colour,0.5,3.9
89,22,0,1,6,43,293,413.8334967139526,414.5282543428475,"[45, 0, 209]",209,a,0.17259648350591306,1,colour,0.5,3.9
89,22,0,1,6,44,294,415.0366856093751,415.68022075877525,"[80, 0, 174]",174,l,0.12137124707805924,1,colour,0.5,3.9
89,22,0,1,6,45,295,416.1929024155106,416.9602230903547,"[97, 0, 157]",157,l,0.24525444643222727,1,colour,0.5,3.9
89,22,0,1,6,46,296,417.47407565238245,418.12819542342913,"[77, 0, 177]",177,l,0.13183771481271833,1,colour,0.5,3.9
89,22,0,1,6,47,297,418.64590256004885,419.4402017123648,"[56, 0, 198]",198,a,0.2720336376223713,0,colour,0.5,3.9
89,22,0,1,6,48,298,419.9585330955015,420.6322360904305,"[25, 0, 229]",229,a,0.15151861259073485,1,colour,0.5,3.9
89,22,0,1,6,49,299,421.1460004308756,422.1441832236451,"[67, 0, 187]",187,l,0.47597359810606577,1,colour,0.5,3.9
89,22,0,1,6,50,300,422.66162451394484,423.28019689169014,"[37, 0, 217]",217,a,0.09644352774193976,1,colour,0.5,3.9
89,22,0,1,7,1,301,428.1764947750489,430.0481910438539,"[55, 0, 199]",199,a,1.348645030579064,0,colour,0.5,3.9
89,22,0,1,7,2,302,430.5678737139533,431.18422597961035,"[23, 0, 231]",231,a,0.09417812332685571,1,colour,0.5,3.9
89,22,0,1,7,3,303,431.6928774062544,432.4562564664666,"[5, 0, 249]",249,a,0.24122145942237694,1,colour,0.5,3.9
89,22,0,1,7,4,304,432.9740691539191,433.52824134592083,"[32, 0, 222]",222,a,0.03191928040178027,1,colour,0.5,3.9
89,22,0,1,7,5,305,434.0366418924241,434.5762134111865,"[15, 0, 239]",239,a,0.017493081104476005,1,colour,0.5,3.9
89,22,0,1,7,6,306,435.08343517544563,436.57623704196885,"[46, 0, 208]",208,a,0.9705517118418356,1,colour,0.5,3.9
89,22,0,1,7,7,307,437.0834662893176,438.4402351893077,"[37, 0, 217]",217,a,0.8346916438749759,1,colour,0.5,3.9
89,22,0,1,7,8,308,438.9584165169799,439.80823540671554,"[2, 0, 252]",252,a,0.3275746427534614,1,colour,0.5,3.9
89,22,0,1,7,9,309,440.3178096154443,441.1122036847519,"[63, 0, 191]",191,l,0.2721809361828491,1,colour,0.5,3.9
89,22,0,1,7,10,310,441.6303011231357,442.3842408670025,"[89, 0, 165]",165,l,0.231664383012685,1,colour,0.5,3.9
89,22,0,1,7,11,311,442.89613364941033,443.64819317063666,"[69, 0, 185]",185,l,0.2300728497793898,1,colour,0.5,3.9
89,22,0,1,7,12,312,444.1615467292868,444.8722571060789,"[13, 0, 241]",241,a,0.18847282518981956,1,colour,0.5,3.9
89,22,0,1,7,13,313,445.38030161544157,446.19224114742246,"[12, 0, 242]",242,l,0.2897720850305632,0,colour,0.5,3.9
89,22,0,1,7,14,314,446.70843276314554,448.02424478971807,"[36, 0, 218]",218,a,0.7936197673116112,1,colour,0.5,3.9
89,22,0,1,7,15,315,448.5365463846683,449.30420694894565,"[79, 0, 175]",175,l,0.24541986190888565,1,colour,0.5,3.9
89,22,0,1,7,16,316,449.8177846062026,450.6642081462487,"[72, 0, 182]",182,l,0.32418756383412983,1,colour,0.5,3.9
89,22,0,1,7,17,317,451.1771454092668,451.9602234842023,"[48, 0, 206]",206,a,0.2608460371848196,1,colour,0.5,3.9
89,22,0,1,7,18,318,452.47405241544766,453.3362199647818,"[87, 0, 167]",167,l,0.33985949923226144,1,colour,0.5,3.9
89,22,0,1,7,19,319,453.84903159081296,454.69621722362353,"[68, 0, 186]",186,l,0.3246759333560476,1,colour,0.5,3.9
89,22,0,1,7,20,320,455.20844753237907,456.09624148455623,"[53, 0, 201]",201,a,0.3656012990686577,0,colour,0.5,3.9
89,22,0,1,7,21,321,456.6146937785379,457.4162231628143,"[66, 0, 188]",188,a,0.2852759346860694,0,colour,0.5,3.9
89,22,0,1,7,22,322,457.92116219343734,458.6722402494488,"[85, 0, 169]",169,l,0.22906460301601328,1,colour,0.5,3.9
89,22,0,1,7,23,323,459.18674502109934,460.5362506060337,"[65, 0, 189]",189,l,0.8273452272260329,1,colour,0.5,3.9
89,22,0,1,7,24,324,461.0462092088419,461.86422539671184,"[7, 0, 247]",247,a,0.29588339940528385,1,colour,0.5,3.9
89,22,0,1,7,25,325,462.3743214519054,463.2322169495019,"[92, 0, 162]",162,l,0.3356374659779249,1,colour,0.5,3.9
89,22,0,1,7,26,326,463.74923682416556,464.7282570210082,"[82, 0, 172]",172,l,0.4567149036593037,1,colour,0.5,3.9
89,22,0,1,7,27,327,465.2336655165127,466.01625325268833,"[9, 0, 245]",245,a,0.26037302767508663,1,colour,0.5,3.9
89,22,0,1,7,28,328,466.53053116881347,467.3442118956591,"[21, 0, 233]",233,a,0.29150146451138426,1,colour,0.5,3.9
89,22,0,1,7,29,329,467.85865562112303,468.55224313240615,"[86, 0, 168]",168,l,0.17140824894886464,1,colour,0.5,3.9
89,22,0,1,7,30,330,469.06180355651304,469.936212245404,"[6, 0, 248]",248,a,0.3522416357882321,1,colour,0.5,3.9
89,22,0,1,7,31,331,470.4542537575908,471.2162279677432,"[84, 0, 170]",170,l,0.2398559940047562,1,colour,0.5,3.9
89,22,0,1,7,32,332,471.73551167144615,472.4002326056798,"[96, 0, 158]",158,l,0.14249519802979194,1,colour,0.5,3.9
89,22,0,1,7,33,333,472.9073649668135,473.6802640818787,"[24, 0, 230]",230,a,0.2506103634368628,1,colour,0.5,3.9
89,22,0,1,7,34,334,474.1886346960673,474.9762601213588,"[77, 0, 177]",177,l,0.26560960921051446,1,colour,0.5,3.9
89,22,0,1,7,35,335,475.48549207758333,476.2962571596436,"[35, 0, 219]",219,a,0.2885578566347249,1,colour,0.5,3.9
89,22,0,1,7,36,336,476.8136212560494,477.5602531802142,"[94, 0, 160]",160,l,0.22440736948919948,1,colour,0.5,3.9
89,22,0,1,7,37,337,478.0798275425477,478.8642643875064,"[90, 0, 164]",164,l,0.26213509640365373,1,colour,0.5,3.9
89,22,0,1,7,38,338,479.3777932078083,480.10425704621593,"[42, 0, 212]",212,a,0.2043038745468948,1,colour,0.5,3.9
89,22,0,1,7,39,339,480.6121936416748,481.6002443423058,"[0, 0, 254]",254,a,0.465828902888461,1,colour,0.5,3.9
89,22,0,1,7,40,340,482.11220210936153,482.9282431576139,"[1, 0, 253]",253,a,0.2912265597406076,1,colour,0.5,3.9
89,22,0,1,7,41,341,483.44282079083496,484.248244528193,"[49, 0, 205]",205,a,0.28316413034917787,1,colour,0.5,3.9
89,22,0,1,7,42,342,484.7554438432271,485.31224180907884,"[29, 0, 225]",225,a,0.03479869132570457,1,colour,0.5,3.9
89,22,0,1,7,43,343,485.81789409549674,486.992297546225,"[95, 0, 159]",159,l,0.6523833023384213,1,colour,0.5,3.9
89,22,0,1,7,44,344,487.50538486472215,489.10426925544743,"[60, 0, 194]",194,a,1.0768697561725276,0,colour,0.5,3.9
89,22,0,1,7,45,345,489.6148087816837,490.3602493205253,"[57, 0, 197]",197,a,0.22325497497513425,0,colour,0.5,3.9
89,22,0,1,7,46,346,490.8804361139919,491.6322809889243,"[11, 0, 243]",243,a,0.2296321356552653,1,colour,0.5,3.9
89,22,0,1,7,47,347,492.14598625240615,492.9202744636714,"[20, 0, 234]",234,a,0.2520282104233047,1,colour,0.5,3.9
89,22,0,1,7,48,348,493.4272500739462,494.8722732537717,"[30, 0, 224]",224,a,0.922776963605429,1,colour,0.5,3.9
89,22,0,1,7,49,349,495.3707744713611,496.13627596973674,"[73, 0, 181]",181,l,0.24343960227270145,1,colour,0.5,3.9
89,22,0,1,7,50,350,496.652064286769,497.34426348953275,"[91, 0, 163]",163,l,0.16980017414607573,1,colour,0.5,3.9
89,22,0,1,8,1,351,502.08896399103105,503.42423596755543,"[31, 0, 223]",223,a,0.8123503137612715,1,colour,0.5,3.9
89,22,0,1,8,2,352,503.9335238499625,504.4802436806349,"[99, 0, 155]",155,l,0.024628002240206115,1,colour,0.5,3.9
89,22,0,1,8,3,353,504.9959012406616,506.5922894329851,"[28, 0, 226]",226,a,1.074143551493762,1,colour,0.5,3.9
89,22,0,1,8,4,354,507.10608567498275,508.7682580292603,"[64, 0, 190]",190,l,1.140922175560263,1,colour,0.5,3.9
89,22,0,1,8,5,355,509.2771367052628,510.1042814646935,"[69, 0, 185]",185,l,0.30488633396453224,1,colour,0.5,3.9
89,22,0,1,8,6,356,510.62099098840554,511.42426274910395,"[77, 0, 177]",177,l,0.28122325536969583,1,colour,0.5,3.9
89,22,0,1,8,7,357,511.93346989300335,512.6802550234133,"[46, 0, 208]",208,a,0.2245456095697591,1,colour,0.5,3.9
89,22,0,1,8,8,358,513.199026726812,513.9762829644606,"[30, 0, 224]",224,a,0.25495567062171176,1,colour,0.5,3.9
89,22,0,1,8,9,359,514.4959853268665,515.1042594092869,"[12, 0, 242]",242,a,0.0860963954764884,1,colour,0.5,3.9
89,22,0,1,8,10,360,515.6209043421986,516.2082895999774,"[40, 0, 214]",214,a,0.06533714628312737,1,colour,0.5,3.9
89,22,0,1,8,11,361,516.7147169760865,517.3602386866696,"[7, 0, 247]",247,a,0.12336017133202404,1,colour,0.5,3.9
89,22,0,1,8,12,362,517.8710030991788,518.5042832763866,"[5, 0, 249]",249,a,0.11118913645623252,1,colour,0.5,3.9
89,22,0,1,8,13,363,519.0115322160418,519.7842702479393,"[54, 0, 200]",200,a,0.2506399019184755,0,colour,0.5,3.9
89,22,0,1,8,14,364,520.2928460560797,520.912267960477,"[39, 0, 215]",215,a,0.09724815590016078,1,colour,0.5,3.9
89,22,0,1,8,15,365,521.4178473853244,522.0722869596357,"[37, 0, 217]",217,a,0.13242927208193578,1,colour,0.5,3.9
89,22,0,1,8,16,366,522.5897093453095,523.1762635872146,"[18, 0, 236]",236,a,0.06442814883484971,1,colour,0.5,3.9
89,22,0,1,8,17,367,523.6834223360638,524.4562938818708,"[91, 0, 163]",163,l,0.250661563462927,1,colour,0.5,3.9
89,22,0,1,8,18,368,524.9646755237482,525.6562559938611,"[70, 0, 184]",184,l,0.16933543543564156,1,colour,0.5,3.9
89,22,0,1,8,19,369,526.167788800667,526.9602404195903,"[88, 0, 166]",166,l,0.27018019653041847,1,colour,0.5,3.9
89,22,0,1,8,20,370,527.4802692806552,528.3442512803013,"[48, 0, 206]",206,a,0.3417724111350253,1,colour,0.5,3.9
89,22,0,1,8,21,371,528.855313440683,529.5762803650723,"[55, 0, 199]",199,a,0.19878884359786753,0,colour,0.5,3.9
89,22,0,1,8,22,372,530.089631954499,530.6803089803725,"[27, 0, 227]",227,a,0.06842490196868312,1,colour,0.5,3.9
89,22,0,1,8,23,373,531.1990661114542,531.7443082304817,"[10, 0, 244]",244,a,0.02300141665909905,1,colour,0.5,3.9
89,22,0,1,8,24,374,532.2615049421875,532.8642817167565,"[96, 0, 158]",158,l,0.08056049067818094,1,colour,0.5,3.9
89,22,0,1,8,25,375,533.3708678129478,534.024256605102,"[47, 0, 207]",207,a,0.13126742524036672,1,colour,0.5,3.9
89,22,0,1,8,26,376,534.5434134902607,535.1602970547101,"[74, 0, 180]",180,l,0.1058718163985759,1,colour,0.5,3.9
89,22,0,1,8,27,377,535.6728865513724,536.2483051805466,"[90, 0, 164]",164,l,0.05323621607385576,1,colour,0.5,3.9
89,22,0,1,8,28,378,536.766564883641,537.5202789535251,"[9, 0, 245]",245,a,0.23147966906253714,1,colour,0.5,3.9
89,22,0,1,8,29,379,538.0321855205548,538.6802424203343,"[79, 0, 175]",175,l,0.12648534242180176,1,colour,0.5,3.9
89,22,0,1,8,30,380,539.188456677497,539.7442814489332,"[61, 0, 193]",193,a,0.03384361384087242,0,colour,0.5,3.9
89,22,0,1,8,31,381,540.2509675821202,540.8722614383878,"[76, 0, 178]",178,l,0.09742066063336097,1,colour,0.5,3.9
89,22,0,1,8,32,382,541.3776010107686,541.9763042321574,"[95, 0, 159]",159,l,0.07651174980856013,1,colour,0.5,3.9
89,22,0,1,8,33,383,542.4869910569396,543.1123033278855,"[2, 0, 252]",252,a,0.10313300861162134,1,colour,0.5,3.9
89,22,0,1,8,34,384,543.6276150907797,544.3203184169251,"[0, 0, 254]",254,a,0.17055123920727056,1,colour,0.5,3.9
89,22,0,1,8,35,385,544.8306905584468,545.6482778476056,"[67, 0, 187]",187,l,0.29541984222305473,1,colour,0.5,3.9
89,22,0,1,8,36,386,546.1588461246138,546.9042953280878,"[62, 0, 192]",192,a,0.22318762724171393,0,colour,0.5,3.9
89,22,0,1,8,37,387,547.40884366307,547.9683197843697,"[50, 0, 204]",204,a,0.037207061977824196,1,colour,0.5,3.9
89,22,0,1,8,38,388,548.487256903245,549.0882570367539,"[65, 0, 189]",189,a,0.07661257448489778,0,colour,0.5,3.9
89,22,0,1,8,39,389,549.5989245630626,550.1523078807513,"[13, 0, 241]",241,l,0.031226110746501945,0,colour,0.5,3.9
89,22,0,1,8,40,390,550.658249644257,551.3202746999887,"[73, 0, 181]",181,l,0.1396965256135445,1,colour,0.5,3.9
89,22,0,1,8,41,391,551.8301730442909,552.6482872999186,"[6, 0, 248]",248,a,0.29592160251922905,1,colour,0.5,3.9
89,22,0,1,8,42,392,553.1583538166306,553.936282350056,"[68, 0, 186]",186,l,0.25573036646528635,1,colour,0.5,3.9
89,22,0,1,8,43,393,554.4551655119867,555.2002842783259,"[3, 0, 251]",251,a,0.22314351644308772,1,colour,0.5,3.9
89,22,0,1,8,44,394,555.7051685642946,556.4563053034217,"[4, 0, 250]",250,a,0.22907326763379388,1,colour,0.5,3.9
89,22,0,1,8,45,395,556.970789595056,557.6082748701301,"[92, 0, 162]",162,l,0.11534264044894371,1,colour,0.5,3.9
89,22,0,1,8,46,396,558.1270087642624,558.8962671633344,"[1, 0, 253]",253,a,0.24698382591304835,1,colour,0.5,3.9
89,22,0,1,8,47,397,559.4085982967808,560.0562613501679,"[81, 0, 173]",173,l,0.12568898501922376,1,colour,0.5,3.9
89,22,0,1,8,48,398,560.5645421673689,561.3283052277984,"[97, 0, 157]",157,l,0.24146091802685987,1,colour,0.5,3.9
89,22,0,1,8,49,399,561.845820561226,562.560268934074,"[49, 0, 205]",205,a,0.19223878433695063,1,colour,0.5,3.9
89,22,0,1,8,50,400,563.0802139058505,563.7442814489332,"[35, 0, 219]",219,a,0.1418351114843972,1,colour,0.5,3.9
89,22,0,1,9,1,401,568.3925029764941,570.7442873566324,"[68, 0, 186]",186,l,1.8287847357714782,1,colour,0.5,3.9
89,22,0,1,9,2,402,571.2526800261985,572.3042833551444,"[60, 0, 194]",194,l,0.5294457281561336,1,colour,0.5,3.9
89,22,0,1,9,3,403,572.8151485923445,573.4163231997954,"[87, 0, 167]",167,l,0.07901306821440812,1,colour,0.5,3.9
89,22,0,1,9,4,404,573.9245213092654,574.6243252919085,"[0, 0, 254]",254,a,0.177613298772485,1,colour,0.5,3.9
89,22,0,1,9,5,405,575.1432817092718,576.3683156883635,"[69, 0, 185]",185,a,0.7027743720973376,0,colour,0.5,3.9
89,22,0,1,9,6,406,576.8776819462073,577.6563237354276,"[39, 0, 215]",215,a,0.2564767053554533,1,colour,0.5,3.9
89,22,0,1,9,7,407,578.1745314508007,579.2803237102344,"[62, 0, 192]",192,l,0.5835736124572577,1,colour,0.5,3.9
89,22,0,1,9,8,408,579.7995306138764,580.6643310263171,"[17, 0, 237]",237,a,0.3426140608644346,1,colour,0.5,3.9
89,22,0,1,9,9,409,581.1744873400166,581.8962970956636,"[9, 0, 245]",245,a,0.1996320687030675,1,colour,0.5,3.9
89,22,0,1,9,10,410,582.40884366307,583.0803131551511,"[72, 0, 182]",182,l,0.14921303585288115,1,colour,0.5,3.9
89,22,0,1,9,11,411,583.5963539277,584.1442927129392,"[26, 0, 228]",228,a,0.025741012126673013,1,colour,0.5,3.9
89,22,0,1,9,12,412,584.6588549861626,585.1923415782512,"[95, 0, 159]",159,l,0.011209655858692713,1,colour,0.5,3.9
89,22,0,1,9,13,413,585.7056762322754,586.248343383646,"[54, 0, 200]",200,a,0.02057847370451782,0,colour,0.5,3.9
89,22,0,1,9,14,414,586.7681934384455,587.4963134009013,"[47, 0, 207]",207,a,0.20589855856087524,1,colour,0.5,3.9
89,22,0,1,9,15,415,588.0026021430822,588.6002916038706,"[81, 0, 173]",173,l,0.07548262921045534,1,colour,0.5,3.9
89,22,0,1,9,16,416,589.1119547738344,590.9683386889956,"[50, 0, 204]",204,a,1.3324465225596214,1,colour,0.5,3.9
89,22,0,1,9,17,417,591.488677113317,592.2883282441908,"[15, 0, 239]",239,a,0.2776475240243599,1,colour,0.5,3.9
89,22,0,1,9,18,418,592.8011587748479,593.67234028643,"[51, 0, 203]",203,a,0.3489829507743707,0,colour,0.5,3.9
89,22,0,1,9,19,419,594.191752384053,595.1763013964664,"[8, 0, 246]",246,a,0.4622720761690289,1,colour,0.5,3.9
89,22,0,1,9,20,420,595.6917321009678,596.3923363794747,"[6, 0, 248]",248,a,0.17834230842709076,1,colour,0.5,3.9
89,22,0,1,9,21,421,596.9104535101797,597.5443031892501,"[97, 0, 157]",157,l,0.11146837353589945,1,colour,0.5,3.9
89,22,0,1,9,22,422,598.0512862826145,599.7363233888464,"[59, 0, 195]",195,l,1.1628464223613264,1,colour,0.5,3.9
89,22,0,1,9,23,423,600.2543940456817,600.8723417830479,"[18, 0, 236]",236,a,0.09576020426175091,1,colour,0.5,3.9
89,22,0,1,9,24,424,601.3795111657528,602.0403086022852,"[21, 0, 233]",233,a,0.13864613730402198,1,colour,0.5,3.9
89,22,0,1,9,25,425,602.5513959688251,603.2003059398849,"[80, 0, 174]",174,l,0.12673110257310327,1,colour,0.5,3.9
89,22,0,1,9,26,426,603.7076257719018,604.3923391364078,"[57, 0, 197]",197,a,0.16899239522172138,0,colour,0.5,3.9
89,22,0,1,9,27,427,604.9043792173616,605.5762929681514,"[74, 0, 180]",180,l,0.14980853158340324,1,colour,0.5,3.9
89,22,0,1,9,28,428,606.0919052358367,606.6803519096284,"[79, 0, 175]",175,l,0.06626898684771731,1,colour,0.5,3.9
89,22,0,1,9,29,429,607.1862436546508,607.920287066765,"[76, 0, 178]",178,l,0.21251163324632216,1,colour,0.5,3.9
89,22,0,1,9,30,430,608.4356673589209,609.1123159309791,"[2, 0, 252]",252,a,0.1544972728152061,1,colour,0.5,3.9
89,22,0,1,9,31,431,609.6231244542869,610.1523504161596,"[20, 0, 234]",234,a,0.007053001085296273,1,colour,0.5,3.9
89,22,0,1,9,32,432,610.6699846911943,611.4323421138834,"[64, 0, 190]",190,l,0.24014625880226959,1,colour,0.5,3.9
89,22,0,1,9,33,433,611.9512173988769,613.1043184862501,"[3, 0, 251]",251,a,0.630886378858122,1,colour,0.5,3.9
89,22,0,1,9,34,434,613.6231303619716,614.5203273966326,"[5, 0, 249]",249,a,0.3750193477026187,1,colour,0.5,3.9
89,22,0,1,9,35,435,615.0293872419861,615.5683404219162,"[91, 0, 163]",163,l,0.01677824990474619,1,colour,0.5,3.9
89,22,0,1,9,36,436,616.0762978912389,616.7523269429221,"[40, 0, 214]",214,a,0.1538809032208519,1,colour,0.5,3.9
89,22,0,1,9,37,437,617.2636565249995,618.0243420697661,"[27, 0, 227]",227,a,0.23842436238192022,1,colour,0.5,3.9
89,22,0,1,9,38,438,618.5293165465555,619.0563349994336,"[88, 0, 166]",166,l,0.004815165913896635,1,colour,0.5,3.9
89,22,0,1,9,39,439,619.5762626419892,620.2563254683628,"[75, 0, 179]",179,l,0.15836208740074653,1,colour,0.5,3.9
89,22,0,1,9,40,440,620.7637311588915,621.4163389536552,"[36, 0, 218]",218,a,0.13043050166743342,1,colour,0.5,3.9
89,22,0,1,9,41,441,621.935522620377,623.2003374475898,"[1, 0, 253]",253,a,0.7425473432958825,1,colour,0.5,3.9
89,22,0,1,9,42,442,623.7168685588986,624.472323823662,"[7, 0, 247]",247,a,0.23336658709740732,1,colour,0.5,3.9
89,22,0,1,9,43,443,624.9824612327211,626.0803202443785,"[33, 0, 221]",221,a,0.5756293369922787,1,colour,0.5,3.9
89,22,0,1,9,44,444,626.5918294204021,627.2963422304601,"[82, 0, 172]",172,l,0.18222602765308693,1,colour,0.5,3.9
89,22,0,1,9,45,445,627.7982214684889,628.3363093679218,"[38, 0, 216]",216,a,0.015849560135393403,1,colour,0.5,3.9
89,22,0,1,9,46,446,628.8450777669495,629.4163645536755,"[43, 0, 211]",211,a,0.04915990597510245,1,colour,0.5,3.9
89,22,0,1,9,47,447,629.9232444592781,630.840356730303,"[63, 0, 191]",191,l,0.4072178651840659,1,colour,0.5,3.9
89,22,0,1,9,48,448,631.3483126242354,632.0243420697661,"[14, 0, 240]",240,a,0.15385333396261558,1,colour,0.5,3.9
89,22,0,1,9,49,449,632.5358138304,633.0803580536303,"[42, 0, 212]",212,a,0.02228894854488317,1,colour,0.5,3.9
89,22,0,1,9,50,450,633.5983747535065,634.3363326048566,"[83, 0, 171]",171,l,0.2157860720908502,1,colour,0.5,3.9
89,22,0,1,10,1,451,639.7452491295116,641.6723485572147,"[23, 0, 231]",231,a,1.404126564899343,1,colour,0.5,3.8
89,22,0,1,10,2,452,642.1835926746135,643.5203175504721,"[21, 0, 233]",233,a,0.8153963217191631,1,colour,0.5,3.8
89,22,0,1,10,3,453,644.0271868222189,644.7043387299491,"[91, 0, 163]",163,l,0.1549608299974352,1,colour,0.5,3.8
89,22,0,1,10,4,454,645.2148365084577,645.8643624552642,"[28, 0, 226]",226,a,0.12735180447634775,1,colour,0.5,3.8
89,22,0,1,10,5,455,646.3710001453292,647.4083210289245,"[83, 0, 171]",171,l,0.5151652520435164,1,colour,0.5,3.8
89,22,0,1,10,6,456,647.9179539207689,648.6963377406064,"[98, 0, 156]",156,l,0.25622700675739907,1,colour,0.5,3.8
89,22,0,1,10,7,457,649.2147372591717,650.0005872249603,"[11, 0, 243]",243,a,0.2636250172799919,1,colour,0.5,3.8
89,22,0,1,10,8,458,650.5116009422491,651.3363353617751,"[5, 0, 249]",249,a,0.30258312029764056,1,colour,0.5,3.8
89,22,0,1,10,9,459,651.855446954607,653.0803568720876,"[51, 0, 203]",203,l,0.703002802998526,1,colour,0.5,3.8
89,22,0,1,10,10,460,653.5897187976225,654.3763615762,"[88, 0, 166]",166,l,0.26449069163936656,1,colour,0.5,3.8
89,22,0,1,10,11,461,654.8865797237668,655.6323463674198,"[24, 0, 230]",230,a,0.22359486439381726,1,colour,0.5,3.8
89,22,0,1,10,12,462,656.1522279299388,656.9283183822699,"[74, 0, 180]",180,l,0.2538639284321107,1,colour,0.5,3.8
89,22,0,1,10,13,463,657.4335378315154,658.3043432198028,"[67, 0, 187]",187,l,0.34863124595722184,1,colour,0.5,3.8
89,22,0,1,10,14,464,658.8240774837614,659.6403745321586,"[35, 0, 219]",219,a,0.2941504753107438,1,colour,0.5,3.8
89,22,0,1,10,15,465,660.152207056075,661.2163543924398,"[32, 0, 222]",222,a,0.5418676432018401,1,colour,0.5,3.8
89,22,0,1,10,16,466,661.7303329853166,662.5683628711558,"[14, 0, 240]",240,a,0.31574349729635287,1,colour,0.5,3.8
89,22,0,1,10,17,467,663.0740734468418,663.904352435813,"[59, 0, 195]",195,a,0.3080717635457404,0,colour,0.5,3.8
89,22,0,1,10,18,468,664.4181644316559,665.2643544207967,"[53, 0, 201]",201,a,0.32427499773621093,0,colour,0.5,3.8
89,22,0,1,10,19,469,665.7789927063568,666.6083607286419,"[60, 0, 194]",194,a,0.3077460525819333,0,colour,0.5,3.8
89,22,0,1,10,20,470,667.1222526753118,667.8883780263714,"[13, 0, 241]",241,a,0.24419381811458152,1,colour,0.5,3.8
89,22,0,1,10,21,471,668.403447179895,669.240372326618,"[95, 0, 159]",159,l,0.3146872012875974,1,colour,0.5,3.8
89,22,0,1,10,22,472,669.74717937065,670.5363600953278,"[72, 0, 182]",182,l,0.26704636083741207,1,colour,0.5,3.8
89,22,0,1,10,23,473,671.0439627090527,671.7443862120708,"[34, 0, 220]",220,a,0.17810284983715974,1,colour,0.5,3.8
89,22,0,1,10,24,474,672.2628034537192,673.0643698595668,"[48, 0, 206]",206,a,0.2793532727228012,1,colour,0.5,3.8
89,22,0,1,10,25,475,673.5753138660366,674.7283401225868,"[57, 0, 197]",197,l,0.6313081883417908,1,colour,0.5,3.8
89,22,0,1,10,26,476,675.2471835060278,676.1603923655348,"[71, 0, 183]",183,l,0.39095161558361724,1,colour,0.5,3.8
89,22,0,1,10,27,477,676.669076087579,677.4323409323406,"[3, 0, 251]",251,a,0.241082431646646,1,colour,0.5,3.8
89,22,0,1,10,28,478,677.9503162783512,678.7683553093084,"[81, 0, 173]",173,l,0.29590860557800625,1,colour,0.5,3.8
89,22,0,1,10,29,479,679.278424976801,680.0723956612346,"[86, 0, 168]",168,l,0.2718059944163542,1,colour,0.5,3.8
89,22,0,1,10,30,480,680.5909302691143,681.1443663622194,"[82, 0, 172]",172,l,0.03120090458833147,1,colour,0.5,3.8
89,22,0,1,10,31,481,681.653361616758,682.3363558417914,"[2, 0, 252]",252,a,0.16083189808705356,1,colour,0.5,3.8
89,22,0,1,10,32,482,682.8565690229589,683.5043498364248,"[79, 0, 175]",175,l,0.12564605576335452,1,colour,0.5,3.8
89,22,0,1,10,33,483,684.0128185183421,684.6163932256895,"[1, 0, 253]",253,a,0.08139268808008637,1,colour,0.5,3.8
89,22,0,1,10,34,484,685.1221739060275,685.6883592005179,"[20, 0, 234]",234,a,0.04421240766532719,1,colour,0.5,3.8
89,22,0,1,10,35,485,686.2003303583479,686.7923878158181,"[55, 0, 199]",199,a,0.06983014587603975,0,colour,0.5,3.8
89,22,0,1,10,36,486,687.3096940168034,688.0803801090369,"[44, 0, 210]",210,a,0.24849658989114687,1,colour,0.5,3.8
89,22,0,1,10,37,487,688.5909168783255,689.2643867161969,"[18, 0, 236]",236,a,0.1512299231835641,1,colour,0.5,3.8
89,22,0,1,10,38,488,689.7783763367624,690.352371211251,"[90, 0, 164]",164,l,0.05182270138175227,1,colour,0.5,3.8
89,22,0,1,10,39,489,690.8721271367685,691.6643440232438,"[33, 0, 221]",221,a,0.2702751135075232,1,colour,0.5,3.8
89,22,0,1,10,40,490,692.1846324290818,692.8563784013095,"[22, 0, 232]",232,a,0.15027839031245094,1,colour,0.5,3.8
89,22,0,1,10,41,491,693.3721537214005,694.0003836063843,"[78, 0, 176]",176,l,0.10623888122790959,1,colour,0.5,3.8
89,22,0,1,10,42,492,694.5127749983221,695.1363890036591,"[10, 0, 244]",244,a,0.10136542604595888,1,colour,0.5,3.8
89,22,0,1,10,43,493,695.6533726444613,696.6563820246956,"[65, 0, 189]",189,l,0.4808746225462528,1,colour,0.5,3.8
89,22,0,1,10,44,494,697.168952222899,698.0803678997909,"[63, 0, 191]",191,a,0.38911668525543064,0,colour,0.5,3.8
89,22,0,1,10,45,495,698.5909318444901,699.5523640432511,"[4, 0, 250]",250,a,0.43929822875361424,1,colour,0.5,3.8
89,22,0,1,10,46,496,700.0596421275404,700.632383782824,"[45, 0, 209]",209,a,0.050553334469441324,1,colour,0.5,3.8
89,22,0,1,10,47,497,701.137714690587,701.7043974130647,"[73, 0, 181]",181,l,0.04455308477918152,1,colour,0.5,3.8
89,22,0,1,10,48,498,702.2159050137125,703.0243723959429,"[19, 0, 235]",235,a,0.2863326245424105,1,colour,0.5,3.8
89,22,0,1,10,49,499,703.5440085921582,704.2083679754141,"[99, 0, 155]",155,l,0.14310959840076976,1,colour,0.5,3.8
89,22,0,1,10,50,500,704.714843006921,705.5043841010629,"[42, 0, 212]",212,a,0.26740318567317445,1,colour,0.5,3.8
89,22,0,1,11,1,501,710.7613519328588,712.4243749953312,"[71, 0, 183]",183,l,1.1400190857966663,1,colour,0.5,3.8
89,22,0,1,11,2,502,712.9393882226577,713.4723765990639,"[35, 0, 219]",219,a,0.011046997286030091,1,colour,0.5,3.8
89,22,0,1,11,3,503,713.9862492472603,716.3524046881939,"[33, 0, 221]",221,a,1.8439159200934228,1,colour,0.5,3.8
89,22,0,1,11,4,504,716.8612345272559,717.4403824878682,"[6, 0, 248]",248,a,0.05689150438411161,1,colour,0.5,3.8
89,22,0,1,11,5,505,717.9549837518716,719.3364086172078,"[21, 0, 233]",233,a,0.8700633817061316,1,colour,0.5,3.8
89,22,0,1,11,6,506,719.850326557731,720.8724225215556,"[60, 0, 194]",194,l,0.49990527993941214,1,colour,0.5,3.8
89,22,0,1,11,7,507,721.3814654315211,722.008367660339,"[12, 0, 242]",242,a,0.10456503408204298,1,colour,0.5,3.8
89,22,0,1,11,8,508,722.5222103762062,723.2643705684895,"[2, 0, 252]",252,a,0.2201534346677363,1,colour,0.5,3.8
89,22,0,1,11,9,509,723.7721838900325,724.5363939661183,"[74, 0, 180]",180,l,0.24215211844420992,1,colour,0.5,3.8
89,22,0,1,11,10,510,725.0535012746841,725.7924256250699,"[58, 0, 196]",196,a,0.21675611574028153,0,colour,0.5,3.8
89,22,0,1,11,11,511,726.3034570654272,727.2483977344382,"[64, 0, 190]",190,l,0.4227287174289813,1,colour,0.5,3.8
89,22,0,1,11,12,512,727.7565824531193,728.4643653697276,"[61, 0, 193]",193,a,0.18561940811923705,0,colour,0.5,3.8
89,22,0,1,11,13,513,728.9753786931542,729.6564119570248,"[32, 0, 222]",222,a,0.15883785384357907,1,colour,0.5,3.8
89,22,0,1,11,14,514,730.1628137331136,730.9364119255188,"[89, 0, 165]",165,l,0.2513677300448762,1,colour,0.5,3.8
89,22,0,1,11,15,515,731.4439645207458,732.5364168092055,"[23, 0, 231]",231,a,0.5700788598624058,1,colour,0.5,3.8
89,22,0,1,11,16,516,733.053430382337,733.8083799483429,"[78, 0, 176]",176,l,0.23273013133439235,1,colour,0.5,3.8
89,22,0,1,11,17,517,734.3190907977405,735.0324186776124,"[56, 0, 198]",198,a,0.1911017498205183,0,colour,0.5,3.8
89,22,0,1,11,18,518,735.5378244161984,736.2483701651945,"[86, 0, 168]",168,l,0.18846140363893937,1,colour,0.5,3.8
89,22,0,1,11,19,519,736.7565422807966,737.568399892727,"[62, 0, 192]",192,a,0.2896972542221192,0,colour,0.5,3.8
89,22,0,1,11,20,520,738.0846860315796,738.6324176536145,"[95, 0, 159]",159,l,0.02552006430050824,1,colour,0.5,3.8
89,22,0,1,11,21,521,739.1373669242312,739.8483919842838,"[36, 0, 218]",218,a,0.1888765177282039,1,colour,0.5,3.8
89,22,0,1,11,22,522,740.3561856135057,741.1124191187264,"[72, 0, 182]",182,l,0.23427243377955165,1,colour,0.5,3.8
89,22,0,1,11,23,523,741.6218440596858,742.312385563011,"[17, 0, 237]",237,a,0.1685516811121488,1,colour,0.5,3.8
89,22,0,1,11,24,524,742.8248722657736,743.8564225121081,"[38, 0, 216]",216,a,0.5093520793743664,1,colour,0.5,3.8
89,22,0,1,11,25,525,744.3717929581035,745.1443970822293,"[98, 0, 156]",156,l,0.2506304496055236,1,colour,0.5,3.8
89,22,0,1,11,26,526,745.6530103057885,746.408400979737,"[83, 0, 171]",171,l,0.23326773165899795,1,colour,0.5,3.8
89,22,0,1,11,27,527,746.9185970719118,747.8164116576954,"[70, 0, 184]",184,l,0.3755522218561964,1,colour,0.5,3.8
89,22,0,1,11,28,528,748.3248882165499,749.0804320967582,"[44, 0, 210]",210,a,0.23336225478851702,1,colour,0.5,3.8
89,22,0,1,11,29,529,749.5904253580375,750.3443981849996,"[14, 0, 240]",240,a,0.23173409381706733,1,colour,0.5,3.8
89,22,0,1,11,30,530,750.8561192503839,751.5684211604239,"[96, 0, 158]",158,l,0.19030933089379687,1,colour,0.5,3.8
89,22,0,1,11,31,531,752.0748008811206,752.888405595615,"[92, 0, 162]",162,l,0.29133211057342123,1,colour,0.5,3.8
89,22,0,1,11,32,532,753.4029753519135,754.0643958534347,"[37, 0, 217]",217,a,0.13921997147554066,1,colour,0.5,3.8
89,22,0,1,11,33,533,754.5748306165187,755.3524275312811,"[1, 0, 253]",253,a,0.2558544280764181,1,colour,0.5,3.8
89,22,0,1,11,34,534,755.8717258073011,756.6003873085428,"[29, 0, 225]",225,a,0.2065826697362354,1,colour,0.5,3.8
89,22,0,1,11,35,535,757.1060888257634,757.9043953650689,"[55, 0, 199]",199,l,0.2762446432025172,1,colour,0.5,3.8
89,22,0,1,11,36,536,758.4185716688226,759.1604124516889,"[68, 0, 186]",186,l,0.21961544051009696,1,colour,0.5,3.8
89,22,0,1,11,37,537,759.6686081980733,760.3283867540013,"[34, 0, 220]",220,a,0.13761189667275175,1,colour,0.5,3.8
89,22,0,1,11,38,538,760.8404902442271,761.544532801694,"[18, 0, 236]",236,a,0.18179476585646626,1,colour,0.5,3.8
89,22,0,1,11,39,539,762.059209290368,762.6484050599829,"[8, 0, 246]",246,a,0.06707322115835268,1,colour,0.5,3.8
89,22,0,1,11,40,540,763.1685516811121,763.8324325410067,"[67, 0, 187]",187,l,0.14166654522705358,1,colour,0.5,3.8
89,22,0,1,11,41,541,764.3403967057093,765.0004044802481,"[30, 0, 224]",224,a,0.13774541061138734,1,colour,0.5,3.8
89,22,0,1,11,42,542,765.5123429488303,766.3043924506055,"[42, 0, 212]",212,l,0.26988953791442327,0,colour,0.5,3.8
89,22,0,1,11,43,543,766.8094661766809,767.4564073096408,"[80, 0, 174]",174,l,0.12497415383404586,1,colour,0.5,3.8
89,22,0,1,11,44,544,767.9653974441753,768.6324141090008,"[46, 0, 208]",208,a,0.14477596245706081,1,colour,0.5,3.8
89,22,0,1,11,45,545,769.1373070595873,769.7124255778035,"[84, 0, 170]",170,l,0.052929803568986244,1,colour,0.5,3.8
89,22,0,1,11,46,546,770.2309739703051,770.816455768494,"[94, 0, 160]",160,l,0.06347976672986988,1,colour,0.5,3.8
89,22,0,1,11,47,547,771.3248464688368,771.9684347875154,"[7, 0, 247]",247,a,0.121453167143045,1,colour,0.5,3.8
89,22,0,1,11,48,548,772.4810148318647,773.072416928946,"[10, 0, 244]",244,a,0.0692031424259767,1,colour,0.5,3.8
89,22,0,1,11,49,549,773.5904304780415,775.2004256691725,"[93, 0, 161]",161,l,1.0878234118717955,1,colour,0.5,3.8
89,22,0,1,11,50,550,775.7161970508023,776.4644126312924,"[11, 0, 243]",243,a,0.22677714320889208,1,colour,0.5,3.8
89,22,0,1,12,1,551,780.9802974406775,782.4244466753735,"[95, 0, 159]",159,l,0.9212665627273964,1,colour,0.5,3.8
89,22,0,1,12,2,552,782.9341587303352,784.480437453065,"[50, 0, 204]",204,a,1.0240998542431043,1,colour,0.5,3.8
89,22,0,1,12,3,553,784.9966282810929,785.5364581630856,"[52, 0, 202]",202,a,0.01763132118503563,0,colour,0.5,3.8
89,22,0,1,12,4,554,786.0434916687809,786.7603984307643,"[70, 0, 184]",184,l,0.19466921039565932,1,colour,0.5,3.8
89,22,0,1,12,5,555,787.2779224288097,788.0404503869795,"[34, 0, 220]",220,a,0.24027189578919206,1,colour,0.5,3.8
89,22,0,1,12,6,556,788.5591456841794,789.168410684113,"[84, 0, 170]",170,l,0.0869998790876707,1,colour,0.5,3.8
89,22,0,1,12,7,557,789.6841722195823,790.3844145532639,"[17, 0, 237]",237,a,0.17802329287223984,1,colour,0.5,3.8
89,22,0,1,12,8,558,790.902921985733,791.6244312365889,"[2, 0, 252]",252,a,0.19934101622493472,1,colour,0.5,3.8
89,22,0,1,12,9,559,792.1372192318377,792.7124452701246,"[16, 0, 238]",238,a,0.05298848668462597,1,colour,0.5,3.8
89,22,0,1,12,10,560,793.2309263148927,793.9284255084931,"[15, 0, 239]",239,a,0.1752470696810633,1,colour,0.5,3.8
89,22,0,1,12,11,561,794.4341829518962,794.9844344031153,"[71, 0, 183]",183,l,0.028117087378632277,1,colour,0.5,3.8
89,22,0,1,12,12,562,795.4966745580459,796.256440077661,"[19, 0, 235]",235,a,0.23758743882353883,1,colour,0.5,3.8
89,22,0,1,12,13,563,796.7622766841814,797.63244404133,"[60, 0, 194]",194,l,0.34807828563498333,1,colour,0.5,3.8
89,22,0,1,12,14,564,798.1372078103013,798.8964534526749,"[99, 0, 155]",155,l,0.23699903232045472,1,colour,0.5,3.8
89,22,0,1,12,15,565,799.4029080041801,800.2243998864142,"[72, 0, 182]",182,l,0.2992992291256087,1,colour,0.5,3.8
89,22,0,1,12,16,566,800.7309844072297,801.456497894309,"[14, 0, 240]",240,a,0.20330192934488878,1,colour,0.5,3.8
89,22,0,1,12,17,567,801.9653816903301,802.6404493629816,"[1, 0, 253]",253,a,0.15289471186406445,1,colour,0.5,3.8
89,22,0,1,12,18,568,803.1528576903074,803.7284027441638,"[39, 0, 215]",215,a,0.053375637682620436,1,colour,0.5,3.8
89,22,0,1,12,19,569,804.2466128226224,804.848443972005,"[58, 0, 196]",196,a,0.07957745008752681,0,colour,0.5,3.8
89,22,0,1,12,20,570,805.3559737241449,805.928451896194,"[76, 0, 178]",178,l,0.05043006055348087,1,colour,0.5,3.8
89,22,0,1,12,21,571,806.4340573148947,807.1364114528988,"[8, 0, 246]",246,a,0.18005711560545024,1,colour,0.5,3.8
89,22,0,1,12,22,572,807.6528429210739,808.2964150920452,"[54, 0, 200]",200,a,0.12135982554173097,0,colour,0.5,3.8
89,22,0,1,12,23,573,808.8091002933797,809.4164094521548,"[55, 0, 199]",199,a,0.08505388408957515,0,colour,0.5,3.8
89,22,0,1,12,24,574,809.9340925641445,810.4724628514232,"[37, 0, 217]",217,a,0.016134704914293252,1,colour,0.5,3.8
89,22,0,1,12,25,575,810.9810465365008,811.552430997137,"[12, 0, 242]",242,a,0.04934107531153131,1,colour,0.5,3.8
89,22,0,1,12,26,576,812.0590749887488,812.6324235613138,"[3, 0, 251]",251,a,0.05100271321134642,1,colour,0.5,3.8
89,22,0,1,12,27,577,813.152843511838,813.7524832999334,"[63, 0, 191]",191,l,0.07749715347017627,1,colour,0.5,3.8
89,22,0,1,12,28,578,814.2622256810719,814.9764503491751,"[94, 0, 160]",160,l,0.19198947958648205,1,colour,0.5,3.8
89,22,0,1,12,29,579,815.4966040595318,816.1684390410519,"[46, 0, 208]",208,a,0.14958600836689584,1,colour,0.5,3.8
89,22,0,1,12,30,580,816.6840662749019,817.264534802438,"[29, 0, 225]",225,a,0.05822506824915763,1,colour,0.5,3.8
89,22,0,1,12,31,581,817.7778446441516,818.3844523625157,"[36, 0, 218]",218,a,0.08431817904056516,1,colour,0.5,3.8
89,22,0,1,12,32,582,818.9028570010705,819.5684546373668,"[67, 0, 187]",187,l,0.14348966015677433,1,colour,0.5,3.8
89,22,0,1,12,33,583,820.0747221118363,820.7604397846299,"[79, 0, 175]",175,l,0.1635084781300975,1,colour,0.5,3.8
89,22,0,1,12,34,584,821.2777385025402,821.8004817528999,"[83, 0, 171]",171,l,0.0004249602498020977,1,colour,0.5,3.8
89,22,0,1,12,35,585,822.3247318595386,822.9524627411593,"[78, 0, 176]",176,l,0.1055082961829612,1,colour,0.5,3.8
89,22,0,1,12,36,586,823.4652987856534,824.0084767557855,"[43, 0, 211]",211,a,0.020910880048177205,1,colour,0.5,3.8
89,22,0,1,12,37,587,824.5277789702668,825.0804876290931,"[5, 0, 249]",249,a,0.027844939526403323,1,colour,0.5,3.8
89,22,0,1,12,38,588,825.5929294333619,826.1844733151374,"[75, 0, 179]",179,l,0.06929963477887213,1,colour,0.5,3.8
89,22,0,1,12,39,589,826.7022391348728,827.4244427369122,"[47, 0, 207]",207,a,0.1998959457851015,1,colour,0.5,3.8
89,22,0,1,12,40,590,827.9367352733971,828.4724541868054,"[44, 0, 210]",210,a,0.013631417285068892,1,colour,0.5,3.8
89,22,0,1,12,41,591,828.9835833010729,829.6564686709025,"[24, 0, 230]",230,a,0.15076794137712568,1,colour,0.5,3.8
89,22,0,1,12,42,592,830.1709888025653,830.6964822822338,"[90, 0, 164]",164,l,0.003384322000783868,1,colour,0.5,3.8
89,22,0,1,12,43,593,831.2181345780991,831.872465844659,"[82, 0, 172]",172,l,0.1320645703235641,1,colour,0.5,3.8
89,22,0,1,12,44,594,832.3899697565357,833.0884701076575,"[10, 0, 244]",244,a,0.17619702717638575,1,colour,0.5,3.8
89,22,0,1,12,45,595,833.6087640273327,834.2484650821716,"[31, 0, 223]",223,a,0.11754030328302179,1,colour,0.5,3.8
89,22,0,1,12,46,596,834.7650765381404,836.1364520190837,"[96, 0, 158]",158,l,0.8475487591786077,1,colour,0.5,3.8
89,22,0,1,12,47,597,836.6416714683146,837.6244623504608,"[86, 0, 168]",168,l,0.4606663644663058,1,colour,0.5,3.8
89,22,0,1,12,48,598,838.1416740283166,838.8884445864096,"[33, 0, 221]",221,a,0.22458656960225198,1,colour,0.5,3.8
89,22,0,1,12,49,599,839.4072505544464,840.1524606931489,"[88, 0, 166]",166,l,0.22315099951811135,1,colour,0.5,3.8
89,22,0,1,12,50,600,840.6729507483396,841.4484740618791,"[40, 0, 214]",214,a,0.2535673621168826,1,colour,0.5,3.8
89,22,0,1,13,1,601,846.2190443632571,847.2324682234903,"[9, 0, 245]",245,a,0.4905065297789406,1,colour,0.5,3.8
89,22,0,1,13,2,602,847.7510233113862,849.0004627695162,"[29, 0, 225]",225,a,0.7272428665601183,1,colour,0.5,3.8
89,22,0,1,13,3,603,849.5173125025467,850.2964540828398,"[61, 0, 193]",193,l,0.25763461375026964,1,colour,0.5,3.8
89,22,0,1,13,4,604,850.8135101913649,851.5444686047413,"[4, 0, 250]",250,a,0.2087724556477042,1,colour,0.5,3.8
89,22,0,1,13,5,605,852.0635333298414,852.8564760752197,"[23, 0, 231]",231,a,0.270689833763754,1,colour,0.5,3.8
89,22,0,1,13,6,606,853.3759661544173,854.0964675523865,"[90, 0, 164]",164,l,0.1982437601982383,1,colour,0.5,3.8
89,22,0,1,13,7,607,854.610420545243,855.296498981319,"[46, 0, 208]",208,a,0.16383891525038052,1,colour,0.5,3.8
89,22,0,1,13,8,608,855.8135980191146,856.5124418042833,"[19, 0, 235]",235,a,0.17667988284665626,1,colour,0.5,3.8
89,22,0,1,13,9,609,857.032244597518,857.688490745204,"[0, 0, 254]",254,a,0.13400741455552634,1,colour,0.5,3.8
89,22,0,1,13,10,610,858.2041357021371,858.8404961519263,"[25, 0, 229]",229,a,0.11415755667258054,1,colour,0.5,3.8
89,22,0,1,13,11,611,859.3603891359962,860.4485051757365,"[80, 0, 174]",174,l,0.5659430789528415,1,colour,0.5,3.8
89,22,0,1,13,12,612,860.9541369821382,861.8004809652193,"[96, 0, 158]",158,l,0.3241332130273804,1,colour,0.5,3.8
89,22,0,1,13,13,613,862.3135619821696,863.2164863309736,"[8, 0, 246]",246,a,0.38078801572555676,1,colour,0.5,3.8
89,22,0,1,13,14,614,863.7353903667536,864.54447963243,"[62, 0, 192]",192,l,0.28687140639522113,1,colour,0.5,3.8
89,22,0,1,13,15,615,865.0634884313622,865.8644971507165,"[91, 0, 163]",163,l,0.2787869216117542,1,colour,0.5,3.8
89,22,0,1,13,16,616,866.3759866344335,867.1844792228367,"[84, 0, 170]",170,l,0.28621525832568295,1,colour,0.5,3.8
89,22,0,1,13,17,617,867.7041146313568,868.4724537929578,"[89, 0, 165]",165,l,0.24610594230762217,1,colour,0.5,3.8
89,22,0,1,13,18,618,868.9853725452122,869.7765488895384,"[56, 0, 198]",198,a,0.26896006043534726,0,colour,0.5,3.8
89,22,0,1,13,19,619,870.282267342147,871.1685363211145,"[50, 0, 204]",204,a,0.36414406744006556,1,colour,0.5,3.8
89,22,0,1,13,20,620,871.6728735544457,872.5204880859528,"[37, 0, 217]",217,a,0.3256648816168308,1,colour,0.5,3.8
89,22,0,1,13,21,621,873.0322489298269,874.4964650317561,"[58, 0, 196]",196,a,0.9420033626520308,0,colour,0.5,3.8
89,22,0,1,13,22,622,875.0182126384607,875.8404981211643,"[17, 0, 237]",237,a,0.30004044802626595,1,colour,0.5,3.8
89,22,0,1,13,23,623,876.3463363030751,877.1924959660391,"[28, 0, 226]",226,a,0.3239922160282731,1,colour,0.5,3.8
89,22,0,1,13,24,624,877.7057034076861,878.3605002006661,"[70, 0, 184]",184,l,0.132746712260996,1,colour,0.5,3.8
89,22,0,1,13,25,625,878.8775393738179,879.6244682581455,"[30, 0, 224]",224,a,0.22468660658341832,1,colour,0.5,3.8
89,22,0,1,13,26,626,880.1431938815222,880.9284782839095,"[45, 0, 209]",209,a,0.263007072309847,1,colour,0.5,3.8
89,22,0,1,13,27,627,881.4400414168922,882.0325132007565,"[41, 0, 213]",213,a,0.07029567229619715,1,colour,0.5,3.8
89,22,0,1,13,28,628,882.5494582446117,883.1124927680066,"[81, 0, 173]",173,l,0.040785156408674084,1,colour,0.5,3.8
89,22,0,1,13,29,629,883.627529232268,884.3924970688095,"[14, 0, 240]",240,a,0.24267987260827795,1,colour,0.5,3.8
89,22,0,1,13,30,630,884.9088371646067,885.5205782767734,"[97, 0, 157]",157,l,0.08952837288961746,1,colour,0.5,3.8
89,22,0,1,13,31,631,886.0338534600014,886.8804971601785,"[39, 0, 215]",215,a,0.32451524402131326,1,colour,0.5,3.8
89,22,0,1,13,32,632,887.3932694015675,888.1765353412193,"[60, 0, 194]",194,l,0.2611520558129996,1,colour,0.5,3.8
89,22,0,1,13,33,633,888.6900448630477,889.3924939180288,"[55, 0, 199]",199,a,0.1803005126712378,0,colour,0.5,3.8
89,22,0,1,13,34,634,889.9088351953833,890.6484554723284,"[20, 0, 234]",234,a,0.21732128530857153,1,colour,0.5,3.8
89,22,0,1,13,35,635,891.1591214232467,891.8965070157865,"[98, 0, 156]",156,l,0.21545839190366678,1,colour,0.5,3.8
89,22,0,1,13,36,636,892.408751503026,893.1685083580232,"[22, 0, 232]",232,a,0.23749094645609148,1,colour,0.5,3.8
89,22,0,1,13,37,637,893.6743811984052,895.5204999013513,"[54, 0, 200]",200,a,1.3238858775002882,0,colour,0.5,3.8
89,22,0,1,13,38,638,896.0338991461904,896.6645027433406,"[85, 0, 169]",169,l,0.11128169036237523,1,colour,0.5,3.8
89,22,0,1,13,39,639,897.1716004460031,897.8485203782038,"[57, 0, 197]",197,a,0.15485842994530685,0,colour,0.5,3.8
89,22,0,1,13,40,640,898.3590819598321,899.072600855201,"[1, 0, 253]",253,a,0.191231719130883,1,colour,0.5,3.8
89,22,0,1,13,41,641,899.5777943105786,900.2084841600881,"[47, 0, 207]",207,a,0.10891270433785394,1,colour,0.5,3.8
89,22,0,1,13,42,642,900.7184841167764,901.2725224010064,"[15, 0, 239]",239,a,0.03182751419080887,1,colour,0.5,3.8
89,22,0,1,13,43,643,901.7809316121275,902.3525157528784,"[83, 0, 171]",171,l,0.049347376843797974,1,colour,0.5,3.8
89,22,0,1,13,44,644,902.8590998798463,903.4485162034398,"[40, 0, 214]",214,a,0.0671890119992895,1,colour,0.5,3.8
89,22,0,1,13,45,645,903.9690251632419,904.7604870461946,"[66, 0, 188]",188,l,0.26939368530292995,1,colour,0.5,3.8
89,22,0,1,13,46,646,905.2657840831816,906.016508465138,"[2, 0, 252]",252,a,0.22848683036863804,1,colour,0.5,3.8
89,22,0,1,13,47,647,906.5313531262218,907.3124997784616,"[12, 0, 242]",242,a,0.25885396215016954,1,colour,0.5,3.8
89,22,0,1,13,48,648,907.8303727244056,908.4965209579532,"[82, 0, 172]",172,l,0.14395951890037395,1,colour,0.5,3.8
89,22,0,1,13,49,649,909.0021633982105,909.7845187650091,"[73, 0, 181]",181,l,0.2600236859143479,1,colour,0.5,3.8
89,22,0,1,13,50,650,910.2991377521103,911.3125092307746,"[68, 0, 186]",186,l,0.4911536193831125,1,colour,0.5,3.8
89,22,0,1,14,1,651,916.3016260735749,918.3684866176918,"[10, 0, 244]",244,a,1.5565029749122914,1,colour,0.5,3.8
89,22,0,1,14,2,652,918.8837152789929,920.2245085880277,"[36, 0, 218]",218,a,0.8185561512800632,1,colour,0.5,3.8
89,22,0,1,14,3,653,920.7430849436059,921.4244781830785,"[56, 0, 198]",198,a,0.15915726324601565,0,colour,0.5,3.8
89,22,0,1,14,4,654,921.9305885128415,922.5044853195723,"[91, 0, 163]",163,l,0.05169824592303485,1,colour,0.5,3.8
89,22,0,1,14,5,655,923.0120134963363,924.6085269318137,"[25, 0, 229]",229,a,1.0743542593118036,1,colour,0.5,3.8
89,22,0,1,14,6,656,925.121372822483,926.6564883632236,"[98, 0, 156]",156,l,1.0129701491969172,1,colour,0.5,3.8
89,22,0,1,14,7,657,927.1688254043547,927.9205162853614,"[66, 0, 188]",188,l,0.22945844940841198,1,colour,0.5,3.8
89,22,0,1,14,8,658,928.4344499797444,929.2724991640716,"[11, 0, 243]",243,a,0.31582856812747195,1,colour,0.5,3.8
89,22,0,1,14,9,659,929.778277481324,930.4325244647625,"[30, 0, 224]",224,a,0.13204802878317423,1,colour,0.5,3.8
89,22,0,1,14,10,660,930.9500394043425,931.6247786091117,"[1, 0, 253]",253,a,0.1525118931895122,1,colour,0.5,3.8
89,22,0,1,14,11,661,932.1252084924345,932.8085284284316,"[26, 0, 228]",228,a,0.1611205874942243,1,colour,0.5,3.8
89,22,0,1,14,12,662,933.3282882924104,933.8645396861393,"[80, 0, 174]",174,l,0.011917003968846984,1,colour,0.5,3.8
89,22,0,1,14,13,663,934.3773497367802,935.0325072930573,"[39, 0, 215]",215,a,0.13297711240011267,1,colour,0.5,3.8
89,22,0,1,14,14,664,935.5491345028713,936.2165119309939,"[94, 0, 160]",160,l,0.14518241192854475,1,colour,0.5,3.8
89,22,0,1,14,15,665,936.7366199551761,937.4564947435283,"[68, 0, 186]",186,l,0.19758643057139125,1,colour,0.5,3.8
89,22,0,1,14,16,666,937.9594755699072,938.6725466619391,"[4, 0, 250]",250,a,0.19090246355335694,1,colour,0.5,3.8
89,22,0,1,14,17,667,939.1782438468508,939.8245402532775,"[21, 0, 233]",233,a,0.12404152558883652,1,colour,0.5,3.8
89,22,0,1,14,18,668,940.334478769917,941.0565075041523,"[89, 0, 165]",165,l,0.20003339817048982,1,colour,0.5,3.8
89,22,0,1,14,19,669,941.5687787729403,942.248503285271,"[31, 0, 223]",223,a,0.15749562534620054,1,colour,0.5,3.8
89,22,0,1,14,20,670,942.7563189698849,943.4005299597047,"[85, 0, 169]",169,l,0.12222471220593434,1,colour,0.5,3.8
89,22,0,1,14,21,671,943.9125692529633,944.7765583418513,"[58, 0, 196]",196,l,0.34171845419041347,1,colour,0.5,3.8
89,22,0,1,14,22,672,945.2875681206642,946.0565208949411,"[74, 0, 180]",180,l,0.24674830578442197,1,colour,0.5,3.8
89,22,0,1,14,23,673,946.5687925575621,947.3205054939608,"[77, 0, 177]",177,l,0.22944112015829887,1,colour,0.5,3.8
89,22,0,1,14,24,674,947.834505354549,948.4725479222543,"[35, 0, 219]",219,a,0.11586330537102185,1,colour,0.5,3.8
89,22,0,1,14,25,675,948.9906945914263,949.7925126651244,"[14, 0, 240]",240,a,0.27961754365242086,1,colour,0.5,3.8
89,22,0,1,14,26,676,950.3032294222212,950.8885091772099,"[84, 0, 170]",170,l,0.06312372958927881,1,colour,0.5,3.8
89,22,0,1,14,27,677,951.3971609977161,952.0485143917467,"[0, 0, 254]",254,a,0.1292615655984264,1,colour,0.5,3.8
89,22,0,1,14,28,678,952.568847696064,953.2645414978324,"[20, 0, 234]",234,a,0.1734995732695097,1,colour,0.5,3.8
89,22,0,1,14,29,679,953.7719278898876,954.3445001912187,"[37, 0, 217]",217,a,0.05052379600238055,1,colour,0.5,3.8
89,22,0,1,14,30,680,954.8500032098527,955.4485347142181,"[3, 0, 251]",251,a,0.07618958347302396,1,colour,0.5,3.8
89,22,0,1,14,31,681,955.9594172806392,956.5525463941303,"[75, 0, 179]",179,l,0.07079782643995713,1,colour,0.5,3.8
89,22,0,1,14,32,682,957.0687911791028,957.5925895439286,"[44, 0, 210]",210,a,0.0015604193758917972,1,colour,0.5,3.8
89,22,0,1,14,33,683,958.1001571053348,958.7365447305201,"[15, 0, 239]",239,a,0.11425641211098991,1,colour,0.5,3.8
89,22,0,1,14,34,684,959.2562801760214,959.9685399445007,"[54, 0, 200]",200,a,0.18769379703735467,0,colour,0.5,3.8
89,22,0,1,14,35,685,960.4774095620378,961.392552994992,"[64, 0, 190]",190,l,0.3929834690934513,1,colour,0.5,3.8
89,22,0,1,14,36,686,961.899234008175,962.8805361509731,"[62, 0, 192]",192,a,0.45899566808657255,0,colour,0.5,3.8
89,22,0,1,14,37,687,963.3872770287999,964.0005127879995,"[27, 0, 227]",227,a,0.08816015053889714,1,colour,0.5,3.8
89,22,0,1,14,38,688,964.515850150914,966.3365381926706,"[57, 0, 197]",197,l,1.2984654563333606,1,colour,0.5,3.8
89,22,0,1,14,39,689,966.8440655817249,967.3925793826929,"[49, 0, 205]",205,a,0.026307363223168068,1,colour,0.5,3.8
89,22,0,1,14,40,690,967.9064874770702,968.4565483066399,"[38, 0, 216]",216,a,0.028032410409650765,1,colour,0.5,3.8
89,22,0,1,14,41,691,968.9690176801669,970.1765889043309,"[34, 0, 220]",220,a,0.6852923186961561,1,colour,0.5,3.8
89,22,0,1,14,42,692,970.6877881232504,971.3365204695874,"[79, 0, 175]",175,l,0.12650857935659587,1,colour,0.5,3.8
89,22,0,1,14,43,693,971.8440959079016,972.4485173849826,"[52, 0, 202]",202,a,0.0822658455290366,0,colour,0.5,3.8
89,22,0,1,14,44,694,972.9690318586363,973.65654113864,"[46, 0, 208]",208,a,0.16530126688303426,1,colour,0.5,3.8
89,22,0,1,14,45,695,974.1721534063254,975.0645585119928,"[61, 0, 193]",193,l,0.3703888957388699,1,colour,0.5,3.8
89,22,0,1,14,46,696,975.5783965017035,976.2245298557245,"[70, 0, 184]",184,l,0.13457691641815472,1,colour,0.5,3.8
89,22,0,1,14,47,697,976.7397396123997,977.5285434261023,"[69, 0, 185]",185,l,0.2666997760243248,1,colour,0.5,3.8
89,22,0,1,14,48,698,978.0366647355113,978.6885494283197,"[53, 0, 201]",201,a,0.12971173202095088,0,colour,0.5,3.8
89,22,0,1,14,49,699,979.2085483570554,980.2485328237526,"[45, 0, 209]",209,a,0.5179009090352338,1,colour,0.5,3.8
89,22,0,1,14,50,700,980.7553812216502,981.4565526389488,"[65, 0, 189]",189,l,0.1789779764949344,1,colour,0.5,3.8
89,22,0,1,15,1,701,986.1985151203553,987.1845520844217,"[7, 0, 247]",247,a,0.46305307355942205,1,colour,0.5,3.8
89,22,0,1,15,2,702,987.6993219146825,989.0725488674798,"[73, 0, 181]",181,l,0.8509803427295992,1,colour,0.5,3.8
89,22,0,1,15,3,703,989.5899346254446,990.2245334003383,"[16, 0, 238]",238,a,0.11260737729026005,1,colour,0.5,3.8
89,22,0,1,15,4,704,990.7305173054192,991.2565405084897,"[78, 0, 176]",176,l,0.004003448528237641,1,colour,0.5,3.8
89,22,0,1,15,5,705,991.777474034694,993.712573270197,"[18, 0, 236]",236,a,1.412783308463986,1,colour,0.5,3.8
89,22,0,1,15,6,706,994.2304946592485,996.9125735852867,"[89, 0, 165]",165,l,2.1598650052183075,1,colour,0.5,3.8
89,22,0,1,15,7,707,997.418046277744,998.2725767517986,"[23, 0, 231]",231,a,0.33234097171225585,1,colour,0.5,3.8
89,22,0,1,15,8,708,998.7929872500099,999.376613244036,"[60, 0, 194]",194,a,0.06139395627542399,0,colour,0.5,3.8
89,22,0,1,15,9,709,999.886747502329,1001.2645391347469,"[84, 0, 170]",170,l,0.8556021300755674,1,colour,0.5,3.8
89,22,0,1,15,10,710,1001.7774685208424,1002.5765950483328,"[63, 0, 191]",191,l,0.27702130826946814,1,colour,0.5,3.8
89,22,0,1,15,11,711,1003.0898599915527,1003.7445725014113,"[20, 0, 234]",234,a,0.132706933785812,1,colour,0.5,3.8
89,22,0,1,15,12,712,1004.249337845773,1005.2005792692653,"[50, 0, 204]",204,l,0.42907594579446595,0,colour,0.5,3.8
89,22,0,1,15,13,713,1005.7180595503596,1006.3285387787182,"[69, 0, 185]",185,l,0.08816802747605834,1,colour,0.5,3.8
89,22,0,1,15,14,714,1006.8431164119393,1008.2245499418932,"[64, 0, 190]",190,l,0.8592180337582249,1,colour,0.5,3.8
89,22,0,1,15,15,715,1008.7336192395596,1009.9525812889187,"[49, 0, 205]",205,a,0.6967560054763453,1,colour,0.5,3.8
89,22,0,1,15,16,716,1010.468130147332,1011.5853427704278,"[46, 0, 208]",208,a,0.595058173086727,1,colour,0.5,3.8
89,22,0,1,15,17,717,1012.0930903196131,1014.0165805390279,"[24, 0, 230]",230,l,1.4012806309037842,0,colour,0.5,3.8
89,22,0,1,15,18,718,1014.5305524365103,1015.0725921905832,"[91, 0, 163]",163,l,0.01991799331153743,1,colour,0.5,3.8
89,22,0,1,15,19,719,1015.5930916980724,1016.6085422918259,"[97, 0, 157]",157,l,0.4931842913647415,1,colour,0.5,3.8
89,22,0,1,15,20,720,1017.1242857103498,1017.7605792062532,"[36, 0, 218]",218,a,0.11405436891072895,1,colour,0.5,3.8
89,22,0,1,15,21,721,1018.2806025534665,1018.9125822499045,"[0, 0, 254]",254,a,0.10981973257730715,1,colour,0.5,3.8
89,22,0,1,15,22,722,1019.4212009873008,1020.4485579511529,"[4, 0, 250]",250,a,0.5051647045911523,1,colour,0.5,3.8
89,22,0,1,15,23,723,1020.968087021145,1021.5765930790949,"[25, 0, 229]",229,a,0.08633664177614264,1,colour,0.5,3.8
89,22,0,1,15,24,724,1022.0930249411176,1022.7845605127368,"[17, 0, 237]",237,a,0.16919640765991062,1,colour,0.5,3.8
89,22,0,1,15,25,725,1023.2962209257676,1024.5925883624004,"[43, 0, 211]",211,a,0.7742035342962481,1,colour,0.5,3.8
89,22,0,1,15,26,726,1025.1087000272964,1025.6885655760125,"[77, 0, 177]",177,l,0.057607517097494565,1,colour,0.5,3.8
89,22,0,1,15,27,727,1026.2024248334346,1027.0325892131077,"[29, 0, 225]",225,a,0.30790004652226344,1,colour,0.5,3.8
89,22,0,1,15,28,728,1027.5461298487935,1028.3925971057906,"[27, 0, 227]",227,a,0.3242174961633282,1,colour,0.5,3.8
89,22,0,1,15,29,729,1028.9055611503718,1029.6246045290027,"[98, 0, 156]",156,l,0.20917339126754086,1,colour,0.5,3.8
89,22,0,1,15,30,730,1030.14317852151,1031.1205772527755,"[56, 0, 198]",198,a,0.4551599981205072,0,colour,0.5,3.8
89,22,0,1,15,31,731,1031.6303928893467,1032.2645946670818,"[55, 0, 199]",199,a,0.11201188154518604,0,colour,0.5,3.8
89,22,0,1,15,32,732,1032.7710696986032,1033.3525630144431,"[30, 0, 224]",224,a,0.05934201659692917,1,colour,0.5,3.8
89,22,0,1,15,33,733,1033.8649851263908,1034.480565846985,"[53, 0, 201]",201,a,0.09334238129667938,0,colour,0.5,3.8
89,22,0,1,15,34,734,1034.9899817294645,1035.6085852210817,"[15, 0, 239]",239,a,0.0966215463122353,1,colour,0.5,3.8
89,22,0,1,15,35,735,1036.1150370156538,1036.7525876692234,"[33, 0, 221]",221,a,0.11541786510497332,1,colour,0.5,3.8
89,22,0,1,15,36,736,1037.2712065602245,1038.3045996137953,"[51, 0, 203]",203,a,0.5111893727589631,0,colour,0.5,3.8
89,22,0,1,15,37,737,1038.8180894433026,1039.9045619620883,"[41, 0, 213]",213,a,0.5642310287221335,1,colour,0.5,3.8
89,22,0,1,15,38,738,1040.4119660772267,1041.33657639577,"[34, 0, 220]",220,a,0.40249367778596934,1,colour,0.5,3.8
89,22,0,1,15,39,739,1041.849443554136,1042.5525920803047,"[74, 0, 180]",180,l,0.18100707308622077,1,colour,0.5,3.8
89,22,0,1,15,40,740,1043.0680318432715,1043.6805937313038,"[40, 0, 214]",214,a,0.09026919794268906,1,colour,0.5,3.8
89,22,0,1,15,41,741,1044.1931036710012,1044.7925941913272,"[8, 0, 246]",246,a,0.07728644566668663,1,colour,0.5,3.8
89,22,0,1,15,42,742,1045.302529557186,1045.8886229988275,"[72, 0, 182]",182,l,0.06396971164213028,1,colour,0.5,3.8
89,22,0,1,15,43,743,1046.3962228556193,1047.2005902969686,"[21, 0, 233]",233,a,0.2821554897673195,1,colour,0.5,3.8
89,22,0,1,15,44,744,1047.708732874089,1048.5765674790891,"[48, 0, 206]",206,a,0.3456541611230932,1,colour,0.5,3.8
89,22,0,1,15,45,745,1049.0837388310174,1049.7365943551558,"[54, 0, 200]",200,a,0.1306581448734505,0,colour,0.5,3.8
89,22,0,1,15,46,746,1050.2555539232853,1050.896555458894,"[57, 0, 197]",197,a,0.11885890098346863,0,colour,0.5,3.8
89,22,0,1,15,47,747,1051.4117281940125,1051.968604535301,"[80, 0, 174]",174,l,0.034824291346012615,1,colour,0.5,3.8
89,22,0,1,15,48,748,1052.4744064833503,1053.0486010379536,"[95, 0, 159]",159,l,0.05207830769359134,1,colour,0.5,3.8
89,22,0,1,15,49,749,1053.568116323324,1054.8806038925395,"[81, 0, 173]",173,l,0.7902559253125219,1,colour,0.5,3.8
89,22,0,1,15,50,750,1055.396229157166,1056.264578519389,"[68, 0, 186]",186,l,0.346205546069541,1,colour,0.5,3.8
89,22,0,1,16,1,751,1060.973539036684,1062.1126247065404,"[91, 0, 163]",163,l,0.616027736235992,1,colour,0.5,3.8
89,22,0,1,16,2,752,1062.620795246752,1063.160615676432,"[45, 0, 209]",209,a,0.017656527357758023,1,colour,0.5,3.8
89,22,0,1,16,3,753,1063.6675893174688,1064.3605777884077,"[5, 0, 249]",249,a,0.17076627934875432,1,colour,0.5,3.8
89,22,0,1,16,4,754,1064.8707841205905,1065.8887171281094,"[53, 0, 201]",201,l,0.4957746190484613,1,colour,0.5,3.8
89,22,0,1,16,5,755,1066.4020206682762,1067.3126045415993,"[2, 0, 252]",252,a,0.3884152448445093,1,colour,0.5,3.8
89,22,0,1,16,6,756,1067.8238959205773,1068.5046133196593,"[31, 0, 223]",223,a,0.15858027830836363,1,colour,0.5,3.8
89,22,0,1,16,7,757,1069.011353409791,1069.6646130203299,"[50, 0, 204]",204,a,0.13102914817864075,1,colour,0.5,3.8
89,22,0,1,16,8,758,1070.1832618436601,1070.7606016554928,"[40, 0, 214]",214,a,0.055114469476393424,1,colour,0.5,3.8
89,22,0,1,16,9,759,1071.2770539975318,1072.08867845239,"[0, 0, 254]",254,a,0.28998358054377604,1,colour,0.5,3.8
89,22,0,1,16,10,760,1072.6051418221177,1073.184609192147,"[84, 0, 170]",170,l,0.0573416708066361,1,colour,0.5,3.8
89,22,0,1,16,11,761,1073.6989111329021,1074.2646116024844,"[75, 0, 179]",179,l,0.043477490296936594,1,colour,0.5,3.8
89,22,0,1,16,12,762,1074.7770026005746,1075.3685909869819,"[72, 0, 182]",182,l,0.06932562864676584,1,colour,0.5,3.8
89,22,0,1,16,13,763,1075.886358382093,1077.0405917778262,"[21, 0, 233]",233,a,0.6320694933965569,1,colour,0.5,3.8
89,22,0,1,16,14,764,1077.5582335359504,1078.2485887499352,"[96, 0, 158]",158,l,0.1681527147156885,1,colour,0.5,3.8
89,22,0,1,16,15,765,1078.7613377543894,1079.5925730023882,"[65, 0, 189]",189,l,0.30957901365763973,1,colour,0.5,3.8
89,22,0,1,16,16,766,1080.1049494281615,1080.7365809643816,"[74, 0, 180]",180,l,0.10931442765286192,1,colour,0.5,3.8
89,22,0,1,16,17,767,1081.2457097328588,1081.9446267734456,"[17, 0, 237]",237,a,0.17670390746206976,1,colour,0.5,3.8
89,22,0,1,16,18,768,1082.4645244836574,1083.6166318965988,"[89, 0, 165]",165,l,0.6299608398549026,1,colour,0.5,3.8
89,22,0,1,16,19,769,1084.1363437113177,1084.8806034987065,"[15, 0, 239]",239,a,0.22207264811731875,1,colour,0.5,3.8
89,22,0,1,16,20,770,1085.3772930229024,1086.4166453661455,"[95, 0, 159]",159,l,0.5171935609250795,1,colour,0.5,3.8
89,22,0,1,16,21,771,1086.924095955168,1087.7046427793684,"[90, 0, 164]",164,l,0.25828879259643145,1,colour,0.5,3.8
89,22,0,1,16,22,772,1088.2210557367507,1088.928715773276,"[27, 0, 227]",227,a,0.18546541417890694,1,colour,0.5,3.8
89,22,0,1,16,23,773,1089.4398003828974,1090.3445966835861,"[83, 0, 171]",171,l,0.3828710692760069,1,colour,0.5,3.8
89,22,0,1,16,24,774,1090.8615728412988,1091.5126135213068,"[1, 0, 253]",253,a,0.12869009449786972,1,colour,0.5,3.8
89,22,0,1,16,25,775,1092.0179148905881,1092.6566222709953,"[80, 0, 174]",174,l,0.11656080732063856,1,colour,0.5,3.8
89,22,0,1,16,26,776,1093.1741344536422,1094.5366235785623,"[32, 0, 222]",222,a,0.8403019856486935,1,colour,0.5,3.8
89,22,0,1,16,27,777,1095.0490957090078,1095.6966047684546,"[3, 0, 251]",251,a,0.12527426477754489,1,colour,0.5,3.8
89,22,0,1,16,28,778,1096.2054220044374,1096.9926027771726,"[36, 0, 218]",218,a,0.2651472335564904,1,colour,0.5,3.8
89,22,0,1,16,29,779,1097.502266782889,1098.0326029977296,"[41, 0, 213]",213,a,0.0081892479211092,1,colour,0.5,3.8
89,22,0,1,16,30,780,1098.5491530136642,1099.0886300092825,"[81, 0, 173]",173,l,0.017901893646921962,1,colour,0.5,3.8
89,22,0,1,16,31,781,1099.596196389146,1100.5846330592321,"[93, 0, 161]",161,l,0.46651655867754016,1,colour,0.5,3.8
89,22,0,1,16,32,782,1101.0960217182728,1101.8086060161731,"[54, 0, 200]",200,a,0.19047198945190758,0,colour,0.5,3.8
89,22,0,1,16,33,783,1102.314693896682,1103.0646006535535,"[44, 0, 210]",210,a,0.2276632975699613,1,colour,0.5,3.8
89,22,0,1,16,34,784,1103.5803082320635,1104.2806360304094,"[43, 0, 211]",211,a,0.17848173005040735,1,colour,0.5,3.8
89,22,0,1,16,35,785,1104.7991375551937,1105.9206245931127,"[85, 0, 169]",169,l,0.6001025575969834,1,colour,0.5,3.8
89,22,0,1,16,36,786,1106.4397094043816,1107.1365949853207,"[55, 0, 199]",199,a,0.17487252177670598,0,colour,0.5,3.8
89,22,0,1,16,37,787,1107.6429038136557,1108.2886035428091,"[88, 0, 166]",166,l,0.12350628834974486,1,colour,0.5,3.8
89,22,0,1,16,38,788,1108.7990863551531,1109.4886062209698,"[29, 0, 225]",225,a,0.16729137267975602,1,colour,0.5,3.8
89,22,0,1,16,39,789,1109.9920762045513,1110.77660245265,"[59, 0, 195]",195,a,0.26225088724459056,0,colour,0.5,3.8
89,22,0,1,16,40,790,1111.2890060538193,1111.9366423256579,"[92, 0, 162]",162,l,0.12550545261183288,1,colour,0.5,3.8
89,22,0,1,16,41,791,1112.445282330751,1113.2166564726213,"[23, 0, 231]",231,a,0.2491602210502606,1,colour,0.5,3.8
89,22,0,1,16,42,792,1113.7266052292543,1114.3606183545926,"[28, 0, 226]",226,a,0.11182480452407617,1,colour,0.5,3.8
89,22,0,1,16,43,793,1114.8671260753472,1115.5446092078928,"[25, 0, 229]",229,a,0.155214467071346,1,colour,0.5,3.8
89,22,0,1,16,44,794,1116.054622949203,1116.5846582654049,"[8, 0, 246]",246,a,0.007963967786054127,1,colour,0.5,3.8
89,22,0,1,16,45,795,1117.1015142999822,1117.6486169493437,"[49, 0, 205]",205,a,0.025090377894230187,1,colour,0.5,3.8
89,22,0,1,16,46,796,1118.1639570691768,1118.6966476977104,"[87, 0, 167]",167,l,0.010430627691675909,1,colour,0.5,3.8
89,22,0,1,16,47,797,1119.2108874107507,1119.9286196747562,"[52, 0, 202]",202,a,0.1954872293281369,0,colour,0.5,3.8
89,22,0,1,16,48,798,1120.4453351061675,1121.0806069645478,"[57, 0, 197]",197,a,0.11307408526772633,0,colour,0.5,3.8
89,22,0,1,16,49,799,1121.5858850968943,1122.2166462326131,"[12, 0, 242]",242,a,0.10891703666129615,1,colour,0.5,3.8
89,22,0,1,16,50,800,1122.726542607692,1123.264614359403,"[20, 0, 234]",234,a,0.01595550480124075,1,colour,0.5,3.8
