id,age,condition,counterbalance,block,trialinblock,trial,tstart,tend,trialstim,trialintensity,response,RT,accuracy,trialtype,colourfreq,credits
46,20,1,2,Practice,1,NA,5.513844826054992e-06,1.443442718829374,"[8, 0, 246]",246,l,0.8892213387375705,0,colour,0.5,4
46,20,1,2,Practice,2,NA,1.954098421346771,2.9874284332445313,"[69, 0, 185]",185,l,0.5115205885003888,1,colour,0.5,4
46,20,1,2,Practice,3,NA,3.5010352244112255,4.491470278602719,"[84, 0, 170]",170,a,0.46857955080304237,0,colour,0.5,4
46,20,1,2,Practice,4,NA,5.001208319761645,5.611468088818583,"[33, 0, 221]",221,l,0.08839875182320611,0,colour,0.5,4
46,20,1,2,Practice,5,NA,6.126571101228819,6.907468227452227,"[37, 0, 217]",217,l,0.2594342873730966,0,colour,0.5,4
46,20,1,2,Practice,6,NA,7.4231631905154245,8.03546859609196,"[77, 0, 177]",177,a,0.09033529297994392,0,colour,0.5,4
46,20,1,2,Practice,7,NA,8.548322353561161,9.211476438355021,"[90, 0, 164]",164,a,0.14121547988361272,0,colour,0.5,4
46,20,1,2,Practice,8,NA,9.720256645856807,10.323449240920581,"[43, 0, 211]",211,l,0.08135835936309377,0,colour,0.5,4
46,20,1,2,Practice,9,NA,10.829709621226357,11.467815489414534,"[34, 0, 220]",220,l,0.11627675248701053,0,colour,0.5,4
46,20,1,2,Practice,10,NA,11.986054304284607,12.611444851899705,"[75, 0, 179]",179,a,0.10353386268843678,0,colour,0.5,4
46,20,1,2,1,1,1,4.952907430812502,6.279989901786848,"[17, 0, 237]",237,a,0.8043738969849983,1,colour,0.5,4.0
46,20,1,2,1,2,2,6.797567055248692,9.103995056444091,"[32, 0, 222]",222,a,1.7844484362931325,1,colour,0.5,4.0
46,20,1,2,1,3,3,9.610375953649054,10.744011865794619,"[19, 0, 235]",235,a,0.6118938364270434,1,colour,0.5,4.0
46,20,1,2,1,4,4,11.251041821333729,12.071995062745827,"[92, 0, 162]",162,l,0.29903984265047256,1,colour,0.5,4.0
46,20,1,2,1,5,5,12.57934836591312,13.344014701486685,"[87, 0, 167]",167,l,0.2427856260360386,1,colour,0.5,4.0
46,20,1,2,1,6,6,13.860671436667872,14.744035890405485,"[82, 0, 172]",172,l,0.36148019958545774,1,colour,0.5,4.0
46,20,1,2,1,7,7,15.251330116661393,16.064007864318683,"[50, 0, 204]",204,a,0.2906587981474331,1,colour,0.5,4.0
46,20,1,2,1,8,8,16.579737879682398,17.3520082014511,"[29, 0, 225]",225,a,0.2504656245237129,1,colour,0.5,4.0
46,20,1,2,1,9,9,17.860897898161966,18.527996745256132,"[95, 0, 159]",159,l,0.14516102987590784,1,colour,0.5,4.0
46,20,1,2,1,10,10,19.032949162742625,19.70402034136214,"[16, 0, 238]",238,a,0.14922000753813336,1,colour,0.5,4.0
46,20,1,2,1,11,11,20.220539624262983,20.74404770578758,"[40, 0, 214]",214,a,0.001504885857229965,1,colour,0.5,4.0
46,20,1,2,1,12,12,21.251818485795866,23.97599311241993,"[91, 0, 163]",163,l,2.2022411417124204,1,colour,0.5,4.0
46,20,1,2,1,13,13,24.4864920641985,25.184006068380768,"[2, 0, 252]",252,a,0.17566125771600127,1,colour,0.5,4.0
46,20,1,2,1,14,14,25.689724516485057,26.568006780454198,"[72, 0, 182]",182,l,0.35636098828581453,1,colour,0.5,4.0
46,20,1,2,1,15,15,27.080405251858792,27.864053392925143,"[52, 0, 202]",202,a,0.26164809616784623,0,colour,0.5,4.0
46,20,1,2,1,16,16,28.377419937984996,29.112014156403802,"[3, 0, 251]",251,a,0.2127060258058009,1,colour,0.5,4.0
46,20,1,2,1,17,17,29.62750353181491,30.40010704736369,"[75, 0, 179]",179,l,0.2507417106230605,1,colour,0.5,4.0
46,20,1,2,1,18,18,30.90887504563716,31.664012669240947,"[0, 0, 254]",254,a,0.23342311711076036,1,colour,0.5,4.0
46,20,1,2,1,19,19,32.1745498240889,32.94401044794904,"[83, 0, 171]",171,l,0.24761260354716796,1,colour,0.5,4.0
46,20,1,2,1,20,20,33.455966236363565,34.29600919709401,"[90, 0, 164]",164,l,0.31817446042123265,1,colour,0.5,4.0
46,20,1,2,1,21,21,34.81544372865119,35.824018151578,"[64, 0, 190]",190,a,0.486704741079393,0,colour,0.5,4.0
46,20,1,2,1,22,22,36.33113160248513,37.06401613508615,"[61, 0, 193]",193,a,0.21081832156187374,0,colour,0.5,4.0
46,20,1,2,1,23,23,37.58120928862354,38.41601015807828,"[13, 0, 241]",241,a,0.31277404302318246,1,colour,0.5,4.0
46,20,1,2,1,24,24,38.92508732552142,39.695990213712776,"[86, 0, 168]",168,l,0.24908243710342504,1,colour,0.5,4.0
46,20,1,2,1,25,25,40.20651161471778,41.16801670537552,"[70, 0, 184]",184,l,0.439678338032536,1,colour,0.5,4.0
46,20,1,2,1,26,26,41.67533101778099,42.479993603939874,"[71, 0, 183]",183,l,0.28290633198139403,1,colour,0.5,4.0
46,20,1,2,1,27,27,42.9880065992852,43.768010876453445,"[34, 0, 220]",220,a,0.2581456230113872,1,colour,0.5,4.0
46,20,1,2,1,28,28,44.284895254666935,45.08798875805769,"[56, 0, 198]",198,a,0.281108030796986,0,colour,0.5,4.0
46,20,1,2,1,29,29,45.597548780790476,46.26401511108634,"[22, 0, 232]",232,a,0.14448440231672066,1,colour,0.5,4.0
46,20,1,2,1,30,30,46.76928575620241,47.35198614607043,"[96, 0, 158]",158,l,0.06072161265774412,1,colour,0.5,4.0
46,20,1,2,1,31,31,47.863342106911205,48.40803871349408,"[18, 0, 236]",236,a,0.022725312448073964,1,colour,0.5,4.0
46,20,1,2,1,32,32,48.92590101151518,49.52000127606152,"[44, 0, 210]",210,a,0.07246649649914616,1,colour,0.5,4.0
46,20,1,2,1,33,33,50.035343746886156,50.58397881423207,"[43, 0, 211]",211,a,0.02670709627909673,1,colour,0.5,4.0
46,20,1,2,1,34,34,51.09796094070953,51.69602565985997,"[6, 0, 248]",248,a,0.07607885271090709,1,colour,0.5,4.0
46,20,1,2,1,35,35,52.20737413762481,52.895997460480885,"[67, 0, 187]",187,a,0.16665478564345904,0,colour,0.5,4.0
46,20,1,2,1,36,36,53.410735377578476,54.06400353201161,"[55, 0, 199]",199,a,0.13146030641973994,0,colour,0.5,4.0
46,20,1,2,1,37,37,54.582666519105715,55.23197533893426,"[78, 0, 176]",176,l,0.12753523642368236,1,colour,0.5,4.0
46,20,1,2,1,38,38,55.73897772524788,57.60798845873478,"[79, 0, 175]",175,l,1.3477302453702578,1,colour,0.5,4.0
46,20,1,2,1,39,39,58.11404994677196,58.928003361870196,"[31, 0, 223]",223,a,0.2918549086807616,1,colour,0.5,4.0
46,20,1,2,1,40,40,59.44240532826507,60.23199503123806,"[45, 0, 209]",209,a,0.26786889494269417,1,colour,0.5,4.0
46,20,1,2,1,41,41,60.73934006363788,61.504002854596365,"[42, 0, 212]",212,a,0.24333504131209338,1,colour,0.5,4.0
46,20,1,2,1,42,42,62.0206308390143,63.00801516149886,"[63, 0, 191]",191,a,0.465420905271003,0,colour,0.5,4.0
46,20,1,2,1,43,43,63.520770457448634,64.40003379199334,"[33, 0, 221]",221,a,0.3573223665580372,1,colour,0.5,4.0
46,20,1,2,1,44,44,64.91155319895597,66.01598660608306,"[73, 0, 181]",181,l,0.5824593560696485,1,colour,0.5,4.0
46,20,1,2,1,45,45,66.52105599585366,67.50400836844165,"[39, 0, 215]",215,a,0.46113822303732377,1,colour,0.5,4.0
46,20,1,2,1,46,46,68.02120270351725,68.8640010113968,"[7, 0, 247]",247,a,0.32084355527968,1,colour,0.5,4.0
46,20,1,2,1,47,47,69.38063962965907,70.31197650471859,"[97, 0, 157]",157,l,0.40938251630632294,1,colour,0.5,4.0
46,20,1,2,1,48,48,70.81821443579793,71.67999021686364,"[26, 0, 228]",228,a,0.3398048807766827,1,colour,0.5,4.0
46,20,1,2,1,49,49,72.19333037423667,73.04798108593604,"[38, 0, 216]",216,a,0.33299961442435233,1,colour,0.5,4.0
46,20,1,2,1,50,50,73.55287403266493,74.5279912314113,"[11, 0, 243]",243,a,0.4531813507583138,1,colour,0.5,4.0
46,20,1,2,2,1,51,84.34980699573043,86.40796506427796,"[59, 0, 195]",195,l,1.5354207437940204,1,colour,0.5,4.0
46,20,1,2,2,2,52,86.91331132784035,87.97599823241899,"[75, 0, 179]",179,l,0.5414883364451271,1,colour,0.5,4.0
46,20,1,2,2,3,53,88.49154865397213,89.48795362698775,"[69, 0, 185]",185,l,0.4746345403796113,1,colour,0.5,4.0
46,20,1,2,2,4,54,90.00733026317221,91.02397301681776,"[61, 0, 193]",193,l,0.4947581056476338,1,colour,0.5,4.0
46,20,1,2,2,5,55,91.53867470007663,92.31195523703036,"[24, 0, 230]",230,a,0.2513553228100136,1,colour,0.5,4.0
46,20,1,2,2,6,56,92.82076380144963,93.65598057236093,"[85, 0, 169]",169,l,0.3140914581481411,1,colour,0.5,4.0
46,20,1,2,2,7,57,94.1638281523542,95.44000956258287,"[66, 0, 188]",188,l,0.7541396176461603,1,colour,0.5,4.0
46,20,1,2,2,8,58,95.94529005385084,96.79200909941983,"[92, 0, 162]",162,l,0.32470521605773683,1,colour,0.5,4.0
46,20,1,2,2,9,59,97.30472422307002,98.15200331775941,"[46, 0, 208]",208,a,0.3253286743965873,1,colour,0.5,4.0
46,20,1,2,2,10,60,98.66411625075898,99.51206527762406,"[48, 0, 206]",206,a,0.32597497580763957,1,colour,0.5,4.0
46,20,1,2,2,11,61,100.02373473994157,100.85600751143238,"[56, 0, 198]",198,a,0.31037158195749726,0,colour,0.5,4.0
46,20,1,2,2,12,62,101.3675166783969,102.2160013359262,"[89, 0, 165]",165,l,0.3264731910944647,1,colour,0.5,4.0
46,20,1,2,2,13,63,102.72703867529117,103.67999966916932,"[84, 0, 170]",170,l,0.4311606289406882,1,colour,0.5,4.0
46,20,1,2,2,14,64,104.19593645372333,105.20800350365471,"[3, 0, 251]",251,a,0.4901520757853177,1,colour,0.5,4.0
46,20,1,2,2,15,65,105.72731909369759,106.71199296748455,"[43, 0, 211]",211,a,0.462902259612747,1,colour,0.5,4.0
46,20,1,2,2,16,66,107.22727005986098,108.1919960237301,"[28, 0, 226]",226,a,0.4425935866893269,1,colour,0.5,4.0
46,20,1,2,2,17,67,108.71191931826843,109.78397345792564,"[86, 0, 168]",168,l,0.5500395224539716,1,colour,0.5,4.0
46,20,1,2,2,18,68,110.29011568440819,111.16796156692453,"[36, 0, 218]",218,a,0.35593287760093517,1,colour,0.5,4.0
46,20,1,2,2,19,69,111.68082753362205,112.54397271749485,"[47, 0, 207]",207,a,0.34112977897757446,1,colour,0.5,4.0
46,20,1,2,2,20,70,113.05613527509968,113.90396732968065,"[5, 0, 249]",249,a,0.3260604404067635,1,colour,0.5,4.0
46,20,1,2,2,21,71,114.41540796742765,115.29596508633313,"[94, 0, 160]",160,l,0.35854486477865066,1,colour,0.5,4.0
46,20,1,2,2,22,72,115.80629350276104,116.69598430602173,"[54, 0, 200]",200,a,0.3678372691028926,0,colour,0.5,4.0
46,20,1,2,2,23,73,117.21257605660048,118.03999625058577,"[87, 0, 167]",167,l,0.30545520138730353,1,colour,0.5,4.0
46,20,1,2,2,24,74,118.55642219196625,119.4720048301283,"[60, 0, 194]",194,a,0.39367435939948336,0,colour,0.5,4.0
46,20,1,2,2,25,75,119.9783546134936,120.8159624239338,"[18, 0, 236]",236,a,0.3155738947793907,1,colour,0.5,4.0
46,20,1,2,2,26,76,121.3223074811458,122.16799149922645,"[55, 0, 199]",199,a,0.3237706193190206,0,colour,0.5,4.0
46,20,1,2,2,27,77,122.68180387804478,123.42395482112897,"[73, 0, 181]",181,l,0.22033955045617404,1,colour,0.5,4.0
46,20,1,2,2,28,78,123.93188117033742,124.73597031660893,"[42, 0, 212]",212,a,0.28233958747750876,1,colour,0.5,4.0
46,20,1,2,2,29,79,125.2444307210967,126.1039962379823,"[1, 0, 253]",253,a,0.337528056609699,1,colour,0.5,4.0
46,20,1,2,2,30,80,126.61945410570752,127.43997096566727,"[17, 0, 237]",237,a,0.29848806429754404,1,colour,0.5,4.0
46,20,1,2,2,31,81,127.94773229336988,128.823955530052,"[33, 0, 221]",221,a,0.3542712410048807,1,colour,0.5,4.0
46,20,1,2,2,32,82,129.33851621641543,130.1679966192255,"[10, 0, 244]",244,a,0.30753352713190907,1,colour,0.5,4.0
46,20,1,2,2,33,83,130.6823556563977,131.5119593330296,"[78, 0, 176]",176,l,0.30766073941413197,1,colour,0.5,4.0
46,20,1,2,2,34,84,132.02622699791254,132.91194428810968,"[25, 0, 229]",229,a,0.3640500452333981,1,colour,0.5,4.0
46,20,1,2,2,35,85,133.41693727174197,134.2399889250487,"[26, 0, 228]",228,a,0.3011662176168102,1,colour,0.5,4.0
46,20,1,2,2,36,86,134.74522845632464,135.99996967385232,"[64, 0, 190]",190,a,0.7333772340425639,0,colour,0.5,4.0
46,20,1,2,2,37,87,136.51105900089942,137.57600382503324,"[11, 0, 243]",243,a,0.5432472530219457,1,colour,0.5,4.0
46,20,1,2,2,38,88,138.08925497319296,139.15195763161455,"[74, 0, 180]",180,l,0.5408333704203869,1,colour,0.5,4.0
46,20,1,2,2,39,89,139.66753995470026,140.5919526218927,"[70, 0, 184]",184,l,0.402577643800214,1,colour,0.5,4.0
46,20,1,2,2,40,90,141.10506001623435,142.023993496814,"[99, 0, 155]",155,l,0.3970445002746601,1,colour,0.5,4.0
46,20,1,2,2,41,91,142.5427407669681,143.3439894953376,"[16, 0, 238]",238,a,0.27959172340342775,1,colour,0.5,4.0
46,20,1,2,2,42,92,143.85529386234248,144.67197623690345,"[9, 0, 245]",245,a,0.29484420039989345,1,colour,0.5,4.0
46,20,1,2,2,43,93,145.1835448746251,146.05595016744383,"[29, 0, 225]",225,a,0.3504119433032429,1,colour,0.5,4.0
46,20,1,2,2,44,94,146.57426460076022,147.41599243500468,"[45, 0, 209]",209,a,0.3197691431837484,1,colour,0.5,4.0
46,20,1,2,2,45,95,147.9360023756799,148.8879787543674,"[23, 0, 231]",231,a,0.4322700933375927,1,colour,0.5,4.0
46,20,1,2,2,46,96,149.40262529917572,150.19195900219893,"[32, 0, 222]",222,a,0.26733405197092,1,colour,0.5,4.0
46,20,1,2,2,47,97,150.6995879976198,151.591965618813,"[51, 0, 203]",203,a,0.37050163780895673,0,colour,0.5,4.0
46,20,1,2,2,48,98,152.10603990527216,152.8959600451035,"[50, 0, 204]",204,a,0.2680748764405507,1,colour,0.5,4.0
46,20,1,2,2,49,99,153.40298251756667,154.37595010442828,"[77, 0, 177]",177,l,0.4510719111731305,1,colour,0.5,4.0
46,20,1,2,2,50,100,154.88751007753672,155.78396361177374,"[22, 0, 232]",232,a,0.3746031508476335,1,colour,0.5,4.0
46,20,1,2,3,1,101,161.71528827760494,162.7679573133869,"[69, 0, 185]",185,l,0.5299529787166648,1,colour,0.5,4.0
46,20,1,2,3,2,102,163.27874456049358,164.49597587771586,"[64, 0, 190]",190,l,0.6953187061526478,1,colour,0.5,4.0
46,20,1,2,3,3,103,165.01322771431842,166.1679887423038,"[56, 0, 198]",198,a,0.6329523922800036,0,colour,0.5,4.0
46,20,1,2,3,4,104,166.68524412352144,167.5359973344498,"[0, 0, 254]",254,a,0.3288851044653711,1,colour,0.5,4.0
46,20,1,2,3,5,105,168.04469483427556,169.01599290761988,"[47, 0, 207]",207,a,0.4493244161326402,1,colour,0.5,4.0
46,20,1,2,3,6,106,169.52925508347016,170.3759682213481,"[82, 0, 172]",172,l,0.32476941296863515,1,colour,0.5,4.0
46,20,1,2,3,7,107,170.8886774373068,171.76800063645533,"[59, 0, 195]",195,a,0.3574196465388013,0,colour,0.5,4.0
46,20,1,2,3,8,108,172.27943339728108,173.07998619963382,"[73, 0, 181]",181,l,0.2786327082076241,1,colour,0.5,4.0
46,20,1,2,3,9,109,173.59202784649324,174.41594950578246,"[46, 0, 208]",208,a,0.3022323589448206,1,colour,0.5,4.0
46,20,1,2,3,10,110,174.9359232126185,175.80797837627506,"[27, 0, 227]",227,a,0.3500945033656535,1,colour,0.5,4.0
46,20,1,2,3,11,111,176.32663821260076,177.1279739809529,"[29, 0, 225]",225,a,0.2797681664455922,1,colour,0.5,4.0
46,20,1,2,3,12,112,177.63922202796857,178.4479877025501,"[79, 0, 175]",175,l,0.28691332196149233,1,colour,0.5,4.0
46,20,1,2,3,13,113,178.96754156946872,179.82393150544158,"[86, 0, 168]",168,l,0.3345379771990338,1,colour,0.5,4.0
46,20,1,2,3,14,114,180.34252556947195,181.19194797450882,"[87, 0, 167]",167,l,0.327674815473074,1,colour,0.5,4.0
46,20,1,2,3,15,115,181.70202511713978,182.59996069416184,"[2, 0, 252]",252,a,0.37599027672831653,1,colour,0.5,4.0
46,20,1,2,3,16,116,183.10836280943022,183.959951761733,"[55, 0, 199]",199,a,0.3297972519785617,0,colour,0.5,4.0
46,20,1,2,3,17,117,184.46798523707366,185.24794619117392,"[26, 0, 228]",228,a,0.25816492146896053,1,colour,0.5,4.0
46,20,1,2,3,18,118,185.7648522309214,186.43195029032404,"[9, 0, 245]",245,a,0.14523231601606312,1,colour,0.5,4.0
46,20,1,2,3,19,119,186.936814092443,187.6879478768351,"[25, 0, 229]",229,a,0.22919242255920835,1,colour,0.5,4.0
46,20,1,2,3,20,120,188.20259363395098,188.95994821711793,"[68, 0, 186]",186,l,0.23544315363551505,1,colour,0.5,4.0
46,20,1,2,3,21,121,189.4683747508434,190.26398675416885,"[57, 0, 197]",197,a,0.27372144763648976,0,colour,0.5,4.0
46,20,1,2,3,22,122,190.78082977854456,191.55194573746303,"[98, 0, 156]",156,l,0.24912812324828337,1,colour,0.5,4.0
46,20,1,2,3,23,123,192.0622485538961,192.94396436795796,"[31, 0, 223]",223,a,0.35974806454169084,1,colour,0.5,4.0
46,20,1,2,3,24,124,193.45299466771803,194.22396884204954,"[58, 0, 196]",196,a,0.2491151263284337,0,colour,0.5,4.0
46,20,1,2,3,25,125,194.73434373231385,195.6639287800267,"[36, 0, 218]",218,a,0.4076409289568801,1,colour,0.5,4.0
46,20,1,2,3,26,126,196.1719563476763,197.62395616020558,"[34, 0, 220]",220,a,0.9301061060714346,1,colour,0.5,4.0
46,20,1,2,3,27,127,198.1408003661195,200.0559852197448,"[44, 0, 210]",210,a,1.3932423102537541,1,colour,0.5,4.0
46,20,1,2,3,28,128,200.56300966143817,201.3039755216787,"[94, 0, 160]",160,l,0.21911075069783692,1,colour,0.5,4.0
46,20,1,2,3,29,129,201.81306017219777,202.51999142990962,"[90, 0, 164]",164,l,0.18502612971815324,1,colour,0.5,4.0
46,20,1,2,3,30,130,203.03186726757076,203.8959679220252,"[62, 0, 192]",192,a,0.3422293972225816,0,colour,0.5,4.0
46,20,1,2,3,31,131,204.40695091063162,205.2079708144306,"[61, 0, 193]",193,a,0.2791159573434925,0,colour,0.5,4.0
46,20,1,2,3,32,132,205.7203393535333,206.51196130226026,"[10, 0, 244]",244,a,0.2704808821208644,1,colour,0.5,4.0
46,20,1,2,3,33,133,207.01655098751007,207.89594862356716,"[37, 0, 217]",217,a,0.35745745576195986,1,colour,0.5,4.0
46,20,1,2,3,34,134,208.40724787057297,209.27198694951676,"[72, 0, 182]",182,l,0.34285797556049147,1,colour,0.5,4.0
46,20,1,2,3,35,135,209.7823405720933,210.60797467412203,"[49, 0, 205]",205,a,0.30366950327743325,1,colour,0.5,4.0
46,20,1,2,3,36,136,211.1262331812959,211.90397993275474,"[12, 0, 242]",242,a,0.25598143882189106,1,colour,0.5,4.0
46,20,1,2,3,37,137,212.4231895782027,213.2639816341698,"[13, 0, 241]",241,a,0.31877507568697183,1,colour,0.5,4.0
46,20,1,2,3,38,138,213.78274820278193,214.66395792463618,"[96, 0, 158]",158,l,0.3592640277142891,1,colour,0.5,4.0
46,20,1,2,3,39,139,215.17343405815473,215.9839389570093,"[5, 0, 249]",249,a,0.2886277339321168,1,colour,0.5,4.0
46,20,1,2,3,40,140,216.50170515658738,217.47198710705516,"[23, 0, 231]",231,a,0.44844535169067967,1,colour,0.5,4.0
46,20,1,2,3,41,141,217.9861775781069,218.94398209103156,"[17, 0, 237]",237,a,0.43579147110585836,1,colour,0.5,4.0
46,20,1,2,3,42,142,219.45511080268625,220.2239641158967,"[77, 0, 177]",177,l,0.24703719442959482,1,colour,0.5,4.0
46,20,1,2,3,43,143,220.73641457498297,221.59997526646657,"[78, 0, 176]",176,l,0.3421990710744467,1,colour,0.5,4.0
46,20,1,2,3,44,144,222.1115261811151,222.9279750049527,"[15, 0, 239]",239,a,0.29452912353872307,1,colour,0.5,4.0
46,20,1,2,3,45,145,223.43968385187782,224.35196605992087,"[99, 0, 155]",155,l,0.39026365237896243,1,colour,0.5,4.0
46,20,1,2,3,46,146,224.86169779954298,225.8479742330146,"[63, 0, 191]",191,l,0.46435043163592127,1,colour,0.5,4.0
46,20,1,2,3,47,147,226.3618799533533,227.25615630648008,"[3, 0, 251]",251,a,0.3723688620566463,1,colour,0.5,4.0
46,20,1,2,3,48,148,227.76798488261238,228.94394703873058,"[65, 0, 189]",189,l,0.6538971266172666,1,colour,0.5,4.0
46,20,1,2,3,49,149,229.45590715945218,230.44798730870434,"[45, 0, 209]",209,a,0.47030262738644524,1,colour,0.5,4.0
46,20,1,2,3,50,150,230.9559258671411,231.7679742487685,"[32, 0, 222]",222,a,0.2901495551705011,1,colour,0.5,4.0
46,20,1,2,4,1,151,240.09915153739803,241.4959506715668,"[31, 0, 223]",223,a,0.8741468801681549,1,colour,0.5,3.9
46,20,1,2,4,2,152,242.00626609107394,242.663941776947,"[30, 0, 224]",224,a,0.13572053942743878,1,colour,0.5,3.9
46,20,1,2,4,3,153,243.17821022952194,243.96796219707858,"[97, 0, 157]",157,l,0.26775901188739226,1,colour,0.5,3.9
46,20,1,2,4,4,154,244.47527769102226,245.31194893549355,"[21, 0, 233]",233,a,0.3149055379881247,1,colour,0.5,3.9
46,20,1,2,4,5,155,245.8191281586951,246.75197700884155,"[77, 0, 177]",177,l,0.4109842882985504,1,colour,0.5,3.9
46,20,1,2,4,6,156,247.2443791272608,248.07196473659815,"[38, 0, 216]",216,a,0.3057147459517182,1,colour,0.5,3.9
46,20,1,2,4,7,157,248.58826346569595,249.40795639966427,"[94, 0, 160]",160,l,0.29789335672285233,1,colour,0.5,3.9
46,20,1,2,4,8,158,249.9164128656912,250.67995910302352,"[52, 0, 202]",202,a,0.2417198785533401,0,colour,0.5,3.9
46,20,1,2,4,9,159,251.19768867491712,252.03196533524397,"[4, 0, 250]",250,a,0.3123723200251334,1,colour,0.5,3.9
46,20,1,2,4,10,160,252.5415804964273,253.32793002773087,"[14, 0, 240]",240,a,0.26457319097653453,1,colour,0.5,3.9
46,20,1,2,4,11,161,253.83860778562803,254.6079593141253,"[95, 0, 159]",159,l,0.2475109912593325,1,colour,0.5,3.9
46,20,1,2,4,12,162,255.11988280716196,255.87994941441002,"[10, 0, 244]",244,a,0.23816699309918477,1,colour,0.5,3.9
46,20,1,2,4,13,163,256.3758291936829,257.16793005923864,"[23, 0, 231]",231,a,0.27047221750717654,1,colour,0.5,3.9
46,20,1,2,4,14,164,257.6726942183004,258.4799554008705,"[91, 0, 163]",163,l,0.2853210022753956,1,colour,0.5,3.9
46,20,1,2,4,15,165,258.9853339598112,259.74393230888745,"[54, 0, 200]",200,a,0.2367491472250549,0,colour,0.5,3.9
46,20,1,2,4,16,166,260.2510359136422,260.999916504632,"[63, 0, 191]",191,a,0.22699909376024152,0,colour,0.5,3.9
46,20,1,2,4,17,167,261.5167815843879,262.44796958563074,"[62, 0, 192]",192,a,0.4092875994019778,0,colour,0.5,3.9
46,20,1,2,4,18,168,262.95438947359753,263.7599677518833,"[86, 0, 168]",168,l,0.2836743318302979,1,colour,0.5,3.9
46,20,1,2,4,19,169,264.266997707422,265.0479523351728,"[3, 0, 251]",251,a,0.25904359206515437,1,colour,0.5,3.9
46,20,1,2,4,20,170,265.56394228894715,266.3679384875445,"[40, 0, 214]",214,a,0.2820804367593155,1,colour,0.5,3.9
46,20,1,2,4,21,171,266.8765599750777,267.70393842137855,"[88, 0, 166]",166,l,0.3057411336385485,1,colour,0.5,3.9
46,20,1,2,4,22,172,268.2204817288898,269.00795569074126,"[2, 0, 252]",252,a,0.2656976215243958,1,colour,0.5,3.9
46,20,1,2,4,23,173,269.5174341873362,270.30395661706734,"[16, 0, 238]",238,a,0.26464408327001365,1,colour,0.5,3.9
46,20,1,2,4,24,174,270.81430669502925,271.59197034496583,"[27, 0, 227]",227,a,0.2556092542799888,1,colour,0.5,3.9
46,20,1,2,4,25,175,272.1114340211334,272.94395649103626,"[13, 0, 241]",241,a,0.3106878403564224,1,colour,0.5,3.9
46,20,1,2,4,26,176,273.455187996517,274.2799398833349,"[5, 0, 249]",249,a,0.30277822960670164,1,colour,0.5,3.9
46,20,1,2,4,27,177,274.79911290109794,275.84796359917027,"[57, 0, 197]",197,a,0.5270609669787518,0,colour,0.5,3.9
46,20,1,2,4,28,178,276.36166373185733,277.2239641158967,"[99, 0, 155]",155,l,0.3404062837357742,1,colour,0.5,3.9
46,20,1,2,4,29,179,277.7367698241442,278.7119508259543,"[61, 0, 193]",193,a,0.45380047679009294,0,colour,0.5,3.9
46,20,1,2,4,30,180,279.2213068364199,280.07995981194654,"[33, 0, 221]",221,a,0.33675454291596907,1,colour,0.5,3.9
46,20,1,2,4,31,181,280.59652478099224,281.3919567966609,"[80, 0, 174]",174,l,0.2736757614916314,1,colour,0.5,3.9
46,20,1,2,4,32,182,281.90903455329817,282.8239590746666,"[46, 0, 208]",208,a,0.3958676881984502,1,colour,0.5,3.9
46,20,1,2,4,33,183,283.34379335999165,284.15995113157896,"[11, 0, 243]",243,a,0.29433653280739236,1,colour,0.5,3.9
46,20,1,2,4,34,184,284.6720435845823,285.45594221175315,"[37, 0, 217]",217,a,0.274706456673357,1,colour,0.5,3.9
46,20,1,2,4,35,185,285.9722106147033,286.8559661575946,"[76, 0, 178]",178,l,0.36186223027925735,1,colour,0.5,3.9
46,20,1,2,4,36,186,287.36298626698135,288.2799320064137,"[87, 0, 167]",167,l,0.3952363529383547,1,colour,0.5,3.9
46,20,1,2,4,37,187,288.7849801284965,289.7919649886594,"[92, 0, 162]",162,l,0.4851439290791859,1,colour,0.5,3.9
46,20,1,2,4,38,188,290.3007069930918,291.0879300749925,"[25, 0, 229]",229,a,0.2653537938995214,1,colour,0.5,3.9
46,20,1,2,4,39,189,291.59765748230757,292.49591837618846,"[71, 0, 183]",183,l,0.3763703381914638,1,colour,0.5,3.9
46,20,1,2,4,40,190,293.0041034822689,293.7759413610456,"[73, 0, 181]",181,l,0.25069720601641166,1,colour,0.5,3.9
46,20,1,2,4,41,191,294.2854044976434,294.9919521492775,"[74, 0, 180]",180,l,0.18466497286635786,1,colour,0.5,3.9
46,20,1,2,4,42,192,295.5043002083844,296.2959438186449,"[56, 0, 198]",198,a,0.2698113437909342,0,colour,0.5,3.9
46,20,1,2,4,43,193,296.8012676329813,297.6879683568309,"[36, 0, 218]",218,a,0.3648550666130177,1,colour,0.5,3.9
46,20,1,2,4,44,194,298.20761753450006,299.2639383111018,"[53, 0, 201]",201,a,0.5343924116891685,0,colour,0.5,3.9
46,20,1,2,4,45,195,299.77024280216756,300.5839441557773,"[45, 0, 209]",209,a,0.29185451483454017,1,colour,0.5,3.9
46,20,1,2,4,46,196,301.0984812113761,301.85595473605827,"[67, 0, 187]",187,a,0.23566803974517825,0,colour,0.5,3.9
46,20,1,2,4,47,197,302.36415520213586,303.3279221508092,"[32, 0, 222]",222,a,0.44179407915407864,1,colour,0.5,3.9
46,20,1,2,4,48,198,303.83307542979446,304.6719490615242,"[69, 0, 185]",185,l,0.316980319117647,1,colour,0.5,3.9
46,20,1,2,4,49,199,305.17688099901443,305.9359645664563,"[6, 0, 248]",248,a,0.23728792865722426,1,colour,0.5,3.9
46,20,1,2,4,50,200,306.4426692051361,307.2159265051714,"[9, 0, 245]",245,a,0.25161644275840445,1,colour,0.5,3.9
46,20,1,2,5,1,201,311.86406875292187,312.90392085584335,"[93, 0, 161]",161,l,0.5171813381548418,1,colour,0.4,3.9
46,20,1,2,5,2,202,313.411924398883,314.7999352517054,"[71, 0, 183]",183,l,0.8661514109735435,1,colour,0.4,3.9
46,20,1,2,5,3,203,315.3183323926978,316.30394795245365,"[57, 0, 197]",197,l,0.46370767483904274,1,colour,0.4,3.9
46,20,1,2,5,4,204,316.8187610941518,317.4719205470683,"[77, 0, 177]",177,l,0.13124172184780036,1,colour,0.4,3.9
46,20,1,2,5,5,205,317.99075525105127,318.7519230519292,"[8, 0, 246]",246,a,0.23924928211727092,1,colour,0.4,3.9
46,20,1,2,5,6,206,319.27211967564426,320.0479153136416,"[25, 0, 229]",229,a,0.2539704607565909,1,colour,0.4,3.9
46,20,1,2,5,7,207,320.5534604694726,321.3439485353456,"[76, 0, 178]",178,l,0.26857348557314253,1,colour,0.4,3.9
46,20,1,2,5,8,208,321.85041844176385,322.6319618693983,"[81, 0, 173]",173,l,0.2596473581002101,1,colour,0.4,3.9
46,20,1,2,5,9,209,323.1476253247756,323.95995097404057,"[60, 0, 194]",194,l,0.2885678693282898,1,colour,0.4,3.9
46,20,1,2,5,10,210,324.47793260742264,325.17591134997474,"[74, 0, 180]",180,l,0.1761023653216398,1,colour,0.4,3.9
46,20,1,2,5,11,211,325.68107093049684,326.2159332005549,"[14, 0, 240]",240,a,0.012876797464286938,1,colour,0.4,3.9
46,20,1,2,5,12,212,326.728018564329,327.42395127651434,"[98, 0, 156]",156,l,0.17393818113214365,1,colour,0.4,3.9
46,20,1,2,5,13,213,327.93124550277025,328.49591719465025,"[99, 0, 155]",155,l,0.04269094543906249,1,colour,0.4,3.9
46,20,1,2,5,14,214,329.00956573350095,329.7599543611168,"[27, 0, 227]",227,a,0.22873634880261307,1,colour,0.4,3.9
46,20,1,2,5,15,215,330.27527438271545,330.9199137634632,"[90, 0, 164]",164,l,0.1228752496490415,1,colour,0.4,3.9
46,20,1,2,5,16,216,331.4315682596298,332.087939133452,"[85, 0, 169]",169,l,0.13432159816420608,1,colour,0.4,3.9
46,20,1,2,5,17,217,332.60355611499244,333.20792394674754,"[69, 0, 185]",185,l,0.08245010068685588,1,colour,0.4,3.9
46,20,1,2,5,18,218,333.7129649796011,334.31996173391553,"[94, 0, 160]",160,l,0.08499395249373265,1,colour,0.4,3.9
46,20,1,2,5,19,219,334.8390197486242,336.60793647105265,"[87, 0, 167]",167,l,1.2470328621225235,1,colour,0.4,3.9
46,20,1,2,5,20,220,337.12044246243613,337.6879380306832,"[47, 0, 207]",207,a,0.04561092024914615,1,colour,0.4,3.9
46,20,1,2,5,21,221,338.195262189241,338.94392577104236,"[62, 0, 192]",192,a,0.22672182612222969,0,colour,0.4,3.9
46,20,1,2,5,22,222,339.46102755229003,340.1359533024588,"[44, 0, 210]",210,a,0.15309584677515886,1,colour,0.4,3.9
46,20,1,2,5,23,223,340.6486030476599,341.791927573282,"[56, 0, 198]",198,a,0.6215170714549458,0,colour,0.4,3.9
46,20,1,2,5,24,224,342.3049333553363,342.9919127646699,"[82, 0, 172]",172,l,0.16506640441775744,1,colour,0.4,3.9
46,20,1,2,5,25,225,343.5082126753059,344.1599550700398,"[55, 0, 199]",199,a,0.13931202179719548,0,colour,0.4,3.9
46,20,1,2,5,26,226,344.67088764634855,345.31991447238624,"[42, 0, 212]",212,a,0.12712642419637632,1,colour,0.4,3.9
46,20,1,2,5,27,227,345.827192550953,346.41596013962635,"[4, 0, 250]",250,a,0.06698258373262433,1,colour,0.4,3.9
46,20,1,2,5,28,228,346.9210980586149,347.55995065896377,"[88, 0, 166]",166,l,0.11697228465754961,1,colour,0.4,3.9
46,20,1,2,5,29,229,348.07747346166707,348.8479320914844,"[59, 0, 195]",195,a,0.24930417244468117,0,colour,0.4,3.9
46,20,1,2,5,30,230,349.3586862555203,349.9679425047748,"[9, 0, 245]",245,a,0.08739286894433462,1,colour,0.4,3.9
46,20,1,2,5,31,231,350.48381706164855,351.0559288997556,"[6, 0, 248]",248,a,0.05020789165109818,1,colour,0.4,3.9
46,20,1,2,5,32,232,351.5619510031852,352.19995250216334,"[30, 0, 224]",224,a,0.11722592153091682,1,colour,0.4,3.9
46,20,1,2,5,33,233,352.71726696029236,353.43191326879287,"[66, 0, 188]",188,l,0.19283530971870277,1,colour,0.4,3.9
46,20,1,2,5,34,234,353.951661695673,354.5999386387816,"[75, 0, 179]",179,l,0.1263119505110808,1,colour,0.4,3.9
46,20,1,2,5,35,235,355.108041824878,355.7519191134684,"[22, 0, 232]",232,a,0.12210921903078997,1,colour,0.4,3.9
46,20,1,2,5,36,236,356.2642994679536,356.87996162363834,"[11, 0, 243]",243,a,0.09379877537503489,1,colour,0.4,3.9
46,20,1,2,5,37,237,357.3894468156168,358.0800054980914,"[45, 0, 209]",209,a,0.1687193267753173,1,colour,0.4,3.9
46,20,1,2,5,38,238,358.5926918709779,359.1999257206303,"[28, 0, 226]",226,a,0.08565088774867036,1,colour,0.4,3.9
46,20,1,2,5,39,239,359.71777777865327,360.3998979150974,"[46, 0, 208]",208,a,0.16025714998022522,1,colour,0.4,3.9
46,20,1,2,5,40,240,360.90540644324346,361.6719514246006,"[3, 0, 251]",251,a,0.2447087764267053,1,colour,0.4,3.9
46,20,1,2,5,41,241,362.18678268321855,362.8879208589942,"[92, 0, 162]",162,l,0.17928109700324057,1,colour,0.4,3.9
46,20,1,2,5,42,242,363.40554960629197,364.08794346575905,"[51, 0, 203]",203,a,0.1605678945343243,0,colour,0.4,3.9
46,20,1,2,5,43,243,364.5931038339736,365.3359786661458,"[10, 0, 244]",244,a,0.23283116645779955,1,colour,0.4,3.9
46,20,1,2,5,44,244,365.8480337037722,366.67997091840607,"[89, 0, 165]",165,l,0.3099478035796892,1,colour,0.4,3.9
46,20,1,2,5,45,245,367.1819824872405,367.9759080416675,"[63, 0, 191]",191,l,0.27207438334517065,1,colour,0.4,3.9
46,20,1,2,5,46,246,368.4946096256772,369.2159312313247,"[84, 0, 170]",170,l,0.19944916687791192,1,colour,0.4,3.9
46,20,1,2,5,47,247,369.72910479180746,370.49594594541395,"[65, 0, 189]",189,l,0.24385767505555123,1,colour,0.4,3.9
46,20,1,2,5,48,248,371.01155111157186,371.7759519948895,"[29, 0, 225]",225,a,0.24255207531268752,1,colour,0.4,3.9
46,20,1,2,5,49,249,372.2928741823266,373.1199115579252,"[34, 0, 220]",220,a,0.305401244474524,1,colour,0.4,3.9
46,20,1,2,5,50,250,373.6367565515311,374.4719028239947,"[83, 0, 171]",171,l,0.3133474829101033,1,colour,0.4,3.9
46,20,1,2,6,1,251,380.2927079792821,381.1678922500155,"[79, 0, 175]",175,l,0.3526194505611784,1,colour,0.28,3.9
46,20,1,2,6,2,252,381.68463878210196,387.6559285846788,"[51, 0, 203]",203,l,5.44936931458551,1,colour,0.28,3.9
46,20,1,2,6,3,253,388.16956806507005,389.1119141195004,"[47, 0, 207]",207,a,0.42042911105409075,1,colour,0.28,3.9
46,20,1,2,6,4,254,389.6226974281458,390.34393199381066,"[33, 0, 221]",221,a,0.19924082230363638,1,colour,0.28,3.9
46,20,1,2,6,5,255,390.8571996835053,391.599935094167,"[9, 0, 245]",245,a,0.22095079956670816,1,colour,0.28,3.9
46,20,1,2,6,6,256,392.1073419604004,392.73593053815557,"[54, 0, 200]",200,a,0.10681105588946593,0,colour,0.28,3.9
46,20,1,2,6,7,257,393.2479725788612,393.85594055759975,"[76, 0, 178]",178,l,0.09837408524344937,1,colour,0.28,3.9
46,20,1,2,6,8,258,394.3607441012691,395.1519080070093,"[4, 0, 250]",250,a,0.26929619312340947,1,colour,0.28,3.9
46,20,1,2,6,9,259,395.65775366739626,396.30391053707626,"[61, 0, 193]",193,a,0.12427852321889077,0,colour,0.28,3.9
46,20,1,2,6,10,260,396.81408141507336,397.47191109476216,"[88, 0, 166]",166,l,0.13593400400031896,1,colour,0.28,3.9
46,20,1,2,6,11,261,397.98602673505957,398.7119299521123,"[58, 0, 196]",196,a,0.20404219981901406,0,colour,0.28,3.9
46,20,1,2,6,12,262,399.2205794027168,399.97590686012927,"[29, 0, 225]",225,a,0.23351803401465077,1,colour,0.28,3.9
46,20,1,2,6,13,263,400.4862305504039,401.3199546446863,"[17, 0, 237]",237,a,0.3118784370458343,1,colour,0.28,3.9
46,20,1,2,6,14,264,401.830150728832,402.58394021731647,"[62, 0, 192]",192,a,0.23193122817338008,0,colour,0.28,3.9
46,20,1,2,6,15,265,403.0958511072786,403.98393068624137,"[98, 0, 156]",156,l,0.3661657863549408,1,colour,0.28,3.9
46,20,1,2,6,16,266,404.502167138035,405.3998998843276,"[90, 0, 164]",164,l,0.37587291059753625,1,colour,0.28,3.9
46,20,1,2,6,17,267,405.9085930518463,406.7438921365874,"[82, 0, 172]",172,l,0.31356764286647376,1,colour,0.28,3.9
46,20,1,2,6,18,268,407.25238404876154,407.80790275782874,"[80, 0, 174]",174,l,0.03355253493145938,1,colour,0.28,3.9
46,20,1,2,6,19,269,408.31508591949114,408.9919056754402,"[41, 0, 213]",213,a,0.15514857252446745,1,colour,0.28,3.9
46,20,1,2,6,20,270,409.50262006102275,410.12791844865615,"[92, 0, 162]",162,l,0.10341255809726135,1,colour,0.28,3.9
46,20,1,2,6,21,271,410.6432680087105,411.3919118982085,"[75, 0, 179]",179,l,0.22696049684464015,1,colour,0.28,3.9
46,20,1,2,6,22,272,411.9090207686854,412.5999303680137,"[81, 0, 173]",173,l,0.16905764055445616,1,colour,0.28,3.9
46,20,1,2,6,23,273,413.11222289482384,413.86390176218583,"[71, 0, 183]",183,a,0.22979933936267116,0,colour,0.28,3.9
46,20,1,2,6,24,274,414.3779945594106,415.14390426704676,"[55, 0, 199]",199,a,0.2440991027006021,0,colour,0.28,3.9
46,20,1,2,6,25,275,415.6593554393885,416.41591957348055,"[20, 0, 234]",234,a,0.2349067352797647,1,colour,0.28,3.9
46,20,1,2,6,26,276,416.9250530609129,417.4559142486819,"[63, 0, 191]",191,a,0.008988355153178418,0,colour,0.28,3.9
46,20,1,2,6,27,277,417.97196446090584,418.6239049602159,"[78, 0, 176]",176,l,0.1299550267167433,1,colour,0.28,3.9
46,20,1,2,6,28,278,419.14395310396003,419.96792872016204,"[59, 0, 195]",195,a,0.3021295651192304,0,colour,0.28,3.9
46,20,1,2,6,29,279,420.48848098688404,421.2158949974855,"[13, 0, 241]",241,a,0.2061354917150311,1,colour,0.28,3.9
46,20,1,2,6,30,280,421.7222593531551,422.495910893113,"[31, 0, 223]",223,a,0.2517617719604459,1,colour,0.28,3.9
46,20,1,2,6,31,281,423.0037246023435,423.7199206951541,"[52, 0, 202]",202,a,0.19330359270315967,0,colour,0.28,3.9
46,20,1,2,6,32,282,424.23919532520495,424.99990114463526,"[3, 0, 251]",251,a,0.23877509144131182,1,colour,0.28,3.9
46,20,1,2,6,33,283,425.50495084210206,426.53587957447326,"[87, 0, 167]",167,l,0.5090173028397658,1,colour,0.28,3.9
46,20,1,2,6,34,284,427.0519699589968,427.8239031485241,"[86, 0, 168]",168,l,0.25009343998181066,1,colour,0.28,3.9
46,20,1,2,6,35,285,428.33330326974965,429.3199318016136,"[64, 0, 190]",190,a,0.4647482161726657,0,colour,0.28,3.9
46,20,1,2,6,36,286,429.8334472204906,430.671932913835,"[56, 0, 198]",198,a,0.31663964226163444,0,colour,0.28,3.9
46,20,1,2,6,37,287,431.1772791773974,431.9919178846685,"[0, 0, 254]",254,a,0.29336767145969134,1,colour,0.28,3.9
46,20,1,2,6,38,288,432.5055215250668,433.39190677820943,"[70, 0, 184]",184,l,0.36454314052070913,1,colour,0.28,3.9
46,20,1,2,6,39,289,433.8962625188901,434.7679202918557,"[50, 0, 204]",204,a,0.34977470035164515,1,colour,0.28,3.9
46,20,1,2,6,40,290,435.2869901219469,436.06392948894927,"[25, 0, 229]",229,a,0.25503975285346314,1,colour,0.28,3.9
46,20,1,2,6,41,291,436.58394454962354,437.2959229448029,"[36, 0, 218]",218,a,0.19076446704912087,1,colour,0.28,3.9
46,20,1,2,6,42,292,437.80214827280815,438.58392367578153,"[73, 0, 181]",181,l,0.2599380165047478,1,colour,0.28,3.9
46,20,1,2,6,43,293,439.09984706956857,439.8878999851522,"[53, 0, 201]",201,a,0.26693902435681593,0,colour,0.28,3.9
46,20,1,2,6,44,294,440.3961000573836,441.01590704917544,"[93, 0, 161]",161,l,0.09777662074566251,1,colour,0.28,3.9
46,20,1,2,6,45,295,441.5211568204495,442.47190597476356,"[74, 0, 180]",180,l,0.4288227586321227,1,colour,0.28,3.9
46,20,1,2,6,46,296,442.9901270665596,443.8079602593557,"[72, 0, 182]",182,l,0.29601510478460114,1,colour,0.28,3.9
46,20,1,2,6,47,297,444.31826662040294,445.295933972493,"[57, 0, 197]",197,a,0.45571220564397663,0,colour,0.28,3.9
46,20,1,2,6,48,298,445.80276306653286,446.599920915708,"[96, 0, 158]",158,l,0.275266505793752,1,colour,0.28,3.9
46,20,1,2,6,49,299,447.1153945372762,448.06393185202614,"[65, 0, 189]",189,a,0.426733799043177,0,colour,0.28,3.9
46,20,1,2,6,50,300,448.56864914340485,449.5599030035887,"[94, 0, 160]",160,l,0.4694101721779589,1,colour,0.28,3.9
46,20,1,2,7,1,301,454.4432895127061,455.6479153924106,"[85, 0, 169]",169,l,0.6819905610846035,1,colour,0.14,3.9
46,20,1,2,7,2,302,456.16304518635434,456.70392069830496,"[84, 0, 170]",170,l,0.01905663624711451,1,colour,0.14,3.9
46,20,1,2,7,3,303,457.20992232173876,457.83992401921523,"[61, 0, 193]",193,a,0.10837501865853483,0,colour,0.14,3.9
46,20,1,2,7,4,304,458.35061359249494,459.10392849645723,"[70, 0, 184]",184,a,0.23141135135256263,0,colour,0.14,3.9
46,20,1,2,7,5,305,459.6162938847915,460.303923533997,"[96, 0, 158]",158,l,0.16568237968112953,1,colour,0.14,3.9
46,20,1,2,7,6,306,460.8195925032187,461.59190260344076,"[79, 0, 175]",175,l,0.2504805906742149,1,colour,0.14,3.9
46,20,1,2,7,7,307,462.10072062016616,462.83193327617346,"[77, 0, 177]",177,l,0.20932446339475064,1,colour,0.14,3.9
46,20,1,2,7,8,308,463.3507731001555,464.11990368100396,"[94, 0, 160]",160,l,0.2472396313128229,1,colour,0.14,3.9
46,20,1,2,7,9,309,464.63218399858533,465.2799631202538,"[78, 0, 176]",176,l,0.12596812288666115,1,colour,0.14,3.9
46,20,1,2,7,10,310,465.78858894009363,466.55192840823565,"[59, 0, 195]",195,a,0.24153752782012816,0,colour,0.14,3.9
46,20,1,2,7,11,311,467.06996951237534,467.8398948746053,"[68, 0, 186]",186,a,0.257610780039613,0,colour,0.14,3.9
46,20,1,2,7,12,312,468.35754213266864,469.03195233832366,"[89, 0, 165]",165,l,0.1528067637550521,1,colour,0.14,3.9
46,20,1,2,7,13,313,469.5451641018758,470.23192571432855,"[87, 0, 167]",167,l,0.16489862598928084,1,colour,0.14,3.9
46,20,1,2,7,14,314,470.74847886799216,471.487918968533,"[3, 0, 251]",251,a,0.21817930472752778,1,colour,0.14,3.9
46,20,1,2,7,15,315,471.9984458833833,472.7279240412704,"[82, 0, 172]",172,l,0.2075710606627581,1,colour,0.14,3.9
46,20,1,2,7,16,316,473.23292135720976,474.02390133683184,"[83, 0, 171]",171,l,0.26907485162837474,1,colour,0.14,3.9
46,20,1,2,7,17,317,474.5299714894827,476.67991971841593,"[66, 0, 188]",188,a,1.628085636315518,0,colour,0.14,3.9
46,20,1,2,7,18,318,477.1863994709861,478.13589855785403,"[55, 0, 199]",199,a,0.42769084500878307,0,colour,0.14,3.9
46,20,1,2,7,19,319,478.6552192678955,479.3199006877735,"[60, 0, 194]",194,a,0.1427491165045467,0,colour,0.14,3.9
46,20,1,2,7,20,320,479.8271732524954,480.57594041581524,"[54, 0, 200]",200,a,0.22701996760224574,0,colour,0.14,3.9
46,20,1,2,7,21,321,481.0929791816907,481.7278811120482,"[69, 0, 185]",185,a,0.11325949769661747,0,colour,0.14,3.9
46,20,1,2,7,22,322,482.2336397324525,483.0158759353353,"[93, 0, 161]",161,l,0.26036337026698675,1,colour,0.14,3.9
46,20,1,2,7,23,323,483.53072216010423,484.3358632692457,"[63, 0, 191]",191,a,0.2833639811224202,0,colour,0.14,3.9
46,20,1,2,7,24,324,484.84322720625687,485.5998760172556,"[53, 0, 201]",201,a,0.2349437568113899,0,colour,0.14,3.9
46,20,1,2,7,25,325,486.1090150185328,486.8559082622214,"[5, 0, 249]",249,a,0.22519015873194803,1,colour,0.14,3.9
46,20,1,2,7,26,326,487.37466813545007,488.00787573998787,"[51, 0, 203]",203,a,0.11120480271665656,0,colour,0.14,3.9
46,20,1,2,7,27,327,488.51538815696995,489.2638942003409,"[57, 0, 197]",197,a,0.22685415840396672,0,colour,0.14,3.9
46,20,1,2,7,28,328,489.7810538769618,490.4638884501883,"[9, 0, 245]",245,a,0.16089518062381103,1,colour,0.14,3.9
46,20,1,2,7,29,329,490.96869199385765,491.52789828373716,"[41, 0, 213]",213,a,0.03727398650607938,1,colour,0.14,3.9
46,20,1,2,7,30,330,492.04699922766804,493.8238885762189,"[81, 0, 173]",173,l,1.2550314820859967,1,colour,0.14,3.9
46,20,1,2,7,31,331,494.3283983107158,495.0959349964928,"[56, 0, 198]",198,a,0.24560280701962256,0,colour,0.14,3.9
46,20,1,2,7,32,332,495.6097020830125,496.3039770970631,"[72, 0, 182]",182,l,0.17256995986326729,1,colour,0.14,3.9
46,20,1,2,7,33,333,496.8129120860731,497.43991937183137,"[67, 0, 187]",187,l,0.10499069932484417,1,colour,0.14,3.9
46,20,1,2,7,34,334,497.9537045752709,498.5438872528962,"[98, 0, 156]",156,l,0.06834174654204617,1,colour,0.14,3.9
46,20,1,2,7,35,335,499.0631071383423,499.7439189181209,"[13, 0, 241]",241,a,0.15886569179292565,1,colour,0.14,3.9
46,20,1,2,7,36,336,500.2506964183244,500.79990413786527,"[97, 0, 157]",157,l,0.027320708466049837,1,colour,0.14,3.9
46,20,1,2,7,37,337,501.31330652291854,501.9358826464727,"[75, 0, 179]",179,l,0.10135431850267196,1,colour,0.14,3.9
46,20,1,2,7,38,338,502.45399582444406,503.1199170717705,"[50, 0, 204]",204,a,0.1440669254761815,1,colour,0.14,3.9
46,20,1,2,7,39,339,503.6260336982582,504.33588926308676,"[71, 0, 183]",183,l,0.18815956910111709,1,colour,0.14,3.9
46,20,1,2,7,40,340,504.84489002439113,505.51192821918994,"[44, 0, 210]",210,a,0.1452638237019528,1,colour,0.14,3.9
46,20,1,2,7,41,341,506.0168503105283,506.75191596269997,"[58, 0, 196]",196,a,0.21324913954504154,0,colour,0.14,3.9
46,20,1,2,7,42,342,507.26687049513976,507.94388953720363,"[43, 0, 211]",211,a,0.15516314482965754,1,colour,0.14,3.9
46,20,1,2,7,43,343,508.45449443357666,509.10387965954396,"[52, 0, 202]",202,a,0.1275025471995832,0,colour,0.14,3.9
46,20,1,2,7,44,344,509.61080327664195,510.38389909978605,"[65, 0, 189]",189,l,0.2510701782507567,1,colour,0.14,3.9
46,20,1,2,7,45,345,510.8922791596747,511.63187561710765,"[95, 0, 159]",159,l,0.21779688018750676,1,colour,0.14,3.9
46,20,1,2,7,46,346,512.1424171042627,512.6959051429603,"[99, 0, 155]",155,l,0.03175423374659658,1,colour,0.14,3.9
46,20,1,2,7,47,347,513.2049791596351,513.9999133538636,"[91, 0, 163]",163,l,0.27314170621230005,1,colour,0.14,3.9
46,20,1,2,7,48,348,514.5176015719185,515.359917418355,"[73, 0, 181]",181,l,0.32051666303686943,1,colour,0.14,3.9
46,20,1,2,7,49,349,515.8770794580523,516.6958897829636,"[62, 0, 192]",192,l,0.297201369166487,1,colour,0.14,3.9
46,20,1,2,7,50,350,517.2052623349641,517.9519236033138,"[86, 0, 168]",168,l,0.2248140357291959,1,colour,0.14,3.9
46,20,1,2,8,1,351,523.5018686027092,524.3599158429706,"[53, 0, 201]",201,a,0.3354402785594175,0,colour,0.06,3.8
46,20,1,2,8,2,352,524.8777946825267,526.9439060787386,"[50, 0, 204]",204,a,1.5443256035787272,1,colour,0.06,3.8
46,20,1,2,8,3,353,527.4561147163345,529.5758734619822,"[66, 0, 188]",188,a,1.5979418391748368,0,colour,0.06,3.8
46,20,1,2,8,4,354,530.0830322051879,530.863897036033,"[73, 0, 181]",181,a,0.25895733977495183,0,colour,0.06,3.8
46,20,1,2,8,5,355,531.3799968728622,532.1679170623179,"[62, 0, 192]",192,a,0.26595086455108685,0,colour,0.06,3.8
46,20,1,2,8,6,356,532.6770324328309,533.383893192095,"[88, 0, 166]",166,a,0.1853297850425406,0,colour,0.06,3.8
46,20,1,2,8,7,357,533.895874974351,534.5038992730783,"[78, 0, 176]",176,a,0.08612350304019856,0,colour,0.06,3.8
46,20,1,2,8,8,358,535.0208687220447,535.6158842848722,"[92, 0, 162]",162,l,0.07306868714931625,1,colour,0.06,3.8
46,20,1,2,8,9,359,536.1304351250837,538.5838937434796,"[79, 0, 175]",175,l,1.9316141426975264,1,colour,0.06,3.8
46,20,1,2,8,10,360,539.0993653958176,540.8318765623385,"[97, 0, 157]",157,l,1.210660783131516,1,colour,0.06,3.8
46,20,1,2,8,11,361,541.3495403619368,542.0878832073095,"[98, 0, 156]",156,l,0.21647710198612913,1,colour,0.06,3.8
46,20,1,2,8,12,362,542.5996176542294,543.4158754627201,"[80, 0, 174]",174,a,0.29437119126214384,0,colour,0.06,3.8
46,20,1,2,8,13,363,543.9278336142115,544.7359175412348,"[84, 0, 170]",170,a,0.28618825133526116,0,colour,0.06,3.8
46,20,1,2,8,14,364,545.2404642972624,545.9039098281532,"[52, 0, 202]",202,a,0.1415849075033293,0,colour,0.06,3.8
46,20,1,2,8,15,365,546.4124706633906,547.0718800596915,"[95, 0, 159]",159,l,0.13750505599909957,1,colour,0.06,3.8
46,20,1,2,8,16,366,547.5843431218527,548.2958666248142,"[67, 0, 187]",187,a,0.18960577189318428,0,colour,0.06,3.8
46,20,1,2,8,17,367,548.8032494664371,549.4798813578082,"[72, 0, 182]",182,a,0.15473148952969495,0,colour,0.06,3.8
46,20,1,2,8,18,368,549.9908734048745,550.7280733089333,"[70, 0, 184]",184,a,0.22529334640375964,0,colour,0.06,3.8
46,20,1,2,8,19,369,551.247317612836,551.9198625634735,"[77, 0, 177]",177,a,0.16021500844999537,0,colour,0.06,3.8
46,20,1,2,8,20,370,552.4273245681579,553.1119141195004,"[59, 0, 195]",195,a,0.16379585697586663,0,colour,0.06,3.8
46,20,1,2,8,21,371,553.629594460634,554.3359160446198,"[81, 0, 173]",173,l,0.1830068808849319,1,colour,0.06,3.8
46,20,1,2,8,22,372,554.8494641527213,556.9119072665785,"[55, 0, 199]",199,a,1.5405513766299919,0,colour,0.06,3.8
46,20,1,2,8,23,373,557.4278397188255,558.3039136878451,"[71, 0, 183]",183,a,0.35430156715301564,0,colour,0.06,3.8
46,20,1,2,8,24,374,558.8185468418865,559.5439041882773,"[51, 0, 203]",203,a,0.20351405223073016,0,colour,0.06,3.8
46,20,1,2,8,25,375,560.0530061680238,560.75990788728,"[74, 0, 180]",180,a,0.18494184665769353,0,colour,0.06,3.8
46,20,1,2,8,26,376,561.2719042418407,561.90388107739,"[60, 0, 194]",194,a,0.11011621216175627,0,colour,0.06,3.8
46,20,1,2,8,27,377,562.4125896049059,563.175898353054,"[94, 0, 160]",160,l,0.24131303555668637,1,colour,0.06,3.8
46,20,1,2,8,28,378,563.6939626941121,564.2878620971596,"[82, 0, 172]",172,a,0.07233101344854731,0,colour,0.06,3.8
46,20,1,2,8,29,379,564.8030135526374,565.535914232928,"[61, 0, 193]",193,a,0.21109519535366417,0,colour,0.06,3.8
46,20,1,2,8,30,380,566.0531105372338,566.6238714832994,"[13, 0, 241]",241,a,0.04901020573333881,1,colour,0.06,3.8
46,20,1,2,8,31,381,567.1313055249125,567.7838809040977,"[32, 0, 222]",222,a,0.13063480504433755,1,colour,0.06,3.8
46,20,1,2,8,32,382,568.3033284325757,568.9359216372341,"[85, 0, 169]",169,l,0.11075306126713258,1,colour,0.06,3.8
46,20,1,2,8,33,383,569.444037426405,570.1198800502393,"[75, 0, 179]",179,a,0.15428683730988269,0,colour,0.06,3.8
46,20,1,2,8,34,384,570.6315810202427,571.3358951707778,"[90, 0, 164]",164,a,0.18235270255217984,0,colour,0.06,3.8
46,20,1,2,8,35,385,571.850453887911,572.5999039803269,"[91, 0, 163]",163,a,0.2276190074844635,0,colour,0.06,3.8
46,20,1,2,8,36,386,573.1162149186534,573.7438799273591,"[65, 0, 189]",189,a,0.10584140684977683,0,colour,0.06,3.8
46,20,1,2,8,37,387,574.2569069771016,574.9999145354018,"[76, 0, 178]",178,a,0.22120758720848244,0,colour,0.06,3.8
46,20,1,2,8,38,388,575.5069870263164,576.4878984885372,"[89, 0, 165]",165,l,0.4591028265153909,1,colour,0.06,3.8
46,20,1,2,8,39,389,577.0071156170607,577.7278783551255,"[68, 0, 186]",186,a,0.19891156698349732,0,colour,0.06,3.8
46,20,1,2,8,40,390,578.2415052324423,579.0078938569072,"[57, 0, 197]",197,a,0.24443505340332194,0,colour,0.06,3.8
46,20,1,2,8,41,391,579.5232757123399,580.2719077864554,"[64, 0, 190]",190,a,0.22670134612644688,0,colour,0.06,3.8
46,20,1,2,8,42,392,580.788905986185,581.5758726742897,"[93, 0, 161]",161,l,0.26559443385212944,1,colour,0.06,3.8
46,20,1,2,8,43,393,582.0859537553815,582.807868099374,"[99, 0, 155]",155,l,0.20010176982623307,1,colour,0.06,3.8
46,20,1,2,8,44,394,583.3203469153782,584.1118889133513,"[96, 0, 158]",158,l,0.26960693767750854,1,colour,0.06,3.8
46,20,1,2,8,45,395,584.6173340322789,585.4079036242902,"[56, 0, 198]",198,a,0.26870857477751997,0,colour,0.06,3.8
46,20,1,2,8,46,396,585.9142455307333,586.6798653676574,"[69, 0, 185]",185,a,0.24362648740861914,0,colour,0.06,3.8
46,20,1,2,8,47,397,587.1956583983938,587.7519258088519,"[58, 0, 196]",196,a,0.0343453470827626,0,colour,0.06,3.8
46,20,1,2,8,48,398,588.2582889829832,588.7919232409754,"[87, 0, 167]",167,a,0.011791751524015126,0,colour,0.06,3.8
46,20,1,2,8,49,399,589.3050719891553,590.0318767198769,"[63, 0, 191]",191,a,0.20471803968621316,0,colour,0.06,3.8
46,20,1,2,8,50,400,590.5397900721646,591.1118873379669,"[8, 0, 246]",246,a,0.050185048578896385,1,colour,0.06,3.8
46,20,1,2,9,1,401,599.8521710568034,602.3198809954697,"[58, 0, 196]",196,a,1.9450249954411447,0,colour,0.06,3.8
46,20,1,2,9,2,402,602.8376078104407,603.4318770349537,"[83, 0, 171]",171,l,0.07240269343446926,1,colour,0.06,3.8
46,20,1,2,9,3,403,603.9470773273451,604.5758762189048,"[87, 0, 167]",167,l,0.10689967125699695,1,colour,0.06,3.8
46,20,1,2,9,4,404,605.0878304319353,607.0078564415298,"[99, 0, 155]",155,l,1.3981909862022803,1,colour,0.06,3.8
46,20,1,2,9,5,405,607.5243123152127,608.0959058518833,"[85, 0, 169]",169,l,0.04971952251662515,1,colour,0.06,3.8
46,20,1,2,9,6,406,608.6025352659626,609.543891191357,"[51, 0, 203]",203,a,0.419575252760751,0,colour,0.06,3.8
46,20,1,2,9,7,407,610.0557796320927,612.8878645390055,"[73, 0, 181]",181,l,2.3102857235130614,1,colour,0.06,3.8
46,20,1,2,9,8,408,613.399778579736,617.1759310422785,"[67, 0, 187]",187,l,3.2542922330012516,1,colour,0.06,3.8
46,20,1,2,9,9,409,617.6813190535249,618.5918541603737,"[71, 0, 183]",183,l,0.3886543973112566,1,colour,0.06,3.8
46,20,1,2,9,10,410,619.103307795041,619.775897644131,"[74, 0, 180]",180,l,0.15076703492559318,1,colour,0.06,3.8
46,20,1,2,9,11,411,620.2909108596364,620.823877154683,"[77, 0, 177]",177,l,0.011014693215656735,1,colour,0.06,3.8
46,20,1,2,9,12,412,621.3378667642355,622.0478948336454,"[63, 0, 191]",191,a,0.1881961967856114,0,colour,0.06,3.8
46,20,1,2,9,13,413,622.5567230903685,623.1679020961674,"[97, 0, 157]",157,l,0.08933965009964595,1,colour,0.06,3.8
46,20,1,2,9,14,414,623.6818286903476,624.223895192833,"[91, 0, 163]",163,l,0.020130260651058052,1,colour,0.06,3.8
46,20,1,2,9,15,415,624.7287109457311,626.2238625036089,"[89, 0, 165]",165,l,0.9732854206454249,1,colour,0.06,3.8
46,20,1,2,9,16,416,626.7289358318403,627.8638690729613,"[61, 0, 193]",193,a,0.613032051587652,0,colour,0.06,3.8
46,20,1,2,9,17,417,628.3698049241002,629.2238967682174,"[79, 0, 175]",175,a,0.33231038379108213,0,colour,0.06,3.8
46,20,1,2,9,18,418,629.7292308225515,630.5278868622008,"[94, 0, 160]",160,l,0.27677139165098197,1,colour,0.06,3.8
46,20,1,2,9,19,419,631.0417713148513,631.8398972376822,"[57, 0, 197]",197,a,0.27619834561028256,0,colour,0.06,3.8
46,20,1,2,9,20,420,632.3544035732871,633.0398761275324,"[88, 0, 166]",166,l,0.16359578316905754,1,colour,0.06,3.8
46,20,1,2,9,21,421,633.5577683578549,634.2158737297973,"[68, 0, 186]",186,a,0.13630894546531636,0,colour,0.06,3.8
46,20,1,2,9,22,422,634.7295825270976,635.5838665681003,"[93, 0, 161]",161,l,0.33236315916519743,1,colour,0.06,3.8
46,20,1,2,9,23,423,636.0891443024457,636.6959075060367,"[70, 0, 184]",184,a,0.08502821710180797,0,colour,0.06,3.8
46,20,1,2,9,24,424,637.214183342438,637.9119001773493,"[59, 0, 195]",195,a,0.1758235222996518,0,colour,0.06,3.8
46,20,1,2,9,25,425,638.4174090993411,639.8878775359258,"[17, 0, 237]",237,a,0.9486247485783679,1,colour,0.06,3.8
46,20,1,2,9,26,426,640.4019581239222,641.3999006720196,"[96, 0, 158]",158,l,0.4760630200980813,1,colour,0.06,3.8
46,20,1,2,9,27,427,641.9176932592854,642.4719166086074,"[50, 0, 204]",204,a,0.03238911362177532,1,colour,0.06,3.8
46,20,1,2,9,28,428,642.9802962746494,643.9598552694442,"[52, 0, 202]",202,a,0.45767080218183764,0,colour,0.06,3.8
46,20,1,2,9,29,429,644.464786419242,645.1678615300211,"[95, 0, 159]",159,l,0.181241268924623,1,colour,0.06,3.8
46,20,1,2,9,30,430,645.6835935146155,646.4558981009927,"[65, 0, 189]",189,a,0.2505755075790148,0,colour,0.06,3.8
46,20,1,2,9,31,431,646.9648169423131,647.799897048636,"[54, 0, 200]",200,a,0.3130910891145504,0,colour,0.06,3.8
46,20,1,2,9,32,432,648.2977586613647,649.071886755075,"[64, 0, 190]",190,a,0.2523702641487944,0,colour,0.06,3.8
46,20,1,2,9,33,433,649.5789793321396,650.2878683986969,"[55, 0, 199]",199,a,0.1869453416475153,0,colour,0.06,3.8
46,20,1,2,9,34,434,650.797780519822,651.591888031136,"[78, 0, 176]",176,l,0.2721681187113063,1,colour,0.06,3.8
46,20,1,2,9,35,435,652.1104801259366,652.9358838280109,"[80, 0, 174]",174,l,0.303852641703088,1,colour,0.06,3.8
46,20,1,2,9,36,436,653.4542963290005,654.2238971620636,"[84, 0, 170]",170,l,0.24783394504220269,1,colour,0.06,3.8
46,20,1,2,9,37,437,654.73561388591,655.4878799777716,"[62, 0, 192]",192,a,0.23106200988331693,0,colour,0.06,3.8
46,20,1,2,9,38,438,656.0013906704958,656.7838832671741,"[75, 0, 179]",179,a,0.26012194262239063,0,colour,0.06,3.8
46,20,1,2,9,39,439,657.2987767534719,657.9678905170927,"[98, 0, 156]",156,l,0.1472125740874617,1,colour,0.06,3.8
46,20,1,2,9,40,440,658.4864707965107,659.1198650840884,"[13, 0, 241]",241,a,0.11292866699250226,1,colour,0.06,3.8
46,20,1,2,9,41,441,659.625809599841,660.3918528212971,"[60, 0, 194]",194,a,0.24430862881308713,0,colour,0.06,3.8
46,20,1,2,9,42,442,660.907153938284,661.6718762,"[5, 0, 249]",249,a,0.2428116198771022,1,colour,0.06,3.8
46,20,1,2,9,43,443,662.1885471136402,662.9278584265144,"[69, 0, 185]",185,a,0.2174959817857598,0,colour,0.06,3.8
46,20,1,2,9,44,444,663.4385877782474,664.1678694069428,"[90, 0, 164]",164,l,0.20739973761965302,1,colour,0.06,3.8
46,20,1,2,9,45,445,664.6731565935938,665.4078772366029,"[66, 0, 188]",188,l,0.21290649345837664,1,colour,0.06,3.8
46,20,1,2,9,46,446,665.9231547228251,666.5598726774406,"[82, 0, 172]",172,l,0.11456194667061936,1,colour,0.06,3.8
46,20,1,2,9,47,447,667.0795852643282,667.7598649580577,"[56, 0, 198]",198,a,0.15844388264486042,0,colour,0.06,3.8
46,20,1,2,9,48,448,668.2559562326733,668.9838452216432,"[86, 0, 168]",168,l,0.20617133170799207,1,colour,0.06,3.8
46,20,1,2,9,49,449,669.4904624264937,670.3358920200089,"[76, 0, 178]",178,l,0.32359063166177293,1,colour,0.06,3.8
46,20,1,2,9,50,450,670.8498828111001,671.5758557389086,"[53, 0, 201]",201,a,0.204101276730853,0,colour,0.06,3.8
46,20,1,2,10,1,451,676.6776322604051,677.2718774603072,"[87, 0, 167]",167,l,0.071523628992054,1,colour,0.06,3.7
46,20,1,2,10,2,452,677.787889863308,678.3518861091675,"[93, 0, 161]",161,l,0.04208402863605443,1,colour,0.06,3.7
46,20,1,2,10,3,453,678.8661057248287,679.5518586974804,"[74, 0, 180]",180,l,0.16384154312027022,1,colour,0.06,3.7
46,20,1,2,10,4,454,680.0693893771049,680.6158961002543,"[99, 0, 155]",155,l,0.024633102841107757,1,colour,0.06,3.7
46,20,1,2,10,5,455,681.1195275580008,681.7038584706252,"[76, 0, 178]",178,l,0.062454929239720514,1,colour,0.06,3.7
46,20,1,2,10,6,456,682.2133428749112,682.7919090625164,"[48, 0, 206]",206,a,0.06916291561083199,1,colour,0.06,3.7
46,20,1,2,10,7,457,683.3103810342636,683.9438647249008,"[62, 0, 192]",192,a,0.11178336260263677,0,colour,0.06,3.7
46,20,1,2,10,8,458,684.4511227173175,685.0638637166549,"[77, 0, 177]",177,l,0.09084335441866642,1,colour,0.06,3.7
46,20,1,2,10,9,459,685.5762409203712,686.151833963947,"[55, 0, 199]",199,a,0.05391280169124002,0,colour,0.06,3.7
46,20,1,2,10,10,460,686.6700444218991,687.3758693659829,"[64, 0, 190]",190,a,0.18390366840048955,0,colour,0.06,3.7
46,20,1,2,10,11,461,687.888900748032,688.6638834877276,"[51, 0, 203]",203,a,0.2531835562958804,0,colour,0.06,3.7
46,20,1,2,10,12,462,689.1703250372284,689.7518470396367,"[58, 0, 196]",196,a,0.059692099014682753,0,colour,0.06,3.7
46,20,1,2,10,13,463,690.2640753695359,690.9838739724064,"[63, 0, 191]",191,a,0.19792380102398965,0,colour,0.06,3.7
46,20,1,2,10,14,464,691.4985792002799,692.0639145227988,"[88, 0, 166]",166,l,0.04343649606198596,1,colour,0.06,3.7
46,20,1,2,10,15,465,692.5767351971972,693.1278703994349,"[81, 0, 173]",173,l,0.029458111122039554,1,colour,0.06,3.7
46,20,1,2,10,16,466,693.6393685387093,694.2558376850043,"[68, 0, 186]",186,l,0.09458843675793105,1,colour,0.06,3.7
46,20,1,2,10,17,467,694.7644642925366,695.3358884753943,"[45, 0, 209]",209,a,0.04955174408814855,1,colour,0.06,3.7
46,20,1,2,10,18,468,695.8426915755931,697.4158356842663,"[60, 0, 194]",194,a,1.0512354360644167,0,colour,0.06,3.7
46,20,1,2,10,19,469,697.9209637571025,698.6558620246919,"[50, 0, 204]",204,a,0.2130620626585369,1,colour,0.06,3.7
46,20,1,2,10,20,470,699.1710772832344,699.7998667224879,"[97, 0, 157]",157,l,0.10693866201791025,1,colour,0.06,3.7
46,20,1,2,10,21,471,700.3117173540004,701.0719013273797,"[71, 0, 183]",183,l,0.23827569461673193,1,colour,0.06,3.7
46,20,1,2,10,22,472,701.5774965016626,702.1838591637943,"[79, 0, 175]",175,l,0.0846717864033053,1,colour,0.06,3.7
46,20,1,2,10,23,473,702.7026489693249,703.4478530071924,"[65, 0, 189]",189,a,0.22343281753956035,0,colour,0.06,3.7
46,20,1,2,10,24,474,703.9526514308627,704.527888043739,"[91, 0, 163]",163,l,0.053294857197215606,1,colour,0.06,3.7
46,20,1,2,10,25,475,705.0465136154562,705.6638614323474,"[56, 0, 198]",198,a,0.09548995042632669,0,colour,0.06,3.7
46,20,1,2,10,26,476,706.1715762862127,706.7838383687213,"[90, 0, 164]",164,l,0.1030427366317781,1,colour,0.06,3.7
46,20,1,2,10,27,477,707.299830685572,708.0079765645833,"[98, 0, 156]",156,l,0.18621712025242232,1,colour,0.06,3.7
46,20,1,2,10,28,478,708.5187768086103,709.1678934315537,"[57, 0, 197]",197,a,0.127311138006462,0,colour,0.06,3.7
46,20,1,2,10,29,479,709.6750710793708,710.4958553608162,"[70, 0, 184]",184,a,0.3115267324992601,0,colour,0.06,3.7
46,20,1,2,10,30,480,711.0064311125798,711.5358626390921,"[59, 0, 195]",195,a,0.007570903124815231,0,colour,0.06,3.7
46,20,1,2,10,31,481,712.0534027710223,712.7358801258579,"[61, 0, 193]",193,a,0.16055922992063643,0,colour,0.06,3.7
46,20,1,2,10,32,482,713.2409837802375,713.7918960655961,"[80, 0, 174]",174,l,0.02909537888581326,1,colour,0.06,3.7
46,20,1,2,10,33,483,714.3035710417585,714.8878932897687,"[85, 0, 169]",169,l,0.06241554463167631,1,colour,0.06,3.7
46,20,1,2,10,34,484,715.3974017186656,715.9199614188387,"[53, 0, 201]",201,a,0.0005911629605179769,0,colour,0.06,3.7
46,20,1,2,10,35,485,716.44438322326,716.9678633417134,"[96, 0, 158]",158,l,0.005483125074078998,1,colour,0.06,3.7
46,20,1,2,10,36,486,717.487499916308,718.1759066238219,"[82, 0, 172]",172,l,0.16651457644047696,1,colour,0.06,3.7
46,20,1,2,10,37,487,718.6907642701267,720.4318723088008,"[52, 0, 202]",202,a,1.2192682891286495,0,colour,0.06,3.7
46,20,1,2,10,38,488,720.9408758270279,721.5198772145473,"[75, 0, 179]",179,l,0.05716400105075081,1,colour,0.06,3.7
46,20,1,2,10,39,489,722.0347246208544,722.6238746340678,"[69, 0, 185]",185,l,0.06731105135986581,1,colour,0.06,3.7
46,20,1,2,10,40,490,723.1286183131338,723.8638765560368,"[73, 0, 181]",181,l,0.21342833950939166,1,colour,0.06,3.7
46,20,1,2,10,41,491,724.3785825716022,724.9758643247533,"[54, 0, 200]",200,a,0.07531872978370302,0,colour,0.06,3.7
46,20,1,2,10,42,492,725.4880737500412,726.1038603610864,"[95, 0, 159]",159,l,0.09384682459631222,1,colour,0.06,3.7
46,20,1,2,10,43,493,726.6131474484882,727.2798851387306,"[84, 0, 170]",170,l,0.1448160207132787,1,colour,0.06,3.7
46,20,1,2,10,44,494,727.7851672053825,728.3598843352847,"[86, 0, 168]",168,l,0.05288604497036431,1,colour,0.06,3.7
46,20,1,2,10,45,495,728.8789777961401,729.6798744261173,"[72, 0, 182]",182,l,0.27898362506175545,1,colour,0.06,3.7
46,20,1,2,10,46,496,730.1916888237906,730.7518872119363,"[34, 0, 220]",220,a,0.038454343196463014,1,colour,0.06,3.7
46,20,1,2,10,47,497,731.269773140722,732.0478424521175,"[67, 0, 187]",187,a,0.25614055263713453,0,colour,0.06,3.7
46,20,1,2,10,48,498,732.5667882206944,734.7678702734042,"[94, 0, 160]",160,l,1.6792159154774708,1,colour,0.06,3.7
46,20,1,2,10,49,499,735.2857731375711,736.7198435013233,"[92, 0, 162]",162,l,0.912238884974613,1,colour,0.06,3.7
46,20,1,2,10,50,500,737.2389538975599,738.311880406276,"[83, 0, 171]",171,l,0.5510001130337514,1,colour,0.06,3.7
46,20,1,2,11,1,501,742.4261288514704,745.3598815783621,"[58, 0, 196]",196,a,2.4112729774724357,0,colour,0.06,3.7
46,20,1,2,11,2,502,745.8647308081763,747.4158364719588,"[98, 0, 156]",156,l,1.0291615450269092,1,colour,0.06,3.7
46,20,1,2,11,3,503,747.9274023527578,748.7518434950216,"[74, 0, 180]",180,l,0.30275223576563803,1,colour,0.06,3.7
46,20,1,2,11,4,504,749.2712862973467,750.127838891749,"[59, 0, 195]",195,a,0.33468291255485383,0,colour,0.06,3.7
46,20,1,2,11,5,505,750.6463561557948,752.3838412044129,"[50, 0, 204]",204,a,1.2161951081952793,1,colour,0.06,3.7
46,20,1,2,11,6,506,752.8966370665084,753.5038768238524,"[52, 0, 202]",202,a,0.0855587277669656,0,colour,0.06,3.7
46,20,1,2,11,7,507,754.0216111218983,755.1518721670163,"[55, 0, 199]",199,a,0.608379154042268,0,colour,0.06,3.7
46,20,1,2,11,8,508,755.6623742695633,756.3518766568614,"[78, 0, 176]",176,l,0.16766185006054002,1,colour,0.06,3.7
46,20,1,2,11,9,509,756.8656354726136,757.6478732508804,"[85, 0, 169]",169,l,0.26049215793364056,1,colour,0.06,3.7
46,20,1,2,11,10,510,758.1625997464421,758.7518462519442,"[79, 0, 175]",175,l,0.06732129135798459,1,colour,0.06,3.7
46,20,1,2,11,11,511,759.2564130941219,759.8078803086023,"[97, 0, 157]",157,l,0.02963731108684442,1,colour,0.06,3.7
46,20,1,2,11,12,512,760.3190417094811,760.8638513498881,"[60, 0, 194]",194,a,0.023000217009212065,0,colour,0.06,3.7
46,20,1,2,11,13,513,761.3814686756496,761.9438852048966,"[87, 0, 167]",167,l,0.04045193049569207,1,colour,0.06,3.7
46,20,1,2,11,14,514,762.4597499156189,763.0558595828466,"[90, 0, 164]",164,l,0.07445581303045401,1,colour,0.06,3.7
46,20,1,2,11,15,515,763.5692300663673,764.1438833932048,"[80, 0, 174]",174,l,0.05281909113728034,1,colour,0.06,3.7
46,20,1,2,11,16,516,764.6631217894164,765.3678746844803,"[64, 0, 190]",190,a,0.18284973630034074,0,colour,0.06,3.7
46,20,1,2,11,17,517,765.8819430632484,766.583855146564,"[67, 0, 187]",187,a,0.18005145992810867,0,colour,0.06,3.7
46,20,1,2,11,18,518,767.1000691987556,767.7198726459328,"[72, 0, 182]",182,a,0.09794754994254617,0,colour,0.06,3.7
46,20,1,2,11,19,519,768.2251826756565,768.863856076041,"[65, 0, 189]",189,a,0.11684152776069823,0,colour,0.06,3.7
46,20,1,2,11,20,520,769.3814726141104,770.0399029090654,"[86, 0, 168]",168,l,0.1364668777418956,1,colour,0.06,3.7
46,20,1,2,11,21,521,770.5550874476139,771.2318292220398,"[95, 0, 159]",159,l,0.15486185258077967,1,colour,0.06,3.7
46,20,1,2,11,22,522,771.7426578229847,772.4558429625417,"[61, 0, 193]",193,a,0.1918755068304563,0,colour,0.06,3.7
46,20,1,2,11,23,523,772.9615874044875,773.6718698984628,"[53, 0, 201]",201,a,0.18854790133218557,0,colour,0.06,3.7
46,20,1,2,11,24,524,774.1804579090795,774.9118670942785,"[75, 0, 179]",179,l,0.20956352796247302,1,colour,0.06,3.7
46,20,1,2,11,25,525,775.4305710413646,776.2078766852183,"[68, 0, 186]",186,l,0.25543084200717203,1,colour,0.06,3.7
46,20,1,2,11,26,526,776.7274490629025,777.479843548585,"[62, 0, 192]",192,l,0.23061341920220002,1,colour,0.06,3.7
46,20,1,2,11,27,527,777.9932400259468,778.7598598380587,"[94, 0, 160]",160,l,0.24501282559776882,1,colour,0.06,3.7
46,20,1,2,11,28,528,779.2745335582458,779.9918442354524,"[73, 0, 181]",181,a,0.19542169690157607,0,colour,0.06,3.7
46,20,1,2,11,29,529,780.5089972166902,781.327837473903,"[13, 0, 241]",241,a,0.29991654401646883,1,colour,0.06,3.7
46,20,1,2,11,30,530,781.8343172264731,782.5198350730175,"[71, 0, 183]",183,a,0.16358199855631028,0,colour,0.06,3.7
46,20,1,2,11,31,531,783.0376205710536,783.7758460502951,"[56, 0, 198]",198,a,0.21635225277987047,0,colour,0.06,3.7
46,20,1,2,11,32,532,784.2876699002745,785.015864513799,"[14, 0, 240]",240,a,0.20630484552748385,1,colour,0.06,3.7
46,20,1,2,11,33,533,785.522320635605,786.2878223187058,"[69, 0, 185]",185,a,0.24375054892288972,0,colour,0.06,3.7
46,20,1,2,11,34,534,786.7911824165058,787.56782954972,"[96, 0, 158]",158,a,0.25478847905696966,0,colour,0.06,3.7
46,20,1,2,11,35,535,788.0857422600388,788.7998513624912,"[83, 0, 171]",171,l,0.1921657713892273,1,colour,0.06,3.7
46,20,1,2,11,36,536,789.3046190661676,790.0398603736894,"[89, 0, 165]",165,l,0.21338383490319757,1,colour,0.06,3.7
46,20,1,2,11,37,537,790.5547089615343,791.2478288250431,"[81, 0, 173]",173,l,0.17127184319588196,1,colour,0.06,3.7
46,20,1,2,11,38,538,791.7579461399737,792.5758376219892,"[93, 0, 161]",161,l,0.29599383709683025,1,colour,0.06,3.7
46,20,1,2,11,39,539,793.0861613122638,793.8558472160794,"[92, 0, 162]",162,l,0.2479048373356818,1,colour,0.06,3.7
46,20,1,2,11,40,540,794.3675040753224,795.1758569992162,"[82, 0, 172]",172,l,0.2864525220525138,1,colour,0.06,3.7
46,20,1,2,11,41,541,795.6957271245337,796.4798628470426,"[77, 0, 177]",177,l,0.26292927745407724,1,colour,0.06,3.7
46,20,1,2,11,42,542,796.9926555583697,797.7118405490532,"[99, 0, 155]",155,l,0.19738580728426314,1,colour,0.06,3.7
46,20,1,2,11,43,543,798.2271668721887,798.9678357724879,"[66, 0, 188]",188,a,0.21906506455343333,0,colour,0.06,3.7
46,20,1,2,11,44,544,799.4773260844654,800.2639288587957,"[57, 0, 197]",197,a,0.26508558472141885,0,colour,0.06,3.7
46,20,1,2,11,45,545,800.7742100136943,801.5838421496437,"[88, 0, 166]",166,l,0.2877565464109466,1,colour,0.06,3.7
46,20,1,2,11,46,546,802.1025204967345,802.8318604146493,"[76, 0, 178]",178,l,0.20751355913580483,1,colour,0.06,3.7
46,20,1,2,11,47,547,803.3370069982511,804.1758629069072,"[15, 0, 239]",239,a,0.3169507806619549,1,colour,0.06,3.7
46,20,1,2,11,48,548,804.6808503766943,805.4318404072687,"[54, 0, 200]",200,a,0.22916957948700656,0,colour,0.06,3.7
46,20,1,2,11,49,549,805.9465428782196,806.6238246156163,"[63, 0, 191]",191,a,0.15534549556286947,0,colour,0.06,3.7
46,20,1,2,11,50,550,807.134180207423,807.911837949669,"[84, 0, 170]",170,l,0.2557845157839438,1,colour,0.06,3.7
46,20,1,2,12,1,551,812.7900308105786,816.0238536814568,"[50, 0, 204]",204,a,2.7111359584223464,1,colour,0.06,3.6
46,20,1,2,12,2,552,816.5411571118952,817.247858757345,"[87, 0, 167]",167,l,0.18476146515467917,1,colour,0.06,3.6
46,20,1,2,12,3,553,817.7599004042045,818.511878200738,"[60, 0, 194]",194,a,0.23018570236354208,0,colour,0.06,3.6
46,20,1,2,12,4,554,819.025678370328,819.7598259672959,"[86, 0, 168]",168,l,0.2123094228068112,1,colour,0.06,3.6
46,20,1,2,12,5,555,820.2736678845704,821.1438235286009,"[97, 0, 157]",157,l,0.348256817573656,1,colour,0.06,3.6
46,20,1,2,12,6,556,821.6487219891751,822.4958463023568,"[55, 0, 199]",199,a,0.32529716671069764,0,colour,0.06,3.6
46,20,1,2,12,7,557,823.0082435922232,823.7518336488697,"[95, 0, 159]",159,l,0.2217861470940079,1,colour,0.06,3.6
46,20,1,2,12,8,558,824.2583610568154,825.5278242406748,"[81, 0, 173]",173,l,0.7477136250654439,1,colour,0.06,3.6
46,20,1,2,12,9,559,826.0397138629487,826.7118208567495,"[79, 0, 175]",175,l,0.15029835809536962,1,colour,0.06,3.6
46,20,1,2,12,10,560,827.2273507983064,828.0238292630002,"[73, 0, 181]",181,l,0.27484509049236294,1,colour,0.06,3.6
46,20,1,2,12,11,561,828.5399302813676,829.2478709665734,"[90, 0, 164]",164,l,0.18618088641369468,1,colour,0.06,3.6
46,20,1,2,12,12,562,829.7588224474935,830.5038642207778,"[72, 0, 182]",182,a,0.22307087299532213,0,colour,0.06,3.6
46,20,1,2,12,13,563,831.0114168100595,831.5918159573043,"[63, 0, 191]",191,a,0.05854206847197929,0,colour,0.06,3.6
46,20,1,2,12,14,564,832.1053069577242,832.7118653613561,"[75, 0, 179]",179,l,0.08468045101699317,1,colour,0.06,3.6
46,20,1,2,12,15,565,833.2304350069298,833.8238586439174,"[56, 0, 198]",198,a,0.0716673828101193,0,colour,0.06,3.6
46,20,1,2,12,16,566,834.3398092130838,835.3998408074162,"[24, 0, 230]",230,a,0.5382091740143551,1,colour,0.06,3.6
46,20,1,2,12,17,567,835.9180847422849,836.6959492537208,"[66, 0, 188]",188,a,0.25656590639891874,0,colour,0.06,3.6
46,20,1,2,12,18,568,837.2150194776577,837.9118308604397,"[47, 0, 207]",207,a,0.1753170362453602,1,colour,0.06,3.6
46,20,1,2,12,19,569,838.4181597699626,839.2158500990327,"[57, 0, 197]",197,a,0.27568949647957197,0,colour,0.06,3.6
46,20,1,2,12,20,570,839.7308924591475,840.519855159167,"[83, 0, 171]",171,l,0.26700794741964273,1,colour,0.06,3.6
46,20,1,2,12,21,571,841.027850037593,841.759887013438,"[54, 0, 200]",200,a,0.21024921398156948,0,colour,0.06,3.6
46,20,1,2,12,22,572,842.2780183083291,843.0158586061079,"[74, 0, 180]",180,l,0.21606828975882308,1,colour,0.06,3.6
46,20,1,2,12,23,573,843.5280664560119,844.7278208535986,"[80, 0, 174]",174,l,0.6778929865072314,1,colour,0.06,3.6
46,20,1,2,12,24,574,845.2469863882861,846.0318487568052,"[99, 0, 155]",155,a,0.2630434928159957,0,colour,0.06,3.6
46,20,1,2,12,25,575,846.5439207298127,847.3438595261323,"[84, 0, 170]",170,l,0.2782605236652671,1,colour,0.06,3.6
46,20,1,2,12,26,576,847.8565340836367,848.6638882138809,"[78, 0, 176]",176,l,0.2854541222491207,1,colour,0.06,3.6
46,20,1,2,12,27,577,849.1691647666876,849.9918280877632,"[71, 0, 183]",183,l,0.3007609500041326,1,colour,0.06,3.6
46,20,1,2,12,28,578,850.4974059328188,852.183818597648,"[68, 0, 186]",186,l,1.164627659888538,1,colour,0.06,3.6
46,20,1,2,12,29,579,852.7006076651114,853.60782934492,"[93, 0, 161]",161,a,0.38532954873517156,0,colour,0.06,3.6
46,20,1,2,12,30,580,854.1226527266163,855.1758254915298,"[65, 0, 189]",189,l,0.5313412861355573,1,colour,0.06,3.6
46,20,1,2,12,31,581,855.6853181665838,856.7118397613608,"[98, 0, 156]",156,l,0.5046503375456268,1,colour,0.06,3.6
46,20,1,2,12,32,582,857.2166078588834,858.1518304193319,"[62, 0, 192]",192,a,0.4132827739995264,0,colour,0.06,3.6
46,20,1,2,12,33,583,858.6698467111687,859.5038559500099,"[69, 0, 185]",185,a,0.31206905854605793,0,colour,0.06,3.6
46,20,1,2,12,34,584,860.0138314803535,860.8078617978367,"[51, 0, 203]",203,a,0.2721842664009273,0,colour,0.06,3.6
46,20,1,2,12,35,585,861.3263763049599,861.9438280972158,"[67, 0, 187]",187,a,0.09575264575960318,0,colour,0.06,3.6
46,20,1,2,12,36,586,862.451464969558,863.1118231410564,"[52, 0, 202]",202,a,0.13850345580249268,0,colour,0.06,3.6
46,20,1,2,12,37,587,863.623792320238,864.215824892884,"[3, 0, 251]",251,a,0.07011090311652879,1,colour,0.06,3.6
46,20,1,2,12,38,588,864.7332031540773,865.5518732697851,"[88, 0, 166]",166,l,0.2967882246325644,1,colour,0.06,3.6
46,20,1,2,12,39,589,866.0614856740463,866.67984803843,"[61, 0, 193]",193,a,0.09650607330331695,0,colour,0.06,3.6
46,20,1,2,12,40,590,867.1865054155805,867.8318052761983,"[76, 0, 178]",178,l,0.12339670185383511,1,colour,0.06,3.6
46,20,1,2,12,41,591,868.3429245355474,868.9198255419424,"[96, 0, 158]",158,l,0.05509158299764749,1,colour,0.06,3.6
46,20,1,2,12,42,592,869.436720947846,870.1678477454088,"[94, 0, 160]",160,l,0.20929019878622057,1,colour,0.06,3.6
46,20,1,2,12,43,593,870.6868455016674,871.4318183518881,"[53, 0, 201]",201,a,0.22320399296904725,0,colour,0.06,3.6
46,20,1,2,12,44,594,871.9369905354852,872.8638765560368,"[82, 0, 172]",172,l,0.40506360023346133,1,colour,0.06,3.6
46,20,1,2,12,45,595,873.3745031139442,874.2718231095487,"[91, 0, 163]",163,l,0.375429439915024,1,colour,0.06,3.6
46,20,1,2,12,46,596,874.7809038216069,875.7118566967424,"[58, 0, 196]",196,a,0.40909185790224,0,colour,0.06,3.6
46,20,1,2,12,47,597,876.2184467262136,876.9598505432914,"[59, 0, 195]",195,a,0.21955658445676818,0,colour,0.06,3.6
46,20,1,2,12,48,598,877.4686319323309,878.2318414312685,"[85, 0, 169]",169,l,0.24138629092703923,1,colour,0.06,3.6
46,20,1,2,12,49,599,878.7499821784654,879.7357997812583,"[92, 0, 162]",162,l,0.4644823700714369,1,colour,0.06,3.6
46,20,1,2,12,50,600,880.2501371568965,880.8078385609183,"[70, 0, 184]",184,l,0.035880559088127484,1,colour,0.06,3.6
46,20,1,2,13,1,601,885.4372601231244,887.3758228921461,"[34, 0, 220]",220,a,1.415935721169717,1,colour,0.06,3.6
46,20,1,2,13,2,602,887.8913004521751,889.3518412107146,"[97, 0, 157]",157,l,0.9385332305660086,1,colour,0.06,3.6
46,20,1,2,13,3,603,889.8602504152122,890.5199087222336,"[64, 0, 190]",190,l,0.13804147435484992,1,colour,0.06,3.6
46,20,1,2,13,4,604,891.0217217926456,891.8478147253536,"[92, 0, 162]",162,l,0.30411494318968835,1,colour,0.06,3.6
46,20,1,2,13,5,605,892.3655860449308,893.1438404639825,"[2, 0, 252]",252,a,0.25630202952834225,1,colour,0.06,3.6
46,20,1,2,13,6,606,893.662598367981,895.4958144008247,"[85, 0, 169]",169,l,1.3113313848457437,1,colour,0.06,3.6
46,20,1,2,13,7,607,896.0065071248728,896.9198361757863,"[56, 0, 198]",198,a,0.3914132890754445,0,colour,0.06,3.6
46,20,1,2,13,8,608,897.4285092571554,898.2798634771962,"[57, 0, 197]",197,a,0.3294546058918968,0,colour,0.06,3.6
46,20,1,2,13,9,609,898.7886283247012,899.6078506126082,"[70, 0, 184]",184,a,0.29738253836194417,0,colour,0.06,3.6
46,20,1,2,13,10,610,900.1168911523664,900.9358432618651,"[72, 0, 182]",182,a,0.2971446553315218,0,colour,0.06,3.6
46,20,1,2,13,11,611,901.4451027800415,902.255859740385,"[52, 0, 202]",202,a,0.2888541954257562,0,colour,0.06,3.6
46,20,1,2,13,12,612,902.7733238600226,903.6078025633869,"[71, 0, 183]",183,a,0.312537735377191,0,colour,0.06,3.6
46,20,1,2,13,13,613,904.1172231646087,904.9198373573245,"[83, 0, 171]",171,l,0.28081697854668164,1,colour,0.06,3.6
46,20,1,2,13,14,614,905.4297482969114,906.2958469325104,"[66, 0, 188]",188,l,0.34416160607270285,1,colour,0.06,3.6
46,20,1,2,13,15,615,906.8049032261115,907.6558033416268,"[80, 0, 174]",174,l,0.32901940597776047,1,colour,0.06,3.6
46,20,1,2,13,16,616,908.164368903017,908.8878334251654,"[82, 0, 172]",172,l,0.20154718492631218,1,colour,0.06,3.6
46,20,1,2,13,17,617,909.3988309860765,910.1998532529524,"[90, 0, 164]",164,l,0.27909075119441695,1,colour,0.06,3.6
46,20,1,2,13,18,618,910.7114671829727,911.6238194956172,"[67, 0, 187]",187,a,0.3905220154047129,0,colour,0.06,3.6
46,20,1,2,13,19,619,912.1342648843297,912.9598174602206,"[59, 0, 195]",195,a,0.30449539849905705,0,colour,0.06,3.6
46,20,1,2,13,20,620,913.4773158444673,914.2078109129234,"[95, 0, 159]",159,l,0.20877386657957686,1,colour,0.06,3.6
46,20,1,2,13,21,621,914.7273710813793,915.5678346697191,"[77, 0, 177]",177,l,0.31908857716416605,1,colour,0.06,3.6
46,20,1,2,13,22,622,916.0868895336589,917.0238355645374,"[69, 0, 185]",185,a,0.4150527182669066,0,colour,0.06,3.6
46,20,1,2,13,23,623,917.5401019982569,918.3517963122617,"[86, 0, 168]",168,l,0.2898179367743978,1,colour,0.06,3.6
46,20,1,2,13,24,624,918.8684798289764,919.5998370264938,"[99, 0, 155]",155,l,0.2095985802634459,1,colour,0.06,3.6
46,20,1,2,13,25,625,920.1184834720525,920.7598184842204,"[93, 0, 161]",161,l,0.11944485032472585,1,colour,0.06,3.6
46,20,1,2,13,26,626,921.2747820751201,922.2958051848263,"[89, 0, 165]",165,l,0.49911404325166586,1,colour,0.06,3.6
46,20,1,2,13,27,627,922.8060839766481,923.5838354542602,"[96, 0, 158]",158,l,0.2557175619508598,1,colour,0.06,3.6
46,20,1,2,13,28,628,924.1031931858329,925.264038741851,"[62, 0, 192]",192,a,0.63902786185281,0,colour,0.06,3.6
46,20,1,2,13,29,629,925.7751930535005,926.6558285477754,"[61, 0, 193]",193,a,0.3588489139497142,0,colour,0.06,3.6
46,20,1,2,13,30,630,927.1658702442596,928.087814678092,"[75, 0, 179]",179,l,0.4001200442839945,1,colour,0.06,3.6
46,20,1,2,13,31,631,928.6035013703877,929.4477978687414,"[54, 0, 200]",200,a,0.322355136520855,0,colour,0.06,3.6
46,20,1,2,13,32,632,929.9629690165234,930.9358326280208,"[78, 0, 176]",176,l,0.45095769581121203,1,colour,0.06,3.6
46,20,1,2,13,33,633,931.447535961101,932.2558270511604,"[51, 0, 203]",203,a,0.28643598051712615,0,colour,0.06,3.6
46,20,1,2,13,34,634,932.7757200195506,933.6638413461974,"[58, 0, 196]",196,a,0.36634971247258363,0,colour,0.06,3.6
46,20,1,2,13,35,635,934.1820246287707,934.9918111523821,"[55, 0, 199]",199,a,0.2877163741113691,0,colour,0.06,3.6
46,20,1,2,13,36,636,935.5102795795142,936.3678341183345,"[76, 0, 178]",178,a,0.3449603259155083,0,colour,0.06,3.6
46,20,1,2,13,37,637,936.8761192613183,937.7038049075586,"[60, 0, 194]",194,a,0.30589276437785884,0,colour,0.06,3.6
46,20,1,2,13,38,638,938.2200000551388,939.0237993306982,"[73, 0, 181]",181,a,0.28185003680482623,0,colour,0.06,3.6
46,20,1,2,13,39,639,939.5325740243547,940.5199189622317,"[91, 0, 163]",163,l,0.4655114898687316,1,colour,0.06,3.6
46,20,1,2,13,40,640,941.0327372735533,942.063874744345,"[68, 0, 186]",186,l,0.5092922074009039,1,colour,0.06,3.6
46,20,1,2,13,41,641,942.579734728914,943.615835447959,"[88, 0, 166]",166,l,0.5141837756686982,1,colour,0.06,3.6
46,20,1,2,13,42,642,944.1267345473511,945.0397957829327,"[79, 0, 175]",175,l,0.3914471598382079,1,colour,0.06,3.6
46,20,1,2,13,43,643,945.5486216765794,946.6638594631172,"[41, 0, 213]",213,l,0.5932373477935471,0,colour,0.06,3.6
46,20,1,2,13,44,644,947.1739318795953,948.6797925061333,"[94, 0, 160]",160,l,0.9840941323627703,1,colour,0.06,3.6
46,20,1,2,13,45,645,949.1896581534215,950.1678107238777,"[81, 0, 173]",173,l,0.45638331935833776,1,colour,0.06,3.6
46,20,1,2,13,46,646,950.674126242634,951.4478439487325,"[87, 0, 167]",167,l,0.256257131075472,1,colour,0.06,3.6
46,20,1,2,13,47,647,951.9668988126723,952.8877853759441,"[63, 0, 191]",191,a,0.3990137306559518,0,colour,0.06,3.6
46,20,1,2,13,48,648,953.4045098526508,954.3758756675202,"[74, 0, 180]",180,l,0.4494469022629346,1,colour,0.06,3.6
46,20,1,2,13,49,649,954.8890539541558,955.7998064640383,"[98, 0, 156]",156,l,0.3889009449549121,1,colour,0.06,3.6
46,20,1,2,13,50,650,956.3110356064426,957.2478059819709,"[50, 0, 204]",204,a,0.4151275490212356,1,colour,0.06,3.6
46,20,1,2,14,1,651,962.7326498003399,964.3598181691436,"[77, 0, 177]",177,l,1.104523597878142,1,colour,0.06,3.5
46,20,1,2,14,2,652,964.8742047755413,965.4958336992822,"[81, 0, 173]",173,l,0.10002154338053515,1,colour,0.06,3.5
46,20,1,2,14,3,653,966.0148708401489,966.895793054367,"[92, 0, 162]",162,l,0.35891704932100765,1,colour,0.06,3.5
46,20,1,2,14,4,654,967.4056760308827,968.4878429562405,"[52, 0, 202]",202,a,0.5602889727433649,0,colour,0.06,3.5
46,20,1,2,14,5,655,968.9995529847038,969.9198353880943,"[51, 0, 203]",203,a,0.3984820384530394,0,colour,0.06,3.5
46,20,1,2,14,6,656,970.4371400000709,971.9918083954594,"[59, 0, 195]",195,a,1.0327715381617963,0,colour,0.06,3.5
46,20,1,2,14,7,657,972.4997733415835,973.447835677965,"[86, 0, 168]",168,l,0.4262088022237549,1,colour,0.06,3.5
46,20,1,2,14,8,658,973.9530346430947,974.6718277569325,"[37, 0, 217]",217,a,0.19683442277710128,1,colour,0.06,3.5
46,20,1,2,14,9,659,975.1875372923005,975.8717952252468,"[55, 0, 199]",199,a,0.16240085417348382,0,colour,0.06,3.5
46,20,1,2,14,10,660,976.3907807722771,978.1358190009464,"[62, 0, 192]",192,l,1.223219746811992,1,colour,0.06,3.5
46,20,1,2,14,11,661,978.6409317137859,979.8238228039245,"[89, 0, 165]",165,l,0.6609981713727393,1,colour,0.06,3.5
46,20,1,2,14,12,662,980.3285609691452,981.0077938200038,"[84, 0, 170]",170,l,0.1573446582460747,1,colour,0.06,3.5
46,20,1,2,14,13,663,981.5161967229647,982.3518144291816,"[69, 0, 185]",185,l,0.31379804282141777,1,colour,0.06,3.5
46,20,1,2,14,14,664,982.8601027229338,983.7198092367148,"[82, 0, 172]",172,l,0.3380321795875716,1,colour,0.06,3.5
46,20,1,2,14,15,665,984.2351316213899,984.8878038867097,"[53, 0, 201]",201,a,0.1307903742444978,0,colour,0.06,3.5
46,20,1,2,14,16,666,985.4070769413756,986.1358174255624,"[70, 0, 184]",184,l,0.2068845869521283,1,colour,0.06,3.5
46,20,1,2,14,17,667,986.641561473662,987.623796652545,"[71, 0, 183]",183,l,0.4604186662563734,1,colour,0.06,3.5
46,20,1,2,14,18,668,988.1416392582619,989.11182077798,"[99, 0, 155]",155,l,0.4482882071060885,1,colour,0.06,3.5
46,20,1,2,14,19,669,989.6261542151574,990.3597858737653,"[94, 0, 160]",160,l,0.21189982288706233,1,colour,0.06,3.5
46,20,1,2,14,20,670,990.8763157905105,991.8398157115444,"[93, 0, 161]",161,l,0.44177438685073867,1,colour,0.06,3.5
46,20,1,2,14,21,671,992.3451572489539,993.223801851313,"[85, 0, 169]",169,l,0.3567906743551248,1,colour,0.06,3.5
46,20,1,2,14,22,672,993.7358757935508,994.5598380189858,"[87, 0, 167]",167,l,0.3026833127023565,1,colour,0.06,3.5
46,20,1,2,14,23,673,995.0797522550642,995.8958418912807,"[88, 0, 166]",166,l,0.294216015908205,1,colour,0.06,3.5
46,20,1,2,14,24,674,996.4078862950628,997.3358305800211,"[74, 0, 180]",180,l,0.4060486092703286,1,colour,0.06,3.5
46,20,1,2,14,25,675,997.8455276611885,998.7277861951438,"[91, 0, 163]",163,l,0.36029984289461936,1,colour,0.06,3.5
46,20,1,2,14,26,676,999.2362521134769,1000.2078250913823,"[58, 0, 196]",196,a,0.4496001083862211,0,colour,0.06,3.5
46,20,1,2,14,27,677,1000.7207883380602,1001.6158547464165,"[80, 0, 174]",174,l,0.37316994497587075,1,colour,0.06,3.5
46,20,1,2,14,28,678,1002.127128393427,1002.9118084112133,"[63, 0, 191]",191,a,0.26300450205462766,0,colour,0.06,3.5
46,20,1,2,14,29,679,1003.4241348087858,1004.2078002790795,"[4, 0, 250]",250,a,0.2617686130670336,1,colour,0.06,3.5
46,20,1,2,14,30,680,1004.7211242887633,1005.8798312605873,"[78, 0, 176]",176,l,0.6368317761316575,1,colour,0.06,3.5
46,20,1,2,14,31,681,1006.3931103718187,1007.2317606928227,"[75, 0, 179]",179,l,0.31688028221424247,1,colour,0.06,3.5
46,20,1,2,14,32,682,1007.7370608763945,1008.5677822881908,"[83, 0, 171]",171,l,0.30953899135238316,1,colour,0.06,3.5
46,20,1,2,14,33,683,1009.0808940148395,1009.8637859714395,"[56, 0, 198]",198,a,0.26112821934748354,0,colour,0.06,3.5
46,20,1,2,14,34,684,1010.3778070886783,1011.3117957293698,"[76, 0, 178]",178,l,0.41227255881403835,1,colour,0.06,3.5
46,20,1,2,14,35,685,1011.8310833563405,1012.8718145237044,"[90, 0, 164]",164,l,0.5188709378221574,1,colour,0.06,3.5
46,20,1,2,14,36,686,1013.3780331563262,1014.1677866992668,"[73, 0, 181]",181,a,0.2679067041658527,0,colour,0.06,3.5
46,20,1,2,14,37,687,1014.6759099715132,1015.5677657466554,"[50, 0, 204]",204,a,0.3708946961928632,1,colour,0.06,3.5
46,20,1,2,14,38,688,1016.081458396267,1016.9438131310649,"[49, 0, 205]",205,a,0.34048899141134825,1,colour,0.06,3.5
46,20,1,2,14,39,689,1017.456482962416,1018.2557927865519,"[54, 0, 200]",200,a,0.27744171767290027,0,colour,0.06,3.5
46,20,1,2,14,40,690,1018.7692806362033,1019.6478137801232,"[97, 0, 157]",157,l,0.35747478498979035,1,colour,0.06,3.5
46,20,1,2,14,41,691,1020.1598105285298,1021.1038253087854,"[98, 0, 156]",156,l,0.4223030306848159,1,colour,0.06,3.5
46,20,1,2,14,42,692,1021.6132183407817,1022.9917946108467,"[96, 0, 158]",158,l,0.8568609758794992,1,colour,0.06,3.5
46,20,1,2,14,43,693,1023.5038331069377,1024.343804781528,"[61, 0, 193]",193,a,0.3180960850518204,0,colour,0.06,3.5
46,20,1,2,14,44,694,1024.8632897253833,1025.9597918602258,"[95, 0, 159]",159,l,0.5745647114704298,1,colour,0.06,3.5
46,20,1,2,14,45,695,1026.4728137899692,1026.9998011077319,"[64, 0, 190]",190,a,0.005164503598734882,0,colour,0.06,3.5
46,20,1,2,14,46,696,1027.519694076122,1028.199789056042,"[67, 0, 187]",187,a,0.15814180270444922,0,colour,0.06,3.5
46,20,1,2,14,47,697,1028.7073593683972,1029.343790603069,"[57, 0, 197]",197,a,0.11465056203769564,0,colour,0.06,3.5
46,20,1,2,14,48,698,1029.8637111406847,1030.5838200942635,"[66, 0, 188]",188,a,0.19820973327568936,0,colour,0.06,3.5
46,20,1,2,14,49,699,1031.098220485274,1031.623798227929,"[68, 0, 186]",186,a,0.003708454654315574,0,colour,0.06,3.5
46,20,1,2,14,50,700,1032.1450755652777,1032.9038121543263,"[79, 0, 175]",175,l,0.2367341810736434,1,colour,0.06,3.5
46,20,1,2,15,1,701,1037.4260016391877,1038.5037952977145,"[96, 0, 158]",158,l,0.5553135152613322,1,colour,0.06,3.5
46,20,1,2,15,2,702,1039.020751355914,1039.8158111870403,"[53, 0, 201]",201,a,0.2732299277331549,0,colour,0.06,3.5
46,20,1,2,15,3,703,1040.3333603774308,1041.111805811829,"[54, 0, 200]",200,a,0.2565836294725159,0,colour,0.06,3.5
46,20,1,2,15,4,704,1041.6302636051173,1042.4237921626996,"[82, 0, 172]",172,l,0.27152063576204455,1,colour,0.06,3.5
46,20,1,2,15,5,705,1042.9428742020186,1043.7678194672603,"[74, 0, 180]",180,l,0.30318743567977435,1,colour,0.06,3.5
46,20,1,2,15,6,706,1044.2867211250768,1045.1437947778377,"[85, 0, 169]",169,l,0.33515552784638203,1,colour,0.06,3.5
46,20,1,2,15,7,707,1045.6618866881208,1046.5597781543825,"[98, 0, 156]",156,l,0.3760840120944522,1,colour,0.06,3.5
46,20,1,2,15,8,708,1047.0682566757896,1047.823783419317,"[84, 0, 170]",170,l,0.23370196013274835,1,colour,0.06,3.5
46,20,1,2,15,9,709,1048.3339428757777,1049.127767999455,"[77, 0, 177]",177,l,0.271980647979035,1,colour,0.06,3.5
46,20,1,2,15,10,710,1049.6465767095974,1050.3357908015678,"[90, 0, 164]",164,l,0.16732708089602966,1,colour,0.06,3.5
46,20,1,2,15,11,711,1050.8497906511184,1051.4317888134324,"[63, 0, 191]",191,l,0.06021197583504545,1,colour,0.06,3.5
46,20,1,2,15,12,712,1051.9435555557307,1052.4958136131322,"[64, 0, 190]",190,l,0.030556153982615797,1,colour,0.06,3.5
46,20,1,2,15,13,713,1053.00618417109,1054.0398363490785,"[72, 0, 182]",182,l,0.5118364530535473,1,colour,0.06,3.5
46,20,1,2,15,14,714,1054.5532111649063,1055.1678067854168,"[88, 0, 166]",166,l,0.09281179710797005,1,colour,0.06,3.5
46,20,1,2,15,15,715,1055.6782545372052,1056.455796882551,"[97, 0, 157]",157,l,0.25566793734560633,1,colour,0.06,3.5
46,20,1,2,15,16,716,1056.9754858386736,1057.8077842101598,"[70, 0, 184]",184,l,0.31072052958143104,1,colour,0.06,3.5
46,20,1,2,15,17,717,1058.31912914331,1059.1597861100731,"[95, 0, 159]",159,l,0.3188258818313443,1,colour,0.06,3.5
46,20,1,2,15,18,718,1059.6786322355924,1060.7597881580728,"[68, 0, 186]",186,a,0.5593496498513559,0,colour,0.06,3.5
46,20,1,2,15,19,719,1061.272483195573,1062.071825708933,"[80, 0, 174]",174,l,0.27752560688713857,1,colour,0.06,3.5
46,20,1,2,15,20,720,1062.585026444795,1063.27979888644,"[51, 0, 203]",203,a,0.1822203702704428,0,colour,0.06,3.5
46,20,1,2,15,21,721,1063.7945462558432,1064.5517870174945,"[71, 0, 183]",183,l,0.23555776284410967,1,colour,0.06,3.5
46,20,1,2,15,22,722,1065.060323828121,1065.9277839896058,"[55, 0, 199]",199,a,0.345912251882055,0,colour,0.06,3.5
46,20,1,2,15,23,723,1066.4353968373375,1067.1917813776186,"[86, 0, 168]",168,l,0.234492803053854,1,colour,0.06,3.5
46,20,1,2,15,24,724,1067.7011653511554,1068.4397756180138,"[57, 0, 197]",197,a,0.21681541576572272,0,colour,0.06,3.5
46,20,1,2,15,25,725,1068.9511910496117,1069.7437881612236,"[10, 0, 244]",244,a,0.2706978913088278,1,colour,0.06,3.5
46,20,1,2,15,26,726,1070.2637843172856,1070.9517849694948,"[81, 0, 173]",173,l,0.16606559191313863,1,colour,0.06,3.5
46,20,1,2,15,27,727,1071.4671888803077,1072.2958154248245,"[91, 0, 163]",163,l,0.3068907703354853,1,colour,0.06,3.5
46,20,1,2,15,28,728,1072.810894018778,1073.5038110515575,"[60, 0, 194]",194,a,0.17129232319166476,0,colour,0.06,3.5
46,20,1,2,15,29,729,1074.014097720301,1074.6078009880025,"[65, 0, 189]",189,a,0.07182334585650096,0,colour,0.06,3.5
46,20,1,2,15,30,730,1075.123543212595,1075.7757822472308,"[50, 0, 204]",204,a,0.14296730723117435,1,colour,0.06,3.5
46,20,1,2,15,31,731,1076.283228104226,1077.0318121291202,"[92, 0, 162]",162,l,0.22680020149164193,1,colour,0.06,3.5
46,20,1,2,15,32,732,1077.548733922711,1078.2798087325918,"[61, 0, 193]",193,a,0.20908854959498058,0,colour,0.06,3.5
46,20,1,2,15,33,733,1078.798925824212,1080.4237720765495,"[69, 0, 185]",185,a,1.1029572720326541,0,colour,0.06,3.5
46,20,1,2,15,34,734,1080.9397919626258,1081.8957962051359,"[52, 0, 202]",202,a,0.4342472006405842,0,colour,0.06,3.5
46,20,1,2,15,35,735,1082.4085837964635,1083.3037754478723,"[67, 0, 187]",187,a,0.3733062157184577,0,colour,0.06,3.5
46,20,1,2,15,36,736,1083.8149829287422,1084.6398033447772,"[62, 0, 192]",192,a,0.3029003218903199,0,colour,0.06,3.5
46,20,1,2,15,37,737,1085.158847574873,1086.3198262508654,"[66, 0, 188]",188,a,0.6390979664547558,0,colour,0.06,3.5
46,20,1,2,15,38,738,1086.830837202543,1087.4877913624046,"[83, 0, 171]",171,l,0.13503642879322797,1,colour,0.06,3.5
46,20,1,2,15,39,739,1088.0027281717707,1089.4557949133205,"[59, 0, 195]",195,a,0.9312250227740151,0,colour,0.06,3.5
46,20,1,2,15,40,740,1089.9717344547971,1090.6238041356205,"[76, 0, 178]",178,l,0.13030633741664133,1,colour,0.06,3.5
46,20,1,2,15,41,741,1091.1436407840215,1091.8878105820927,"[93, 0, 161]",161,l,0.22254666386743338,1,colour,0.06,3.5
46,20,1,2,15,42,742,1092.3938015716822,1094.2557553711745,"[0, 0, 254]",254,a,1.3403231822130692,1,colour,0.06,3.5
46,20,1,2,15,43,743,1094.7689407470398,1095.3837935490378,"[79, 0, 175]",175,l,0.09296972938454928,1,colour,0.06,3.5
46,20,1,2,15,44,744,1095.8940235039463,1096.6798019584394,"[12, 0, 242]",242,a,0.2639773018631786,1,colour,0.06,3.5
46,20,1,2,15,45,745,1097.191091753139,1097.9438056479894,"[56, 0, 198]",198,a,0.23095764067329583,0,colour,0.06,3.5
46,20,1,2,15,46,746,1098.4568173377347,1099.2718660387713,"[73, 0, 181]",181,a,0.2932211607198951,0,colour,0.06,3.5
46,20,1,2,15,47,747,1099.7850100607984,1100.6717970369386,"[99, 0, 155]",155,l,0.3649712512055885,1,colour,0.06,3.5
46,20,1,2,15,48,748,1101.1913103377115,1101.9117914758322,"[58, 0, 196]",196,a,0.19858152397182494,0,colour,0.06,3.5
46,20,1,2,15,49,749,1102.4258098361483,1103.3197549647252,"[89, 0, 165]",165,l,0.37213176671866677,1,colour,0.06,3.5
46,20,1,2,15,50,750,1103.8320975099873,1104.703754495261,"[87, 0, 167]",167,l,0.34965536499112204,1,colour,0.06,3.5
46,20,1,2,16,1,751,1109.9412338331113,1111.9197778865669,"[90, 0, 164]",164,l,1.4558197256228596,1,colour,0.06,3.4
46,20,1,2,16,2,752,1112.4266971713582,1113.2317602989765,"[61, 0, 193]",193,a,0.28348528571359566,0,colour,0.06,3.4
46,20,1,2,16,3,753,1113.7393014667223,1114.5598041482235,"[78, 0, 176]",176,l,0.29924936876341235,1,colour,0.06,3.4
46,20,1,2,16,4,754,1115.0674863128643,1115.8797816359815,"[19, 0, 235]",235,a,0.2904382443443865,1,colour,0.06,3.4
46,20,1,2,16,5,755,1116.395673128237,1117.407754750473,"[71, 0, 183]",183,l,0.490209577312271,1,colour,0.06,3.4
46,20,1,2,16,6,756,1117.9270148082187,1118.7437881612236,"[70, 0, 184]",184,a,0.2950127665208129,0,colour,0.06,3.4
46,20,1,2,16,7,757,1119.2552272235862,1120.1997969329632,"[72, 0, 182]",182,l,0.42258778139785136,1,colour,0.06,3.4
46,20,1,2,16,8,758,1120.7085176697074,1121.6478047216633,"[69, 0, 185]",185,l,0.41751425624352123,1,colour,0.06,3.4
46,20,1,2,16,9,759,1122.1618116604436,1122.7437779212255,"[76, 0, 178]",178,l,0.0601808619953772,1,colour,0.06,3.4
46,20,1,2,16,10,760,1123.255587592746,1124.7437897366076,"[53, 0, 201]",201,a,0.9662631451051311,0,colour,0.06,3.4
46,20,1,2,16,11,761,1125.255747100407,1126.215768179049,"[25, 0, 229]",229,a,0.4381206768011907,1,colour,0.06,3.4
46,20,1,2,16,12,762,1126.7245905280806,1127.4237897996231,"[57, 0, 197]",197,a,0.17741978044659845,0,colour,0.06,3.4
46,20,1,2,16,13,763,1127.9434807249763,1128.887771197485,"[36, 0, 218]",218,a,0.42278785520466045,1,colour,0.06,3.4
46,20,1,2,16,14,764,1129.3966675895795,1130.671767498483,"[96, 0, 158]",158,l,0.7531120732332965,1,colour,0.06,3.4
46,20,1,2,16,15,765,1131.1781015280048,1132.015792046121,"[91, 0, 163]",163,l,0.316006731617108,1,colour,0.06,3.4
46,20,1,2,16,16,766,1132.5219153679923,1133.5197878114882,"[87, 0, 167]",167,l,0.4760208785683062,1,colour,0.06,3.4
46,20,1,2,16,17,767,1134.0378143433231,1134.8718038898605,"[80, 0, 174]",174,l,0.3122553477405745,1,colour,0.06,3.4
46,20,1,2,16,18,768,1135.3816344848474,1136.23981011893,"[66, 0, 188]",188,a,0.33630043839048085,0,colour,0.06,3.4
46,20,1,2,16,19,769,1136.7566436909997,1137.5677712605006,"[88, 0, 166]",166,l,0.2892248045832275,1,colour,0.06,3.4
46,20,1,2,16,20,770,1138.0848635894426,1138.9757847678457,"[83, 0, 171]",171,l,0.3695363210758842,1,colour,0.06,3.4
46,20,1,2,16,21,771,1139.4912288509581,1140.2798020372084,"[89, 0, 165]",165,l,0.26665584902775663,1,colour,0.06,3.4
46,20,1,2,16,22,772,1140.7882191186277,1141.567776774346,"[82, 0, 172]",172,l,0.25773050924726704,1,colour,0.06,3.4
46,20,1,2,16,23,773,1142.085227503217,1142.7677761441919,"[73, 0, 181]",181,l,0.1607238575802512,1,colour,0.06,3.4
46,20,1,2,16,24,774,1143.2728203278139,1144.1357614994195,"[75, 0, 179]",179,l,0.34107621591101633,1,colour,0.06,3.4
46,20,1,2,16,25,775,1144.647958715479,1145.4557779779393,"[52, 0, 202]",202,a,0.2859448544600127,0,colour,0.06,3.4
46,20,1,2,16,26,776,1145.960444463174,1146.703764735259,"[67, 0, 187]",187,a,0.22157819636640852,0,colour,0.06,3.4
46,20,1,2,16,27,777,1147.2105946169909,1147.9437985587597,"[93, 0, 161]",161,l,0.2116036506376986,1,colour,0.06,3.4
46,20,1,2,16,28,778,1148.4607908507983,1149.207771922162,"[86, 0, 168]",168,l,0.22550247867002327,1,colour,0.06,3.4
46,20,1,2,16,29,779,1149.7263915861877,1150.511788797679,"[58, 0, 196]",196,a,0.26362244654819733,0,colour,0.06,3.4
46,20,1,2,16,30,780,1151.0233889430865,1151.7117401183036,"[65, 0, 189]",189,a,0.16645431799042854,0,colour,0.06,3.4
46,20,1,2,16,31,781,1152.2266851984377,1153.0157699907409,"[64, 0, 190]",190,a,0.26737579965538316,0,colour,0.06,3.4
46,20,1,2,16,32,782,1153.5236293861162,1154.2637677757507,"[54, 0, 200]",200,a,0.21833684315834034,0,colour,0.06,3.4
46,20,1,2,16,33,783,1154.7737173122528,1155.5837586542752,"[63, 0, 191]",191,a,0.2883398324497648,0,colour,0.06,3.4
46,20,1,2,16,34,784,1156.1019935306845,1156.8797513098339,"[84, 0, 170]",170,l,0.2559243311411592,1,colour,0.06,3.4
46,20,1,2,16,35,785,1157.3988203522326,1158.1997870868113,"[60, 0, 194]",194,a,0.2789139143060311,0,colour,0.06,3.4
46,20,1,2,16,36,786,1158.711498690659,1159.5837968573446,"[77, 0, 177]",177,l,0.35044423868157537,1,colour,0.06,3.4
46,20,1,2,16,37,787,1160.10231018293,1160.919762920416,"[85, 0, 169]",169,l,0.2955483971841204,1,colour,0.06,3.4
46,20,1,2,16,38,788,1161.430474942922,1162.151793003955,"[56, 0, 198]",198,a,0.19938890842831825,0,colour,0.06,3.4
46,20,1,2,16,39,789,1162.6649756228971,1163.423784679624,"[50, 0, 204]",204,a,0.2368802979681277,1,colour,0.06,3.4
46,20,1,2,16,40,790,1163.9307212936428,1164.5837996142673,"[98, 0, 156]",156,l,0.13118697724303274,1,colour,0.06,3.4
46,20,1,2,16,41,791,1165.102609899794,1165.9197960034867,"[62, 0, 192]",192,a,0.2952321387851953,0,colour,0.06,3.4
46,20,1,2,16,42,792,1166.430934167447,1167.287771512562,"[92, 0, 162]",162,l,0.3350700632477128,1,colour,0.06,3.4
46,20,1,2,16,43,793,1167.8061135151038,1168.5598104497608,"[99, 0, 155]",155,l,0.2319343789422419,1,colour,0.06,3.4
46,20,1,2,16,44,794,1169.0717804166343,1169.887771197485,"[55, 0, 199]",199,l,0.29425579436156113,1,colour,0.06,3.4
46,20,1,2,16,45,795,1170.3999605366234,1171.1677642500404,"[97, 0, 157]",157,l,0.24603643154978272,1,colour,0.06,3.4
46,20,1,2,16,46,796,1171.6726158429315,1172.5117635915299,"[79, 0, 175]",175,l,0.3173662882722965,1,colour,0.06,3.4
46,20,1,2,16,47,797,1173.0164576459902,1173.839779083859,"[74, 0, 180]",180,l,0.3016179590658794,1,colour,0.06,3.4
46,20,1,2,16,48,798,1174.346293101038,1175.159781777766,"[68, 0, 186]",186,l,0.2916292348791103,1,colour,0.06,3.4
46,20,1,2,16,49,799,1175.6744594364145,1176.3598158060672,"[51, 0, 203]",203,a,0.16342761089435953,0,colour,0.06,3.4
46,20,1,2,16,50,800,1176.8778049225248,1177.6157830664306,"[81, 0, 173]",173,l,0.2167130157858992,1,colour,0.06,3.4
