id,age,condition,counterbalance,block,trialinblock,trial,tstart,tend,trialstim,trialintensity,response,RT,accuracy,trialtype,colourfreq,credits
88,24,0,1,Practice,1,NA,5.907684681005776e-06,2.2300661543704337,"[97, 0, 157]",157,l,1.7056329091719817,1,colour,0.5,4
88,24,0,1,Practice,2,NA,2.751071360631613,3.950096905900864,"[23, 0, 231]",231,a,0.6755765221896581,1,colour,0.5,4
88,24,0,1,Practice,3,NA,4.469895760674262,5.246049622277496,"[37, 0, 217]",217,a,0.2527221677592024,1,colour,0.5,4
88,24,0,1,Practice,4,NA,5.766904379212065,7.046031190257054,"[82, 0, 172]",172,l,0.7557628587819636,1,colour,0.5,4
88,24,0,1,Practice,5,NA,7.564245994872181,8.310047297010897,"[92, 0, 162]",162,l,0.22291587323707063,1,colour,0.5,4
88,24,0,1,Practice,6,NA,8.829670890132547,9.446068054283387,"[52, 0, 202]",202,a,0.09307495960092638,0,colour,0.5,4
88,24,0,1,Practice,7,NA,9.954603690101067,10.494072808796773,"[46, 0, 208]",208,a,0.015947627878631465,1,colour,0.5,4
88,24,0,1,Practice,8,NA,11.001655336352997,15.006080200502765,"[25, 0, 229]",229,a,3.481014831850189,1,colour,0.5,4
88,24,0,1,Practice,9,NA,15.517663419654127,16.31812666177575,"[91, 0, 163]",163,l,0.2770551790599711,1,colour,0.5,4
88,24,0,1,Practice,10,NA,16.83026559818245,17.662091615755344,"[3, 0, 251]",251,a,0.3085380776610691,1,colour,0.5,4
88,24,0,1,1,1,1,4.385193975249422,5.464001061802264,"[37, 0, 217]",217,a,0.555375392708811,1,colour,0.5,4.0
88,24,0,1,1,2,2,5.979866572713945,6.983946033593384,"[95, 0, 159]",159,l,0.4807135393784847,1,colour,0.5,4.0
88,24,0,1,1,3,3,7.4955304342729505,8.456039063254138,"[55, 0, 199]",199,a,0.4371080489945598,0,colour,0.5,4.0
88,24,0,1,1,4,4,8.964439609757392,9.847938273233012,"[41, 0, 213]",213,a,0.3600783911824692,1,colour,0.5,4.0
88,24,0,1,1,5,5,10.355247865256388,11.944035216161865,"[63, 0, 191]",191,l,1.0653080016491003,1,colour,0.5,4.0
88,24,0,1,1,6,6,12.464730859166593,13.463955769475433,"[64, 0, 190]",190,a,0.4758286626456538,0,colour,0.5,4.0
88,24,0,1,1,7,7,13.980530597720644,14.90396489095292,"[36, 0, 218]",218,a,0.4000817625055788,1,colour,0.5,4.0
88,24,0,1,1,8,8,15.418163250113139,16.239982024853816,"[49, 0, 205]",205,a,0.2983981085999403,1,colour,0.5,4.0
88,24,0,1,1,9,9,16.74640625018219,17.70400750513363,"[57, 0, 197]",197,a,0.434209339597146,0,colour,0.5,4.0
88,24,0,1,1,10,10,18.215201210201485,19.007995475491043,"[42, 0, 212]",212,a,0.2693456360429991,1,colour,0.5,4.0
88,24,0,1,1,11,11,19.5278415918292,20.335986413876526,"[79, 0, 175]",175,l,0.2847446359228343,1,colour,0.5,4.0
88,24,0,1,1,12,12,20.856101527286228,21.59198814049887,"[27, 0, 227]",227,a,0.21257307328050956,1,colour,0.5,4.0
88,24,0,1,1,13,13,22.1062254904391,22.911991874163505,"[43, 0, 211]",211,a,0.2823504437401425,1,colour,0.5,4.0
88,24,0,1,1,14,14,23.41871699813055,24.200086567434482,"[80, 0, 174]",174,l,0.25784729079168756,1,colour,0.5,4.0
88,24,0,1,1,15,15,24.715723647444975,25.50395677771303,"[20, 0, 234]",234,a,0.2651834674325073,1,colour,0.5,4.0
88,24,0,1,1,16,16,26.012742112143314,26.984001959775924,"[69, 0, 185]",185,l,0.44785178457095753,1,colour,0.5,4.0
88,24,0,1,1,17,17,27.49723736451415,28.17599262089061,"[51, 0, 203]",203,a,0.15537279333511833,0,colour,0.5,4.0
88,24,0,1,1,18,18,28.684804343021824,29.327974002982955,"[24, 0, 230]",230,a,0.1199435539310798,1,colour,0.5,4.0
88,24,0,1,1,19,19,29.84116490308952,30.592028706669225,"[5, 0, 249]",249,a,0.22750615286349785,1,colour,0.5,4.0
88,24,0,1,1,20,20,31.106848161580274,31.727951790046063,"[2, 0, 252]",252,a,0.09763727613608353,1,colour,0.5,4.0
88,24,0,1,1,21,21,32.24762579551316,33.008017137035495,"[50, 0, 204]",204,a,0.23698209691792727,1,colour,0.5,4.0
88,24,0,1,1,22,22,33.528931364780874,34.31203543356969,"[83, 0, 171]",171,l,0.2599138027871959,1,colour,0.5,4.0
88,24,0,1,1,23,23,34.82597621719469,35.58401668962324,"[81, 0, 173]",173,l,0.23460287089983467,1,colour,0.5,4.0
88,24,0,1,1,24,24,36.0917638449755,36.863971759637934,"[16, 0, 238]",238,a,0.249017254813225,1,colour,0.5,4.0
88,24,0,1,1,25,25,37.37303514960513,38.15199949902308,"[71, 0, 183]",183,l,0.2556027602258837,1,colour,0.5,4.0
88,24,0,1,1,26,26,38.670054008151055,39.424045739739086,"[90, 0, 164]",164,l,0.23066519472922664,1,colour,0.5,4.0
88,24,0,1,1,27,27,39.93568488507299,40.672022452388774,"[12, 0, 242]",242,a,0.2128928765305318,1,colour,0.5,4.0
88,24,0,1,1,28,28,41.18584390055912,41.95202911627712,"[67, 0, 187]",187,l,0.24281220498960465,1,colour,0.5,4.0
88,24,0,1,1,29,29,42.46712780826783,43.271975742216455,"[94, 0, 160]",160,l,0.2816860248858575,1,colour,0.5,4.0
88,24,0,1,1,30,30,43.77973589448084,44.416001821140526,"[9, 0, 245]",245,a,0.11286770975857507,1,colour,0.5,4.0
88,24,0,1,1,31,31,44.9361476545746,45.759979378199205,"[54, 0, 200]",200,l,0.30068596225464717,1,colour,0.5,4.0
88,24,0,1,1,32,32,46.27995152538642,47.01598701252078,"[45, 0, 209]",209,a,0.21256795327644795,1,colour,0.5,4.0
88,24,0,1,1,33,33,47.530024682346266,48.27202694224252,"[72, 0, 182]",182,l,0.21853511987137608,1,colour,0.5,4.0
88,24,0,1,1,34,34,48.780159673202434,49.50398040849541,"[3, 0, 251]",251,a,0.20038904144894332,1,colour,0.5,4.0
88,24,0,1,1,35,35,50.01471095022862,51.928051354407216,"[44, 0, 210]",210,a,1.3900296211795649,1,colour,0.5,4.0
88,24,0,1,1,36,36,52.43674846724025,53.22399461848545,"[10, 0, 244]",244,a,0.26387038358370773,1,colour,0.5,4.0
88,24,0,1,1,37,37,53.73370982421329,54.3600476711581,"[21, 0, 233]",233,a,0.1031861778756138,1,colour,0.5,4.0
88,24,0,1,1,38,38,54.87443468274432,55.63198560412275,"[19, 0, 235]",235,a,0.23422241529624444,1,colour,0.5,4.0
88,24,0,1,1,39,39,56.14009194736718,56.89602258472587,"[70, 0, 184]",184,l,0.23282268524053507,1,colour,0.5,4.0
88,24,0,1,1,40,40,57.40608437528135,58.0639799516357,"[31, 0, 223]",223,a,0.13466001801134553,1,colour,0.5,4.0
88,24,0,1,1,41,41,58.57776280285907,59.50397056233487,"[53, 0, 201]",201,l,0.4027957579528447,1,colour,0.5,4.0
88,24,0,1,1,42,42,60.01545531989541,61.87202709977282,"[97, 0, 157]",157,l,1.333195618368336,1,colour,0.5,4.0
88,24,0,1,1,43,43,62.39054280302662,64.47200953423453,"[47, 0, 207]",207,a,1.5586206869484158,1,colour,0.5,4.0
88,24,0,1,1,44,44,64.98456319088291,67.6640317030542,"[65, 0, 189]",189,l,2.156181359954644,1,colour,0.5,4.0
88,24,0,1,1,45,45,68.17230740025116,68.90405823255423,"[84, 0, 170]",170,l,0.20838136618840508,1,colour,0.5,4.0
88,24,0,1,1,46,46,69.42246484034695,70.12002547398151,"[78, 0, 176]",176,l,0.17416989982302766,1,colour,0.5,4.0
88,24,0,1,1,47,47,70.6412504465261,71.77602231690253,"[52, 0, 202]",202,a,0.6114102811989142,0,colour,0.5,4.0
88,24,0,1,1,48,48,72.28205624046677,73.03200553274655,"[6, 0, 248]",248,a,0.22655343844962772,1,colour,0.5,4.0
88,24,0,1,1,49,49,73.54775170820358,74.30400529959297,"[8, 0, 246]",246,a,0.2328144144557882,1,colour,0.5,4.0
88,24,0,1,1,50,50,74.8135145236738,75.60000173292065,"[15, 0, 239]",239,a,0.263146100071026,1,colour,0.5,4.0
88,24,0,1,2,1,51,88.40760462233447,89.2000779028167,"[64, 0, 190]",190,l,0.268446484755259,1,colour,0.5,4.0
88,24,0,1,2,2,52,89.72093226590368,92.10403373530426,"[48, 0, 206]",206,l,1.859611486288486,0,colour,0.5,4.0
88,24,0,1,2,3,53,92.6118395737576,93.36801872818614,"[15, 0, 239]",239,a,0.23315154697047547,1,colour,0.5,4.0
88,24,0,1,2,4,54,93.87751416763058,94.60803934997239,"[77, 0, 177]",177,l,0.20719667624507565,1,colour,0.5,4.0
88,24,0,1,2,5,55,95.12760504768812,98.32801181223476,"[39, 0, 215]",215,a,2.676980190706672,1,colour,0.5,4.0
88,24,0,1,2,6,56,98.84672404483717,99.83208831926459,"[22, 0, 232]",232,a,0.46191564519540407,1,colour,0.5,4.0
88,24,0,1,2,7,57,100.34678331871692,101.11203196771385,"[65, 0, 189]",189,l,0.24184531210630666,1,colour,0.5,4.0
88,24,0,1,2,8,58,101.62810503567744,102.37600435751665,"[93, 0, 161]",161,l,0.22442351719655562,1,colour,0.5,4.0
88,24,0,1,2,9,59,102.89388084807433,103.63204743800452,"[18, 0, 236]",236,a,0.21474356070393696,1,colour,0.5,4.0
88,24,0,1,2,10,60,104.1440020542941,104.88799245074915,"[70, 0, 184]",184,l,0.220947822832386,1,colour,0.5,4.0
88,24,0,1,2,11,61,105.3940791497298,106.13615072658285,"[84, 0, 170]",170,l,0.21947011118754745,1,colour,0.5,4.0
88,24,0,1,2,12,62,106.64421020211012,108.51200817940116,"[45, 0, 209]",209,a,1.3444170896254946,1,colour,0.5,4.0
88,24,0,1,2,13,63,109.01947334072611,109.80807392968563,"[8, 0, 246]",246,a,0.26525239054171834,1,colour,0.5,4.0
88,24,0,1,2,14,64,110.31634686996404,111.41599788267922,"[40, 0, 214]",214,a,0.5763654358888743,1,colour,0.5,4.0
88,24,0,1,2,15,65,111.92590016545728,113.13604872036376,"[46, 0, 208]",208,a,0.6868342272937298,1,colour,0.5,4.0
88,24,0,1,2,16,66,113.64475725474767,114.81604301747575,"[74, 0, 180]",180,l,0.6479367766296491,1,colour,0.5,4.0
88,24,0,1,2,17,67,115.3323303378711,116.2640428882878,"[24, 0, 230]",230,a,0.4083092135260813,1,colour,0.5,4.0
88,24,0,1,2,18,68,116.76996732255793,117.74402229800762,"[57, 0, 197]",197,l,0.4506347031419864,1,colour,0.5,4.0
88,24,0,1,2,19,69,118.25453307344287,119.00806676168577,"[63, 0, 191]",191,l,0.23015910212416202,1,colour,0.5,4.0
88,24,0,1,2,20,70,119.52021042424894,120.5841005789116,"[38, 0, 216]",216,l,0.5404592485137982,0,colour,0.5,4.0
88,24,0,1,2,21,71,121.09841630428855,121.96805787651101,"[11, 0, 243]",243,a,0.3462031829840271,1,colour,0.5,4.0
88,24,0,1,2,22,72,122.48919699054386,123.33601555851055,"[75, 0, 179]",179,l,0.3233719079726143,1,colour,0.5,4.0
88,24,0,1,2,23,73,123.8486282921076,124.60804210690549,"[95, 0, 159]",159,l,0.23609082255279645,1,colour,0.5,4.0
88,24,0,1,2,24,74,125.1143891383399,133.8160453805467,"[66, 0, 188]",188,l,8.178312769945478,1,colour,0.5,4.0
88,24,0,1,2,25,75,134.3339840988483,135.424064644365,"[43, 0, 211]",211,l,0.5669922857341589,0,colour,0.5,4.0
88,24,0,1,2,26,76,135.94334086497838,136.65609136605053,"[87, 0, 167]",167,l,0.18929360105539672,1,colour,0.5,4.0
88,24,0,1,2,27,77,137.16231276049803,137.84006804089586,"[69, 0, 185]",185,l,0.15447836818930227,1,colour,0.5,4.0
88,24,0,1,2,28,78,138.34977024971158,138.9600694902474,"[21, 0, 233]",233,a,0.08692662365501747,1,colour,0.5,4.0
88,24,0,1,2,29,79,139.47496968366613,150.8480320086819,"[47, 0, 207]",207,l,10.849781080483808,0,colour,0.5,4.0
88,24,0,1,2,30,80,151.36658827810606,152.71206166374031,"[42, 0, 212]",212,a,0.8222520057606744,1,colour,0.5,4.0
88,24,0,1,2,31,81,153.22598826888134,156.60809370077914,"[56, 0, 198]",198,l,2.858597725702566,1,colour,0.5,4.0
88,24,0,1,2,32,82,157.1167411889619,157.9840720644279,"[41, 0, 213]",213,a,0.3437491261429386,1,colour,0.5,4.0
88,24,0,1,2,33,83,158.49209727533162,159.1920473749924,"[99, 0, 155]",155,l,0.17670036284835078,1,colour,0.5,4.0
88,24,0,1,2,34,84,159.710913207673,160.64805059823266,"[2, 0, 252]",252,a,0.41366591822588816,1,colour,0.5,4.0
88,24,0,1,2,35,85,161.16420676777489,162.5281078319822,"[53, 0, 201]",201,a,0.8405824042856693,0,colour,0.5,4.0
88,24,0,1,2,36,86,163.0393208355381,163.84004441011348,"[94, 0, 160]",160,l,0.277270219186903,1,colour,0.5,4.0
88,24,0,1,2,37,87,164.35185763555637,165.11210286007554,"[23, 0, 231]",231,a,0.2367646937200334,1,colour,0.5,4.0
88,24,0,1,2,38,88,165.6331454817264,166.37617528684495,"[36, 0, 218]",218,a,0.22029325013863854,1,colour,0.5,4.0
88,24,0,1,2,39,89,166.88356798044697,167.52810665043944,"[81, 0, 173]",173,l,0.12143898865906522,1,colour,0.5,4.0
88,24,0,1,2,40,90,168.03968790036743,168.67212091399415,"[59, 0, 195]",195,a,0.10902731365058571,0,colour,0.5,4.0
88,24,0,1,2,41,91,169.18033832192305,170.2081206398725,"[28, 0, 226]",226,a,0.5052804954320891,1,colour,0.5,4.0
88,24,0,1,2,42,92,170.72730076196603,171.72807033780555,"[98, 0, 156]",156,l,0.47825239329540636,1,colour,0.5,4.0
88,24,0,1,2,43,93,172.24320211290615,173.01611619413598,"[86, 0, 168]",168,l,0.24948396277613938,1,colour,0.5,4.0
88,24,0,1,2,44,94,173.5244887775334,174.95205353475467,"[68, 0, 186]",186,l,0.9042204972647596,1,colour,0.5,4.0
88,24,0,1,2,45,95,175.4622157561389,176.08010087192815,"[89, 0, 165]",165,l,0.09455148970300797,1,colour,0.5,4.0
88,24,0,1,2,46,96,176.58724662385066,177.19208242732566,"[51, 0, 203]",203,l,0.0813363680645125,1,colour,0.5,4.0
88,24,0,1,2,47,97,177.7123243592796,178.2960637810611,"[3, 0, 251]",251,a,0.06032545103516895,1,colour,0.5,4.0
88,24,0,1,2,48,98,178.80623427321552,179.48809106988483,"[9, 0, 245]",245,a,0.15847078899969347,1,colour,0.5,4.0
88,24,0,1,2,49,99,180.02696390515484,183.90408501410275,"[44, 0, 210]",210,l,3.355618868547026,0,colour,0.5,4.0
88,24,0,1,2,50,100,184.41594235034427,185.592097629793,"[30, 0, 224]",224,l,0.6526995609892765,0,colour,0.5,4.0
88,24,0,1,3,1,101,190.94697724867729,191.7281014516775,"[91, 0, 163]",163,l,0.25690560408111196,1,colour,0.5,4.0
88,24,0,1,3,2,102,192.24472432918265,193.90406571562926,"[63, 0, 191]",191,a,1.1358478587208083,0,colour,0.5,4.0
88,24,0,1,3,3,103,194.4168210216303,195.32812287691922,"[48, 0, 206]",206,a,0.3880363646312617,1,colour,0.5,4.0
88,24,0,1,3,4,104,195.83877819398185,196.64813527520164,"[43, 0, 211]",211,a,0.28591317814425565,1,colour,0.5,4.0
88,24,0,1,3,5,105,197.16707751408103,198.04813117919548,"[60, 0, 194]",194,a,0.3576810482190922,0,colour,0.5,4.0
88,24,0,1,3,6,106,198.55775816335517,199.94405687772087,"[75, 0, 179]",179,a,0.8628398451255634,0,colour,0.5,4.0
88,24,0,1,3,7,107,200.46478008995473,201.13608968039625,"[13, 0, 241]",241,a,0.14853168159606867,1,colour,0.5,4.0
88,24,0,1,3,8,108,201.65182994815405,202.50407926394837,"[62, 0, 192]",192,a,0.32937058227253146,0,colour,0.5,4.0
88,24,0,1,3,9,109,203.01117854198674,203.752111508933,"[0, 0, 254]",254,a,0.21735476225148886,1,colour,0.5,4.0
88,24,0,1,3,10,110,204.2613789113384,205.39210007163638,"[74, 0, 180]",180,l,0.6077805929089664,1,colour,0.5,4.0
88,24,0,1,3,11,111,205.90209884676733,206.53615253827593,"[6, 0, 248]",248,a,0.11058930840226822,1,colour,0.5,4.0
88,24,0,1,3,12,112,207.04283197606856,207.6400759965909,"[83, 0, 171]",171,l,0.07385368054383434,1,colour,0.5,4.0
88,24,0,1,3,13,113,208.15235750538704,208.77607115385763,"[18, 0, 236]",236,a,0.10033118542924058,1,colour,0.5,4.0
88,24,0,1,3,14,114,209.29298665923125,209.96810474422819,"[2, 0, 252]",252,a,0.15166591113666072,1,colour,0.5,4.0
88,24,0,1,3,15,115,210.4805882962246,211.2321543279104,"[85, 0, 169]",169,l,0.228193808652577,1,colour,0.5,4.0
88,24,0,1,3,16,116,211.74635938246502,212.39216269321332,"[77, 0, 177]",177,l,0.12250710006628651,1,colour,0.5,4.0
88,24,0,1,3,17,117,212.9026537763275,214.04808273608796,"[56, 0, 198]",198,l,0.6220913951983675,1,colour,0.5,4.0
88,24,0,1,3,18,118,214.55902634871018,215.7760640646302,"[47, 0, 207]",207,a,0.6936418620898621,1,colour,0.5,4.0
88,24,0,1,3,19,119,216.29354001341562,216.92806356365327,"[26, 0, 228]",228,a,0.11113793643016834,1,colour,0.5,4.0
88,24,0,1,3,20,120,217.43423651499324,218.1361716004467,"[65, 0, 189]",189,l,0.17874678867519833,1,colour,0.5,4.0
88,24,0,1,3,21,121,218.65311231199303,219.2481511865917,"[14, 0, 240]",240,a,0.07193761787493713,1,colour,0.5,4.0
88,24,0,1,3,22,122,219.76259648743144,220.40006679634098,"[11, 0, 243]",243,a,0.11403861506551038,1,colour,0.5,4.0
88,24,0,1,3,23,123,220.9189011213166,221.49611844692845,"[10, 0, 244]",244,a,0.053806505631655455,1,colour,0.5,4.0
88,24,0,1,3,24,124,222.01282206295582,222.72010597618646,"[73, 0, 181]",181,l,0.1838845147867687,1,colour,0.5,4.0
88,24,0,1,3,25,125,223.23158679527114,224.68008685100358,"[50, 0, 204]",204,l,0.9249966818460962,0,colour,0.5,4.0
88,24,0,1,3,26,126,225.20059659850085,227.384177851578,"[16, 0, 238]",238,a,1.6602677131450037,1,colour,0.5,4.0
88,24,0,1,3,27,127,227.90388769705896,228.63206831186835,"[25, 0, 229]",229,a,0.2047902748308843,1,colour,0.5,4.0
88,24,0,1,3,28,128,229.13835232787824,229.72011661002762,"[35, 0, 219]",219,a,0.05866105618770234,1,colour,0.5,4.0
88,24,0,1,3,29,129,230.23220631563163,230.88011276609905,"[71, 0, 183]",183,l,0.12443419043847825,1,colour,0.5,4.0
88,24,0,1,3,30,130,231.38847195872222,232.31209451053292,"[29, 0, 225]",225,a,0.4001869195053587,1,colour,0.5,4.0
88,24,0,1,3,31,131,232.82613021112047,236.2401537418773,"[53, 0, 201]",201,a,2.890626101550879,0,colour,0.5,4.0
88,24,0,1,3,32,132,236.74835539594642,237.352114817244,"[90, 0, 164]",164,l,0.08048605370277073,1,colour,0.5,4.0
88,24,0,1,3,33,133,237.87347054677957,239.416142030459,"[17, 0, 237]",237,a,1.0193244668043917,1,colour,0.5,4.0
88,24,0,1,3,34,134,239.936055100683,240.62413663948246,"[80, 0, 174]",174,l,0.1647140419227071,1,colour,0.5,4.0
88,24,0,1,3,35,135,241.13924242071516,242.48016766828368,"[45, 0, 209]",209,a,0.8176621199818328,1,colour,0.5,4.0
88,24,0,1,3,36,136,242.99881058391475,243.60809763924044,"[78, 0, 176]",176,l,0.08583566917513963,1,colour,0.5,4.0
88,24,0,1,3,37,137,244.12388319933962,245.41613887967833,"[1, 0, 253]",253,a,0.7688318634318421,1,colour,0.5,4.0
88,24,0,1,3,38,138,245.9364922701643,246.69609001123172,"[28, 0, 226]",226,a,0.23616368413786404,1,colour,0.5,4.0
88,24,0,1,3,39,139,247.20226768871362,247.9441577023972,"[27, 0, 227]",227,a,0.21849140293488745,1,colour,0.5,4.0
88,24,0,1,3,40,140,248.45241607034404,249.16012573151966,"[31, 0, 223]",223,a,0.18443196127191186,1,colour,0.5,4.0
88,24,0,1,3,41,141,249.67126863040903,250.3361242601095,"[99, 0, 155]",155,l,0.1415330313029699,1,colour,0.5,4.0
88,24,0,1,3,42,142,250.84321408583492,251.52808695813292,"[8, 0, 246]",246,a,0.1615404277399648,1,colour,0.5,4.0
88,24,0,1,3,43,143,252.04639392279205,253.264104328322,"[55, 0, 199]",199,a,0.6943681148259202,0,colour,0.5,4.0
88,24,0,1,3,44,144,253.7810040798504,254.51217950257706,"[82, 0, 172]",172,l,0.2078610951139126,1,colour,0.5,4.0
88,24,0,1,3,45,145,255.03100949524378,255.5921200790326,"[3, 0, 251]",251,a,0.037616268382407725,1,colour,0.5,4.0
88,24,0,1,3,46,146,256.1091801260336,256.8481273195066,"[64, 0, 190]",190,l,0.21544578882458154,1,colour,0.5,4.0
88,24,0,1,3,47,147,257.3593923107692,258.28015199319634,"[38, 0, 216]",216,a,0.39745362557005137,1,colour,0.5,4.0
88,24,0,1,3,48,148,258.7969170492579,259.4001294179179,"[79, 0, 175]",175,l,0.07987204717937857,1,colour,0.5,4.0
88,24,0,1,3,49,149,259.90645203088934,260.60011122221476,"[93, 0, 161]",161,l,0.17010501126060262,1,colour,0.5,4.0
88,24,0,1,3,50,150,261.10973111713247,261.72810263322026,"[92, 0, 162]",162,l,0.09505088692822028,1,colour,0.5,4.0
88,24,0,1,4,1,151,266.43744951381814,267.9601451087656,"[72, 0, 182]",182,l,0.9985151991277235,1,colour,0.5,3.9
88,24,0,1,4,2,152,268.4696240066696,278.6481782044575,"[55, 0, 199]",199,l,9.655231205557357,1,colour,0.5,3.9
88,24,0,1,4,3,153,279.1580040810368,280.00810102632386,"[95, 0, 159]",159,l,0.3267530791927129,1,colour,0.5,3.9
88,24,0,1,4,4,154,280.51750273033394,281.35217783266853,"[82, 0, 172]",172,l,0.31149783325963654,1,colour,0.5,3.9
88,24,0,1,4,5,155,281.86137001040333,287.4001723471738,"[37, 0, 217]",217,l,5.015417510643601,0,colour,0.5,3.9
88,24,0,1,4,6,156,287.908717829152,288.67213706168695,"[59, 0, 195]",195,l,0.2401312926231185,1,colour,0.5,3.9
88,24,0,1,4,7,157,289.19002221687697,289.94413919160434,"[18, 0, 236]",236,a,0.2307719270902453,1,colour,0.5,3.9
88,24,0,1,4,8,158,290.45568814613216,291.4321585814614,"[28, 0, 226]",226,l,0.4529249198822072,0,colour,0.5,3.9
88,24,0,1,4,9,159,291.9404894171457,294.056153042402,"[0, 0, 254]",254,a,1.5924812361772638,1,colour,0.5,3.9
88,24,0,1,4,10,160,294.56549842638196,295.28014451010677,"[61, 0, 193]",193,l,0.1911986360209994,1,colour,0.5,3.9
88,24,0,1,4,11,161,295.80002292185964,296.50413834089704,"[74, 0, 180]",180,l,0.1808077868045075,1,colour,0.5,3.9
88,24,0,1,4,12,162,297.01886012191244,297.9921553676686,"[48, 0, 206]",206,l,0.4498635519121308,0,colour,0.5,3.9
88,24,0,1,4,13,163,298.50334119581385,299.5041292824317,"[91, 0, 163]",163,l,0.4773894758691313,1,colour,0.5,3.9
88,24,0,1,4,14,164,300.0191141528194,300.7201300008164,"[4, 0, 250]",250,a,0.1776696188171627,1,colour,0.5,3.9
88,24,0,1,4,15,165,301.23788282361056,301.93614883611735,"[65, 0, 189]",189,l,0.17482526019739453,1,colour,0.5,3.9
88,24,0,1,4,16,166,302.4568074575509,303.19220530739403,"[64, 0, 190]",190,l,0.21206855605123565,1,colour,0.5,3.9
88,24,0,1,4,17,167,303.70686052835663,304.43213376913627,"[98, 0, 156]",156,l,0.20186478387040552,1,colour,0.5,3.9
88,24,0,1,4,18,168,304.94131806994847,308.74420386119164,"[41, 0, 213]",213,a,3.2794296789361397,1,colour,0.5,3.9
88,24,0,1,4,19,169,309.2541152024205,310.1042026954092,"[51, 0, 203]",203,l,0.32659711602900643,1,colour,0.5,3.9
88,24,0,1,4,20,170,310.61369774100604,311.2321689002274,"[93, 0, 161]",161,l,0.09505285615159664,1,colour,0.5,3.9
88,24,0,1,4,21,171,311.738773113364,312.33620618015993,"[96, 0, 158]",158,l,0.07505254895659164,1,colour,0.5,3.9
88,24,0,1,4,22,172,312.84810959642346,313.81620961449516,"[35, 0, 219]",219,a,0.44457143802719656,1,colour,0.5,3.9
88,24,0,1,4,23,173,314.33270527962304,315.0561502854689,"[11, 0, 243]",243,a,0.20004521355440374,1,colour,0.5,3.9
88,24,0,1,4,24,174,315.5672384397185,316.13619720045244,"[54, 0, 200]",200,l,0.04581260551640298,1,colour,0.5,3.9
88,24,0,1,4,25,175,316.6453846520453,318.96824259046116,"[67, 0, 187]",187,l,1.7994037953321822,1,colour,0.5,3.9
88,24,0,1,4,26,176,319.4893750090996,320.38419163619983,"[36, 0, 218]",218,l,0.37136405939236283,0,colour,0.5,3.9
88,24,0,1,4,27,177,320.8957047506847,321.5282165335957,"[2, 0, 252]",252,a,0.10912144293251913,1,colour,0.5,3.9
88,24,0,1,4,28,178,322.03647844615625,324.8161658975441,"[32, 0, 222]",222,a,2.256343979126541,1,colour,0.5,3.9
88,24,0,1,4,29,179,325.33361506478104,326.0481599299819,"[34, 0, 220]",220,a,0.1912628329882864,1,colour,0.5,3.9
88,24,0,1,4,30,180,326.5680993879214,327.3761993114749,"[52, 0, 202]",202,l,0.28497306680947077,1,colour,0.5,3.9
88,24,0,1,4,31,181,327.8962994587346,328.5681305017788,"[70, 0, 184]",184,l,0.14838320150738582,1,colour,0.5,3.9
88,24,0,1,4,32,182,329.0838995203376,329.75218870282697,"[16, 0, 238]",238,a,0.1450260549027007,1,colour,0.5,3.9
88,24,0,1,4,33,183,330.2715192742471,330.9522303717822,"[6, 0, 248]",248,a,0.15734675142448395,1,colour,0.5,3.9
88,24,0,1,4,34,184,331.45906144042965,332.08014931503567,"[7, 0, 247]",247,a,0.09768375002022367,1,colour,0.5,3.9
88,24,0,1,4,35,185,332.59984931437066,334.1041652799904,"[99, 0, 155]",155,l,0.9812611827655928,1,colour,0.5,3.9
88,24,0,1,4,36,186,334.61561656060803,335.9841630429437,"[38, 0, 216]",216,l,0.8452746901311912,0,colour,0.5,3.9
88,24,0,1,4,37,187,336.4906802160258,337.38413571000274,"[24, 0, 230]",230,a,0.36999032318999525,1,colour,0.5,3.9
88,24,0,1,4,38,188,337.8971296869131,338.55217263389204,"[23, 0, 231]",231,a,0.1315584777184995,1,colour,0.5,3.9
88,24,0,1,4,39,189,339.0691515485378,340.7202154654806,"[71, 0, 183]",183,l,1.1277740077930503,1,colour,0.5,3.9
88,24,0,1,4,40,190,341.2410639208683,343.76821628153266,"[29, 0, 225]",225,l,2.003685220639454,0,colour,0.5,3.9
88,24,0,1,4,41,191,344.28822072412004,344.89619863405824,"[47, 0, 207]",207,l,0.08457614842336625,0,colour,0.5,3.9
88,24,0,1,4,42,192,345.4133063364716,346.2241600339621,"[33, 0, 221]",221,l,0.2881844902585726,0,colour,0.5,3.9
88,24,0,1,4,43,193,346.741550911931,347.9282104683516,"[86, 0, 168]",168,l,0.6632203795015812,1,colour,0.5,3.9
88,24,0,1,4,44,194,348.4448349212471,349.0161583356967,"[9, 0, 245]",245,a,0.047918896001647227,1,colour,0.5,3.9
88,24,0,1,4,45,195,349.52303548438067,351.2481700912176,"[97, 0, 157]",157,l,1.2017505684198113,1,colour,0.5,3.9
88,24,0,1,4,46,196,351.7575402875227,352.9042736665142,"[80, 0, 174]",174,l,0.6232689958997071,1,colour,0.5,3.9
88,24,0,1,4,47,197,353.4139699676307,354.0401557898731,"[78, 0, 176]",176,l,0.10359341504226904,1,colour,0.5,3.9
88,24,0,1,4,48,198,354.55469364461896,355.2082159506972,"[10, 0, 244]",244,a,0.1300697383849183,1,colour,0.5,3.9
88,24,0,1,4,49,199,355.7266654877458,359.04018650989747,"[25, 0, 229]",229,l,2.7901361960248323,0,colour,0.5,3.9
88,24,0,1,4,50,200,359.55508946023474,360.3121752490406,"[66, 0, 188]",188,l,0.23358989800908603,1,colour,0.5,3.9
88,24,0,1,5,1,201,364.38278402920696,365.1201932525437,"[10, 0, 244]",244,a,0.21328790446568746,1,colour,0.5,3.9
88,24,0,1,5,2,202,365.6336870205123,366.39218908091425,"[25, 0, 229]",229,a,0.2356489269004669,1,colour,0.5,3.9
88,24,0,1,5,3,203,366.8993978482613,368.1601710238465,"[54, 0, 200]",200,l,0.7373867740825517,1,colour,0.5,3.9
88,24,0,1,5,4,204,368.6807650544797,369.43229445845645,"[81, 0, 173]",173,l,0.22808156243991107,1,colour,0.5,3.9
88,24,0,1,5,5,205,369.94666689772566,381.75219342898345,"[53, 0, 201]",201,a,11.28226300982351,0,colour,0.5,3.9
88,24,0,1,5,6,206,382.2600933967333,383.04017390680383,"[68, 0, 186]",186,l,0.2567460962891346,1,colour,0.5,3.9
88,24,0,1,5,7,207,383.5720862948947,384.2961523964914,"[31, 0, 223]",223,a,0.20012398283870425,1,colour,0.5,3.9
88,24,0,1,5,8,208,384.8070731660264,386.4641739603685,"[15, 0, 239]",239,a,1.133678552811034,1,colour,0.5,3.9
88,24,0,1,5,9,209,386.97916710154095,387.74422000888444,"[47, 0, 207]",207,a,0.24165153967624065,1,colour,0.5,3.9
88,24,0,1,5,10,210,388.2604844861926,389.0082416294754,"[11, 0, 243]",243,a,0.22433056944282725,1,colour,0.5,3.9
88,24,0,1,5,11,211,389.5262673878169,390.4242166690674,"[40, 0, 214]",214,a,0.3745743012841558,1,colour,0.5,3.9
88,24,0,1,5,12,212,390.932594766331,391.65617801225744,"[96, 0, 158]",158,l,0.20024961984017864,1,colour,0.5,3.9
88,24,0,1,5,13,213,392.1670999633352,393.14423402982356,"[97, 0, 157]",157,l,0.4538992958405288,1,colour,0.5,3.9
88,24,0,1,5,14,214,393.6514857264119,398.4642338250269,"[59, 0, 195]",195,a,4.289438497158699,0,colour,0.5,3.9
88,24,0,1,5,15,215,398.98010524362326,399.5682364464592,"[13, 0, 241]",241,a,0.06475543517444748,1,colour,0.5,3.9
88,24,0,1,5,16,216,400.09025501947326,400.7202186162467,"[2, 0, 252]",252,a,0.10714275868667755,1,colour,0.5,3.9
88,24,0,1,5,17,217,401.23028828373936,401.82421848076046,"[88, 0, 166]",166,l,0.07053158627240919,1,colour,0.5,3.9
88,24,0,1,5,18,218,402.3397748222633,403.08020287814725,"[38, 0, 216]",216,a,0.2169995128060691,1,colour,0.5,3.9
88,24,0,1,5,19,219,403.5898901207984,404.2402226649865,"[27, 0, 227]",227,a,0.12718993359885644,1,colour,0.5,3.9
88,24,0,1,5,20,220,404.7618233669782,405.3602249020332,"[35, 0, 219]",219,a,0.07495645043672994,1,colour,0.5,3.9
88,24,0,1,5,21,221,405.87128627471975,407.2082832984306,"[60, 0, 194]",194,l,0.8135196436778642,1,colour,0.5,3.9
88,24,0,1,5,22,222,407.7152305517666,408.4162857843912,"[87, 0, 167]",167,l,0.17762353878060821,1,colour,0.5,3.9
88,24,0,1,5,23,223,408.9339956779295,409.4881907130184,"[82, 0, 172]",172,l,0.030867316701915115,1,colour,0.5,3.9
88,24,0,1,5,24,224,409.9966385210864,410.63218646578025,"[16, 0, 238]",238,a,0.1122123493696563,1,colour,0.5,3.9
88,24,0,1,5,25,225,411.15295654574584,411.7361894810747,"[78, 0, 176]",176,l,0.05984850304957945,1,colour,0.5,3.9
88,24,0,1,5,26,226,412.2467557888449,414.04018375296437,"[3, 0, 251]",251,a,1.2700348672224209,1,colour,0.5,3.9
88,24,0,1,5,27,227,414.5595099920756,415.2242301386141,"[30, 0, 224]",224,a,0.14136879735451657,1,colour,0.5,3.9
88,24,0,1,5,28,228,415.73142748441023,416.47219936818874,"[36, 0, 218]",218,a,0.2173457037861226,1,colour,0.5,3.9
88,24,0,1,5,29,229,416.9816042229795,417.816177319095,"[63, 0, 191]",191,l,0.3112564054172253,1,colour,0.5,3.9
88,24,0,1,5,30,230,418.3253970660735,419.01619063109683,"[0, 0, 254]",254,a,0.16739259118912742,1,colour,0.5,3.9
88,24,0,1,5,31,231,419.52863755536964,421.7681981645874,"[56, 0, 198]",198,l,1.7161537276842864,1,colour,0.5,3.9
88,24,0,1,5,32,232,422.2788270939491,422.8721913337213,"[67, 0, 187]",187,l,0.06999162289139349,1,colour,0.5,3.9
88,24,0,1,5,33,233,423.38830733094073,424.05623850706615,"[4, 0, 250]",250,a,0.14451444844598882,1,colour,0.5,3.9
88,24,0,1,5,34,234,424.5758995156066,425.28818330870126,"[72, 0, 182]",182,l,0.18885643155954313,1,colour,0.5,3.9
88,24,0,1,5,35,235,425.7947359279642,426.4722269374324,"[39, 0, 215]",215,a,0.15406364793307148,1,colour,0.5,3.9
88,24,0,1,5,36,236,426.9823332326341,427.64028906749445,"[12, 0, 242]",242,a,0.13444537173199933,1,colour,0.5,3.9
88,24,0,1,5,37,237,428.1542672665237,428.8562354350579,"[92, 0, 162]",162,l,0.1784344684856478,1,colour,0.5,3.9
88,24,0,1,5,38,238,429.37320174662455,430.0403188422788,"[79, 0, 175]",175,l,0.14382285419560503,1,colour,0.5,3.9
88,24,0,1,5,39,239,430.5607584851241,432.56827976956265,"[42, 0, 212]",212,a,1.484196716817678,1,colour,0.5,3.9
88,24,0,1,5,40,240,433.0765853990888,433.6642455616384,"[49, 0, 205]",205,a,0.06428597027843352,1,colour,0.5,3.9
88,24,0,1,5,41,241,434.170431116072,435.9282368560671,"[95, 0, 159]",159,l,1.2344847169879358,1,colour,0.5,3.9
88,24,0,1,5,42,242,436.43626876235066,437.17626713182835,"[84, 0, 170]",170,l,0.2166300849057734,1,colour,0.5,3.9
88,24,0,1,5,43,243,437.68634507007664,438.8722397768288,"[61, 0, 193]",193,l,0.6624468652007636,1,colour,0.5,3.9
88,24,0,1,5,44,244,439.38961135632417,439.9602400257427,"[18, 0, 236]",236,a,0.04723911714972928,1,colour,0.5,3.9
88,24,0,1,5,45,245,440.4678032548254,441.26424493148807,"[64, 0, 190]",190,l,0.2735865739377914,1,colour,0.5,3.9
88,24,0,1,5,46,246,441.78031996867503,442.34425482491497,"[83, 0, 171]",171,l,0.04057090397691354,1,colour,0.5,3.9
88,24,0,1,5,47,247,442.8586272641696,443.4002708087646,"[93, 0, 161]",161,l,0.01833394313871395,1,colour,0.5,3.9
88,24,0,1,5,48,248,443.92112556571374,444.4802330467792,"[29, 0, 225]",225,a,0.03561355950660072,1,colour,0.5,3.9
88,24,0,1,5,49,249,444.99944191965915,445.5442515953764,"[85, 0, 169]",169,l,0.021411064968560822,1,colour,0.5,3.9
88,24,0,1,5,50,250,446.0619772427599,447.94424513628474,"[5, 0, 249]",249,a,1.35940727693378,1,colour,0.5,3.9
88,24,0,1,6,1,251,456.67148012592224,457.24045582204417,"[17, 0, 237]",237,a,0.045436482221703045,1,colour,0.5,3.9
88,24,0,1,6,2,252,457.75080000047456,458.51221376721514,"[30, 0, 224]",224,a,0.23815182069665752,1,colour,0.5,3.9
88,24,0,1,6,3,253,459.0319803265884,459.7042323914211,"[70, 0, 184]",184,l,0.14907282653439324,1,colour,0.5,3.9
88,24,0,1,6,4,254,460.2197485605866,461.84028386871796,"[47, 0, 207]",207,l,1.0971666297118645,0,colour,0.5,3.9
88,24,0,1,6,5,255,462.36052028682025,463.320286515358,"[53, 0, 201]",201,l,0.43636683009390254,1,colour,0.5,3.9
88,24,0,1,6,6,256,463.8293999238231,464.4402473985392,"[85, 0, 169]",169,l,0.08745477166667115,1,colour,0.5,3.9
88,24,0,1,6,7,257,464.95454737007094,466.36025798512856,"[56, 0, 198]",198,l,0.8823155489371857,1,colour,0.5,3.9
88,24,0,1,6,8,258,466.8764838654897,467.4562458326109,"[86, 0, 168]",168,l,0.056385805626632646,1,colour,0.5,3.9
88,24,0,1,6,9,259,467.9703335209342,468.67226191099326,"[98, 0, 156]",156,l,0.17886454873951152,1,colour,0.5,3.9
88,24,0,1,6,10,260,469.18922664716956,469.85623228429176,"[10, 0, 244]",244,a,0.1436412910115905,1,colour,0.5,3.9
88,24,0,1,6,11,261,470.37677432720375,471.6083414301538,"[65, 0, 189]",189,l,0.7086525294143939,1,colour,0.5,3.9
88,24,0,1,6,12,262,472.12694023498625,472.7443007473921,"[93, 0, 161]",161,l,0.09409305251028854,1,colour,0.5,3.9
88,24,0,1,6,13,263,473.2520514473581,474.04026646071,"[60, 0, 194]",194,a,0.26540835371997673,0,colour,0.5,3.9
88,24,0,1,6,14,264,474.5489887797012,476.12028659413045,"[22, 0, 232]",232,a,1.0483072285278467,1,colour,0.5,3.9
88,24,0,1,6,15,265,476.62731931213057,477.3522625096375,"[44, 0, 210]",210,a,0.20155915907525923,1,colour,0.5,3.9
88,24,0,1,6,16,266,477.8618564106873,478.44030568780727,"[37, 0, 217]",217,a,0.05513416179746855,1,colour,0.5,3.9
88,24,0,1,6,17,267,478.955593032224,479.5442606538418,"[15, 0, 239]",239,a,0.06521387238171883,1,colour,0.5,3.9
88,24,0,1,6,18,268,480.06508153998584,480.6482782414387,"[89, 0, 165]",165,l,0.05981541995424777,1,colour,0.5,3.9
88,24,0,1,6,19,269,481.1589083523286,481.8882744447619,"[78, 0, 176]",176,l,0.20604625095438678,1,colour,0.5,3.9
88,24,0,1,6,20,270,482.4090228631685,483.16825550862995,"[51, 0, 203]",203,a,0.23593170860840473,0,colour,0.5,3.9
88,24,0,1,6,21,271,483.6746891862713,484.328259935457,"[87, 0, 167]",167,l,0.13004610758798663,1,colour,0.5,3.9
88,24,0,1,6,22,272,484.8466929309652,485.50425098097185,"[0, 0, 254]",254,a,0.13414368539815769,1,colour,0.5,3.9
88,24,0,1,6,23,273,486.0187143987423,486.61624829021457,"[97, 0, 157]",157,l,0.07440191472414881,1,colour,0.5,3.9
88,24,0,1,6,24,274,487.12812413721986,492.77631809553714,"[62, 0, 192]",192,l,5.124638596709701,1,colour,0.5,3.9
88,24,0,1,6,25,275,493.2849707037385,494.0002898709354,"[50, 0, 204]",204,a,0.19213205196138006,1,colour,0.5,3.9
88,24,0,1,6,26,276,494.5194668422628,495.85630002587277,"[81, 0, 173]",173,l,0.8134231513104169,1,colour,0.5,3.9
88,24,0,1,6,27,277,496.3633784300473,499.1123017524951,"[18, 0, 236]",236,a,2.2255002932215575,1,colour,0.5,3.9
88,24,0,1,6,28,278,499.62922789172444,500.67223946175363,"[49, 0, 205]",205,a,0.519651162379887,1,colour,0.5,3.9
88,24,0,1,6,29,279,501.1918721133552,501.72031904707546,"[12, 0, 242]",242,a,0.004922292137052864,1,colour,0.5,3.9
88,24,0,1,6,30,280,502.23877527951845,503.7042930437601,"[25, 0, 229]",229,a,0.9420199042069726,1,colour,0.5,3.9
88,24,0,1,6,31,281,504.2234515043092,504.888340217105,"[76, 0, 178]",178,l,0.14157674825401045,1,colour,0.5,3.9
88,24,0,1,6,32,282,505.3953465474042,505.9442880655406,"[26, 0, 228]",228,a,0.02547477197367698,1,colour,0.5,3.9
88,24,0,1,6,33,283,506.4578078273771,507.53623879063525,"[57, 0, 197]",197,l,0.5551493248931365,1,colour,0.5,3.9
88,24,0,1,6,34,284,508.0518549967819,508.77625704935053,"[40, 0, 214]",214,a,0.2013283650885569,1,colour,0.5,3.9
88,24,0,1,6,35,285,509.28628221219697,509.8563118412567,"[41, 0, 213]",213,a,0.04666528294910677,1,colour,0.5,3.9
88,24,0,1,6,36,286,510.36455130459217,512.9922829738935,"[80, 0, 174]",174,l,2.104379138589138,1,colour,0.5,3.9
88,24,0,1,6,37,287,513.5053580831591,514.0562444147654,"[82, 0, 172]",172,l,0.027505837788339704,1,colour,0.5,3.9
88,24,0,1,6,38,288,514.5679501201375,515.9842839537887,"[13, 0, 241]",241,a,0.8931081214686856,1,colour,0.5,3.9
88,24,0,1,6,39,289,516.505635744863,517.1524059484946,"[64, 0, 190]",190,l,0.12331054669630248,1,colour,0.5,3.9
88,24,0,1,6,40,290,517.6618931171688,518.1922836828162,"[14, 0, 240]",240,a,0.006994711817242205,1,colour,0.5,3.9
88,24,0,1,6,41,291,518.724556046509,519.3043018659228,"[48, 0, 206]",206,a,0.05633539328118786,1,colour,0.5,3.9
88,24,0,1,6,42,292,519.8183206311223,521.0802836166549,"[24, 0, 230]",230,a,0.7387589348945767,1,colour,0.5,3.9
88,24,0,1,6,43,293,521.5996736588859,522.3122359013796,"[7, 0, 247]",247,a,0.1890781670808792,1,colour,0.5,3.9
88,24,0,1,6,44,294,522.8185557574179,523.5282567059185,"[31, 0, 223]",223,a,0.18643467013316695,1,colour,0.5,3.9
88,24,0,1,6,45,295,524.0374465205823,524.8723114568711,"[46, 0, 208]",208,a,0.31150728557258844,1,colour,0.5,3.9
88,24,0,1,6,46,296,525.3812763852475,525.9683438089851,"[73, 0, 181]",181,l,0.06365463451948017,1,colour,0.5,3.9
88,24,0,1,6,47,297,526.4752292284393,527.1682523578493,"[66, 0, 188]",188,l,0.169802143384004,1,colour,0.5,3.9
88,24,0,1,6,48,298,527.6783358099638,528.264360722329,"[71, 0, 183]",183,l,0.06255540926940739,1,colour,0.5,3.9
88,24,0,1,6,49,299,528.7722528131417,529.3762792622874,"[23, 0, 231]",231,a,0.08064831841329578,1,colour,0.5,3.9
88,24,0,1,6,50,300,529.8973136131826,530.496271259326,"[20, 0, 234]",234,a,0.07554997692932375,1,colour,0.5,3.9
88,24,0,1,7,1,301,535.3657056683442,535.9442994870915,"[22, 0, 232]",232,a,0.05437403827090748,1,colour,0.5,3.9
88,24,0,1,7,2,302,536.4603599519614,537.3522955927328,"[42, 0, 212]",212,a,0.3685575100389542,1,colour,0.5,3.9
88,24,0,1,7,3,303,537.866731047412,538.5203112489253,"[90, 0, 164]",164,l,0.13025720926816575,1,colour,0.5,3.9
88,24,0,1,7,4,304,539.0386717766814,539.7763488155615,"[68, 0, 186]",186,l,0.2143260835437104,1,colour,0.5,3.9
88,24,0,1,7,5,305,540.2887815613649,541.008355844926,"[20, 0, 234]",234,a,0.19617134050349705,1,colour,0.5,3.9
88,24,0,1,7,6,306,541.5232442229608,542.2803453717643,"[74, 0, 180]",180,l,0.23357493182993494,1,colour,0.5,3.9
88,24,0,1,7,7,307,542.7889089706732,543.4163472244254,"[92, 0, 162]",162,l,0.10398804912983906,1,colour,0.5,3.9
88,24,0,1,7,8,308,543.9296432815026,544.5762693373545,"[8, 0, 246]",246,a,0.12324438049108721,1,colour,0.5,3.9
88,24,0,1,7,9,309,545.0859904507961,545.8242870100366,"[36, 0, 218]",218,a,0.21488889002648648,1,colour,0.5,3.9
88,24,0,1,7,10,310,546.3360596692946,547.0083349710767,"[47, 0, 207]",207,a,0.14880973714753054,1,colour,0.5,3.9
88,24,0,1,7,11,311,547.5237609494216,548.1602824823785,"[97, 0, 157]",157,l,0.11311307604773901,1,colour,0.5,3.9
88,24,0,1,7,12,312,548.6800340755872,549.2163185524114,"[93, 0, 161]",161,l,0.01284529990516603,1,colour,0.5,3.9
88,24,0,1,7,13,313,549.7269967125612,550.3682692144794,"[19, 0, 235]",235,a,0.11786010654759593,1,colour,0.5,3.9
88,24,0,1,7,14,314,550.88335294032,551.8642620244209,"[56, 0, 198]",198,a,0.45751913798449095,0,colour,0.5,3.9
88,24,0,1,7,15,315,552.3834771988477,553.0562924640253,"[54, 0, 200]",200,a,0.1494635221461067,0,colour,0.5,3.9
88,24,0,1,7,16,316,553.5711020727758,554.2883451795788,"[23, 0, 231]",231,a,0.1938799422350712,1,colour,0.5,3.9
88,24,0,1,7,17,317,554.8055127466359,555.4963126132061,"[3, 0, 251]",251,a,0.16737014196405653,1,colour,0.5,3.9
88,24,0,1,7,18,318,556.0087784421048,556.6643133032194,"[71, 0, 183]",183,l,0.1322248658107128,1,colour,0.5,3.9
88,24,0,1,7,19,319,557.1807258667686,557.7523257613648,"[88, 0, 166]",166,l,0.04819261922966689,1,colour,0.5,3.9
88,24,0,1,7,20,320,558.2589106760279,558.8722976722493,"[10, 0, 244]",244,a,0.08997420700325165,1,colour,0.5,3.9
88,24,0,1,7,21,321,559.3840124360868,560.6162880686898,"[65, 0, 189]",189,l,0.7089396434312221,1,colour,0.5,3.9
88,24,0,1,7,22,322,561.1340865776729,561.8002990081732,"[34, 0, 220]",220,a,0.14317379535350483,1,colour,0.5,3.9
88,24,0,1,7,23,323,562.3217764362489,563.232319349554,"[60, 0, 194]",194,l,0.38717541642836295,1,colour,0.5,3.9
88,24,0,1,7,24,324,563.7436993439624,564.5042864271381,"[57, 0, 197]",197,l,0.23721486012800597,1,colour,0.5,3.9
88,24,0,1,7,25,325,565.0250482363335,565.5683010372741,"[86, 0, 168]",168,l,0.01977069476561155,1,colour,0.5,3.9
88,24,0,1,7,26,326,566.0877025010413,566.6963290759741,"[6, 0, 248]",248,a,0.08522520726546645,1,colour,0.5,3.9
88,24,0,1,7,27,327,567.2126865010359,567.912323492812,"[28, 0, 226]",226,a,0.17616945791814942,1,colour,0.5,3.9
88,24,0,1,7,28,328,568.4316158611327,569.7043517268758,"[37, 0, 217]",217,l,0.7493541903822916,0,colour,0.5,3.9
88,24,0,1,7,29,329,570.2129826735181,570.8563197181938,"[78, 0, 176]",176,l,0.11991401546401903,1,colour,0.5,3.9
88,24,0,1,7,30,330,571.3693290551018,571.9763168352365,"[81, 0, 173]",173,l,0.08348361855314579,1,colour,0.5,3.9
88,24,0,1,7,31,331,572.4944579905714,573.0882771229226,"[69, 0, 185]",185,l,0.0704217031452572,1,colour,0.5,3.9
88,24,0,1,7,32,332,573.6038610336545,574.1603198977828,"[96, 0, 158]",158,l,0.03325678272813093,1,colour,0.5,3.9
88,24,0,1,7,33,333,574.6665046645212,576.056349177903,"[2, 0, 252]",252,a,0.8650721664453158,1,colour,0.5,3.9
88,24,0,1,7,34,334,576.5743690285453,577.1602958731528,"[99, 0, 155]",155,l,0.062457341511617415,1,colour,0.5,3.9
88,24,0,1,7,35,335,577.668408517944,578.2563282252668,"[95, 0, 159]",159,l,0.0649153367994586,1,colour,0.5,3.9
88,24,0,1,7,36,336,578.7621179640846,580.4883348607982,"[48, 0, 206]",206,l,1.2028525506029837,0,colour,0.5,3.9
88,24,0,1,7,37,337,580.9967275303643,583.4403655524511,"[82, 0, 172]",172,l,1.9202591036591912,1,colour,0.5,3.9
88,24,0,1,7,38,338,583.9500043519947,584.5682919788087,"[67, 0, 187]",187,l,0.09482600064075086,1,colour,0.5,3.9
88,24,0,1,7,39,339,585.0750820874237,585.6567266402708,"[7, 0, 247]",247,a,0.058206557456287555,1,colour,0.5,3.9
88,24,0,1,7,40,340,586.1689975152258,588.0883484091173,"[30, 0, 224]",224,a,1.3961622032802552,1,colour,0.5,3.9
88,24,0,1,7,41,341,588.6066604937805,589.1443100421748,"[85, 0, 169]",169,l,0.014532931658322923,1,colour,0.5,3.9
88,24,0,1,7,42,342,589.6536361276812,591.440338377055,"[13, 0, 241]",241,a,1.263371380206081,1,colour,0.5,3.9
88,24,0,1,7,43,343,591.9507223339606,592.488328953099,"[25, 0, 229]",229,a,0.01443131928681396,1,colour,0.5,3.9
88,24,0,1,7,44,344,592.9976440109167,593.5282897890138,"[84, 0, 170]",170,l,0.007289702771231532,1,colour,0.5,3.9
88,24,0,1,7,45,345,594.0463513873838,595.43233108618,"[4, 0, 250]",250,a,0.8626527680899017,1,colour,0.5,3.9
88,24,0,1,7,46,346,595.9526860520418,596.528327204418,"[9, 0, 245]",245,a,0.052107058465480804,1,colour,0.5,3.9
88,24,0,1,7,47,347,597.0472001263406,597.7682922938839,"[64, 0, 190]",190,l,0.1982386401941767,1,colour,0.5,3.9
88,24,0,1,7,48,348,598.2809648921393,598.8963278156734,"[16, 0, 238]",238,a,0.09189775274717249,1,colour,0.5,3.9
88,24,0,1,7,49,349,599.4060764983587,600.1683866594685,"[49, 0, 205]",205,l,0.23886231957294513,0,colour,0.5,3.9
88,24,0,1,7,50,350,600.6874502030405,601.2403305789048,"[29, 0, 225]",225,a,0.029450651243678294,1,colour,0.5,3.9
88,24,0,1,8,1,351,611.7656881815783,612.896323089517,"[42, 0, 212]",212,a,0.6064726290496765,1,colour,0.5,3.9
88,24,0,1,8,2,352,613.4072600067448,614.0803170935978,"[22, 0, 232]",232,a,0.149699042289285,1,colour,0.5,3.9
88,24,0,1,8,3,353,614.5948210775532,615.2964465997502,"[55, 0, 199]",199,l,0.1782320314523531,1,colour,0.5,3.9
88,24,0,1,8,4,354,615.8137193237926,616.4643752158736,"[73, 0, 181]",181,l,0.12734510908194352,1,colour,0.5,3.9
88,24,0,1,8,5,355,616.985541111455,617.5603351002501,"[80, 0, 174]",174,l,0.05147572270652745,1,colour,0.5,3.9
88,24,0,1,8,6,356,618.0794628407893,618.6883702282066,"[57, 0, 197]",197,l,0.08549459819914773,1,colour,0.5,3.9
88,24,0,1,8,7,357,619.2045697208523,619.8003238204983,"[61, 0, 193]",193,l,0.07247206743340939,1,colour,0.5,3.9
88,24,0,1,8,8,358,620.3140538963053,621.0804486382985,"[51, 0, 203]",203,a,0.24295595892181154,0,colour,0.5,3.9
88,24,0,1,8,9,359,621.5954197240644,622.2323752757366,"[32, 0, 222]",222,a,0.1135616670944728,1,colour,0.5,3.9
88,24,0,1,8,10,360,622.7517109671608,623.424354909148,"[47, 0, 207]",207,a,0.14941822980472352,1,colour,0.5,3.9
88,24,0,1,8,11,361,623.9393275703042,624.744348796652,"[58, 0, 196]",196,l,0.2815808678860776,1,colour,0.5,3.9
88,24,0,1,8,12,362,625.2519498350011,630.4404222663434,"[52, 0, 202]",202,l,4.665338091523154,1,colour,0.5,3.9
88,24,0,1,8,13,363,630.9554992967896,631.5763528327952,"[29, 0, 225]",225,a,0.0973718236782588,1,colour,0.5,3.9
88,24,0,1,8,14,364,632.0962434537796,632.7123716208444,"[18, 0, 236]",236,a,0.09274137171451002,1,colour,0.5,3.9
88,24,0,1,8,15,365,633.2212770784099,633.9443762871379,"[45, 0, 209]",209,a,0.1996848441194743,1,colour,0.5,3.9
88,24,0,1,8,16,366,634.4566841836349,635.0404121838656,"[5, 0, 249]",249,a,0.06017539554159157,1,colour,0.5,3.9
88,24,0,1,8,17,367,635.5505495929392,637.2963205689011,"[95, 0, 159]",159,l,1.2224007221520878,1,colour,0.5,3.9
88,24,0,1,8,18,368,637.8164006299921,639.8563417735859,"[27, 0, 227]",227,a,1.5164999974367674,1,colour,0.5,3.9
88,24,0,1,8,19,369,640.3634544424131,640.960316825789,"[14, 0, 240]",240,a,0.07342281260935124,1,colour,0.5,3.9
88,24,0,1,8,20,370,641.4729185316828,642.0003465848131,"[84, 0, 170]",170,l,0.003987694653915241,1,colour,0.5,3.9
88,24,0,1,8,21,371,642.5198918025126,643.0644049118855,"[26, 0, 228]",228,a,0.021140886325156316,1,colour,0.5,3.9
88,24,0,1,8,22,372,643.582478719487,645.2883672349708,"[4, 0, 250]",250,a,1.1824457939364947,1,colour,0.5,3.9
88,24,0,1,8,23,373,645.8014399811509,646.4243222199002,"[77, 0, 177]",177,l,0.09960296345525421,1,colour,0.5,3.9
88,24,0,1,8,24,374,646.9420967042533,647.4963232470618,"[91, 0, 163]",163,l,0.030707415076904,1,colour,0.5,3.9
88,24,0,1,8,25,375,648.0047655412782,649.4163562828908,"[35, 0, 219]",219,a,0.8882842909224564,1,colour,0.5,3.9
88,24,0,1,8,26,376,649.9267059751583,650.5443914108328,"[54, 0, 200]",200,a,0.09423562489973847,0,colour,0.5,3.9
88,24,0,1,8,27,377,651.0518711444893,651.6323845705192,"[17, 0, 237]",237,a,0.05738144929637201,1,colour,0.5,3.9
88,24,0,1,8,28,378,652.1458952738758,652.6803676634736,"[19, 0, 235]",235,a,0.011636585331871174,1,colour,0.5,3.9
88,24,0,1,8,29,379,653.1926472030318,654.2644390977512,"[53, 0, 201]",201,l,0.5484649640129646,1,colour,0.5,3.9
88,24,0,1,8,30,380,654.7708121230535,655.3283981755376,"[69, 0, 185]",185,l,0.034077952441293746,1,colour,0.5,3.9
88,24,0,1,8,31,381,655.8490438000445,656.4163893659861,"[59, 0, 195]",195,l,0.043895755166886374,1,colour,0.5,3.9
88,24,0,1,8,32,382,656.9273089539784,658.1364591083111,"[74, 0, 180]",180,l,0.6857338205009,1,colour,0.5,3.9
88,24,0,1,8,33,383,658.6463204310567,660.3843416916643,"[11, 0, 243]",243,a,1.2150637578160968,1,colour,0.5,3.9
88,24,0,1,8,34,384,660.8963821664802,662.6963259252079,"[48, 0, 206]",206,l,1.276599892633385,0,colour,0.5,3.9
88,24,0,1,8,35,385,663.2090682342823,664.3283749386028,"[89, 0, 165]",165,l,0.5963255707465578,1,colour,0.5,3.9
88,24,0,1,8,36,386,664.8341772804997,667.0483584285685,"[40, 0, 214]",214,a,1.6908286173566012,1,colour,0.5,3.9
88,24,0,1,8,37,387,667.5688165821921,669.5524164248054,"[6, 0, 248]",248,a,1.4604627458757022,1,colour,0.5,3.9
88,24,0,1,8,38,388,670.0690117330669,671.5683774434729,"[76, 0, 178]",178,l,0.9761604782252107,1,colour,0.5,3.9
88,24,0,1,8,39,389,672.0847711023816,673.0164572650974,"[82, 0, 172]",172,l,0.4083879827958299,1,colour,0.5,3.9
88,24,0,1,8,40,390,673.5224013916886,674.1363669482525,"[15, 0, 239]",239,a,0.09058900120726321,1,colour,0.5,3.9
88,24,0,1,8,41,391,674.6474271393963,675.3043652751949,"[60, 0, 194]",194,l,0.1334737527067773,1,colour,0.5,3.9
88,24,0,1,8,42,392,675.8194690871896,676.4003972334613,"[83, 0, 171]",171,l,0.057671714064781554,1,colour,0.5,3.9
88,24,0,1,8,43,393,676.9133360718697,677.7363852227281,"[41, 0, 213]",213,l,0.29978956788545474,0,colour,0.5,3.9
88,24,0,1,8,44,394,678.2572348596586,678.8643746644811,"[38, 0, 216]",216,a,0.08373213560844306,1,colour,0.5,3.9
88,24,0,1,8,45,395,679.3822287057992,680.0243936636398,"[33, 0, 221]",221,a,0.11876910401042551,1,colour,0.5,3.9
88,24,0,1,8,46,396,680.5385581520095,681.6963692483114,"[71, 0, 183]",183,l,0.6343900363135617,1,colour,0.5,3.9
88,24,0,1,8,47,397,682.2105762720894,683.7363860104088,"[24, 0, 230]",230,a,1.0024201860360336,1,colour,0.5,3.9
88,24,0,1,8,48,398,684.2577055060829,684.8804337508918,"[92, 0, 162]",162,l,0.09945920952304732,1,colour,0.5,3.9
88,24,0,1,8,49,399,685.3983181183867,686.0003497355938,"[43, 0, 211]",211,a,0.07865309262706432,1,colour,0.5,3.9
88,24,0,1,8,50,400,686.5079035123636,687.7925181789615,"[93, 0, 161]",161,l,0.7613298774667783,1,colour,0.5,3.9
88,24,0,1,9,1,401,698.4611015647097,699.0804049213475,"[24, 0, 230]",230,a,0.09506861001136713,1,colour,0.5,3.9
88,24,0,1,9,2,402,699.5869736883033,700.2324048142182,"[1, 0, 253]",253,a,0.12200021976605058,1,colour,0.5,3.9
88,24,0,1,9,3,403,700.7432795037166,701.4164370213985,"[43, 0, 211]",211,l,0.1497526053863112,0,colour,0.5,3.9
88,24,0,1,9,4,404,701.9309697561403,702.6803751465632,"[22, 0, 232]",232,a,0.2260827920254087,1,colour,0.5,3.9
88,24,0,1,9,5,405,703.1965773961274,703.8644400429912,"[91, 0, 163]",163,l,0.14442622686328832,1,colour,0.5,3.9
88,24,0,1,9,6,406,704.3841817900393,705.0324115883705,"[20, 0, 234]",234,a,0.12479140910727438,1,colour,0.5,3.9
88,24,0,1,9,7,407,705.5406140301493,707.4003818734491,"[47, 0, 207]",207,l,1.3363853802584345,0,colour,0.5,3.9
88,24,0,1,9,8,408,707.9156948178861,708.4883978762227,"[2, 0, 252]",252,a,0.04923946294002235,1,colour,0.5,3.9
88,24,0,1,9,9,409,709.0096515995392,709.9763924537401,"[46, 0, 208]",208,l,0.4434600035165204,0,colour,0.5,3.9
88,24,0,1,9,10,410,710.494124402685,711.2484008852043,"[60, 0, 194]",194,l,0.23087393330933992,1,colour,0.5,3.9
88,24,0,1,9,11,411,711.7598454704275,712.5043907964427,"[37, 0, 217]",217,a,0.2211262352502672,1,colour,0.5,3.9
88,24,0,1,9,12,412,713.025546452016,713.648410179987,"[12, 0, 242]",242,a,0.09935523408057634,1,colour,0.5,3.9
88,24,0,1,9,13,413,714.1662275935814,714.7683840600803,"[36, 0, 218]",218,a,0.07865584953106008,1,colour,0.5,3.9
88,24,0,1,9,14,414,715.2756991659408,716.2803910579532,"[64, 0, 190]",190,l,0.4812763458612608,1,colour,0.5,3.9
88,24,0,1,9,15,415,716.7914083198411,717.4803567145427,"[49, 0, 205]",205,a,0.16545959313225467,1,colour,0.5,3.9
88,24,0,1,9,16,416,717.9947594799742,718.5604000849125,"[75, 0, 179]",179,l,0.04231052346585784,1,colour,0.5,3.9
88,24,0,1,9,17,417,719.0729045107582,720.7924472866143,"[18, 0, 236]",236,a,1.1961181712540565,1,colour,0.5,3.9
88,24,0,1,9,18,418,721.3075191970565,721.9364048362768,"[32, 0, 222]",222,a,0.10557249313569628,1,colour,0.5,3.9
88,24,0,1,9,19,419,722.4481948247703,723.0724074766185,"[28, 0, 226]",226,a,0.10084515495691448,1,colour,0.5,3.9
88,24,0,1,9,20,420,723.5889311048377,724.2003748629795,"[16, 0, 238]",238,a,0.08803136277128942,1,colour,0.5,3.9
88,24,0,1,9,21,421,724.7139911171835,725.4324244277668,"[38, 0, 216]",216,a,0.1949705028819153,1,colour,0.5,3.9
88,24,0,1,9,22,422,725.9484238464502,726.5204010458983,"[93, 0, 161]",161,l,0.04851045327086467,1,colour,0.5,3.9
88,24,0,1,9,23,423,727.0266279541829,728.3444107880787,"[58, 0, 196]",196,l,0.7942960015498102,1,colour,0.5,3.9
88,24,0,1,9,24,424,728.854904628126,729.5204136489774,"[51, 0, 203]",203,a,0.1420765393122565,0,colour,0.5,3.9
88,24,0,1,9,25,425,730.0269205820514,730.6723725818301,"[11, 0, 243]",243,a,0.12201164131693076,1,colour,0.5,3.9
88,24,0,1,9,26,426,731.1832559359464,731.8884166233038,"[61, 0, 193]",193,l,0.18235560311586596,1,colour,0.5,3.9
88,24,0,1,9,27,427,732.402358194624,733.0003899079165,"[63, 0, 191]",191,l,0.07515652439906262,1,colour,0.5,3.9
88,24,0,1,9,28,428,733.5115335945011,734.1364374467521,"[27, 0, 227]",227,a,0.1015044538071379,1,colour,0.5,3.9
88,24,0,1,9,29,429,734.652349825381,735.2564077822462,"[50, 0, 204]",204,l,0.08084918007079978,0,colour,0.5,3.9
88,24,0,1,9,30,430,735.7774295300478,737.3364728141605,"[25, 0, 229]",229,a,1.0356623964617029,1,colour,0.5,3.9
88,24,0,1,9,31,431,737.8557017732091,738.5925395254308,"[67, 0, 187]",187,l,0.21337809528631624,1,colour,0.5,3.9
88,24,0,1,9,32,432,739.1058619702235,739.8724134630902,"[99, 0, 155]",155,l,0.2434911961609032,1,colour,0.5,3.9
88,24,0,1,9,33,433,740.3871990471962,741.1204378311522,"[74, 0, 180]",180,l,0.2097996070224326,1,colour,0.5,3.9
88,24,0,1,9,34,434,741.6373446719081,742.5924260976753,"[57, 0, 197]",197,l,0.43173401505919173,1,colour,0.5,3.9
88,24,0,1,9,35,435,743.1061423888605,743.7364053088822,"[85, 0, 169]",169,l,0.10684658618993126,1,colour,0.5,3.9
88,24,0,1,9,36,436,744.2469054504763,744.9604129242944,"[97, 0, 157]",157,l,0.19011831538227852,1,colour,0.5,3.9
88,24,0,1,9,37,437,745.4813681120722,746.1604565624875,"[41, 0, 213]",213,a,0.15568511352466885,1,colour,0.5,3.9
88,24,0,1,9,38,438,746.6689654167421,747.2883798380499,"[7, 0, 247]",247,a,0.09684918951825239,1,colour,0.5,3.9
88,24,0,1,9,39,439,747.8096374998422,748.3364180695062,"[14, 0, 240]",240,a,0.00364150368841365,1,colour,0.5,3.9
88,24,0,1,9,40,440,748.8565863521944,749.4564293650183,"[56, 0, 198]",198,l,0.07645818669698201,1,colour,0.5,3.9
88,24,0,1,9,41,441,749.9660130260745,750.5044345133792,"[80, 0, 174]",174,l,0.015014605785836466,1,colour,0.5,3.9
88,24,0,1,9,42,442,751.0130469492433,751.5444225247047,"[73, 0, 181]",181,l,0.007972238556249067,1,colour,0.5,3.9
88,24,0,1,9,43,443,752.0756563154573,752.6484353861451,"[79, 0, 175]",175,l,0.04938400455284864,1,colour,0.5,3.9
88,24,0,1,9,44,444,753.1693830908334,754.3604178867681,"[78, 0, 176]",176,l,0.6677913606690709,1,colour,0.5,3.9
88,24,0,1,9,45,445,754.8726840355521,756.0884610491776,"[81, 0, 173]",173,l,0.6923335043975385,1,colour,0.5,3.9
88,24,0,1,9,46,446,756.6073355464905,757.3524015374132,"[45, 0, 209]",209,a,0.2217008571315091,1,colour,0.5,3.9
88,24,0,1,9,47,447,757.8728510264191,758.4644366559078,"[94, 0, 160]",160,l,0.06812557870580349,1,colour,0.5,3.9
88,24,0,1,9,48,448,758.9823982172966,759.7123893439275,"[90, 0, 164]",164,l,0.20661969129287172,1,colour,0.5,3.9
88,24,0,1,9,49,449,760.232580469703,760.8804514739895,"[15, 0, 239]",239,a,0.12447908893227577,1,colour,0.5,3.9
88,24,0,1,9,50,450,761.3888110604603,762.0164257573924,"[62, 0, 192]",192,l,0.1041424369032029,1,colour,0.5,3.9
88,24,0,1,10,1,451,768.0448465003428,768.664442090987,"[48, 0, 206]",206,a,0.09542425328982063,1,colour,0.5,3.9
88,24,0,1,10,2,452,769.1707477685559,769.8084055483487,"[3, 0, 251]",251,a,0.11429225213942118,1,colour,0.5,3.9
88,24,0,1,10,3,453,770.3270878486073,771.2164174078498,"[40, 0, 214]",214,a,0.3659222838759888,1,colour,0.5,3.9
88,24,0,1,10,4,454,771.7333963224955,772.5044160026009,"[46, 0, 208]",208,a,0.24754820777161513,1,colour,0.5,3.9
88,24,0,1,10,5,455,773.0148625810834,773.6404324275791,"[76, 0, 178]",178,l,0.10226536502887029,1,colour,0.5,3.9
88,24,0,1,10,6,456,774.1555177287955,774.6964578637562,"[29, 0, 225]",225,a,0.017523407281260006,1,colour,0.5,3.9
88,24,0,1,10,7,457,775.2180845596013,775.8324987071974,"[74, 0, 180]",180,l,0.09113447845447809,1,colour,0.5,3.9
88,24,0,1,10,8,458,776.3432406704669,777.080448244451,"[93, 0, 161]",161,l,0.21384559095895384,1,colour,0.5,3.9
88,24,0,1,10,9,459,777.59324451047,778.2964658982091,"[41, 0, 213]",213,a,0.1798141123726964,1,colour,0.5,3.9
88,24,0,1,10,10,460,778.8121037659148,779.3844484240399,"[22, 0, 232]",232,a,0.04897125354909804,1,colour,0.5,3.9
88,24,0,1,10,11,461,779.9060321906436,780.5444296139322,"[62, 0, 192]",192,l,0.1152095203724457,1,colour,0.5,3.9
88,24,0,1,10,12,462,781.0623856614693,781.6724355972547,"[17, 0, 237]",237,a,0.08670291892485693,1,colour,0.5,3.9
88,24,0,1,10,13,463,782.1874267691892,782.9044355373917,"[87, 0, 167]",167,l,0.19397761614527553,1,colour,0.5,3.9
88,24,0,1,10,14,464,783.4219721385161,789.9764617707115,"[26, 0, 228]",228,l,6.031199329212541,0,colour,0.5,3.9
88,24,0,1,10,15,465,790.4850352157664,791.0804340659815,"[50, 0, 204]",204,a,0.07210185183794238,1,colour,0.5,3.9
88,24,0,1,10,16,466,791.5944591327279,792.9364717901626,"[71, 0, 183]",183,l,0.8185849020665046,1,colour,0.5,3.9
88,24,0,1,10,17,467,793.4539678251022,794.0884559291735,"[65, 0, 189]",189,l,0.11108358562341891,1,colour,0.5,3.9
88,24,0,1,10,18,468,794.5947072559502,795.2084294154338,"[98, 0, 156]",156,l,0.09024989946919959,1,colour,0.5,3.9
88,24,0,1,10,19,469,795.7198720314336,796.3044672813994,"[80, 0, 174]",174,l,0.06132779007020872,1,colour,0.5,3.9
88,24,0,1,10,20,470,796.8136468560551,797.4324141877587,"[79, 0, 175]",175,l,0.09537699172506109,1,colour,0.5,3.9
88,24,0,1,10,21,471,797.9386946591694,798.5844310160319,"[70, 0, 184]",184,l,0.12233853380894288,1,colour,0.5,3.9
88,24,0,1,10,22,472,799.0950658530783,799.6484838292527,"[35, 0, 219]",219,a,0.03001779003534466,1,colour,0.5,3.9
88,24,0,1,10,23,473,800.1577094839304,800.7204494102334,"[75, 0, 179]",179,l,0.03936258325120434,1,colour,0.5,3.9
88,24,0,1,10,24,474,801.2357855916052,801.8404016287823,"[13, 0, 241]",241,a,0.08141986347618513,1,colour,0.5,3.9
88,24,0,1,10,25,475,802.3610019609623,803.512491428919,"[42, 0, 212]",212,a,0.6280810110620223,1,colour,0.5,3.9
88,24,0,1,10,26,476,804.0329413117579,804.6244339935074,"[10, 0, 244]",244,a,0.06795858783880249,1,colour,0.5,3.9
88,24,0,1,10,27,477,805.1424306072149,805.8484120704379,"[45, 0, 209]",209,a,0.18286130187334493,1,colour,0.5,3.9
88,24,0,1,10,28,478,806.3612587488024,807.0004320494772,"[16, 0, 238]",238,a,0.11574633298732806,1,colour,0.5,3.9
88,24,0,1,10,29,479,807.5176445150282,808.200423306087,"[66, 0, 188]",188,l,0.1594554049661383,1,colour,0.5,3.9
88,24,0,1,10,30,480,808.7206589365087,809.3364094048884,"[12, 0, 242]",242,a,0.09217344522767235,1,colour,0.5,3.9
88,24,0,1,10,31,481,809.8458949981868,810.6244328119647,"[61, 0, 193]",193,l,0.2551250245596748,1,colour,0.5,3.9
88,24,0,1,10,32,482,811.1429284290498,811.6964507745142,"[53, 0, 201]",201,a,0.03039548872038722,0,colour,0.5,3.9
88,24,0,1,10,33,483,812.2055078629492,813.2884463980881,"[1, 0, 253]",253,a,0.5595970321301138,1,colour,0.5,3.9
88,24,0,1,10,34,484,813.7994628722954,814.4324886247341,"[19, 0, 235]",235,a,0.10968740019598044,1,colour,0.5,3.9
88,24,0,1,10,35,485,814.9400487030362,815.6724190556997,"[55, 0, 199]",199,l,0.20885870800702833,1,colour,0.5,3.9
88,24,0,1,10,36,486,816.190165183114,816.8404803980666,"[63, 0, 191]",191,l,0.12681144723319449,1,colour,0.5,3.9
88,24,0,1,10,37,487,817.3621535677958,818.0004470156418,"[91, 0, 163]",163,l,0.11478968011215329,1,colour,0.5,3.9
88,24,0,1,10,38,488,818.5185330324894,819.1604199347639,"[67, 0, 187]",187,l,0.11864031624281779,1,colour,0.5,3.9
88,24,0,1,10,39,489,819.6748518448294,820.3204133339023,"[5, 0, 249]",249,a,0.12211364752147347,1,colour,0.5,3.9
88,24,0,1,10,40,490,820.8312565156957,821.4005063289078,"[31, 0, 223]",223,a,0.04592839635733981,1,colour,0.5,3.9
88,24,0,1,10,41,491,821.9093389249028,822.5124784319778,"[88, 0, 166]",166,l,0.07974995480617508,1,colour,0.5,3.9
88,24,0,1,10,42,492,823.0188443680527,823.6645519741287,"[85, 0, 169]",169,l,0.12260595550469588,1,colour,0.5,3.9
88,24,0,1,10,43,493,824.1751749957912,824.8405150565522,"[37, 0, 217]",217,a,0.14186819457972888,1,colour,0.5,3.9
88,24,0,1,10,44,494,825.3471251773735,826.0245752268238,"[14, 0, 240]",240,a,0.15440826352278236,1,colour,0.5,3.9
88,24,0,1,10,45,495,826.5346736450883,827.1684311641147,"[36, 0, 218]",218,a,0.11036836059065536,1,colour,0.5,3.9
88,24,0,1,10,46,496,827.6753662082192,828.856434327492,"[52, 0, 202]",202,l,0.6574800684174988,1,colour,0.5,3.9
88,24,0,1,10,47,497,829.3631232175976,830.0725098766852,"[43, 0, 211]",211,l,0.1859947437333176,0,colour,0.5,3.9
88,24,0,1,10,48,498,830.5819029160775,831.3204251492862,"[89, 0, 165]",165,l,0.2150712408911204,1,colour,0.5,3.9
88,24,0,1,10,49,499,831.8320477530797,832.8404524349753,"[51, 0, 203]",203,l,0.48503364039061125,1,colour,0.5,3.9
88,24,0,1,10,50,500,833.3478088947013,834.0564960826014,"[25, 0, 229]",229,a,0.185223592503462,1,colour,0.5,3.9
88,24,0,1,11,1,501,842.7039720589528,843.3044861860253,"[82, 0, 172]",172,l,0.07642116514034569,1,colour,0.5,3.9
88,24,0,1,11,2,502,843.8157236080588,844.4884860978054,"[10, 0, 244]",244,a,0.14934694360999856,1,colour,0.5,3.9
88,24,0,1,11,3,503,845.003223632666,845.632451524405,"[29, 0, 225]",225,a,0.10565638242405839,1,colour,0.5,3.9
88,24,0,1,11,4,504,846.143960306581,846.720495884103,"[0, 0, 254]",254,a,0.05328150840068702,1,colour,0.5,3.9
88,24,0,1,11,5,505,847.2378123250965,847.8804747109243,"[60, 0, 194]",194,l,0.11927677200583275,1,colour,0.5,3.9
88,24,0,1,11,6,506,848.3941610697802,848.9684659013728,"[70, 0, 184]",184,l,0.050901888535008766,1,colour,0.5,3.9
88,24,0,1,11,7,507,849.4879859128996,850.1924660336954,"[73, 0, 181]",181,l,0.18107796543336008,1,colour,0.5,3.9
88,24,0,1,11,8,508,850.706748675977,851.3684755899885,"[31, 0, 223]",223,a,0.13834917711210437,1,colour,0.5,3.9
88,24,0,1,11,9,509,851.8787146114191,852.5364995169366,"[51, 0, 203]",203,l,0.1346923134115059,1,colour,0.5,3.9
88,24,0,1,11,10,510,853.0507010268775,854.0565713072574,"[44, 0, 210]",210,l,0.48248387887724675,0,colour,0.5,3.9
88,24,0,1,11,11,511,854.5665050977404,855.224483775688,"[56, 0, 198]",198,l,0.13527875069121365,1,colour,0.5,3.9
88,24,0,1,11,12,512,855.7384856054996,856.3444997973565,"[27, 0, 227]",227,a,0.08261676265101414,1,colour,0.5,3.9
88,24,0,1,11,13,513,856.8635806701786,857.4724758483499,"[28, 0, 226]",226,a,0.08559581672307104,1,colour,0.5,3.9
88,24,0,1,11,14,514,857.9886387132865,858.6244560488994,"[49, 0, 205]",205,a,0.11237855254148599,1,colour,0.5,3.9
88,24,0,1,11,15,515,859.1454864613333,859.7365010135545,"[92, 0, 162]",162,l,0.06859346821147483,1,colour,0.5,3.9
88,24,0,1,11,16,516,860.2544929011056,860.8564997059875,"[25, 0, 229]",229,a,0.07863103722047526,1,colour,0.5,3.9
88,24,0,1,11,17,517,861.3638927934371,862.0325005976629,"[37, 0, 217]",217,a,0.14510718727251515,1,colour,0.5,3.9
88,24,0,1,11,18,518,862.5514924611925,863.2084561969968,"[67, 0, 187]",187,l,0.13369824514666107,1,colour,0.5,3.9
88,24,0,1,11,19,519,863.7234493381548,864.3525003928517,"[12, 0, 242]",242,a,0.10562802547065075,1,colour,0.5,3.9
88,24,0,1,11,20,520,864.8642372120958,865.4805323700275,"[68, 0, 186]",186,l,0.0929725595342461,1,colour,0.5,3.9
88,24,0,1,11,21,521,865.9892440551776,866.5604745218734,"[18, 0, 236]",236,a,0.04783579440845642,1,colour,0.5,3.9
88,24,0,1,11,22,522,867.0674883352476,867.7365254320321,"[64, 0, 190]",190,l,0.14562273217597976,1,colour,0.5,3.9
88,24,0,1,11,23,523,868.2549761506234,869.504472322631,"[45, 0, 209]",209,a,0.7264811676432146,1,colour,0.5,3.9
88,24,0,1,11,24,524,870.0208730707818,871.8804983417067,"[52, 0, 202]",202,l,1.3363534787058597,1,colour,0.5,3.9
88,24,0,1,11,25,525,872.3960034831689,873.0965502601175,"[21, 0, 233]",233,a,0.17720409238245338,1,colour,0.5,3.9
88,24,0,1,11,26,526,873.6149482032924,875.0085582819738,"[58, 0, 196]",196,a,0.8702957510686247,0,colour,0.5,3.9
88,24,0,1,11,27,527,875.5213269787491,876.2725318533048,"[17, 0, 237]",237,a,0.22786455307505094,1,colour,0.5,3.9
88,24,0,1,11,28,528,876.7868747540924,877.3526161836926,"[84, 0, 170]",170,l,0.04257518822851125,1,colour,0.5,3.9
88,24,0,1,11,29,529,877.8652529419342,878.432522101677,"[33, 0, 221]",221,a,0.04392805056704674,1,colour,0.5,3.9
88,24,0,1,11,30,530,878.9433514988341,879.5444827831961,"[63, 0, 191]",191,l,0.077652722800849,1,colour,0.5,3.9
88,24,0,1,11,31,531,880.0529124743334,880.6324936659657,"[97, 0, 157]",157,l,0.05641652563645039,1,colour,0.5,3.9
88,24,0,1,11,32,532,881.1466979328106,881.7844789865194,"[72, 0, 182]",182,l,0.11466010466392618,1,colour,0.5,3.9
88,24,0,1,11,33,533,882.3031640437111,882.9285507516324,"[20, 0, 234]",234,a,0.1021771434461698,1,colour,0.5,3.9
88,24,0,1,11,34,534,883.4438392775919,884.0324923268781,"[71, 0, 183]",183,l,0.06540291862620506,1,colour,0.5,3.9
88,24,0,1,11,35,535,884.5532116006652,885.1525036224048,"[96, 0, 158]",158,l,0.07569727548980154,1,colour,0.5,3.9
88,24,0,1,11,36,536,885.6627237392095,886.2405420744035,"[13, 0, 241]",241,a,0.054459109087474644,1,colour,0.5,3.9
88,24,0,1,11,37,537,886.7565265269222,888.0804537582881,"[35, 0, 219]",219,a,0.8004541836417047,1,colour,0.5,3.9
88,24,0,1,11,38,538,888.600513733225,889.3124674830469,"[53, 0, 201]",201,l,0.18862327450187877,1,colour,0.5,3.9
88,24,0,1,11,39,539,889.8194147363829,890.3685740515793,"[83, 0, 171]",171,l,0.02603324614756275,1,colour,0.5,3.9
88,24,0,1,11,40,540,890.8818689271284,891.4405396325601,"[57, 0, 197]",197,l,0.035274851601570845,1,colour,0.5,3.9
88,24,0,1,11,41,541,891.960130142601,892.5124744935165,"[30, 0, 224]",224,a,0.029009937134105712,1,colour,0.5,3.9
88,24,0,1,11,42,542,893.0227221795794,893.9524855842319,"[39, 0, 215]",215,l,0.4063797600683756,0,colour,0.5,3.9
88,24,0,1,11,43,543,894.4602752749925,895.0085724604432,"[69, 0, 185]",185,l,0.024833983901771717,1,colour,0.5,3.9
88,24,0,1,11,44,544,895.5229531704827,896.1045311632915,"[93, 0, 161]",161,l,0.0581793820601888,1,colour,0.5,3.9
88,24,0,1,11,45,545,896.6167185427912,897.2084790400841,"[94, 0, 160]",160,l,0.0684162373363506,1,colour,0.5,3.9
88,24,0,1,11,46,546,897.7262385582726,898.3765533793776,"[3, 0, 251]",251,a,0.12697410577675328,1,colour,0.5,3.9
88,24,0,1,11,47,547,898.8824959305784,899.5045081626595,"[86, 0, 168]",168,l,0.09880621221964248,1,colour,0.5,3.9
88,24,0,1,11,48,548,900.0232648998935,900.9205214053509,"[42, 0, 212]",212,l,0.37382284237537533,0,colour,0.5,3.9
88,24,0,1,11,49,549,901.4295710106962,902.2404920559202,"[26, 0, 228]",228,a,0.28755669911333825,1,colour,0.5,3.9
88,24,0,1,11,50,550,902.7578628477204,903.4245069338649,"[6, 0, 248]",248,a,0.14326950002578087,1,colour,0.5,3.9
88,24,0,1,12,1,551,917.242625521787,919.2404963882291,"[18, 0, 236]",236,a,1.4738283168408088,1,colour,0.5,3.9
88,24,0,1,12,2,552,919.7592464300687,920.3525586821197,"[11, 0, 243]",243,a,0.06994357363146264,1,colour,0.5,3.9
88,24,0,1,12,3,553,920.8686703470303,921.552499132551,"[23, 0, 231]",231,a,0.16059755948663224,1,colour,0.5,3.9
88,24,0,1,12,4,554,922.0719226517103,922.7925296005124,"[53, 0, 201]",201,l,0.19756319365114905,1,colour,0.5,3.9
88,24,0,1,12,5,555,923.3064038240846,923.9044859497226,"[56, 0, 198]",198,l,0.07464373639959376,1,colour,0.5,3.9
88,24,0,1,12,6,556,924.4158281348791,925.072593765959,"[38, 0, 216]",216,a,0.13334220800607,1,colour,0.5,3.9
88,24,0,1,12,7,557,925.5878649626684,926.1606589995208,"[80, 0, 174]",174,l,0.04952263848099392,1,colour,0.5,3.9
88,24,0,1,12,8,558,926.6817236765783,927.3045117860456,"[29, 0, 225]",225,a,0.09947102492151316,1,colour,0.5,3.9
88,24,0,1,12,9,559,927.8223930027598,928.4165004306706,"[75, 0, 179]",179,l,0.07075607872684486,1,colour,0.5,3.9
88,24,0,1,12,10,560,928.9319445259462,929.4645099113404,"[54, 0, 200]",200,l,0.009590553367161192,1,colour,0.5,3.9
88,24,0,1,12,11,561,929.9787649843784,930.5845877668908,"[57, 0, 197]",197,l,0.08247655334707815,1,colour,0.5,3.9
88,24,0,1,12,12,562,931.1039514214062,931.7765236833511,"[5, 0, 249]",249,a,0.14920673429151066,1,colour,0.5,3.9
88,24,0,1,12,13,563,932.2914801968145,933.1445695869479,"[45, 0, 209]",209,l,0.3297380409640027,0,colour,0.5,3.9
88,24,0,1,12,14,564,933.6508965322137,934.2405645236577,"[10, 0, 244]",244,a,0.06632924533914775,1,colour,0.5,3.9
88,24,0,1,12,15,565,934.7604240307701,935.3845394025557,"[6, 0, 248]",248,a,0.10079474262602162,1,colour,0.5,3.9
88,24,0,1,12,16,566,935.9010598800087,936.600518853229,"[86, 0, 168]",168,l,0.1760347624658607,1,colour,0.5,3.9
88,24,0,1,12,17,567,937.1199612770142,937.7205002164119,"[12, 0, 242]",242,a,0.07728211334324442,1,colour,0.5,3.9
88,24,0,1,12,18,568,938.2295695140783,938.8245000809256,"[50, 0, 204]",204,l,0.07159930383204482,0,colour,0.5,3.9
88,24,0,1,12,19,569,939.3389394740807,939.8965278896358,"[60, 0, 194]",194,l,0.034236278690514155,1,colour,0.5,3.9
88,24,0,1,12,20,570,940.4171274341206,940.9845706739579,"[95, 0, 159]",159,l,0.04407692450331524,1,colour,0.5,3.9
88,24,0,1,12,21,571,941.4953055479855,942.1605140640604,"[68, 0, 186]",186,l,0.14181896379159298,1,colour,0.5,3.9
88,24,0,1,12,22,572,942.6673155942262,943.2965655413573,"[89, 0, 165]",165,l,0.10594389028847218,1,colour,0.5,3.9
88,24,0,1,12,23,573,943.8080337573629,944.432570150937,"[78, 0, 176]",176,l,0.10130280446901452,1,colour,0.5,3.9
88,24,0,1,12,24,574,944.9486940250645,945.5525314279512,"[63, 0, 191]",191,l,0.08036159824405331,1,colour,0.5,3.9
88,24,0,1,12,25,575,946.0738040559081,946.68852461598,"[47, 0, 207]",207,a,0.09122821388882585,1,colour,0.5,3.9
88,24,0,1,12,26,576,947.1989270836639,947.944536976458,"[22, 0, 232]",232,a,0.2222357005230151,1,colour,0.5,3.9
88,24,0,1,12,27,577,948.4646040406224,949.0325699146197,"[48, 0, 206]",206,l,0.04466099868295714,0,colour,0.5,3.9
88,24,0,1,12,28,578,949.542856197615,950.120569769686,"[66, 0, 188]",188,l,0.05433386594813783,1,colour,0.5,3.9
88,24,0,1,12,29,579,950.6366609545803,951.1845434197894,"[88, 0, 166]",166,l,0.024653208412928507,1,colour,0.5,3.9
88,24,0,1,12,30,580,951.699235268461,953.2885090196651,"[94, 0, 160]",160,l,1.06663250704878,1,colour,0.5,3.9
88,24,0,1,12,31,581,953.8087103854486,954.4565451558592,"[49, 0, 205]",205,l,0.12430185804259963,0,colour,0.5,3.9
88,24,0,1,12,32,582,954.9651044224593,955.5685428589495,"[17, 0, 237]",237,a,0.07996538878069259,1,colour,0.5,3.9
88,24,0,1,12,33,583,956.0746145917656,956.6567270341184,"[87, 0, 167]",167,l,0.05870319774840027,1,colour,0.5,3.9
88,24,0,1,12,34,584,957.1684693672141,957.8005242883082,"[28, 0, 226]",226,a,0.10877761503797956,1,colour,0.5,3.9
88,24,0,1,12,35,585,958.3091288472351,958.9524950365449,"[1, 0, 253]",253,a,0.12000263089430518,1,colour,0.5,3.9
88,24,0,1,12,36,586,959.4655996842921,960.4485071449599,"[27, 0, 227]",227,a,0.45948797606979497,1,colour,0.5,3.9
88,24,0,1,12,37,587,960.9656518689299,961.8005301960075,"[42, 0, 212]",212,l,0.31147774709097575,0,colour,0.5,3.9
88,24,0,1,12,38,588,962.3094943366887,962.9765066691907,"[36, 0, 218]",218,l,0.1436129340727348,0,colour,0.5,3.9
88,24,0,1,12,39,589,963.4970439859462,964.1125616911158,"[7, 0, 247]",247,a,0.09210924827493727,1,colour,0.5,3.9
88,24,0,1,12,40,590,964.6221508660092,965.2485450329841,"[8, 0, 246]",246,a,0.10296877467771992,1,colour,0.5,3.9
88,24,0,1,12,41,591,965.7628871460765,966.5285067983787,"[69, 0, 185]",185,l,0.24221001386467833,1,colour,0.5,3.9
88,24,0,1,12,42,592,967.0442218599637,967.7365242504893,"[84, 0, 170]",170,l,0.16886951513879467,1,colour,0.5,3.9
88,24,0,1,12,43,593,968.2475052785157,968.8565363336966,"[83, 0, 171]",171,l,0.08571436448255554,1,colour,0.5,3.9
88,24,0,1,12,44,594,969.3725152723782,970.1525902685971,"[59, 0, 195]",195,l,0.2569847671984462,1,colour,0.5,3.9
88,24,0,1,12,45,595,970.6696065986616,971.3445734466368,"[82, 0, 172]",172,l,0.1523161515215179,1,colour,0.5,3.9
88,24,0,1,12,46,596,971.8570889001858,972.5045518796105,"[65, 0, 189]",189,l,0.12392494705272838,1,colour,0.5,3.9
88,24,0,1,12,47,597,973.0134805741109,973.6566715017834,"[13, 0, 241]",241,a,0.11977538153587375,1,colour,0.5,3.9
88,24,0,1,12,48,598,974.1698517680343,974.7925276312744,"[67, 0, 187]",187,l,0.09954782496788539,1,colour,0.5,3.9
88,24,0,1,12,49,599,975.3104824972688,975.9765944969404,"[33, 0, 221]",221,a,0.14262319810222834,1,colour,0.5,3.9
88,24,0,1,12,50,600,976.4980916173372,977.2005599707918,"[21, 0, 233]",233,a,0.17901263499516062,1,colour,0.5,3.9
88,24,0,1,13,1,601,993.7644944331696,996.240566492881,"[28, 0, 226]",226,l,1.9520066670229426,0,colour,0.5,3.8
88,24,0,1,13,2,602,996.749911876861,997.296574205975,"[52, 0, 202]",202,l,0.023264112212928012,1,colour,0.5,3.8
88,24,0,1,13,3,603,997.8124767384434,998.4565416112455,"[53, 0, 201]",201,l,0.12107113613456022,1,colour,0.5,3.8
88,24,0,1,13,4,604,998.9688286338933,999.5765426667494,"[66, 0, 188]",188,l,0.08482387779804412,1,colour,0.5,3.8
88,24,0,1,13,5,605,1000.0938847077632,1000.6885742406303,"[69, 0, 185]",185,l,0.07131888520962093,1,colour,0.5,3.8
88,24,0,1,13,6,606,1001.2033984216978,1002.7605528185377,"[45, 0, 209]",209,l,1.0339381369703915,0,colour,0.5,3.8
88,24,0,1,13,7,607,1003.281636400221,1003.9445440657,"[31, 0, 223]",223,a,0.1394637623889139,1,colour,0.5,3.8
88,24,0,1,13,8,608,1004.453628329531,1005.0645321242773,"[37, 0, 217]",217,a,0.08752251324767713,1,colour,0.5,3.8
88,24,0,1,13,9,609,1005.5787285141996,1006.1845867428929,"[23, 0, 231]",231,a,0.08272782733547501,1,colour,0.5,3.8
88,24,0,1,13,10,610,1006.7038259419496,1007.6886439514346,"[48, 0, 206]",206,l,0.4622630177036626,0,colour,0.5,3.8
88,24,0,1,13,11,611,1008.203934446632,1008.8645767076814,"[92, 0, 162]",162,l,0.13729091187997255,1,colour,0.5,3.8
88,24,0,1,13,12,612,1009.3758917174418,1009.9765649584588,"[95, 0, 159]",159,l,0.07731834721926134,1,colour,0.5,3.8
88,24,0,1,13,13,613,1010.4853168159316,1011.3445695081755,"[94, 0, 160]",160,l,0.3359781431063311,1,colour,0.5,3.8
88,24,0,1,13,14,614,1011.8604172959895,1012.5925292854226,"[64, 0, 190]",190,l,0.20872401252563577,1,colour,0.5,3.8
88,24,0,1,13,15,615,1013.1105207791406,1013.8005900606513,"[5, 0, 249]",249,a,0.16671044925169554,1,colour,0.5,3.8
88,24,0,1,13,16,616,1014.3137423638109,1015.0165951113449,"[43, 0, 211]",211,a,0.17949942912673578,1,colour,0.5,3.8
88,24,0,1,13,17,617,1015.5326071331074,1016.1365819883795,"[77, 0, 177]",177,l,0.08054158605227713,1,colour,0.5,3.8
88,24,0,1,13,18,618,1016.6577600931923,1017.3286112464411,"[67, 0, 187]",187,l,0.14750531791651156,1,colour,0.5,3.8
88,24,0,1,13,19,619,1017.8453191947629,1018.4806520993297,"[25, 0, 229]",229,a,0.11193311227543745,1,colour,0.5,3.8
88,24,0,1,13,20,620,1019.0015966532519,1019.6165310719225,"[3, 0, 251]",251,a,0.09163111876114272,1,colour,0.5,3.8
88,24,0,1,13,21,621,1020.1267133794754,1020.7365581212798,"[22, 0, 232]",232,a,0.08656940498622134,1,colour,0.5,3.8
88,24,0,1,13,22,622,1021.2518738226354,1022.0245862545271,"[34, 0, 220]",220,a,0.2495875443710247,1,colour,0.5,3.8
88,24,0,1,13,23,623,1022.533193176525,1023.1765881166211,"[35, 0, 219]",219,a,0.12007037246075924,1,colour,0.5,3.8
88,24,0,1,13,24,624,1023.6894974165625,1024.2966088644607,"[7, 0, 247]",247,a,0.08372819716169033,1,colour,0.5,3.8
88,24,0,1,13,25,625,1024.8146491951047,1026.4166607261432,"[9, 0, 245]",245,a,1.078701535720029,1,colour,0.5,3.8
88,24,0,1,13,26,626,1026.9241550321167,1027.5685479789536,"[57, 0, 197]",197,l,0.12099591147853062,1,colour,0.5,3.8
88,24,0,1,13,27,627,1028.0804903860117,1028.7525916076847,"[80, 0, 174]",174,l,0.14871442632284015,1,colour,0.5,3.8
88,24,0,1,13,28,628,1029.2681302260899,1030.864582221533,"[51, 0, 203]",203,l,1.0732136801816523,1,colour,0.5,3.8
88,24,0,1,13,29,629,1031.3776451215526,1032.4885841655632,"[47, 0, 207]",207,l,0.5876022671436658,0,colour,0.5,3.8
88,24,0,1,13,30,630,1033.002748653933,1033.6725525696238,"[99, 0, 155]",155,l,0.14662743431108538,1,colour,0.5,3.8
88,24,0,1,13,31,631,1034.1903806170885,1035.0405779932044,"[39, 0, 215]",215,a,0.32688344235066324,1,colour,0.5,3.8
88,24,0,1,13,32,632,1035.5499044725584,1036.4485989111708,"[50, 0, 204]",204,l,0.3753872002271237,0,colour,0.5,3.8
88,24,0,1,13,33,633,1036.9561648971721,1037.6086805318919,"[70, 0, 184]",184,l,0.12914262399135623,1,colour,0.5,3.8
88,24,0,1,13,34,634,1038.1282111772744,1039.336603964999,"[26, 0, 228]",228,a,0.6851938570907805,1,colour,0.5,3.8
88,24,0,1,13,35,635,1039.8471316758369,1040.6725620219368,"[81, 0, 173]",173,l,0.3021932123665465,1,colour,0.5,3.8
88,24,0,1,13,36,636,1041.1909028573864,1041.832622374961,"[79, 0, 175]",175,l,0.11832405759196263,1,colour,0.5,3.8
88,24,0,1,13,37,637,1042.3472744451574,1042.9365493778896,"[24, 0, 230]",230,a,0.06598423590185121,1,colour,0.5,3.8
88,24,0,1,13,38,638,1043.4567306575045,1043.9929399096727,"[88, 0, 166]",166,l,0.01279449371213559,1,colour,0.5,3.8
88,24,0,1,13,39,639,1044.5037086544908,1045.1205713450763,"[73, 0, 181]",181,l,0.09360035067948047,1,colour,0.5,3.8
88,24,0,1,13,40,640,1045.6288064760884,1046.2246161080839,"[38, 0, 216]",216,a,0.07247600589471404,1,colour,0.5,3.8
88,24,0,1,13,41,641,1046.738272140763,1047.408565213671,"[63, 0, 191]",191,l,0.14678379133692943,1,colour,0.5,3.8
88,24,0,1,13,42,642,1047.9258800792886,1048.5846720500122,"[86, 0, 168]",168,l,0.1353500368713867,1,colour,0.5,3.8
88,24,0,1,13,43,643,1049.0978995778278,1049.704706188626,"[12, 0, 242]",242,a,0.08391606189252343,1,colour,0.5,3.8
88,24,0,1,13,44,644,1050.2230084271287,1050.8405757088913,"[61, 0, 193]",193,l,0.09416552024777047,1,colour,0.5,3.8
88,24,0,1,13,45,645,1051.3480408702162,1051.912565314502,"[75, 0, 179]",179,l,0.04123177821747959,1,colour,0.5,3.8
88,24,0,1,13,46,646,1052.426366282656,1052.9925830848515,"[13, 0, 241]",241,a,0.042850093013839796,1,colour,0.5,3.8
88,24,0,1,13,47,647,1053.5045798427018,1054.0886142554227,"[15, 0, 239]",239,a,0.06066022044979036,1,colour,0.5,3.8
88,24,0,1,13,48,648,1054.5984712458594,1055.7445512337,"[89, 0, 165]",165,l,0.6228763310500653,1,colour,0.5,3.8
88,24,0,1,13,49,649,1056.2547666243481,1056.8805641140498,"[36, 0, 218]",218,a,0.1027092299045762,1,colour,0.5,3.8
88,24,0,1,13,50,650,1057.3955340182874,1058.5446025124984,"[20, 0, 234]",234,a,0.6261783391528297,1,colour,0.5,3.8
88,24,0,1,14,1,651,1063.3483295596234,1063.9606066967244,"[57, 0, 197]",197,l,0.08806050740531646,1,colour,0.5,3.8
88,24,0,1,14,2,652,1064.4742595786374,1065.080603026072,"[35, 0, 219]",219,a,0.08297122440126259,1,colour,0.5,3.8
88,24,0,1,14,3,653,1065.5991419662605,1066.240694886801,"[18, 0, 236]",236,a,0.11797865430708043,1,colour,0.5,3.8
88,24,0,1,14,4,654,1066.755641554104,1067.4088704446185,"[91, 0, 163]",163,l,0.13035567085898947,1,colour,0.5,3.8
88,24,0,1,14,5,655,1067.9277756619413,1076.192592458392,"[55, 0, 199]",199,a,7.742068819934502,0,colour,0.5,3.8
88,24,0,1,14,6,656,1076.7095883084257,1077.30461457996,"[99, 0, 155]",155,l,0.07225939039199147,1,colour,0.5,3.8
88,24,0,1,14,7,657,1077.8189909576759,1078.5766080452595,"[19, 0, 235]",235,a,0.23437089538492728,1,colour,0.5,3.8
88,24,0,1,14,8,658,1079.0847695269913,1079.8086052284634,"[12, 0, 242]",242,a,0.20050561998505145,1,colour,0.5,3.8
88,24,0,1,14,9,659,1080.3191061577381,1081.0646038043196,"[68, 0, 186]",186,l,0.22221128204546403,1,colour,0.5,3.8
88,24,0,1,14,10,660,1081.584999730214,1082.5686354128557,"[22, 0, 232]",232,a,0.46033632119360846,1,colour,0.5,3.8
88,24,0,1,14,11,661,1083.0850783025671,1083.832620405723,"[4, 0, 250]",250,a,0.22420690167928115,1,colour,0.5,3.8
88,24,0,1,14,12,662,1084.3508001580049,1085.0166281944403,"[87, 0, 167]",167,l,0.14239673643896822,1,colour,0.5,3.8
88,24,0,1,14,13,663,1085.5227578226768,1086.4326374986558,"[14, 0, 240]",240,a,0.3864278959808871,1,colour,0.5,3.8
88,24,0,1,14,14,664,1086.9447492596664,1087.6326315121987,"[95, 0, 159]",159,l,0.16446946331416257,1,colour,0.5,3.8
88,24,0,1,14,15,665,1088.1480011705135,1088.9286051024392,"[0, 0, 254]",254,a,0.25719389964069705,1,colour,0.5,3.8
88,24,0,1,14,16,666,1089.4449416536227,1096.4006398428319,"[54, 0, 200]",200,a,6.4323251784808235,0,colour,0.5,3.8
88,24,0,1,14,17,667,1096.9143577094073,1097.5926694947411,"[2, 0, 252]",252,a,0.15496161769260652,1,colour,0.5,3.8
88,24,0,1,14,18,668,1098.1018916048051,1099.1046453787421,"[51, 0, 203]",203,a,0.47942960016371217,0,colour,0.5,3.8
88,24,0,1,14,19,669,1099.6176771649043,1100.264687614821,"[94, 0, 160]",160,l,0.12373826386465225,1,colour,0.5,3.8
88,24,0,1,14,20,670,1100.7739475341368,1101.488624337886,"[40, 0, 214]",214,a,0.19123880835832097,1,colour,0.5,3.8
88,24,0,1,14,21,671,1102.0084082264948,1102.6807138544536,"[77, 0, 177]",177,l,0.14890544181980658,1,colour,0.5,3.8
88,24,0,1,14,22,672,1103.1960417650407,1104.0565831226559,"[46, 0, 208]",208,a,0.3371234483929584,1,colour,0.5,3.8
88,24,0,1,14,23,673,1104.5711958082102,1105.2006178662123,"[96, 0, 158]",158,l,0.1060171457065735,1,colour,0.5,3.8
88,24,0,1,14,24,674,1105.711876162095,1106.464638699108,"[69, 0, 185]",185,l,0.22935920012241695,1,colour,0.5,3.8
88,24,0,1,14,25,675,1106.977666940642,1107.7286819812434,"[34, 0, 220]",220,a,0.2277038637403166,1,colour,0.5,3.8
88,24,0,1,14,26,676,1108.2432950606453,1109.2166348110477,"[73, 0, 181]",181,l,0.4498403149773367,1,colour,0.5,3.8
88,24,0,1,14,27,677,1109.7278151253558,1110.4726042422699,"[7, 0, 247]",247,a,0.2214436754293274,1,colour,0.5,3.8
88,24,0,1,14,28,678,1110.9935157130822,1111.744612673734,"[71, 0, 183]",183,l,0.22780665765458252,1,colour,0.5,3.8
88,24,0,1,14,29,679,1112.2592202392843,1112.9926791833568,"[49, 0, 205]",205,a,0.20992091170046479,1,colour,0.5,3.8
88,24,0,1,14,30,680,1113.5093111193419,1114.1926538984262,"[48, 0, 206]",206,a,0.15985318981984165,1,colour,0.5,3.8
88,24,0,1,14,31,681,1114.7125701194163,1115.360656951525,"[56, 0, 198]",198,a,0.12469058443093672,0,colour,0.5,3.8
88,24,0,1,14,32,682,1115.8689487964148,1116.5766143467918,"[11, 0, 243]",243,a,0.18435949351987801,1,colour,0.5,3.8
88,24,0,1,14,33,683,1117.0878060826362,1117.8726367739873,"[60, 0, 194]",194,l,0.26144428983388934,1,colour,0.5,3.8
88,24,0,1,14,34,684,1118.3847004857234,1119.0246524207178,"[28, 0, 226]",226,a,0.11651787806476932,1,colour,0.5,3.8
88,24,0,1,14,35,685,1119.5410831011832,1120.1926649261295,"[79, 0, 175]",175,l,0.12813870955142193,1,colour,0.5,3.8
88,24,0,1,14,36,686,1120.7130395843124,1121.3286506310687,"[76, 0, 178]",178,l,0.09213957442261744,1,colour,0.5,3.8
88,24,0,1,14,37,687,1121.8381858490175,1122.4806182285392,"[67, 0, 187]",187,l,0.11912002113240305,1,colour,0.5,3.8
88,24,0,1,14,38,688,1122.994479849047,1123.608652174953,"[61, 0, 193]",193,l,0.0907595366879832,1,colour,0.5,3.8
88,24,0,1,14,39,689,1124.1195906675712,1124.736699512141,"[15, 0, 239]",239,a,0.0939532370393863,1,colour,0.5,3.8
88,24,0,1,14,40,690,1125.2448034923145,1125.848594421317,"[39, 0, 215]",215,a,0.08047148138575722,1,colour,0.5,3.8
88,24,0,1,14,41,691,1126.3698446000344,1126.968691575341,"[93, 0, 161]",161,l,0.07567010007915087,1,colour,0.5,3.8
88,24,0,1,14,42,692,1127.4792945108347,1128.1206316035677,"[90, 0, 164]",164,l,0.11792154658178333,1,colour,0.5,3.8
88,24,0,1,14,43,693,1128.6355861477932,1129.39261797964,"[8, 0, 246]",246,a,0.23378879042866174,1,colour,0.5,3.8
88,24,0,1,14,44,694,1129.9012894924526,1130.536634606251,"[89, 0, 165]",165,l,0.11191381380194798,1,colour,0.5,3.8
88,24,0,1,14,45,695,1131.0576669879083,1131.7366613090417,"[25, 0, 229]",229,a,0.1555894088378409,1,colour,0.5,3.8
88,24,0,1,14,46,696,1132.2453273080027,1132.896618474304,"[29, 0, 225]",225,a,0.12792091249139048,1,colour,0.5,3.8
88,24,0,1,14,47,697,1133.417134523348,1134.6886660068412,"[42, 0, 212]",212,a,0.748034017306054,1,colour,0.5,3.8
88,24,0,1,14,48,698,1135.1986131880985,1136.5046503412013,"[59, 0, 195]",195,a,0.782734247026383,0,colour,0.5,3.8
88,24,0,1,14,49,699,1137.0111781481392,1137.544651743301,"[27, 0, 227]",227,a,0.009995033600716852,1,colour,0.5,3.8
88,24,0,1,14,50,700,1138.0583062005899,1138.6966528177145,"[44, 0, 210]",210,a,0.11500668949156534,1,colour,0.5,3.8
88,24,0,1,15,1,701,1155.6526007055363,1157.0486341210344,"[96, 0, 158]",158,l,0.8724516661895905,1,colour,0.5,3.8
88,24,0,1,15,2,702,1157.5598246753361,1158.160659787216,"[38, 0, 216]",216,a,0.07745658729982097,1,colour,0.5,3.8
88,24,0,1,15,3,703,1158.6692103891983,1159.3686571531725,"[69, 0, 185]",185,l,0.1761151071259519,1,colour,0.5,3.8
88,24,0,1,15,4,704,1159.8880255338445,1160.4166583630722,"[24, 0, 230]",230,a,0.005168839983525686,1,colour,0.5,3.8
88,24,0,1,15,5,705,1160.9350452785438,1161.9046584544412,"[95, 0, 159]",159,l,0.4463169652153738,1,colour,0.5,3.8
88,24,0,1,15,6,706,1162.4195082355145,1163.232640728209,"[57, 0, 197]",197,l,0.289918202048284,1,colour,0.5,3.8
88,24,0,1,15,7,707,1163.7477524171263,1164.7126516456192,"[84, 0, 170]",170,l,0.4414710792625556,1,colour,0.5,3.8
88,24,0,1,15,8,708,1165.2322240387293,1167.200716327803,"[82, 0, 172]",172,l,1.4450326321384637,1,colour,0.5,3.8
88,24,0,1,15,9,709,1167.7167901834473,1168.4726597746194,"[5, 0, 249]",249,a,0.23239260498667136,1,colour,0.5,3.8
88,24,0,1,15,10,710,1168.9825266112166,1169.7046798009105,"[14, 0, 240]",240,a,0.19873212970560417,1,colour,0.5,3.8
88,24,0,1,15,11,711,1170.216938860467,1170.888719885028,"[52, 0, 202]",202,l,0.14831270300783217,1,colour,0.5,3.8
88,24,0,1,15,12,712,1171.4046491990448,1172.1847281337396,"[53, 0, 201]",201,l,0.2567181331978645,1,colour,0.5,3.8
88,24,0,1,15,13,713,1172.7016117375606,1173.392679419674,"[62, 0, 192]",192,l,0.16775492987653706,1,colour,0.5,3.8
88,24,0,1,15,14,714,1173.904855771485,1174.6246439136303,"[13, 0, 241]",241,a,0.19638874371594284,1,colour,0.5,3.8
88,24,0,1,15,15,715,1175.139285349971,1175.92865551477,"[15, 0, 239]",239,a,0.26627717884548474,1,colour,0.5,3.8
88,24,0,1,15,16,716,1176.4362884546717,1177.1126727557858,"[22, 0, 232]",232,a,0.153342515201075,1,colour,0.5,3.8
88,24,0,1,15,17,717,1177.6238570085552,1178.3847036365041,"[79, 0, 175]",175,l,0.23738933409913443,1,colour,0.5,3.8
88,24,0,1,15,18,718,1178.9052267747757,1179.7127249010518,"[50, 0, 204]",204,l,0.28409990937507246,0,colour,0.5,3.8
88,24,0,1,15,19,719,1180.2334599286842,1180.9686592799408,"[61, 0, 193]",193,l,0.2118023158982396,1,colour,0.5,3.8
88,24,0,1,15,20,720,1181.483559867207,1182.1686867704266,"[77, 0, 177]",177,l,0.1617282924707979,1,colour,0.5,3.8
88,24,0,1,15,21,721,1182.6867633349466,1183.3926774504362,"[7, 0, 247]",247,a,0.18268525254097767,1,colour,0.5,3.8
88,24,0,1,15,22,722,1183.9055946273002,1184.7366550074948,"[20, 0, 234]",234,a,0.3075975724932505,1,colour,0.5,3.8
88,24,0,1,15,23,723,1185.249478842772,1185.8886903465464,"[81, 0, 173]",173,l,0.1161260009102989,1,colour,0.5,3.8
88,24,0,1,15,24,724,1186.4058031689638,1187.072658750607,"[74, 0, 180]",180,l,0.14346051550819539,1,colour,0.5,3.8
88,24,0,1,15,25,725,1187.5934051997901,1188.3366953373625,"[66, 0, 188]",188,l,0.21988561912439764,1,colour,0.5,3.8
88,24,0,1,15,26,726,1188.8434996244614,1189.5926911563001,"[60, 0, 194]",194,l,0.22581733956758399,1,colour,0.5,3.8
88,24,0,1,15,27,727,1190.1091860337328,1190.7286725289305,"[32, 0, 222]",222,a,0.09608000752632506,1,colour,0.5,3.8
88,24,0,1,15,28,728,1191.250051889263,1192.1366583945783,"[56, 0, 198]",198,l,0.36334180235280655,1,colour,0.5,3.8
88,24,0,1,15,29,729,1192.6563698154496,1193.2647077009897,"[25, 0, 229]",229,a,0.08564937982009724,1,colour,0.5,3.8
88,24,0,1,15,30,730,1193.7814432185696,1194.4086471337214,"[67, 0, 187]",187,l,0.10383129827096127,1,colour,0.5,3.8
88,24,0,1,15,31,731,1194.92218895095,1195.496699764204,"[29, 0, 225]",225,a,0.051211451791459695,1,colour,0.5,3.8
88,24,0,1,15,32,732,1196.0159685017425,1196.5846712623315,"[6, 0, 248]",248,a,0.045400642207823694,1,colour,0.5,3.8
88,24,0,1,15,33,733,1197.0941442525364,1198.5846724438597,"[1, 0, 253]",253,a,0.967108706725412,1,colour,0.5,3.8
88,24,0,1,15,34,734,1199.0943017910904,1200.0646770597377,"[44, 0, 210]",210,l,0.4469750825082883,0,colour,0.5,3.8
88,24,0,1,15,35,735,1200.5788411542599,1201.2007053000998,"[98, 0, 156]",156,l,0.09856478437723126,1,colour,0.5,3.8
88,24,0,1,15,36,736,1201.7195041789091,1202.3686540024064,"[23, 0, 231]",231,a,0.12631480694108177,1,colour,0.5,3.8
88,24,0,1,15,37,737,1202.875891914373,1203.5686866128817,"[11, 0, 243]",243,a,0.16939530007948633,1,colour,0.5,3.8
88,24,0,1,15,38,738,1204.0791087728867,1204.7766859480762,"[70, 0, 184]",184,l,0.17419353060540743,1,colour,0.5,3.8
88,24,0,1,15,39,739,1205.2980168652866,1205.920737233173,"[4, 0, 250]",250,a,0.09930915405857377,1,colour,0.5,3.8
88,24,0,1,15,40,740,1206.4387039145513,1207.160700747234,"[17, 0, 237]",237,a,0.1986246096494142,1,colour,0.5,3.8
88,24,0,1,15,41,741,1207.6731976900046,1208.4166949907813,"[58, 0, 196]",196,l,0.2200356746034231,1,colour,0.5,3.8
88,24,0,1,15,42,742,1208.92349100711,1209.648703595536,"[76, 0, 178]",178,l,0.2019159838964697,1,colour,0.5,3.8
88,24,0,1,15,43,743,1210.1579962040996,1210.9526978674403,"[51, 0, 203]",203,l,0.2713294402929023,1,colour,0.5,3.8
88,24,0,1,15,44,744,1211.4705003148702,1212.0806916415168,"[8, 0, 246]",246,a,0.08662375579297077,1,colour,0.5,3.8
88,24,0,1,15,45,745,1212.5956453980325,1213.4326816094544,"[40, 0, 214]",214,l,0.314092099404661,0,colour,0.5,3.8
88,24,0,1,15,46,746,1213.939421305753,1214.53670431707,"[80, 0, 174]",174,l,0.0737693974369904,1,colour,0.5,3.8
88,24,0,1,15,47,747,1215.0489862196991,1215.7286863135523,"[3, 0, 251]",251,a,0.156281790783396,1,colour,0.5,3.8
88,24,0,1,15,48,748,1216.2365421705035,1217.752665650798,"[41, 0, 213]",213,l,0.9929540881421417,0,colour,0.5,3.8
88,24,0,1,15,49,749,1218.2679935613996,1218.9207368393254,"[49, 0, 205]",205,l,0.1293990179838147,0,colour,0.5,3.8
88,24,0,1,15,50,750,1219.4399228691182,1220.0806506814843,"[27, 0, 227]",227,a,0.11729060467041563,1,colour,0.5,3.8
88,24,0,1,16,1,751,1224.5958328689157,1227.9847045817296,"[24, 0, 230]",230,a,2.8647618154936936,1,colour,0.5,3.8
88,24,0,1,16,2,752,1228.5032565188449,1229.2007084508805,"[55, 0, 199]",199,l,0.17440541996620595,1,colour,0.5,3.8
88,24,0,1,16,3,753,1229.721957054193,1230.488817322621,"[93, 0, 161]",161,l,0.24349001461814623,1,colour,0.5,3.8
88,24,0,1,16,4,754,1231.0032827096293,1231.6887144499487,"[25, 0, 229]",229,a,0.16218279120221268,1,colour,0.5,3.8
88,24,0,1,16,5,755,1232.2066232359066,1233.0566587411595,"[52, 0, 202]",202,l,0.32669282068673056,1,colour,0.5,3.8
88,24,0,1,16,6,756,1233.5660080636007,1234.7447174368717,"[42, 0, 212]",212,l,0.655265864028479,0,colour,0.5,3.8
88,24,0,1,16,7,757,1235.253741836059,1235.9687250522838,"[16, 0, 238]",238,a,0.1917897994571831,1,colour,0.5,3.8
88,24,0,1,16,8,758,1236.4881887437805,1237.7207700011932,"[37, 0, 217]",217,l,0.7092551144014578,0,colour,0.5,3.8
88,24,0,1,16,9,759,1238.2383192053967,1238.768699137203,"[39, 0, 215]",215,l,0.007031733388430439,0,colour,0.5,3.8
88,24,0,1,16,10,760,1239.2852912946983,1240.4407223772869,"[7, 0, 247]",247,a,0.6321707119350322,1,colour,0.5,3.8
88,24,0,1,16,11,761,1240.9573054763168,1241.8886986173165,"[54, 0, 200]",200,l,0.40793821022089105,1,colour,0.5,3.8
88,24,0,1,16,12,762,1242.3948987440526,1243.0887044462434,"[49, 0, 205]",205,a,0.17042166375904344,1,colour,0.5,3.8
88,24,0,1,16,13,763,1243.598156562599,1244.2166738018423,"[94, 0, 160]",160,l,0.09519542854104657,1,colour,0.5,3.8
88,24,0,1,16,14,764,1244.7231886118534,1245.648679570906,"[45, 0, 209]",209,a,0.4020801390724955,1,colour,0.5,3.8
88,24,0,1,16,15,765,1246.160753916498,1246.7927379452449,"[96, 0, 158]",158,l,0.10848695639288053,1,colour,0.5,3.8
88,24,0,1,16,16,766,1247.3014996488782,1248.0006982896448,"[83, 0, 171]",171,l,0.17610250404686667,1,colour,0.5,3.8
88,24,0,1,16,17,767,1248.52033448586,1249.240669680643,"[58, 0, 196]",196,l,0.19704213486693334,1,colour,0.5,3.8
88,24,0,1,16,18,768,1249.7547939966753,1250.4087696199422,"[60, 0, 194]",194,l,0.1306124586990336,1,colour,0.5,3.8
88,24,0,1,16,19,769,1250.9268091629056,1251.5687606560095,"[35, 0, 219]",219,a,0.11860762699507177,1,colour,0.5,3.8
88,24,0,1,16,20,770,1252.0831870522234,1252.712745381068,"[76, 0, 178]",178,l,0.10619870889058802,1,colour,0.5,3.8
88,24,0,1,16,21,771,1253.2239398738311,1254.2887595059728,"[50, 0, 204]",204,l,0.541453316793195,0,colour,0.5,3.8
88,24,0,1,16,22,772,1254.8021839569847,1255.472730273119,"[27, 0, 227]",227,a,0.1473127270292025,1,colour,0.5,3.8
88,24,0,1,16,23,773,1255.9897249416244,1256.6087084949831,"[33, 0, 221]",221,a,0.09561133032548241,1,colour,0.5,3.8
88,24,0,1,16,24,774,1257.1148621478496,1257.7447071968636,"[56, 0, 198]",198,l,0.10644407517975196,1,colour,0.5,3.8
88,24,0,1,16,25,775,1258.2555251724843,1258.872759260208,"[70, 0, 184]",184,l,0.0938571385195246,1,colour,0.5,3.8
88,24,0,1,16,26,776,1259.380700975671,1260.0566993073444,"[92, 0, 162]",162,l,0.15267494558065664,1,colour,0.5,3.8
88,24,0,1,16,27,777,1260.5681950925937,1261.21674784497,"[6, 0, 248]",248,a,0.12520337243040558,1,colour,0.5,3.8
88,24,0,1,16,28,778,1261.724588341909,1262.3367055773706,"[34, 0, 220]",220,a,0.08939604050829075,1,colour,0.5,3.8
88,24,0,1,16,29,779,1262.8496511111734,1263.4727275161858,"[81, 0, 173]",173,l,0.09972190506232437,1,colour,0.5,3.8
88,24,0,1,16,30,780,1263.9903409173712,1264.6007075056405,"[9, 0, 245]",245,a,0.0869297744211508,1,colour,0.5,3.8
88,24,0,1,16,31,781,1265.1154726097593,1265.6727388589643,"[13, 0, 241]",241,a,0.03403069087653421,1,colour,0.5,3.8
88,24,0,1,16,32,782,1266.1936712036404,1267.696730799289,"[41, 0, 213]",213,l,0.9797141541639576,0,colour,0.5,3.8
88,24,0,1,16,33,783,1268.209415212943,1268.7847038728069,"[72, 0, 182]",182,l,0.05186956909892615,1,colour,0.5,3.8
88,24,0,1,16,34,784,1269.3033192191942,1270.5047180827823,"[57, 0, 197]",197,l,0.6783232068846701,1,colour,0.5,3.8
88,24,0,1,16,35,785,1271.0221381053852,1271.5687409636885,"[32, 0, 222]",222,a,0.02320030909322668,1,colour,0.5,3.8
88,24,0,1,16,36,786,1272.084767557768,1272.6807737190975,"[89, 0, 165]",165,l,0.07255713824997656,1,colour,0.5,3.8
88,24,0,1,16,37,787,1273.1942001393327,1274.256721283964,"[59, 0, 195]",195,l,0.5390882692445302,1,colour,0.5,3.8
88,24,0,1,16,38,788,1274.7979225390736,1275.360770773128,"[77, 0, 177]",177,l,0.03383967537956778,1,colour,0.5,3.8
88,24,0,1,16,39,789,1275.881917370236,1276.4647103791503,"[85, 0, 169]",169,l,0.05934398583485745,1,colour,0.5,3.8
88,24,0,1,16,40,790,1276.97574142566,1277.7447501261195,"[95, 0, 159]",159,l,0.245582914314582,1,colour,0.5,3.8
88,24,0,1,16,41,791,1278.2570859857224,1278.9047340729448,"[11, 0, 243]",243,a,0.1241931564436527,1,colour,0.5,3.8
88,24,0,1,16,42,792,1279.4142921339808,1280.1127456173708,"[36, 0, 218]",218,a,0.17501982032263186,1,colour,0.5,3.8
88,24,0,1,16,43,793,1280.6331852602161,1281.240722849907,"[30, 0, 224]",224,a,0.08396332345728297,1,colour,0.5,3.8
88,24,0,1,16,44,794,1281.7583197095228,1282.4727460269787,"[64, 0, 190]",190,l,0.1909390912624076,1,colour,0.5,3.8
88,24,0,1,16,45,795,1282.9926787895238,1283.6086986488226,"[15, 0, 239]",239,a,0.09257319930475205,1,colour,0.5,3.8
88,24,0,1,16,46,796,1284.1178601065476,1284.8567163215048,"[26, 0, 228]",228,a,0.2154938380845124,1,colour,0.5,3.8
88,24,0,1,16,47,797,1285.3678761557821,1285.952737252068,"[88, 0, 166]",166,l,0.061451851681340486,1,colour,0.5,3.8
88,24,0,1,16,48,798,1286.4618364820635,1287.1767121782323,"[68, 0, 186]",186,l,0.19152474083239213,1,colour,0.5,3.8
88,24,0,1,16,49,799,1287.6962310082308,1288.4327202064014,"[10, 0, 244]",244,a,0.213064199720975,1,colour,0.5,3.8
88,24,0,1,16,50,800,1288.9463144051988,1290.8008145530912,"[43, 0, 211]",211,l,1.3310251309449086,0,colour,0.5,3.8
