id,age,condition,counterbalance,block,trialinblock,trial,tstart,tend,trialstim,trialintensity,response,RT,accuracy,trialtype,colourfreq,credits
74,23,1,1,Practice,1,NA,5.907844752073288e-06,2.6685088160447776,"[73, 0, 181]",181,a,2.1139617250300944,0,colour,0.5,4
74,23,1,1,Practice,2,NA,3.188643605913967,4.940491433255374,"[45, 0, 209]",209,a,1.2277525211684406,1,colour,0.5,4
74,23,1,1,Practice,3,NA,5.45622696261853,6.508491124492139,"[46, 0, 208]",208,a,0.5299844862893224,1,colour,0.5,4
74,23,1,1,Practice,4,NA,7.018834901042283,9.004514263942838,"[76, 0, 178]",178,l,1.463311465922743,1,colour,0.5,4
74,23,1,1,Practice,5,NA,9.51957749761641,11.484477935358882,"[60, 0, 194]",194,a,1.4429972786456347,0,colour,0.5,4
74,23,1,1,Practice,6,NA,12.00376044260338,12.940472922753543,"[94, 0, 160]",160,l,0.41440405370667577,1,colour,0.5,4
74,23,1,1,Practice,7,NA,13.456985509954393,14.404488191008568,"[96, 0, 158]",158,l,0.4252293067984283,1,colour,0.5,4
74,23,1,1,Practice,8,NA,14.910273199435323,16.1965043800883,"[29, 0, 225]",225,a,0.7641303110867739,1,colour,0.5,4
74,23,1,1,Practice,9,NA,16.707273116335273,17.564492885954678,"[7, 0, 247]",247,a,0.3349924758076668,1,colour,0.5,4
74,23,1,1,Practice,10,NA,18.082387479487807,18.94048670725897,"[26, 0, 228]",228,a,0.3358423956669867,1,colour,0.5,4
74,23,1,1,1,1,1,4.979072595015168,6.431996764149517,"[7, 0, 247]",247,a,0.9305503643117845,1,colour,0.5,4.0
74,23,1,1,1,2,2,6.948835062794387,10.391998938284814,"[57, 0, 197]",197,a,2.9209149200469255,0,colour,0.5,4.0
74,23,1,1,1,3,3,10.909358295146376,11.935971261933446,"[37, 0, 217]",217,a,0.5043151746504009,1,colour,0.5,4.0
74,23,1,1,1,4,4,12.456333694979548,13.935970867983997,"[59, 0, 195]",195,a,0.9572645495645702,0,colour,0.5,4.0
74,23,1,1,1,5,5,14.440872479695827,15.327968230936676,"[68, 0, 186]",186,l,0.3648743648082018,1,colour,0.5,4.0
74,23,1,1,1,6,6,15.847246011719108,16.71196106635034,"[12, 0, 242]",242,a,0.3424306525848806,1,colour,0.5,4.0
74,23,1,1,1,7,7,17.222393851727247,18.143974765669554,"[31, 0, 223]",223,a,0.3993146289139986,1,colour,0.5,4.0
74,23,1,1,1,8,8,18.65997338388115,19.68800065247342,"[8, 0, 246]",246,a,0.5056971805170178,1,colour,0.5,4.0
74,23,1,1,1,9,9,20.207018888555467,21.183998585678637,"[43, 0, 211]",211,a,0.45476579386740923,1,colour,0.5,4.0
74,23,1,1,1,10,10,21.691466497723013,22.591966800391674,"[85, 0, 169]",169,l,0.37818439304828644,1,colour,0.5,4.0
74,23,1,1,1,11,11,23.09784160554409,23.99195214966312,"[4, 0, 250]",250,a,0.37180526833981276,1,colour,0.5,4.0
74,23,1,1,1,12,12,24.504184811841697,25.335984574165195,"[76, 0, 178]",178,l,0.3095153607428074,1,colour,0.5,4.0
74,23,1,1,1,13,13,25.84808529773727,26.663961075711995,"[21, 0, 233]",233,a,0.29362170211970806,1,colour,0.5,4.0
74,23,1,1,1,14,14,27.17201896943152,28.19195545790717,"[61, 0, 193]",193,l,0.49769934825599194,1,colour,0.5,4.0
74,23,1,1,1,15,15,28.703389400150627,29.54400461912155,"[11, 0, 243]",243,a,0.31854585697874427,1,colour,0.5,4.0
74,23,1,1,1,16,16,30.062892886344343,30.983960224781185,"[19, 0, 235]",235,a,0.3988282289355993,1,colour,0.5,4.0
74,23,1,1,1,17,17,31.500483840238303,32.367986930999905,"[66, 0, 188]",188,l,0.3453013966791332,1,colour,0.5,4.0
74,23,1,1,1,18,18,32.87561395717785,33.79195553669706,"[13, 0, 241]",241,a,0.3941942364908755,1,colour,0.5,4.0
74,23,1,1,1,19,19,34.29750778153539,35.46399360708892,"[44, 0, 210]",210,a,0.6441722791641951,1,colour,0.5,4.0
74,23,1,1,1,20,20,35.96961713861674,36.87999706994742,"[14, 0, 240]",240,a,0.3883342002518475,1,colour,0.5,4.0
74,23,1,1,1,21,21,37.3915944583714,38.31996330944821,"[32, 0, 222]",222,a,0.406083267647773,1,colour,0.5,4.0
74,23,1,1,1,22,22,38.829129486344755,39.68796796305105,"[77, 0, 177]",177,l,0.33652847493067384,1,colour,0.5,4.0
74,23,1,1,1,23,23,40.20430056285113,41.08800805686042,"[92, 0, 162]",162,l,0.3614010368473828,1,colour,0.5,4.0
74,23,1,1,1,24,24,41.595012018457055,42.471954417880625,"[94, 0, 160]",160,l,0.354619400575757,1,colour,0.5,4.0
74,23,1,1,1,25,25,42.98573213815689,43.80799728119746,"[30, 0, 224]",224,a,0.30025722086429596,1,colour,0.5,4.0
74,23,1,1,1,26,26,44.314045771956444,45.32800485845655,"[55, 0, 199]",199,l,0.49178299214690924,1,colour,0.5,4.0
74,23,1,1,1,27,27,45.84538548300043,46.663967770989984,"[27, 0, 227]",227,a,0.2963333325460553,1,colour,0.5,4.0
74,23,1,1,1,28,28,47.17357269208878,48.01595785561949,"[95, 0, 159]",159,l,0.3200594079680741,1,colour,0.5,4.0
74,23,1,1,1,29,29,48.53309232601896,49.327994224615395,"[89, 0, 165]",165,l,0.2725647212937474,1,colour,0.5,4.0
74,23,1,1,1,30,30,49.845691501162946,50.47999202879146,"[26, 0, 228]",228,a,0.11208386719226837,1,colour,0.5,4.0
74,23,1,1,1,31,31,50.98637725831941,51.831959270406514,"[5, 0, 249]",249,a,0.32350004743784666,1,colour,0.5,4.0
74,23,1,1,1,32,32,52.34596227062866,53.207992082461715,"[56, 0, 198]",198,l,0.3397938534617424,1,colour,0.5,4.0
74,23,1,1,1,33,33,53.72098801797256,55.07199112465605,"[49, 0, 205]",205,l,0.8287612400017679,0,colour,0.5,4.0
74,23,1,1,1,34,34,55.58053659973666,56.50396031932905,"[71, 0, 183]",183,l,0.4011633424088359,1,colour,0.5,4.0
74,23,1,1,1,35,35,57.018099984154105,57.55996365612373,"[28, 0, 226]",226,a,0.01963322702795267,1,colour,0.5,4.0
74,23,1,1,1,36,36,58.06526580872014,59.015982273966074,"[99, 0, 155]",155,l,0.42863056156784296,1,colour,0.5,4.0
74,23,1,1,1,37,37,59.54353554872796,60.46392429014668,"[24, 0, 230]",230,a,0.40767598105594516,1,colour,0.5,4.0
74,23,1,1,1,38,38,60.97158439969644,61.83999845618382,"[91, 0, 163]",163,l,0.3461481654085219,1,colour,0.5,4.0
74,23,1,1,1,39,39,62.34668261511251,63.295976113993675,"[90, 0, 164]",164,l,0.42709771264344454,1,colour,0.5,4.0
74,23,1,1,1,40,40,63.815492959693074,64.95195274800062,"[69, 0, 185]",185,l,0.614234069827944,1,colour,0.5,4.0
74,23,1,1,1,41,41,65.47191424574703,66.41598416445777,"[52, 0, 202]",202,l,0.4218371110036969,1,colour,0.5,4.0
74,23,1,1,1,42,42,66.92515782406554,67.62395222205669,"[86, 0, 168]",168,l,0.17355930153280497,1,colour,0.5,4.0
74,23,1,1,1,43,43,68.11894742306322,69.01595706772059,"[97, 0, 157]",157,l,0.3749300427734852,1,colour,0.5,4.0
74,23,1,1,1,44,44,69.52513387845829,70.48796623013914,"[62, 0, 192]",192,a,0.4404526394791901,0,colour,0.5,4.0
74,23,1,1,1,45,45,70.99410215532407,71.88799962820485,"[47, 0, 207]",207,a,0.37163355108350515,1,colour,0.5,4.0
74,23,1,1,1,46,46,72.4004993182607,73.26397375762463,"[1, 0, 253]",253,a,0.3411549851298332,1,colour,0.5,4.0
74,23,1,1,1,47,47,73.77567315194756,74.67195378802717,"[25, 0, 229]",229,a,0.3741608620621264,1,colour,0.5,4.0
74,23,1,1,1,48,48,75.18199981655926,76.02395883854479,"[78, 0, 176]",176,l,0.31969943223521113,1,colour,0.5,4.0
74,23,1,1,1,49,49,76.5437659486197,77.50395913794637,"[54, 0, 200]",200,a,0.43793990137055516,0,colour,0.5,4.0
74,23,1,1,1,50,50,78.01256881002337,78.87192795146257,"[9, 0, 245]",245,a,0.3371542966924608,1,colour,0.5,4.0
74,23,1,1,2,1,51,89.0283218654804,90.67196442186832,"[31, 0, 223]",223,a,1.1206086655147374,1,colour,0.5,4.0
74,23,1,1,2,2,52,91.18558460380882,92.47996997321025,"[58, 0, 196]",196,l,0.7722825310193002,1,colour,0.5,4.0
74,23,1,1,2,3,53,92.99814537912607,95.71199533063918,"[39, 0, 215]",215,a,2.191638411488384,1,colour,0.5,4.0
74,23,1,1,2,4,54,96.21715924376622,97.7599760228768,"[13, 0, 241]",241,a,1.0205630976706743,1,colour,0.5,4.0
74,23,1,1,2,5,55,98.2798579633236,99.47996957972646,"[98, 0, 156]",156,l,0.6778898360207677,1,colour,0.5,4.0
74,23,1,1,2,6,56,99.99864635104313,100.99218806345016,"[2, 0, 252]",252,a,0.47198238130658865,1,colour,0.5,4.0
74,23,1,1,2,7,57,101.4986646650359,102.46394831500947,"[5, 0, 249]",249,a,0.4427909036166966,1,colour,0.5,4.0
74,23,1,1,2,8,58,102.98332455707714,105.35994420014322,"[56, 0, 198]",198,l,1.8544025886803865,1,colour,0.5,4.0
74,23,1,1,2,9,59,105.8742016251199,106.88796930201352,"[76, 0, 178]",178,l,0.4915435337461531,1,colour,0.5,4.0
74,23,1,1,2,10,60,107.40554684959352,108.29592412663624,"[88, 0, 166]",166,l,0.3680117428302765,1,colour,0.5,4.0
74,23,1,1,2,11,61,108.81192077556625,109.6319279987365,"[64, 0, 190]",190,l,0.29775747982785106,1,colour,0.5,4.0
74,23,1,1,2,12,62,110.14023952931166,110.96795865241438,"[77, 0, 177]",177,l,0.3060770840384066,1,colour,0.5,4.0
74,23,1,1,2,13,63,111.48404273577034,112.27198182977736,"[63, 0, 191]",191,l,0.26577048329636455,1,colour,0.5,4.0
74,23,1,1,2,14,64,112.78094320651144,113.50399734079838,"[48, 0, 206]",206,a,0.20074728364124894,1,colour,0.5,4.0
74,23,1,1,2,15,65,114.01542852632701,114.76795849530026,"[69, 0, 185]",185,l,0.23028101352974772,1,colour,0.5,4.0
74,23,1,1,2,16,66,115.28116907691583,116.02395056793466,"[85, 0, 169]",169,l,0.22053174767643213,1,colour,0.5,4.0
74,23,1,1,2,17,67,116.53132316935807,117.24000467918813,"[97, 0, 157]",157,l,0.18653101567178965,1,colour,0.5,4.0
74,23,1,1,2,18,68,117.75013696029782,118.30414645094424,"[27, 0, 227]",227,a,0.031901138368994,1,colour,0.5,4.0
74,23,1,1,2,19,69,118.80303875915706,120.35995916603133,"[34, 0, 220]",220,a,1.0349156358279288,1,colour,0.5,4.0
74,23,1,1,2,20,70,120.86572526954114,121.84796399297193,"[45, 0, 209]",209,a,0.45998819218948483,1,colour,0.5,4.0
74,23,1,1,2,21,71,122.36585189122707,123.23198085278273,"[32, 0, 222]",222,a,0.3438685843721032,1,colour,0.5,4.0
74,23,1,1,2,22,72,123.74092214368284,124.55200993455946,"[50, 0, 204]",204,a,0.2887722756713629,1,colour,0.5,4.0
74,23,1,1,2,23,73,125.06914991885424,125.75994136417285,"[6, 0, 248]",248,a,0.16917146183550358,1,colour,0.5,4.0
74,23,1,1,2,24,74,126.27243317710236,127.11998638883233,"[12, 0, 242]",242,a,0.325292834546417,1,colour,0.5,4.0
74,23,1,1,2,25,75,127.63193154335022,128.5279687824659,"[44, 0, 210]",210,a,0.3738398770801723,1,colour,0.5,4.0
74,23,1,1,2,26,76,129.03823536494747,129.64000381249934,"[83, 0, 171]",171,l,0.0795029504224658,1,colour,0.5,4.0
74,23,1,1,2,27,77,130.1476808572188,130.77597720129415,"[22, 0, 232]",232,a,0.10597610240802169,1,colour,0.5,4.0
74,23,1,1,2,28,78,131.28836306976154,132.03997498285025,"[40, 0, 214]",214,a,0.2292865514755249,1,colour,0.5,4.0
74,23,1,1,2,29,79,132.55414654966444,134.2559684421867,"[62, 0, 192]",192,a,1.17958081420511,0,colour,0.5,4.0
74,23,1,1,2,30,80,134.7730190232396,135.35998319089413,"[84, 0, 170]",170,l,0.06463723024353385,1,colour,0.5,4.0
74,23,1,1,2,31,81,135.86694619245827,136.70396480942145,"[47, 0, 207]",207,a,0.31485670106485486,1,colour,0.5,4.0
74,23,1,1,2,32,82,137.2108368324116,137.8879433083348,"[23, 0, 231]",231,a,0.15487051708623767,1,colour,0.5,4.0
74,23,1,1,2,33,83,138.39835482649505,139.63998805871233,"[51, 0, 203]",203,a,0.7193555259145796,0,colour,0.5,4.0
74,23,1,1,2,34,84,140.14849493699148,141.83197029773146,"[89, 0, 165]",165,l,1.1612287680618465,1,colour,0.5,4.0
74,23,1,1,2,35,85,142.35181954922155,143.6159205189906,"[59, 0, 195]",195,a,0.7420170353725553,0,colour,0.5,4.0
74,23,1,1,2,36,86,144.13318456476554,144.7920016166754,"[19, 0, 235]",235,a,0.13706040382385254,1,colour,0.5,4.0
74,23,1,1,2,37,87,145.3051968384534,146.13593951798975,"[95, 0, 159]",159,l,0.3084704871289432,1,colour,0.5,4.0
74,23,1,1,2,38,88,146.64901422336698,147.65602310793474,"[55, 0, 199]",199,a,0.4848343660123646,0,colour,0.5,4.0
74,23,1,1,2,39,89,148.16475093411282,149.01595667377114,"[30, 0, 224]",224,a,0.3289721440523863,1,colour,0.5,4.0
74,23,1,1,2,40,90,149.52424614923075,150.34397728648037,"[86, 0, 168]",168,l,0.29739592922851443,1,colour,0.5,4.0
74,23,1,1,2,41,91,150.85251685371622,151.49595736712217,"[91, 0, 163]",163,l,0.12145110219717026,1,colour,0.5,4.0
74,23,1,1,2,42,92,152.00885996129364,152.69595476752147,"[46, 0, 208]",208,a,0.16490453341975808,1,colour,0.5,4.0
74,23,1,1,2,43,93,153.21208020439371,155.4239575783722,"[67, 0, 187]",187,l,1.6896528364159167,1,colour,0.5,4.0
74,23,1,1,2,44,94,155.93107378622517,156.71196894301102,"[42, 0, 212]",212,a,0.25871551828458905,1,colour,0.5,4.0
74,23,1,1,2,45,95,157.22797543834895,158.10394346294925,"[7, 0, 247]",247,a,0.3537757829762995,1,colour,0.5,4.0
74,23,1,1,2,46,96,158.61873730598018,159.43193374900147,"[38, 0, 216]",216,a,0.29112905031070113,1,colour,0.5,4.0
74,23,1,1,2,47,97,159.9469560231082,160.77596735488623,"[43, 0, 211]",211,a,0.3067474099807441,1,colour,0.5,4.0
74,23,1,1,2,48,98,161.29096087813377,162.10396827524528,"[21, 0, 233]",233,a,0.29098844761028886,1,colour,0.5,4.0
74,23,1,1,2,49,99,162.61903977999464,163.26392531441525,"[73, 0, 181]",181,l,0.12284610513597727,1,colour,0.5,4.0
74,23,1,1,2,50,100,163.77539864135906,164.59195931768045,"[93, 0, 161]",161,l,0.29435346834361553,1,colour,0.5,4.0
74,23,1,1,3,1,101,173.1503475890495,178.63213004171848,"[65, 0, 189]",189,a,4.958693029358983,0,colour,0.5,4.0
74,23,1,1,3,2,102,179.14402399631217,180.5519492821768,"[53, 0, 201]",201,a,0.8856499423272908,0,colour,0.5,4.0
74,23,1,1,3,3,103,181.06598930433393,182.2239270946011,"[5, 0, 249]",249,a,0.6356699303723872,1,colour,0.5,4.0
74,23,1,1,3,4,104,182.7380151655525,183.9280376266688,"[46, 0, 208]",208,a,0.6678152531385422,1,colour,0.5,4.0
74,23,1,1,3,5,105,184.44125963002443,185.55196661129594,"[98, 0, 156]",156,l,0.5883764992468059,1,colour,0.5,4.0
74,23,1,1,3,6,106,186.06641505192965,187.3119430281222,"[40, 0, 214]",214,a,0.7233664547093213,1,colour,0.5,4.0
74,23,1,1,3,7,107,187.83220109157264,188.83195730112493,"[92, 0, 162]",162,l,0.4774655061773956,1,colour,0.5,4.0
74,23,1,1,3,8,108,189.34790550684556,190.5839350973256,"[27, 0, 227]",227,a,0.7137089548632503,1,colour,0.5,4.0
74,23,1,1,3,9,109,191.09808775922284,192.16791391186416,"[35, 0, 219]",219,a,0.5476567540317774,1,colour,0.5,4.0
74,23,1,1,3,10,110,192.67688474059105,193.75996420765296,"[85, 0, 169]",169,l,0.5614153728820384,1,colour,0.5,4.0
74,23,1,1,3,11,111,194.27021306706592,195.34395247418433,"[79, 0, 175]",175,l,0.5517519651912153,1,colour,0.5,4.0
74,23,1,1,3,12,112,195.86406954098493,196.999970855657,"[3, 0, 251]",251,a,0.613667719066143,1,colour,0.5,4.0
74,23,1,1,3,13,113,197.50485631916672,198.65593921858817,"[11, 0, 243]",243,a,0.6288808113895357,1,colour,0.5,4.0
74,23,1,1,3,14,114,199.16122640529647,200.1039198320359,"[60, 0, 194]",194,l,0.4204468340612948,1,colour,0.5,4.0
74,23,1,1,3,15,115,200.61445738049224,201.5359587376006,"[39, 0, 215]",215,a,0.3992197122424841,1,colour,0.5,4.0
74,23,1,1,3,16,116,202.05198453133926,202.92793050035834,"[75, 0, 179]",179,l,0.3537411238066852,1,colour,0.5,4.0
74,23,1,1,3,17,117,203.4427499435842,204.19197042379528,"[29, 0, 225]",225,a,0.22689787531271577,1,colour,0.5,4.0
74,23,1,1,3,18,118,204.7085176697001,205.57591914851218,"[81, 0, 173]",173,l,0.345083205960691,1,colour,0.5,4.0
74,23,1,1,3,19,119,206.08365566376597,206.8719630036503,"[44, 0, 210]",210,a,0.2667637625709176,1,colour,0.5,4.0
74,23,1,1,3,20,120,207.3806219068356,208.27992609888315,"[31, 0, 223]",223,a,0.37712140241637826,1,colour,0.5,4.0
74,23,1,1,3,21,121,208.78694463288411,209.6879628431052,"[8, 0, 246]",246,a,0.3789437282830477,1,colour,0.5,4.0
74,23,1,1,3,22,122,210.19378487300128,210.91994054522365,"[93, 0, 161]",161,l,0.20393192302435637,1,colour,0.5,4.0
74,23,1,1,3,23,123,211.41871588071808,212.22394521161914,"[24, 0, 230]",230,a,0.28299100883305073,1,colour,0.5,4.0
74,23,1,1,3,24,124,212.7313583791256,214.18392690550536,"[47, 0, 207]",207,a,0.9302648259326816,1,colour,0.5,4.0
74,23,1,1,3,25,125,214.70023823762313,215.63997112354264,"[4, 0, 250]",250,a,0.41741737024858594,1,colour,0.5,4.0
74,23,1,1,3,26,126,216.15349717624485,217.1919330083765,"[42, 0, 212]",212,a,0.5164302736520767,1,colour,0.5,4.0
74,23,1,1,3,27,127,217.7004646989517,218.70395063096657,"[30, 0, 224]",224,a,0.48121964698657393,1,colour,0.5,4.0
74,23,1,1,3,28,128,219.2162451269105,220.0559304752387,"[95, 0, 159]",159,l,0.31745293410494924,1,colour,0.5,4.0
74,23,1,1,3,29,129,220.5757415238768,221.4799581579864,"[77, 0, 177]",177,l,0.3820897708646953,1,colour,0.5,4.0
74,23,1,1,3,30,130,221.99776413617656,223.11192120891064,"[54, 0, 200]",200,l,0.591992006637156,1,colour,0.5,4.0
74,23,1,1,3,31,131,223.62289435137063,224.78393722418696,"[78, 0, 176]",176,l,0.6388045512139797,1,colour,0.5,4.0
74,23,1,1,3,32,132,225.2949143052101,226.31191664049402,"[84, 0, 170]",170,l,0.49487507808953524,1,colour,0.5,4.0
74,23,1,1,3,33,133,226.82632412062958,227.7359380214475,"[50, 0, 204]",204,a,0.3874701024033129,1,colour,0.5,4.0
74,23,1,1,3,34,134,228.2481620190665,229.1679202131927,"[87, 0, 167]",167,l,0.39749939227476716,1,colour,0.5,4.0
74,23,1,1,3,35,135,229.68579038837925,230.5919506526552,"[13, 0, 241]",241,a,0.3839573888108134,1,colour,0.5,4.0
74,23,1,1,3,36,136,231.1077724341303,231.967924782075,"[96, 0, 158]",158,l,0.33851661067456007,1,colour,0.5,4.0
74,23,1,1,3,37,137,232.48288482800126,233.35195700172335,"[28, 0, 226]",226,a,0.34685945184901357,1,colour,0.5,4.0
74,23,1,1,3,38,138,233.85800194833428,234.87195040099323,"[61, 0, 193]",193,l,0.4916486912406981,1,colour,0.5,4.0
74,23,1,1,3,39,139,235.38930345559493,236.35192982619628,"[89, 0, 165]",165,l,0.4401816730387509,1,colour,0.5,4.0
74,23,1,1,3,40,140,236.85824101278558,237.71191144175828,"[74, 0, 180]",180,l,0.33139626728370786,1,colour,0.5,4.0
74,23,1,1,3,41,141,238.2177334711887,239.48794614430517,"[52, 0, 202]",202,a,0.7479259083047509,0,colour,0.5,4.0
74,23,1,1,3,42,142,239.99909139750525,240.89595965156332,"[9, 0, 245]",245,a,0.3746968861669302,1,colour,0.5,4.0
74,23,1,1,3,43,143,241.40546768670902,242.4319372936152,"[7, 0, 247]",247,a,0.5040918639861047,1,colour,0.5,4.0
74,23,1,1,3,44,144,242.9524820772931,243.78394825197756,"[68, 0, 186]",186,l,0.3094700681976974,1,colour,0.5,4.0
74,23,1,1,3,45,145,244.29633412044495,245.24793083127588,"[57, 0, 197]",197,a,0.4293127031996846,0,colour,0.5,4.0
74,23,1,1,3,46,146,245.7652433202602,246.6799331093207,"[6, 0, 248]",248,a,0.3924719472415745,1,colour,0.5,4.0
74,23,1,1,3,47,147,247.18723088037223,248.0559592260979,"[15, 0, 239]",239,a,0.34656131034716964,1,colour,0.5,4.0
74,23,1,1,3,48,148,248.56230546487495,249.4959132564254,"[10, 0, 244]",244,a,0.41136316815391183,1,colour,0.5,4.0
74,23,1,1,3,49,149,250.0155848832801,250.87195867160335,"[19, 0, 235]",235,a,0.33411262370646,1,colour,0.5,4.0
74,23,1,1,3,50,150,251.39066025568172,252.2079578177072,"[71, 0, 183]",183,l,0.2950300956144929,1,colour,0.5,4.0
74,23,1,1,4,1,151,260.940729316324,262.42394064273685,"[6, 0, 248]",248,a,0.960118752438575,1,colour,0.5,4.0
74,23,1,1,4,2,152,262.941687149927,263.9679460497573,"[29, 0, 225]",225,a,0.5039091194048524,1,colour,0.5,4.0
74,23,1,1,4,3,153,264.473065063823,265.69594846619293,"[77, 0, 177]",177,l,0.7005375605076551,1,colour,0.5,4.0
74,23,1,1,4,4,154,266.207611232996,267.20790937449783,"[94, 0, 160]",160,l,0.47802004124969244,1,colour,0.5,4.0
74,23,1,1,4,5,155,267.72340465756133,268.66396501427516,"[10, 0, 244]",244,a,0.4183460595086217,1,colour,0.5,4.0
74,23,1,1,4,6,156,269.164106995333,270.3679337617941,"[47, 0, 207]",207,a,0.6815108568407595,1,colour,0.5,4.0
74,23,1,1,4,7,157,270.88305410323665,271.83995080087334,"[67, 0, 187]",187,l,0.434702486731112,1,colour,0.5,4.0
74,23,1,1,4,8,158,272.35191052779555,273.3519054078497,"[96, 0, 158]",158,l,0.477871167473495,1,colour,0.5,4.0
74,23,1,1,4,9,159,273.8676480264403,274.7599571184255,"[43, 0, 211]",211,a,0.3700794349424541,1,colour,0.5,4.0
74,23,1,1,4,10,160,275.27399753406644,278.05595056153834,"[72, 0, 182]",182,l,2.2596863489598036,1,colour,0.5,4.0
74,23,1,1,4,11,161,278.5619143755175,279.543938846793,"[76, 0, 178]",178,l,0.4598188386298716,1,colour,0.5,4.0
74,23,1,1,4,12,162,280.0619972804561,280.9759041033685,"[16, 0, 238]",238,a,0.3915917011909187,1,colour,0.5,4.0
74,23,1,1,4,13,163,281.4840159541927,282.4719071565196,"[48, 0, 206]",206,a,0.46482698526233435,1,colour,0.5,4.0
74,23,1,1,4,14,164,282.986855387222,283.8399035395123,"[93, 0, 161]",161,l,0.3341815466992557,1,colour,0.5,4.0
74,23,1,1,4,15,165,284.3587287911214,285.27189833438024,"[38, 0, 216]",216,a,0.39086623676121235,1,colour,0.5,4.0
74,23,1,1,4,16,166,285.7806777539663,286.79994076583534,"[63, 0, 191]",191,l,0.49699042551219463,1,colour,0.5,4.0
74,23,1,1,4,17,167,287.3120647263713,288.25590109452605,"[80, 0, 174]",174,l,0.4215728403069079,1,colour,0.5,4.0
74,23,1,1,4,18,168,288.7653142125346,289.62393331713974,"[44, 0, 210]",210,a,0.3363760565407574,1,colour,0.5,4.0
74,23,1,1,4,19,169,290.1404730803333,291.07190487207845,"[64, 0, 190]",190,l,0.4096881407313049,1,colour,0.5,4.0
74,23,1,1,4,20,170,291.5780435539782,292.40792883047834,"[91, 0, 163]",163,l,0.3076201733201742,1,colour,0.5,4.0
74,23,1,1,4,21,171,292.9218404586427,293.5199169931002,"[0, 0, 254]",254,a,0.07533605908975005,1,colour,0.5,4.0
74,23,1,1,4,22,172,294.0317215449177,295.52797035779804,"[59, 0, 195]",195,a,0.9739907989278436,0,colour,0.5,4.0
74,23,1,1,4,23,173,296.04750571399927,296.9359054896049,"[58, 0, 196]",196,a,0.3661504262126982,0,colour,0.5,4.0
74,23,1,1,4,24,174,297.4537961445749,298.47990459483117,"[57, 0, 197]",197,a,0.5038902144879103,0,colour,0.5,4.0
74,23,1,1,4,25,175,298.9852843354456,299.73590218136087,"[27, 0, 227]",227,l,0.2330119418911636,0,colour,0.5,4.0
74,23,1,1,4,26,176,300.2462814040482,301.04790113540366,"[30, 0, 224]",224,a,0.27936723129823804,1,colour,0.5,4.0
74,23,1,1,4,27,177,301.55889869621024,302.2559259068221,"[53, 0, 201]",201,a,0.1746782180853188,0,colour,0.5,4.0
74,23,1,1,4,28,178,302.7621709271334,303.70394196594134,"[19, 0, 235]",235,a,0.419521689414978,1,colour,0.5,4.0
74,23,1,1,4,29,179,304.21534833917394,305.11994542879984,"[75, 0, 179]",179,l,0.3823434077203274,1,colour,0.5,4.0
74,23,1,1,4,30,180,305.62483522482216,306.6479342970997,"[36, 0, 218]",218,a,0.5008312119171023,1,colour,0.5,4.0
74,23,1,1,4,31,181,307.15621235081926,308.5999177652411,"[61, 0, 193]",193,a,0.9214032893069088,0,colour,0.5,4.0
74,23,1,1,4,32,182,309.10953095695004,309.9518747664988,"[99, 0, 155]",155,l,0.3200794938020408,1,colour,0.5,4.0
74,23,1,1,4,33,183,310.46900766156614,311.4639120809734,"[74, 0, 180]",180,l,0.4727043006569147,1,colour,0.5,4.0
74,23,1,1,4,34,184,311.96922447392717,313.1598999318667,"[20, 0, 234]",234,a,0.6686340593732893,1,colour,0.5,4.0
74,23,1,1,4,35,185,313.6724512153305,314.68001069687307,"[26, 0, 228]",228,a,0.48528413800522685,1,colour,0.5,4.0
74,23,1,1,4,36,186,315.1882729968056,316.12791096558794,"[39, 0, 215]",215,a,0.4174551791511476,1,colour,0.5,4.0
74,23,1,1,4,37,187,316.6416949876584,317.567917377688,"[83, 0, 171]",171,l,0.4039242034777999,1,colour,0.5,4.0
74,23,1,1,4,38,188,318.0793202063069,318.9999208371155,"[13, 0, 241]",241,a,0.3983331648632884,1,colour,0.5,4.0
74,23,1,1,4,39,189,319.5169147043489,320.5839134361595,"[3, 0, 251]",251,a,0.5446521020494401,1,colour,0.5,4.0
74,23,1,1,4,40,190,321.0952103198506,322.1919137099758,"[24, 0, 230]",230,a,0.5744737330824137,1,colour,0.5,4.0
74,23,1,1,4,41,191,322.70471548009664,323.61589019279927,"[69, 0, 185]",185,l,0.38887849589809775,1,colour,0.5,4.0
74,23,1,1,4,42,192,324.1266955565661,324.9838940585032,"[46, 0, 208]",208,a,0.3354851766489446,1,colour,0.5,4.0
74,23,1,1,4,43,193,325.5017902273685,326.43992370413616,"[82, 0, 172]",172,l,0.41591602889820933,1,colour,0.5,4.0
74,23,1,1,4,44,194,326.9550991845317,327.959885595832,"[86, 0, 168]",168,l,0.48267018189653754,1,colour,0.5,4.0
74,23,1,1,4,45,195,328.4708284121007,329.59189630206674,"[66, 0, 188]",188,l,0.5988854942843318,1,colour,0.5,4.0
74,23,1,1,4,46,196,330.1114584398456,331.0479172831401,"[9, 0, 245]",245,a,0.41408188780769706,1,colour,0.5,4.0
74,23,1,1,4,47,197,331.56544008571655,332.6158964941278,"[23, 0, 231]",231,a,0.5288687204010785,1,colour,0.5,4.0
74,23,1,1,4,48,198,333.1274214149453,334.06391688622534,"[12, 0, 242]",242,a,0.4147459124214947,1,colour,0.5,4.0
74,23,1,1,4,49,199,334.58066302444786,335.3758902400732,"[73, 0, 181]",181,l,0.2729412387125194,1,colour,0.5,4.0
74,23,1,1,4,50,200,335.8932673195377,337.4879319658503,"[11, 0, 243]",243,a,1.0724491672590375,1,colour,0.5,4.0
74,23,1,1,5,1,201,344.4273379589431,348.36790540488437,"[9, 0, 245]",245,a,3.423995781224221,1,colour,0.4,4.0
74,23,1,1,5,2,202,348.87583175394684,350.18390642572194,"[77, 0, 177]",177,l,0.7858639191836119,1,colour,0.4,4.0
74,23,1,1,5,3,203,350.7040223106742,351.5679453406483,"[98, 0, 156]",156,l,0.34168273909017444,1,colour,0.4,4.0
74,23,1,1,5,4,204,352.07915597222745,353.01592319691554,"[59, 0, 195]",195,a,0.41453087190166116,0,colour,0.4,4.0
74,23,1,1,5,5,205,353.53244681237265,355.40792567981407,"[61, 0, 193]",193,a,1.3534248657524586,0,colour,0.4,4.0
74,23,1,1,5,6,206,355.9232047414407,356.9759285217151,"[54, 0, 200]",200,a,0.5304515878669918,0,colour,0.4,4.0
74,23,1,1,5,7,207,357.485887510702,358.4559166119434,"[24, 0, 230]",230,a,0.4480219669640064,1,colour,0.4,4.0
74,23,1,1,5,8,208,358.97031306428835,359.99191276496276,"[32, 0, 222]",222,a,0.4995165541768074,1,colour,0.4,4.0
74,23,1,1,5,9,209,360.50174296600744,361.39189378125593,"[16, 0, 238]",238,a,0.36791643174365163,1,colour,0.4,4.0
74,23,1,1,5,10,210,361.90685107093304,362.73589863674715,"[87, 0, 167]",167,l,0.30676828417927027,1,colour,0.4,4.0
74,23,1,1,5,11,211,363.25061252946034,364.15193203184754,"[90, 0, 164]",164,l,0.3789874454960227,1,colour,0.4,4.0
74,23,1,1,5,12,212,364.65705380309373,365.8159261904657,"[60, 0, 194]",194,a,0.6365852286107838,0,colour,0.4,4.0
74,23,1,1,5,13,213,366.32903161551803,367.359922144562,"[48, 0, 206]",206,a,0.5087085273116827,1,colour,0.4,4.0
74,23,1,1,5,14,214,367.87599520012736,368.7759023704566,"[88, 0, 166]",166,l,0.37767790723592043,1,colour,0.4,4.0
74,23,1,1,5,15,215,369.2823167447932,370.21593595761806,"[84, 0, 170]",170,l,0.411308029666543,1,colour,0.4,4.0
74,23,1,1,5,16,216,370.7356067970395,371.6319177588448,"[50, 0, 204]",204,a,0.37442828342318535,1,colour,0.4,4.0
74,23,1,1,5,17,217,372.1419456708245,373.09588852291927,"[31, 0, 223]",223,a,0.4316363949328661,1,colour,0.4,4.0
74,23,1,1,5,18,218,373.6108190305531,374.45589731354266,"[56, 0, 198]",198,a,0.322819875087589,0,colour,0.4,4.0
74,23,1,1,5,19,219,374.9702595015988,375.97591119259596,"[13, 0, 241]",241,a,0.4835976893082261,1,colour,0.4,4.0
74,23,1,1,5,20,220,376.4860521382652,377.3438953664154,"[14, 0, 240]",240,a,0.33566555846482515,1,colour,0.4,4.0
74,23,1,1,5,21,221,377.8611700460315,379.25590030662715,"[57, 0, 197]",197,a,0.8724639760330319,0,colour,0.4,4.0
74,23,1,1,5,22,222,379.76754023041576,380.86387025471777,"[96, 0, 158]",158,l,0.5740357763133943,1,colour,0.4,4.0
74,23,1,1,5,23,223,381.37711116299033,382.38392509380355,"[79, 0, 175]",175,l,0.4845834863372147,1,colour,0.4,4.0
74,23,1,1,5,24,224,382.89378562103957,383.8638978237286,"[95, 0, 159]",159,l,0.4479089332744479,1,colour,0.4,4.0
74,23,1,1,5,25,225,384.3782017226331,385.3038853309117,"[82, 0, 172]",172,l,0.4029833050444722,1,colour,0.4,4.0
74,23,1,1,5,26,226,385.81627001799643,386.6639118446037,"[43, 0, 211]",211,a,0.3253755420446396,1,colour,0.4,4.0
74,23,1,1,5,27,227,387.1758432146162,388.04787711054087,"[52, 0, 202]",202,a,0.34988773381337523,0,colour,0.4,4.0
74,23,1,1,5,28,228,388.5665015010163,389.4159246934578,"[46, 0, 208]",208,a,0.3271683291532099,1,colour,0.4,4.0
74,23,1,1,5,29,229,389.9260463407263,390.4879303900525,"[97, 0, 157]",157,l,0.03978633042424917,1,colour,0.4,4.0
74,23,1,1,5,30,230,391.0042031253688,391.75186870153993,"[53, 0, 201]",201,a,0.22543158661574125,0,colour,0.4,4.0
74,23,1,1,5,31,231,392.26995824836195,392.9359074588865,"[18, 0, 236]",236,a,0.1439452269114554,1,colour,0.4,4.0
74,23,1,1,5,32,232,393.44190829480067,394.22393339592963,"[94, 0, 160]",160,l,0.25974778877571225,1,colour,0.4,4.0
74,23,1,1,5,33,233,394.7388895037584,395.5838783835061,"[78, 0, 176]",176,l,0.3226812407374382,1,colour,0.4,4.0
74,23,1,1,5,34,234,396.0983539992012,396.83191437181085,"[6, 0, 248]",248,a,0.2113413494080305,1,colour,0.4,4.0
74,23,1,1,5,35,235,397.34850809164345,398.63190515572205,"[67, 0, 187]",187,l,0.7611650438047945,1,colour,0.4,4.0
74,23,1,1,5,36,236,399.14547413773835,399.9998684558086,"[85, 0, 169]",169,l,0.3350180760025978,1,colour,0.4,4.0
74,23,1,1,5,37,237,400.5177516276017,401.4158790074289,"[11, 0, 243]",243,a,0.3759237164631486,1,colour,0.4,4.0
74,23,1,1,5,38,238,401.92415942437947,402.719926209189,"[37, 0, 217]",217,a,0.273543035145849,1,colour,0.4,4.0
74,23,1,1,5,39,239,403.2367853811011,404.0479109813459,"[89, 0, 165]",165,l,0.2891066507436335,1,colour,0.4,4.0
74,23,1,1,5,40,240,404.5649753473699,405.3838884662837,"[36, 0, 218]",218,a,0.29673190461471677,1,colour,0.4,4.0
74,23,1,1,5,41,241,405.89319051988423,406.68788761878386,"[34, 0, 220]",220,a,0.2724233311600983,1,colour,0.4,4.0
74,23,1,1,5,42,242,407.2058318364434,408.0958648920059,"[21, 0, 233]",233,a,0.36767973052337766,1,colour,0.4,4.0
74,23,1,1,5,43,243,408.61210690718144,409.51192231150344,"[86, 0, 168]",168,l,0.37753060832619667,1,colour,0.4,4.0
74,23,1,1,5,44,244,410.0185899287462,410.88788974517956,"[4, 0, 250]",250,a,0.34725093469023705,1,colour,0.4,4.0
74,23,1,1,5,45,245,411.3935995288193,412.30390817439184,"[92, 0, 162]",162,l,0.38807583786547184,1,colour,0.4,4.0
74,23,1,1,5,46,246,412.81562726106495,414.4718977040611,"[55, 0, 199]",199,l,1.1339986440725625,1,colour,0.4,4.0
74,23,1,1,5,47,247,414.987650168594,415.8399267764762,"[27, 0, 227]",227,a,0.33003395376726985,1,colour,0.4,4.0
74,23,1,1,5,48,248,416.3471571994014,417.23990976205096,"[23, 0, 231]",231,a,0.37055598851293325,1,colour,0.4,4.0
74,23,1,1,5,49,249,417.7535350639373,418.64789136778563,"[58, 0, 196]",196,a,0.37235586484894156,0,colour,0.4,4.0
74,23,1,1,5,50,250,419.1599070210941,419.7199974954128,"[99, 0, 155]",155,l,0.03802190022543073,1,colour,0.4,4.0
74,23,1,1,6,1,251,426.14400351652876,428.0239367829636,"[87, 0, 167]",167,a,1.356864717323333,0,colour,0.28,3.9
74,23,1,1,6,2,252,428.5356621714309,429.8158966517076,"[44, 0, 210]",210,a,0.7581828413531184,1,colour,0.28,3.9
74,23,1,1,6,3,253,430.33260340522975,431.5518878423609,"[63, 0, 191]",191,l,0.6970157888717949,1,colour,0.28,3.9
74,23,1,1,6,4,254,432.06714918091893,433.735935264267,"[48, 0, 206]",206,l,1.1465812386013567,0,colour,0.28,3.9
74,23,1,1,6,5,255,434.2548199868761,435.1358831981197,"[80, 0, 174]",174,l,0.35891429241746664,1,colour,0.28,3.9
74,23,1,1,6,6,256,435.6455105682835,436.5998874390498,"[70, 0, 184]",184,l,0.4320129118859768,1,colour,0.28,3.9
74,23,1,1,6,7,257,437.11436384217814,438.063886560034,"[57, 0, 197]",197,l,0.4272717931307852,1,colour,0.28,3.9
74,23,1,1,6,8,258,438.58324901759624,439.35191486030817,"[22, 0, 232]",232,a,0.24640782875940204,1,colour,0.28,3.9
74,23,1,1,6,9,259,439.86524635273963,440.77589606912807,"[89, 0, 165]",165,l,0.3883704342879355,1,colour,0.28,3.9
74,23,1,1,6,10,260,441.2872299742885,442.14387984899804,"[7, 0, 247]",247,a,0.334648254327476,1,colour,0.28,3.9
74,23,1,1,6,11,261,442.6623163744807,443.43191169342026,"[66, 0, 188]",188,l,0.2570893275551498,1,colour,0.28,3.9
74,23,1,1,6,12,262,443.9496247237548,444.7358592520468,"[72, 0, 182]",182,l,0.2640478000976145,1,colour,0.28,3.9
74,23,1,1,6,13,263,445.24737944686785,446.0078974016942,"[76, 0, 178]",178,l,0.23897989140823483,1,colour,0.28,3.9
74,23,1,1,6,14,264,446.52797035779804,447.0959330275655,"[19, 0, 235]",235,a,0.0456333695910871,1,colour,0.28,3.9
74,23,1,1,6,15,265,447.6061767670326,448.47986836126074,"[50, 0, 204]",204,a,0.35137765388935804,1,colour,0.28,3.9
74,23,1,1,6,16,266,448.9968586838804,449.52788174245507,"[92, 0, 162]",162,l,0.008625229354947805,1,colour,0.28,3.9
74,23,1,1,6,17,267,450.0438728774898,451.89590254379436,"[91, 0, 163]",163,l,1.3298063105903566,1,colour,0.28,3.9
74,23,1,1,6,18,268,452.4033921174705,453.3118926156312,"[77, 0, 177]",177,l,0.3864401946775615,1,colour,0.28,3.9
74,23,1,1,6,19,269,453.82542221294716,454.67987009417266,"[99, 0, 155]",155,l,0.33216308569535613,1,colour,0.28,3.9
74,23,1,1,6,20,270,455.1849245177582,456.0398784908466,"[98, 0, 156]",156,l,0.33275976218283176,1,colour,0.28,3.9
74,23,1,1,6,21,271,456.5475870431401,457.4398894398473,"[81, 0, 173]",173,l,0.37003808096051216,1,colour,0.28,3.9
74,23,1,1,6,22,272,457.9538203664124,458.84791239956394,"[69, 0, 185]",185,l,0.3722400744445622,1,colour,0.28,3.9
74,23,1,1,6,23,273,459.36004699394107,460.4319065734744,"[43, 0, 211]",211,a,0.549630316440016,1,colour,0.28,3.9
74,23,1,1,6,24,274,460.93826108332723,462.0078930691816,"[31, 0, 223]",223,a,0.5472518797032535,1,colour,0.28,3.9
74,23,1,1,6,25,275,462.51655984902754,463.39990342920646,"[18, 0, 236]",236,a,0.36110289534553885,1,colour,0.28,3.9
74,23,1,1,6,26,276,463.90731895994395,464.8158887750469,"[64, 0, 190]",190,l,0.38623618241399527,1,colour,0.28,3.9
74,23,1,1,6,27,277,465.33191890083253,466.29589892039075,"[94, 0, 160]",160,l,0.44248842960223556,1,colour,0.28,3.9
74,23,1,1,6,28,278,466.8164043193683,467.68789982795715,"[78, 0, 176]",176,l,0.34918550681322813,1,colour,0.28,3.9
74,23,1,1,6,29,279,468.20721384231,469.0799007350579,"[90, 0, 164]",164,l,0.35042454628273845,1,colour,0.28,3.9
74,23,1,1,6,30,280,469.5978894578293,470.53589375317097,"[15, 0, 239]",239,a,0.4157647918909788,1,colour,0.28,3.9
74,23,1,1,6,31,281,471.05111491912976,472.01588223688304,"[51, 0, 203]",203,l,0.44249433744698763,1,colour,0.28,3.9
74,23,1,1,6,32,282,472.5356653225608,473.9598911097273,"[93, 0, 161]",161,l,0.9021702101454139,1,colour,0.28,3.9
74,23,1,1,6,33,283,474.4732643500902,475.39990579197183,"[73, 0, 181]",181,l,0.40431923093274236,1,colour,0.28,3.9
74,23,1,1,6,34,284,475.9108560914174,476.90393542824313,"[68, 0, 186]",186,l,0.4708004486747086,1,colour,0.28,3.9
74,23,1,1,6,35,285,477.41099767945707,478.1918885037303,"[26, 0, 228]",228,a,0.25857176445424557,1,colour,0.28,3.9
74,23,1,1,6,36,286,478.70792729454115,479.6318638017401,"[24, 0, 230]",230,a,0.4015237116254866,1,colour,0.28,3.9
74,23,1,1,6,37,287,480.14547965163365,480.8159049227834,"[86, 0, 168]",168,l,0.14689552830532193,1,colour,0.28,3.9
74,23,1,1,6,38,288,481.33442454971373,483.7598996167071,"[96, 0, 158]",158,l,1.903232806827873,1,colour,0.28,3.9
74,23,1,1,6,39,289,484.27202869718894,485.0958735565655,"[82, 0, 172]",172,l,0.30149744218215346,1,colour,0.28,3.9
74,23,1,1,6,40,290,485.61596581107005,486.9038751698099,"[30, 0, 224]",224,a,0.7656883662566543,1,colour,0.28,3.9
74,23,1,1,6,41,291,487.41315674362704,489.4318990902975,"[47, 0, 207]",207,l,1.4966032742522657,0,colour,0.28,3.9
74,23,1,1,6,42,292,489.94442753121257,491.0799090061337,"[85, 0, 169]",169,l,0.6131490240804851,1,colour,0.28,3.9
74,23,1,1,6,43,293,491.5851804385893,492.4478825456463,"[62, 0, 192]",192,l,0.34049883717671037,1,colour,0.28,3.9
74,23,1,1,6,44,294,492.960312130861,493.7358852461912,"[56, 0, 198]",198,l,0.2533320365473628,1,colour,0.28,3.9
74,23,1,1,6,45,295,494.24158754665405,495.07984795980155,"[97, 0, 157]",157,l,0.315924811642617,1,colour,0.28,3.9
74,23,1,1,6,46,296,495.58545691892505,496.39187133219093,"[79, 0, 175]",175,l,0.2841682145372033,1,colour,0.28,3.9
74,23,1,1,6,47,297,496.8980647586286,497.55187051324174,"[74, 0, 180]",180,l,0.1314575495198369,1,colour,0.28,3.9
74,23,1,1,6,48,298,498.0701026325114,498.9038728065789,"[61, 0, 193]",193,l,0.31177958147600293,1,colour,0.28,3.9
74,23,1,1,6,49,299,499.4139574323781,500.12787985196337,"[20, 0, 234]",234,a,0.19172190688550472,1,colour,0.28,3.9
74,23,1,1,6,50,300,500.648384463042,502.3918740893714,"[55, 0, 199]",199,a,1.2214423194527626,0,colour,0.28,3.9
74,23,1,1,7,1,301,507.16379310004413,509.22391567286104,"[54, 0, 200]",200,l,1.5371753280051053,1,colour,0.14,3.9
74,23,1,1,7,2,302,509.74283544765785,510.4479065705091,"[78, 0, 176]",176,l,0.18285288708284497,1,colour,0.14,3.9
74,23,1,1,7,3,303,510.96171028446406,511.48789612576365,"[84, 0, 170]",170,l,0.0038758395239710808,1,colour,0.14,3.9
74,23,1,1,7,4,304,512.0086437398568,512.8638895531185,"[70, 0, 184]",184,l,0.33288658037781715,1,colour,0.14,3.9
74,23,1,1,7,5,305,513.3838018197566,513.9838739726692,"[82, 0, 172]",172,l,0.07789133256301284,1,colour,0.14,3.9
74,23,1,1,7,6,306,514.4934095768258,515.0399107863195,"[85, 0, 169]",169,l,0.02439403859898448,1,colour,0.14,3.9
74,23,1,1,7,7,307,515.5558361490257,517.3998652258888,"[88, 0, 166]",166,l,1.3217238010838628,1,colour,0.14,3.9
74,23,1,1,7,8,308,517.9154018629342,518.5918762157671,"[86, 0, 168]",168,l,0.15425099711865187,1,colour,0.14,3.9
74,23,1,1,7,9,309,519.1029667244293,519.7358521628194,"[91, 0, 163]",163,l,0.11074754735454917,1,colour,0.14,3.9
74,23,1,1,7,10,310,520.2437139214016,520.8798655252904,"[18, 0, 236]",236,a,0.1139377006329596,1,colour,0.14,3.9
74,23,1,1,7,11,311,521.4000314292498,522.9118698514067,"[77, 0, 177]",177,l,1.00275889178738,1,colour,0.14,3.9
74,23,1,1,7,12,312,523.4190199300647,524.7918582563289,"[58, 0, 196]",196,l,0.8506630198098719,1,colour,0.14,3.9
74,23,1,1,7,13,313,525.3098288620822,526.0878863581456,"[51, 0, 203]",203,a,0.25589242950081825,0,colour,0.14,3.9
74,23,1,1,7,14,314,526.606799043715,528.975860780105,"[61, 0, 193]",193,l,1.8467635498382151,1,colour,0.14,3.9
74,23,1,1,7,15,315,529.4819911913946,530.279874898959,"[21, 0, 233]",233,a,0.2756505059078336,1,colour,0.14,3.9
74,23,1,1,7,16,316,530.7946151793003,531.4479065705091,"[66, 0, 188]",188,l,0.13101132214069366,1,colour,0.14,3.9
74,23,1,1,7,17,317,531.9665471082553,532.5678657838143,"[55, 0, 199]",199,l,0.07905593514442444,1,colour,0.14,3.9
74,23,1,1,7,18,318,533.0760024469346,533.6958732414059,"[69, 0, 185]",185,l,0.09762617154046893,1,colour,0.14,3.9
74,23,1,1,7,19,319,534.20110922819,534.7279047430493,"[76, 0, 178]",178,l,0.004502448253333569,1,colour,0.14,3.9
74,23,1,1,7,20,320,535.2480852189474,536.7518289228901,"[99, 0, 155]",155,l,0.9815396466292441,1,colour,0.14,3.9
74,23,1,1,7,21,321,537.2638764772564,538.0078918877989,"[50, 0, 204]",204,a,0.2217510947957635,1,colour,0.14,3.9
74,23,1,1,7,22,322,538.5139537695795,539.9358968250453,"[81, 0, 173]",173,l,0.9004416195675731,1,colour,0.14,3.9
74,23,1,1,7,23,323,540.4516524402425,541.2878873036243,"[95, 0, 159]",159,l,0.31401229510083795,1,colour,0.14,3.9
74,23,1,1,7,24,324,541.7955308710225,542.6798854540102,"[45, 0, 209]",209,a,0.3621879410929978,1,colour,0.14,3.9
74,23,1,1,7,25,325,543.1861986098811,543.839829496108,"[74, 0, 180]",180,l,0.13150244764983654,1,colour,0.14,3.9
74,23,1,1,7,26,326,544.3581545636989,544.9758595987223,"[87, 0, 167]",167,l,0.09541945206001401,1,colour,0.14,3.9
74,23,1,1,7,27,327,545.483578784857,546.45583666116,"[53, 0, 201]",201,a,0.4500164035707712,0,colour,0.14,3.9
74,23,1,1,7,28,328,546.9681622711942,547.6718687172979,"[90, 0, 164]",164,l,0.1814878168515861,1,colour,0.14,3.9
74,23,1,1,7,29,329,548.187013477087,549.3918898431584,"[64, 0, 190]",190,l,0.6829373673535883,1,colour,0.14,3.9
74,23,1,1,7,30,330,549.9058117112145,550.5598596804775,"[97, 0, 157]",157,l,0.13170803524553776,1,colour,0.14,3.9
74,23,1,1,7,31,331,551.0777979912236,551.7278897766955,"[80, 0, 174]",174,l,0.1278814268298447,1,colour,0.14,3.9
74,23,1,1,7,32,332,552.2436509062536,552.8158875931986,"[89, 0, 165]",165,l,0.04990541748702526,1,colour,0.14,3.9
74,23,1,1,7,33,333,553.32193529699,554.0238820384257,"[0, 0, 254]",254,a,0.17965603852644563,1,colour,0.14,3.9
74,23,1,1,7,34,334,554.5408522752114,555.1518930410966,"[83, 0, 171]",171,l,0.08870752714574337,1,colour,0.14,3.9
74,23,1,1,7,35,335,555.6658952538855,557.0398773094639,"[56, 0, 198]",198,a,0.8517736662179232,0,colour,0.14,3.9
74,23,1,1,7,36,336,557.5566616505384,558.7998809013516,"[62, 0, 192]",192,l,0.7208745907992125,1,colour,0.14,3.9
74,23,1,1,7,37,337,559.3068072749302,560.0239407215267,"[40, 0, 214]",214,a,0.19486243557184935,1,colour,0.14,3.9
74,23,1,1,7,38,338,560.5412709335797,561.5598675576039,"[59, 0, 195]",195,l,0.49633703473955393,1,colour,0.14,3.9
74,23,1,1,7,39,339,562.072672478389,562.7599031613208,"[44, 0, 210]",210,a,0.16494194930419326,1,colour,0.14,3.9
74,23,1,1,7,40,340,563.2758734226227,563.8958576451987,"[96, 0, 158]",158,l,0.09779591904953122,1,colour,0.14,3.9
74,23,1,1,7,41,341,564.400936093647,565.0798247228377,"[67, 0, 187]",187,l,0.1565309721045196,1,colour,0.14,3.9
74,23,1,1,7,42,342,565.588558062911,566.2638886868954,"[75, 0, 179]",179,l,0.1530926963314414,1,colour,0.14,3.9
74,23,1,1,7,43,343,566.7761599458754,568.2718837619759,"[98, 0, 156]",156,l,0.9735177899710834,1,colour,0.14,3.9
74,23,1,1,7,44,344,568.7918795240112,569.5678842943162,"[73, 0, 181]",181,l,0.25371721759438515,1,colour,0.14,3.9
74,23,1,1,7,45,345,570.0733010563999,570.9039125852287,"[72, 0, 182]",182,l,0.30832752073183656,1,colour,0.14,3.9
74,23,1,1,7,46,346,571.4171263179742,572.2398491096683,"[79, 0, 175]",175,l,0.3011555834673345,1,colour,0.14,3.9
74,23,1,1,7,47,347,572.7454076563008,573.5598632250912,"[92, 0, 162]",162,l,0.29229995468631387,1,colour,0.14,3.9
74,23,1,1,7,48,348,574.0735200350173,575.0078907064162,"[12, 0, 242]",242,a,0.4244613074697554,1,colour,0.14,3.9
74,23,1,1,7,49,349,575.5144819174893,576.3198483064771,"[57, 0, 197]",197,l,0.28317060275003314,1,colour,0.14,3.9
74,23,1,1,7,50,350,576.8273319727741,577.5678744483739,"[60, 0, 194]",194,a,0.21802058489993215,0,colour,0.14,3.9
74,23,1,1,8,1,351,582.0524992882274,583.0398784908466,"[99, 0, 155]",155,l,0.46460406854748726,1,colour,0.06,3.9
74,23,1,1,8,2,352,583.5463515478186,584.3998892507516,"[84, 0, 170]",170,l,0.33206226071342826,1,colour,0.06,3.9
74,23,1,1,8,3,353,584.9057845356874,585.7518816981465,"[83, 0, 171]",171,l,0.32386750541627407,1,colour,0.06,3.9
74,23,1,1,8,4,354,586.2653573388234,587.1438869382255,"[4, 0, 250]",250,a,0.35523852705955505,1,colour,0.06,3.9
74,23,1,1,8,5,355,587.6570935817435,588.4878717069514,"[74, 0, 180]",180,l,0.30846457881852984,1,colour,0.06,3.9
74,23,1,1,8,6,356,589.0009751631878,589.7998564825393,"[79, 0, 175]",175,l,0.27666387148201466,1,colour,0.06,3.9
74,23,1,1,8,7,357,590.3136015138589,591.8718936871737,"[64, 0, 190]",190,l,1.0360613348893821,1,colour,0.06,3.9
74,23,1,1,8,8,358,592.3916771663353,593.4399036183022,"[66, 0, 188]",188,l,0.5257533979602158,1,colour,0.06,3.9
74,23,1,1,8,9,359,593.9544906923547,594.8319017686881,"[69, 0, 185]",185,l,0.3552026869729161,1,colour,0.06,3.9
74,23,1,1,8,10,360,595.3451564614661,596.0158712095581,"[86, 0, 168]",168,l,0.1514602042734623,1,colour,0.06,3.9
74,23,1,1,8,11,361,596.5296103330329,597.1918534515426,"[81, 0, 173]",173,l,0.13994650775566697,1,colour,0.06,3.9
74,23,1,1,8,12,362,597.701626545284,598.4718567440286,"[60, 0, 194]",194,l,0.24791113892570138,1,colour,0.06,3.9
74,23,1,1,8,13,363,598.9830043604597,599.7598405396566,"[49, 0, 205]",205,a,0.25459667574614286,1,colour,0.06,3.9
74,23,1,1,8,14,364,600.2799217663705,601.1678634993732,"[75, 0, 179]",179,l,0.3658554353751242,1,colour,0.06,3.9
74,23,1,1,8,15,365,601.6862874217331,602.3038794235326,"[92, 0, 162]",162,l,0.09545214148238301,1,colour,0.06,3.9
74,23,1,1,8,16,366,602.8113386710174,603.5518905990757,"[80, 0, 174]",174,l,0.21829076297581196,1,colour,0.06,3.9
74,23,1,1,8,17,367,604.062660517171,604.8958517378196,"[34, 0, 220]",220,a,0.31102418527007103,1,colour,0.06,3.9
74,23,1,1,8,18,368,605.4063207572326,605.9598970171064,"[95, 0, 159]",159,l,0.03116582753136754,1,colour,0.06,3.9
74,23,1,1,8,19,369,606.46907894779,607.9678641296923,"[98, 0, 156]",156,l,0.9766988847404718,1,colour,0.06,3.9
74,23,1,1,8,20,370,608.4848044337705,609.5998764112592,"[63, 0, 191]",191,l,0.5928639816120267,1,colour,0.06,3.9
74,23,1,1,8,21,371,610.109908261802,611.0318782953545,"[56, 0, 198]",198,l,0.39976518880575895,1,colour,0.06,3.9
74,23,1,1,8,22,372,611.5475425384939,612.2558782515116,"[65, 0, 189]",189,l,0.18603437580168247,1,colour,0.06,3.9
74,23,1,1,8,23,373,612.7663720832206,613.7918606195599,"[51, 0, 203]",203,l,0.5133724524639547,1,colour,0.06,3.9
74,23,1,1,8,24,374,614.3031740449369,615.1278845779598,"[72, 0, 182]",182,l,0.3026364450342953,1,colour,0.06,3.9
74,23,1,1,8,25,375,615.6470591709949,618.0638869539835,"[55, 0, 199]",199,l,1.8947651162743568,1,colour,0.06,3.9
74,23,1,1,8,26,376,618.5691363313235,619.5758644035086,"[89, 0, 165]",165,l,0.485227030236274,1,colour,0.06,3.9
74,23,1,1,8,27,377,620.0848887958564,620.9598706294782,"[71, 0, 183]",183,l,0.352712397929281,1,colour,0.06,3.9
74,23,1,1,8,28,378,621.4756250632927,622.0878650904633,"[68, 0, 186]",186,l,0.08996310830116272,1,colour,0.06,3.9
74,23,1,1,8,29,379,622.6007216051221,623.6558848679997,"[54, 0, 200]",200,a,0.5328831938095391,0,colour,0.06,3.9
74,23,1,1,8,30,380,624.1632877956145,624.9518731911667,"[52, 0, 202]",202,a,0.2663332889787853,0,colour,0.06,3.9
74,23,1,1,8,31,381,625.4603568324819,626.2718869126402,"[59, 0, 195]",195,a,0.2893193275667727,0,colour,0.06,3.9
74,23,1,1,8,32,382,626.7886263555847,627.5278797731735,"[57, 0, 197]",197,a,0.21709347097203135,0,colour,0.06,3.9
74,23,1,1,8,33,383,628.0386741096154,628.6558702955954,"[50, 0, 204]",204,a,0.0950023690238595,1,colour,0.06,3.9
74,23,1,1,8,34,384,629.163664706517,629.7358458614908,"[96, 0, 158]",158,l,0.049878242425620556,1,colour,0.06,3.9
74,23,1,1,8,35,385,630.2418431523256,630.8078795210458,"[76, 0, 178]",178,l,0.04359442833811045,1,colour,0.06,3.9
74,23,1,1,8,36,386,631.3201318755746,632.8958434667438,"[67, 0, 187]",187,l,1.0537162725813687,1,colour,0.06,3.9
74,23,1,1,8,37,387,633.4140893709846,633.9678566465154,"[94, 0, 160]",160,l,0.03319767955690622,1,colour,0.06,3.9
74,23,1,1,8,38,388,634.4750291742384,635.8718476067297,"[90, 0, 164]",164,l,0.8745686891488731,1,colour,0.06,3.9
74,23,1,1,8,39,389,636.3813997525722,637.4718890395015,"[58, 0, 196]",196,a,0.5682442695833743,0,colour,0.06,3.9
74,23,1,1,8,40,390,637.9909454789013,638.5598896131851,"[78, 0, 176]",176,l,0.046672729309648275,1,colour,0.06,3.9
74,23,1,1,8,41,391,639.0691857589409,639.6318354448304,"[77, 0, 177]",177,l,0.040500767063349485,1,colour,0.06,3.9
74,23,1,1,8,42,392,640.1474110726267,641.3598796091974,"[61, 0, 193]",193,a,0.6902349409647286,0,colour,0.06,3.9
74,23,1,1,8,43,393,641.8662475096062,643.5518626361154,"[82, 0, 172]",172,l,1.1634559677913785,1,colour,0.06,3.9
74,23,1,1,8,44,394,644.0694882324897,644.6238821172155,"[97, 0, 157]",157,l,0.032302073668688536,1,colour,0.06,3.9
74,23,1,1,8,45,395,645.1320904605091,646.6718293325976,"[85, 0, 169]",169,l,1.0179081810638309,1,colour,0.06,3.9
74,23,1,1,8,46,396,647.1791152879596,649.9438320356421,"[70, 0, 184]",184,a,2.242454007267952,0,colour,0.06,3.9
74,23,1,1,8,47,397,650.460652217269,651.5758600714616,"[91, 0, 163]",163,l,0.5928919450379908,1,colour,0.06,3.9
74,23,1,1,8,48,398,652.0858107893728,653.0718469768763,"[53, 0, 201]",201,a,0.463886481244117,0,colour,0.06,3.9
74,23,1,1,8,49,399,653.5859574968927,654.5838582976721,"[93, 0, 161]",161,l,0.4763280786573887,1,colour,0.06,3.9
74,23,1,1,8,50,400,655.1016792417504,655.6638736417517,"[87, 0, 167]",167,l,0.03992575220763683,1,colour,0.06,3.9
74,23,1,1,9,1,401,660.10131532792,663.143852673471,"[89, 0, 165]",165,l,2.5195562299340963,1,colour,0.06,3.9
74,23,1,1,9,2,402,663.6492343829013,664.6878553233109,"[87, 0, 167]",167,l,0.5164160951972008,1,colour,0.06,3.9
74,23,1,1,9,3,403,665.1962349894457,666.3518475126475,"[78, 0, 176]",176,l,0.6333663249388337,1,colour,0.06,3.9
74,23,1,1,9,4,404,666.8682179213502,667.6878899815492,"[62, 0, 192]",192,a,0.29740026127547026,0,colour,0.06,3.9
74,23,1,1,9,5,405,668.1964953215793,669.119829244446,"[83, 0, 171]",171,l,0.40112317027524114,1,colour,0.06,3.9
74,23,1,1,9,6,406,669.6340949400328,670.4398532058112,"[39, 0, 215]",215,a,0.2835148242302239,1,colour,0.06,3.9
74,23,1,1,9,7,407,670.9466767860577,671.7998297009617,"[54, 0, 200]",200,a,0.3309472822584212,0,colour,0.06,3.9
74,23,1,1,9,8,408,672.3061235584319,673.2638292158954,"[65, 0, 189]",189,a,0.4353314586915076,0,colour,0.06,3.9
74,23,1,1,9,9,409,673.775055995211,674.6078766067512,"[18, 0, 236]",236,a,0.31050745910033584,1,colour,0.06,3.9
74,23,1,1,9,10,410,675.1188816507347,675.7998277316801,"[81, 0, 173]",173,l,0.15880740247666836,1,colour,0.06,3.9
74,23,1,1,9,11,411,676.306487865746,676.8638671040535,"[91, 0, 163]",163,l,0.035091685596853495,1,colour,0.06,3.9
74,23,1,1,9,12,412,677.3689333428629,678.1518544442952,"[57, 0, 197]",197,a,0.26068947510793805,0,colour,0.06,3.9
74,23,1,1,9,13,413,678.6660618507303,680.047851904761,"[55, 0, 199]",199,a,0.8596592522226274,0,colour,0.06,3.9
74,23,1,1,9,14,414,680.5574973919429,681.551864605397,"[69, 0, 185]",185,l,0.4727271436713636,1,colour,0.06,3.9
74,23,1,1,9,15,415,682.0444939727895,682.9998318278231,"[51, 0, 203]",203,a,0.43305581621825695,0,colour,0.06,3.9
74,23,1,1,9,16,416,683.5133574865758,684.5918494341895,"[85, 0, 169]",169,l,0.5562130594626069,1,colour,0.06,3.9
74,23,1,1,9,17,417,685.1072694929317,686.2158544315025,"[70, 0, 184]",184,l,0.5863513429649174,1,colour,0.06,3.9
74,23,1,1,9,18,418,686.7323469328694,688.223833752796,"[60, 0, 194]",194,a,0.9692311687394977,0,colour,0.06,3.9
74,23,1,1,9,19,419,688.7228390946984,689.9438603925519,"[63, 0, 191]",191,a,0.6987313823774457,0,colour,0.06,3.9
74,23,1,1,9,20,420,690.4573970795609,691.5678630266339,"[61, 0, 193]",193,a,0.5882855206727982,0,colour,0.06,3.9
74,23,1,1,9,21,421,692.0824890914373,693.1598510947078,"[84, 0, 170]",170,l,0.5551256504841149,1,colour,0.06,3.9
74,23,1,1,9,22,422,693.6763865253888,694.9118422819301,"[77, 0, 177]",177,l,0.7133257421664894,1,colour,0.06,3.9
74,23,1,1,9,23,423,695.4264486548491,696.5758344712667,"[58, 0, 196]",196,a,0.6272400487214327,0,colour,0.06,3.9
74,23,1,1,9,24,424,697.0828793928958,698.1358642932028,"[97, 0, 157]",157,l,0.5307489414699376,1,colour,0.06,3.9
74,23,1,1,9,25,425,698.6454676394351,699.6718328772113,"[73, 0, 181]",181,l,0.5040662637911737,1,colour,0.06,3.9
74,23,1,1,9,26,426,700.1768837561831,701.167850502301,"[67, 0, 187]",187,l,0.468727242667228,1,colour,0.06,3.9
74,23,1,1,9,27,427,701.6770340083167,702.6398301264271,"[76, 0, 178]",178,l,0.4405759130604565,1,colour,0.06,3.9
74,23,1,1,9,28,428,703.1458463221788,704.1198197919875,"[82, 0, 172]",172,l,0.45176035398617387,1,colour,0.06,3.9
74,23,1,1,9,29,429,704.6303510391153,705.6638267738745,"[53, 0, 201]",201,a,0.511125560849905,0,colour,0.06,3.9
74,23,1,1,9,30,430,706.1773937866092,707.1918093408458,"[94, 0, 160]",160,l,0.4921090970747173,1,colour,0.06,3.9
74,23,1,1,9,31,431,707.7087090793066,708.6718513877131,"[98, 0, 156]",156,l,0.4408169467933476,1,colour,0.06,3.9
74,23,1,1,9,32,432,709.177558414638,710.2478134650737,"[99, 0, 155]",155,l,0.5480293319560587,1,colour,0.06,3.9
74,23,1,1,9,33,433,710.7558363066055,711.8478415072896,"[90, 0, 164]",164,l,0.5697633340023458,1,colour,0.06,3.9
74,23,1,1,9,34,434,712.3654143284075,713.2638422129676,"[88, 0, 166]",166,l,0.3762592738494277,1,colour,0.06,3.9
74,23,1,1,9,35,435,713.7717047589831,715.3198376726359,"[74, 0, 180]",180,l,1.025876868981868,1,colour,0.06,3.9
74,23,1,1,9,36,436,715.8320014118217,716.7198498030193,"[96, 0, 158]",158,l,0.36560494964942336,1,colour,0.06,3.9
74,23,1,1,9,37,437,717.2383371349424,718.183880825527,"[93, 0, 161]",161,l,0.42324235336855054,1,colour,0.06,3.9
74,23,1,1,9,38,438,718.6915594455786,719.5678307316266,"[7, 0, 247]",247,a,0.35397664410993457,1,colour,0.06,3.9
74,23,1,1,9,39,439,720.0823122547008,721.0398615552112,"[75, 0, 179]",179,l,0.4352794708684087,1,colour,0.06,3.9
74,23,1,1,9,40,440,721.5510962116532,722.4558583227918,"[86, 0, 168]",168,l,0.38242650916799903,1,colour,0.06,3.9
74,23,1,1,9,41,441,722.9732117718086,723.8158438764513,"[52, 0, 202]",202,a,0.32035400439053774,0,colour,0.06,3.9
74,23,1,1,9,42,442,724.332612070255,725.1679072161205,"[71, 0, 183]",183,l,0.3130532796494663,1,colour,0.06,3.9
74,23,1,1,9,43,443,725.6641221586615,726.5118482685648,"[95, 0, 159]",159,l,0.325502360239625,1,colour,0.06,3.9
74,23,1,1,9,44,444,727.023587835487,728.0398379247636,"[66, 0, 188]",188,a,0.4939333922229707,0,colour,0.06,3.9
74,23,1,1,9,45,445,728.5549752018414,729.4798419731669,"[59, 0, 195]",195,a,0.4027119451202452,0,colour,0.06,3.9
74,23,1,1,9,46,446,729.9925606418401,730.8638052702881,"[68, 0, 186]",186,l,0.3489744053222239,1,colour,0.06,3.9
74,23,1,1,9,47,447,731.3833134509623,732.2878294079565,"[56, 0, 198]",198,a,0.3823055983521044,0,colour,0.06,3.9
74,23,1,1,9,48,448,732.8052423279732,733.6318350513466,"[79, 0, 175]",175,l,0.3042610604315996,1,colour,0.06,3.9
74,23,1,1,9,49,449,734.1491038231179,735.1518631088547,"[64, 0, 190]",190,a,0.4804839421994984,0,colour,0.06,3.9
74,23,1,1,9,50,450,735.6524548623711,736.5678200977854,"[80, 0, 174]",174,l,0.3932466427795589,1,colour,0.06,3.9
74,23,1,1,10,1,451,744.7462166161276,748.4238299722783,"[45, 0, 209]",209,a,3.1546558714471757,1,colour,0.06,3.9
74,23,1,1,10,2,452,748.9230121509172,749.9358117543161,"[59, 0, 195]",195,a,0.4905790048651397,0,colour,0.06,3.9
74,23,1,1,10,3,453,750.4542786059901,751.2958520525135,"[77, 0, 177]",177,l,0.3195517398416996,1,colour,0.06,3.9
74,23,1,1,10,4,454,751.8137899693102,753.8558220099658,"[65, 0, 189]",189,l,1.5198086854070425,1,colour,0.06,3.9
74,23,1,1,10,5,455,754.3608153876849,755.8718401240185,"[63, 0, 191]",191,l,0.9887619963847101,1,colour,0.06,3.9
74,23,1,1,10,6,456,756.3921871967614,759.9758391189389,"[58, 0, 196]",196,l,3.0612458218820393,1,colour,0.06,3.9
74,23,1,1,10,7,457,760.486356975045,761.3358053741977,"[70, 0, 184]",184,l,0.32734989281743765,1,colour,0.06,3.9
74,23,1,1,10,8,458,761.8458238337189,762.6558364247903,"[69, 0, 185]",185,l,0.28776166634634137,1,colour,0.06,3.9
74,23,1,1,10,9,459,763.174159522634,763.9838582188822,"[76, 0, 178]",178,l,0.2875261465087533,1,colour,0.06,3.9
74,23,1,1,10,10,460,764.5022884430364,765.0797971538268,"[80, 0, 174]",174,l,0.05532592162489891,1,colour,0.06,3.9
74,23,1,1,10,11,461,765.5961325103417,767.1998520717025,"[95, 0, 159]",159,l,1.0814875410869718,1,colour,0.06,3.9
74,23,1,1,10,12,462,767.7056780396961,768.4558153934777,"[53, 0, 201]",201,a,0.22797661973163486,0,colour,0.06,3.9
74,23,1,1,10,13,463,768.97134809196,769.8798088114709,"[81, 0, 173]",173,l,0.3861908898688853,1,colour,0.06,3.9
74,23,1,1,10,14,464,770.3933399841189,771.231832372956,"[55, 0, 199]",199,a,0.3162922700867057,0,colour,0.06,3.9
74,23,1,1,10,15,465,771.7371951779351,772.7198230214417,"[61, 0, 193]",193,a,0.4605931402184069,0,colour,0.06,3.9
74,23,1,1,10,16,466,773.2372926548123,774.0878426413983,"[56, 0, 198]",198,a,0.3284278493374586,0,colour,0.06,3.9
74,23,1,1,10,17,467,774.5968493102118,775.3038128633052,"[26, 0, 228]",228,a,0.184736258815974,1,colour,0.06,3.9
74,23,1,1,10,18,468,775.8156977593899,776.4238409996033,"[75, 0, 179]",179,l,0.08591949054971337,1,colour,0.06,3.9
74,23,1,1,10,19,469,776.9407923319377,777.5278482655995,"[89, 0, 165]",165,l,0.06482391338795424,1,colour,0.06,3.9
74,23,1,1,10,20,470,778.0345970150083,779.0558394966647,"[71, 0, 183]",183,l,0.49899825220927596,1,colour,0.06,3.9
74,23,1,1,10,21,471,779.5659863501787,780.3358494848944,"[74, 0, 180]",180,l,0.24764332361519337,1,colour,0.06,3.9
74,23,1,1,10,22,472,780.8473767684773,781.9598458171822,"[67, 0, 187]",187,l,0.590309496037662,1,colour,0.06,3.9
74,23,1,1,10,23,473,782.4725518827327,783.3118252679706,"[66, 0, 188]",188,l,0.3169681099243462,1,colour,0.06,3.9
74,23,1,1,10,24,474,783.8320400086232,784.9438154944219,"[57, 0, 197]",197,l,0.5894847824238241,1,colour,0.06,3.9
74,23,1,1,10,25,475,785.4571765256114,786.8638493809849,"[51, 0, 203]",203,a,0.8844471368938684,0,colour,0.06,3.9
74,23,1,1,10,26,476,787.3791938209906,788.0478432402015,"[85, 0, 169]",169,l,0.14643157739192247,1,colour,0.06,3.9
74,23,1,1,10,27,477,788.5668374514207,789.3518148232251,"[96, 0, 158]",158,l,0.2628572038374841,1,colour,0.06,3.9
74,23,1,1,10,28,478,789.8637910918333,790.4318088996224,"[82, 0, 172]",172,l,0.05758462846279144,1,colour,0.06,3.9
74,23,1,1,10,29,479,790.9457347062416,791.5358122270554,"[88, 0, 166]",166,l,0.06791718071326613,1,colour,0.06,3.9
74,23,1,1,10,30,480,792.0552542414516,793.3038372821175,"[72, 0, 182]",182,a,0.7263269955292344,0,colour,0.06,3.9
74,23,1,1,10,31,481,793.8210599739105,795.3278067540377,"[92, 0, 162]",162,l,0.9847412216477096,1,colour,0.06,3.9
74,23,1,1,10,32,482,795.8368291771039,796.5758325019851,"[79, 0, 175]",175,l,0.21696428954601288,1,colour,0.06,3.9
74,23,1,1,10,33,483,797.0868918970227,797.799841910135,"[50, 0, 204]",204,a,0.19082630053162575,1,colour,0.06,3.9
74,23,1,1,10,34,484,798.3058069059625,798.9118489776738,"[99, 0, 155]",155,l,0.08385179890319705,1,colour,0.06,3.9
74,23,1,1,10,35,485,799.4308175891638,799.9998656986281,"[90, 0, 164]",164,l,0.04679915402084589,1,colour,0.06,3.9
74,23,1,1,10,36,486,800.5090373889543,802.0158314309083,"[87, 0, 167]",167,l,0.9846565444022417,1,colour,0.06,3.9
74,23,1,1,10,37,487,802.5249298661947,803.4958384255879,"[94, 0, 160]",160,l,0.4487438867799938,1,colour,0.06,3.9
74,23,1,1,10,38,488,804.0093526630662,804.831834027078,"[54, 0, 200]",200,a,0.3003438669256866,0,colour,0.06,3.9
74,23,1,1,10,39,489,805.3376296688803,806.095807784237,"[97, 0, 157]",157,l,0.2361662550829351,1,colour,0.06,3.9
74,23,1,1,10,40,490,806.603264275007,807.4398181536235,"[93, 0, 161]",161,l,0.31440456584095955,1,colour,0.06,3.9
74,23,1,1,10,41,491,807.9471241952851,808.7518163197674,"[21, 0, 233]",233,a,0.2825573841109872,1,colour,0.06,3.9
74,23,1,1,10,42,492,809.2597269150428,810.1358414501883,"[78, 0, 176]",176,l,0.3540148469619453,1,colour,0.06,3.9
74,23,1,1,10,43,493,810.6504631829448,811.5918305297382,"[73, 0, 181]",181,l,0.41982534481212497,1,colour,0.06,3.9
74,23,1,1,10,44,494,812.1037130630575,812.9597977679223,"[52, 0, 202]",202,a,0.33406339259818196,0,colour,0.06,3.9
74,23,1,1,10,45,495,813.4788175798021,814.3438201416284,"[86, 0, 168]",168,l,0.3426669603213668,1,colour,0.06,3.9
74,23,1,1,10,46,496,814.8539520287886,815.6078151664697,"[62, 0, 192]",192,a,0.23183512967079878,0,colour,0.06,3.9
74,23,1,1,10,47,497,816.1197024257854,816.9197908835486,"[64, 0, 190]",190,a,0.27803642535582185,0,colour,0.06,3.9
74,23,1,1,10,48,498,817.4322177120484,817.9918391155079,"[84, 0, 170]",170,l,0.037331487983465195,1,colour,0.06,3.9
74,23,1,1,10,49,499,818.5104772904888,819.087837127503,"[60, 0, 194]",194,a,0.05516011221334338,0,colour,0.06,3.9
74,23,1,1,10,50,500,819.6043993397616,820.3598284092732,"[83, 0, 171]",171,l,0.23349952325224876,1,colour,0.06,3.9
74,23,1,1,11,1,501,825.0571313118562,827.8798072361387,"[71, 0, 183]",183,a,2.299728285521269,0,colour,0.06,3.8
74,23,1,1,11,2,502,828.3862976226956,829.3037860817276,"[55, 0, 199]",199,a,0.39543839590623975,0,colour,0.06,3.8
74,23,1,1,11,3,503,829.823885819409,830.695789352525,"[52, 0, 202]",202,a,0.3496742695569992,0,colour,0.06,3.8
74,23,1,1,11,4,504,831.2146008196287,832.0798341752961,"[62, 0, 192]",192,a,0.34302142169326544,0,colour,0.06,3.8
74,23,1,1,11,5,505,832.589684068691,833.4638285855763,"[72, 0, 182]",182,l,0.3518384536728263,1,colour,0.06,3.8
74,23,1,1,11,6,506,833.9804782317951,834.9038101853803,"[94, 0, 160]",160,l,0.40125983487814665,1,colour,0.06,3.8
74,23,1,1,11,7,507,835.4180660345592,836.1837874841876,"[61, 0, 193]",193,a,0.24353117682039738,0,colour,0.06,3.8
74,23,1,1,11,8,508,836.7012614496052,837.5678122206591,"[56, 0, 198]",198,a,0.34424825198948383,0,colour,0.06,3.8
74,23,1,1,11,9,509,838.0764002311043,838.7918007550761,"[82, 0, 172]",172,l,0.1931885895319283,1,colour,0.06,3.8
74,23,1,1,11,10,510,839.3108367142268,840.2157906284556,"[73, 0, 181]",181,l,0.3827278013341129,1,colour,0.06,3.8
74,23,1,1,11,11,511,840.7328002499416,841.535827586893,"[92, 0, 162]",162,l,0.280694886110723,1,colour,0.06,3.8
74,23,1,1,11,12,512,842.0452899360098,842.911843069829,"[74, 0, 180]",180,l,0.3442486459389329,1,colour,0.06,3.8
74,23,1,1,11,13,513,843.4205512036569,844.2718274421059,"[85, 0, 169]",169,l,0.32664057565853,1,colour,0.06,3.8
74,23,1,1,11,14,514,844.7824217043817,845.7598098199815,"[79, 0, 175]",175,l,0.45513640297576785,1,colour,0.06,3.8
74,23,1,1,11,15,515,846.2669283905998,847.1518056071363,"[0, 0, 254]",254,a,0.3627023040316999,1,colour,0.06,3.8
74,23,1,1,11,16,516,847.6576997106895,848.335842395667,"[77, 0, 177]",177,l,0.1559669845737517,1,colour,0.06,3.8
74,23,1,1,11,17,517,848.8452657535672,849.6238289480098,"[59, 0, 195]",195,a,0.2562705217860639,0,colour,0.06,3.8
74,23,1,1,11,18,518,850.1421622862108,850.8957938421518,"[65, 0, 189]",189,a,0.2312853205949068,0,colour,0.06,3.8
74,23,1,1,11,19,519,851.407973729074,851.9598269127309,"[80, 0, 174]",174,l,0.029644400347024202,1,colour,0.06,3.8
74,23,1,1,11,20,520,852.4704948244616,853.1357847363688,"[83, 0, 171]",171,l,0.14328474691137671,1,colour,0.06,3.8
74,23,1,1,11,21,521,853.6424775598571,854.5118281822652,"[66, 0, 188]",188,a,0.3470559804700315,0,colour,0.06,3.8
74,23,1,1,11,22,522,855.0176978674717,856.6238041357137,"[99, 0, 155]",155,l,1.0839864942245185,1,colour,0.06,3.8
74,23,1,1,11,23,523,857.1427499041893,858.0958089660853,"[88, 0, 166]",166,l,0.43085539853200316,1,colour,0.06,3.8
74,23,1,1,11,24,524,858.611670919694,859.4878401993774,"[89, 0, 165]",165,l,0.35397703805938363,1,colour,0.06,3.8
74,23,1,1,11,25,525,860.0023461412638,860.9117839927785,"[78, 0, 176]",176,l,0.3871550252661109,1,colour,0.06,3.8
74,23,1,1,11,26,526,861.4244203474373,862.27181090042,"[57, 0, 197]",197,a,0.3251821636222303,0,colour,0.06,3.8
74,23,1,1,11,27,527,862.7838316736743,863.5038110516034,"[84, 0, 170]",170,l,0.19778989301994443,1,colour,0.06,3.8
74,23,1,1,11,28,528,864.0183587409556,864.7198080555536,"[54, 0, 200]",200,a,0.17925234651193023,0,colour,0.06,3.8
74,23,1,1,11,29,529,865.2371717444621,866.3038034113124,"[64, 0, 190]",190,a,0.5446698251180351,0,colour,0.06,3.8
74,23,1,1,11,30,530,866.8154137963429,867.61580512207,"[60, 0, 194]",194,a,0.27816403144970536,0,colour,0.06,3.8
74,23,1,1,11,31,531,868.1279720119201,868.8877830128185,"[12, 0, 242]",242,a,0.23805238353088498,1,colour,0.06,3.8
74,23,1,1,11,32,532,869.3938039350323,870.1597872916609,"[75, 0, 179]",179,l,0.24381513940170407,1,colour,0.06,3.8
74,23,1,1,11,33,533,870.6757146241143,871.3118355078623,"[98, 0, 156]",156,l,0.11529213702306151,1,colour,0.06,3.8
74,23,1,1,11,34,534,871.8314480581321,872.7438350291923,"[87, 0, 167]",167,l,0.39024199079722166,1,colour,0.06,3.8
74,23,1,1,11,35,535,873.253399384208,873.9678160804324,"[97, 0, 157]",157,l,0.19236111920326948,1,colour,0.06,3.8
74,23,1,1,11,36,536,874.4878862793557,875.2158146528527,"[51, 0, 203]",203,a,0.2057766979560256,0,colour,0.06,3.8
74,23,1,1,11,37,537,875.7223641164601,876.2478248868138,"[81, 0, 173]",173,l,0.0031617963686585426,1,colour,0.06,3.8
74,23,1,1,11,38,538,876.7692629131489,877.767782445997,"[70, 0, 184]",184,l,0.47630484169349074,1,colour,0.06,3.8
74,23,1,1,11,39,539,878.2850303440355,878.9038003389724,"[95, 0, 159]",159,l,0.096457629930228,1,colour,0.06,3.8
74,23,1,1,11,40,540,879.4101650887169,880.1758176148869,"[93, 0, 161]",161,l,0.24348667217418551,1,colour,0.06,3.8
74,23,1,1,11,41,541,880.6914475932717,881.4958124319091,"[69, 0, 185]",185,a,0.2819362892769277,0,colour,0.06,3.8
74,23,1,1,11,42,542,882.0040999376215,882.8718267329969,"[86, 0, 168]",168,l,0.34574132272973657,1,colour,0.06,3.8
74,23,1,1,11,43,543,883.3790614884347,884.1357867056504,"[96, 0, 158]",158,l,0.23428682144731283,1,colour,0.06,3.8
74,23,1,1,11,44,544,884.6449580024928,885.3758268309757,"[31, 0, 223]",223,a,0.20864311000332236,1,colour,0.06,3.8
74,23,1,1,11,45,545,885.8950289930217,886.7197938770987,"[76, 0, 178]",178,l,0.30242101149633527,1,colour,0.06,3.8
74,23,1,1,11,46,546,887.2388826115057,887.9678192310967,"[90, 0, 164]",164,l,0.20657935598865151,1,colour,0.06,3.8
74,23,1,1,11,47,547,888.4733407562599,889.3838337217458,"[68, 0, 186]",186,l,0.38821604708209634,1,colour,0.06,3.8
74,23,1,1,11,48,548,889.8953594299965,890.511795099359,"[58, 0, 196]",196,a,0.09414811665192246,0,colour,0.06,3.8
74,23,1,1,11,49,549,891.0204910240136,891.7517970213667,"[53, 0, 201]",201,a,0.20940795866772532,0,colour,0.06,3.8
74,23,1,1,11,50,550,892.2705171159469,892.903797976207,"[91, 0, 163]",163,l,0.11121543683111668,1,colour,0.06,3.8
74,23,1,1,12,1,551,903.4314721613191,904.6798255895264,"[77, 0, 177]",177,l,0.725380189716816,1,colour,0.06,3.8
74,23,1,1,12,2,552,905.1980616473593,905.7598243919201,"[90, 0, 164]",164,l,0.03985919198021293,1,colour,0.06,3.8
74,23,1,1,12,3,553,906.2762424563989,906.9357794588432,"[89, 0, 165]",165,l,0.13726520352065563,1,colour,0.06,3.8
74,23,1,1,12,4,554,907.4495540284552,908.4718122393824,"[67, 0, 187]",187,l,0.49999231984838843,1,colour,0.06,3.8
74,23,1,1,12,5,555,908.9809465147555,909.6318185096607,"[75, 0, 179]",179,l,0.12865887954831123,1,colour,0.06,3.8
74,23,1,1,12,6,556,910.1372545701452,913.5597801236436,"[58, 0, 196]",196,l,2.9009055700153112,1,colour,0.06,3.8
74,23,1,1,12,7,557,914.0751816714182,914.6478385925293,"[95, 0, 159]",159,l,0.05044813780114055,1,colour,0.06,3.8
74,23,1,1,12,8,558,915.1533321547322,915.8478170884773,"[91, 0, 163]",163,l,0.17250103689730167,1,colour,0.06,3.8
74,23,1,1,12,9,559,916.3565011974424,917.0317892860621,"[80, 0, 174]",174,l,0.1530430712737143,1,colour,0.06,3.8
74,23,1,1,12,10,560,917.5441062315367,919.3277945448644,"[56, 0, 198]",198,l,1.2613117517903447,1,colour,0.06,3.8
74,23,1,1,12,11,561,919.8411768437363,920.4238142184913,"[86, 0, 168]",168,l,0.06039865920320153,1,colour,0.06,3.8
74,23,1,1,12,12,562,920.935006339103,921.6078474619426,"[76, 0, 178]",178,l,0.15035270899534225,1,colour,0.06,3.8
74,23,1,1,12,13,563,922.1228201114573,922.6558230342343,"[74, 0, 180]",180,l,0.010800441261380911,1,colour,0.06,3.8
74,23,1,1,12,14,564,923.1697311173193,923.8877668655477,"[61, 0, 193]",193,l,0.19594748178496957,1,colour,0.06,3.8
74,23,1,1,12,15,565,924.4042814220302,924.9437977713533,"[98, 0, 156]",156,l,0.01754151051864028,1,colour,0.06,3.8
74,23,1,1,12,16,566,925.4511298066936,926.4798077088781,"[62, 0, 192]",192,l,0.5064017712138593,1,colour,0.06,3.8
74,23,1,1,12,17,567,926.9982016989961,927.5918120192364,"[18, 0, 236]",236,a,0.07135151838883758,1,colour,0.06,3.8
74,23,1,1,12,18,568,928.1077480157837,928.9598135217093,"[55, 0, 199]",199,a,0.32983624236658216,0,colour,0.06,3.8
74,23,1,1,12,19,569,929.4671211391687,930.0237867278047,"[83, 0, 171]",171,l,0.03443553764373064,1,colour,0.06,3.8
74,23,1,1,12,20,570,930.529695797246,931.1358130932786,"[73, 0, 181]",181,l,0.0838254108093679,1,colour,0.06,3.8
74,23,1,1,12,21,571,931.6547734341584,933.2558109038509,"[96, 0, 158]",158,l,1.0787920583970845,1,colour,0.06,3.8
74,23,1,1,12,22,572,933.7643083296716,934.8398247701116,"[52, 0, 202]",202,l,0.5533139584586024,1,colour,0.06,3.8
74,23,1,1,12,23,573,935.358179375995,936.2797878589481,"[54, 0, 200]",200,l,0.39936070889234543,1,colour,0.06,3.8
74,23,1,1,12,24,574,936.7958195605315,937.8717648992315,"[50, 0, 204]",204,l,0.5536841740831733,0,colour,0.06,3.8
74,23,1,1,12,25,575,938.3896654001437,939.0477825878188,"[72, 0, 182]",182,l,0.13589028734713793,1,colour,0.06,3.8
74,23,1,1,12,26,576,939.5616319882683,940.8158115809783,"[64, 0, 190]",190,l,0.7318565943278372,1,colour,0.06,3.8
74,23,1,1,12,27,577,941.3274455973879,941.9998208000325,"[82, 0, 172]",172,l,0.15073395147919655,1,colour,0.06,3.8
74,23,1,1,12,28,578,942.5149206616916,943.1918026455678,"[66, 0, 188]",188,l,0.15454716980457306,1,colour,0.06,3.8
74,23,1,1,12,29,579,943.7025642925873,944.2717734850012,"[78, 0, 176]",176,l,0.04700080305337906,1,colour,0.06,3.8
74,23,1,1,12,30,580,944.7807903941721,945.607847855892,"[70, 0, 184]",184,l,0.30475848773494363,1,colour,0.06,3.8
74,23,1,1,12,31,581,946.1246696123853,946.6558391819708,"[92, 0, 162]",162,l,0.008982447441667318,1,colour,0.06,3.8
74,23,1,1,12,32,582,947.1716396957636,947.8557806564495,"[65, 0, 189]",189,l,0.16191012226045132,1,colour,0.06,3.8
74,23,1,1,12,33,583,948.3748323693871,949.0238024815917,"[87, 0, 167]",167,l,0.12669752584770322,1,colour,0.06,3.8
74,23,1,1,12,34,584,949.5312148616649,950.2637835298665,"[68, 0, 186]",186,l,0.21032365085557103,1,colour,0.06,3.8
74,23,1,1,12,35,585,950.7812752188183,951.3838132414967,"[99, 0, 155]",155,l,0.08023629197850823,1,colour,0.06,3.8
74,23,1,1,12,36,586,951.8812715560198,952.4797978624701,"[93, 0, 161]",161,l,0.07632736954838037,1,colour,0.06,3.8
74,23,1,1,12,37,587,952.9907410726883,953.6878021541052,"[57, 0, 197]",197,a,0.17479637172073126,0,colour,0.06,3.8
74,23,1,1,12,38,588,954.1945678386837,954.7198155382648,"[84, 0, 170]",170,l,0.0037880116142332554,1,colour,0.06,3.8
74,23,1,1,12,39,589,955.2409365191124,956.575824231375,"[81, 0, 173]",173,l,0.8126824735663831,1,colour,0.06,3.8
74,23,1,1,12,40,590,957.0847643404268,957.919779855758,"[85, 0, 169]",169,l,0.31268818443641067,1,colour,0.06,3.8
74,23,1,1,12,41,591,958.4286380452104,959.0878052259795,"[11, 0, 243]",243,a,0.13690286548808217,1,colour,0.06,3.8
74,23,1,1,12,42,592,959.6006444110535,960.4717901842669,"[60, 0, 194]",194,l,0.348931476008147,1,colour,0.06,3.8
74,23,1,1,12,43,593,960.9913503527641,962.631808269769,"[71, 0, 183]",183,l,1.1181565797887743,1,colour,0.06,3.8
74,23,1,1,12,44,594,963.1477600201033,963.7197840306908,"[39, 0, 215]",215,a,0.050284691620618105,1,colour,0.06,3.8
74,23,1,1,12,45,595,964.226018417161,964.7917905151844,"[97, 0, 157]",157,l,0.043539289850741625,1,colour,0.06,3.8
74,23,1,1,12,46,596,965.3041015528142,966.1277912366204,"[53, 0, 201]",201,a,0.30152225447818637,0,colour,0.06,3.8
74,23,1,1,12,47,597,966.6480110972188,967.7997899227776,"[88, 0, 166]",166,l,0.6270057102665305,1,colour,0.06,3.8
74,23,1,1,12,48,598,968.3069569366053,969.0318326093256,"[59, 0, 195]",195,a,0.20259678456932306,0,colour,0.06,3.8
74,23,1,1,12,49,599,969.5413619121537,970.4877673378214,"[79, 0, 175]",175,l,0.4239753009751439,1,colour,0.06,3.8
74,23,1,1,12,50,600,970.9945794967934,971.831786765717,"[63, 0, 191]",191,l,0.31494610430672765,1,colour,0.06,3.8
74,23,1,1,13,1,601,976.6036659982055,978.9117772975005,"[50, 0, 204]",204,l,1.785276300739497,0,colour,0.06,3.8
74,23,1,1,13,2,602,979.4171708226204,980.0317680183798,"[63, 0, 191]",191,l,0.0923206708393991,1,colour,0.06,3.8
74,23,1,1,13,3,603,980.5422299485654,981.2397817620076,"[60, 0, 194]",194,l,0.17520991014316678,1,colour,0.06,3.8
74,23,1,1,13,4,604,981.7454683086835,982.4238110673614,"[53, 0, 201]",201,l,0.15607804898172617,1,colour,0.06,3.8
74,23,1,1,13,5,605,982.9362209602259,983.5277572870255,"[82, 0, 172]",172,l,0.0693547185510397,1,colour,0.06,3.8
74,23,1,1,13,6,606,984.0456558186561,984.7357710306533,"[90, 0, 164]",164,l,0.16769375139847398,1,colour,0.06,3.8
74,23,1,1,13,7,607,985.2489071758464,985.8958013253286,"[74, 0, 180]",180,l,0.12465110141783953,1,colour,0.06,3.8
74,23,1,1,13,8,608,986.4052282278426,987.1917754700407,"[52, 0, 202]",202,l,0.264258508104831,1,colour,0.06,3.8
74,23,1,1,13,9,609,987.7021645386703,988.5277706775814,"[95, 0, 159]",159,l,0.30332922004163265,1,colour,0.06,3.8
74,23,1,1,13,10,610,989.0460520279594,989.839793656487,"[92, 0, 162]",162,l,0.2714615589939058,1,colour,0.06,3.8
74,23,1,1,13,11,611,990.358646477107,991.119785527233,"[79, 0, 175]",175,l,0.23883534967899323,1,colour,0.06,3.8
74,23,1,1,13,12,612,991.6400435911492,992.4877830916084,"[96, 0, 158]",158,l,0.3255102373659611,1,colour,0.06,3.8
74,23,1,1,13,13,613,992.9995159632526,993.7997824396007,"[73, 0, 181]",181,l,0.2779907393269241,1,colour,0.06,3.8
74,23,1,1,13,14,614,994.3122096615843,994.9917922480963,"[80, 0, 174]",174,l,0.15732969203963876,1,colour,0.06,3.8
74,23,1,1,13,15,615,995.4996544001624,996.2478237054311,"[86, 0, 168]",168,l,0.2259057774208486,1,colour,0.06,3.8
74,23,1,1,13,16,616,996.7654953817837,997.5197945069522,"[72, 0, 182]",182,l,0.23211672948673368,1,colour,0.06,3.8
74,23,1,1,13,17,617,998.0311764618382,998.6717781326734,"[2, 0, 252]",252,a,0.11835310934111476,1,colour,0.06,3.8
74,23,1,1,13,18,618,999.187463643495,999.9677841789089,"[15, 0, 239]",239,a,0.25825747521594167,1,colour,0.06,3.8
74,23,1,1,13,19,619,1000.4843522985466,1001.3357864692807,"[51, 0, 203]",203,l,0.3297499902546406,1,colour,0.06,3.8
74,23,1,1,13,20,620,1001.8346831095405,1002.6078486433253,"[23, 0, 231]",231,a,0.25095635652542114,1,colour,0.06,3.8
74,23,1,1,13,21,621,1003.1159652206115,1003.7757684625685,"[75, 0, 179]",179,l,0.13755664974451065,1,colour,0.06,3.8
74,23,1,1,13,22,622,1004.2879668604583,1005.0397686078213,"[87, 0, 167]",167,l,0.22981036733835936,1,colour,0.06,3.8
74,23,1,1,13,23,623,1005.5536585743539,1006.2317874743603,"[88, 0, 166]",166,l,0.15603827079758048,1,colour,0.06,3.8
74,23,1,1,13,24,624,1006.7413152018562,1007.5437935176305,"[57, 0, 197]",197,l,0.2803041907027364,1,colour,0.06,3.8
74,23,1,1,13,25,625,1008.0538241863251,1008.7838064674288,"[85, 0, 169]",169,l,0.2079306421801448,1,colour,0.06,3.8
74,23,1,1,13,26,626,1009.2884115125053,1010.0878134965897,"[94, 0, 160]",160,l,0.27720186533406377,1,colour,0.06,3.8
74,23,1,1,13,27,627,1010.6009779986925,1011.1757991039194,"[78, 0, 176]",176,l,0.05260050669312477,1,colour,0.06,3.8
74,23,1,1,13,28,628,1011.6947901649401,1012.391789412126,"[62, 0, 192]",192,l,0.17475659307092428,1,colour,0.06,3.8
74,23,1,1,13,29,629,1012.897980869282,1013.4638136196882,"[55, 0, 199]",199,l,0.04353456385433674,1,colour,0.06,3.8
74,23,1,1,13,30,630,1013.9762861342169,1014.7038080585189,"[91, 0, 163]",163,l,0.20583695638924837,1,colour,0.06,3.8
74,23,1,1,13,31,631,1015.2106855954044,1015.8797985715792,"[89, 0, 165]",165,l,0.1468766233883798,1,colour,0.06,3.8
74,23,1,1,13,32,632,1016.3983099278994,1017.3278063600883,"[84, 0, 170]",170,l,0.40727228904142976,1,colour,0.06,3.8
74,23,1,1,13,33,633,1017.835927663371,1018.6718013696373,"[69, 0, 185]",185,l,0.3137165168300271,1,colour,0.06,3.8
74,23,1,1,13,34,634,1019.1797525309958,1020.0318050398491,"[77, 0, 177]",177,l,0.32979016238823533,1,colour,0.06,3.8
74,23,1,1,13,35,635,1020.5391819737852,1021.4238118552603,"[83, 0, 171]",171,l,0.3623234243132174,1,colour,0.06,3.8
74,23,1,1,13,36,636,1021.929907607846,1022.7679317137226,"[81, 0, 173]",173,l,0.3156306087039411,1,colour,0.06,3.8
74,23,1,1,13,37,637,1023.273833299987,1024.223779796157,"[58, 0, 196]",196,l,0.42761522671207786,1,colour,0.06,3.8
74,23,1,1,13,38,638,1024.7426924817264,1025.68774859095,"[93, 0, 161]",161,l,0.4227701323106885,1,colour,0.06,3.8
74,23,1,1,13,39,639,1026.1959872599691,1027.0157707785256,"[61, 0, 193]",193,l,0.29754401510581374,1,colour,0.06,3.8
74,23,1,1,13,40,640,1027.5242032199167,1028.3597555477172,"[71, 0, 183]",183,l,0.3133569350466132,1,colour,0.06,3.8
74,23,1,1,13,41,641,1028.8680229675956,1029.6798011707142,"[66, 0, 188]",188,l,0.28946938272565603,1,colour,0.06,3.8
74,23,1,1,13,42,642,1030.1962798875757,1030.9517936343327,"[56, 0, 198]",198,l,0.23327503120526671,1,colour,0.06,3.8
74,23,1,1,13,43,643,1031.4620361924171,1032.2478024377488,"[59, 0, 195]",195,l,0.26363229285925627,1,colour,0.06,3.8
74,23,1,1,13,44,644,1032.7589339059778,1033.5997661342844,"[67, 0, 187]",187,l,0.31925281090661883,1,colour,0.06,3.8
74,23,1,1,13,45,645,1034.1187430168502,1034.975792645011,"[97, 0, 157]",157,l,0.33508227253332734,1,colour,0.06,3.8
74,23,1,1,13,46,646,1035.4935895646922,1036.311815815512,"[98, 0, 156]",156,l,0.2960919043980539,1,colour,0.06,3.8
74,23,1,1,13,47,647,1036.8218519985676,1037.7117590229027,"[99, 0, 155]",155,l,0.3678384502418339,1,colour,0.06,3.8
74,23,1,1,13,48,648,1038.2281534569338,1039.0237642787397,"[68, 0, 186]",186,l,0.27334690000861883,1,colour,0.06,3.8
74,23,1,1,13,49,649,1039.5407034014352,1040.3837770074606,"[65, 0, 189]",189,l,0.32064545061439276,1,colour,0.06,3.8
74,23,1,1,13,50,650,1040.9002348505892,1041.7357765445486,"[54, 0, 200]",200,l,0.3132226336747408,1,colour,0.06,3.8
74,23,1,1,14,1,651,1046.322859259788,1047.303777417168,"[60, 0, 194]",194,l,0.457776746712625,1,colour,0.06,3.8
74,23,1,1,14,2,652,1047.8088019085117,1048.5917419143952,"[92, 0, 162]",162,l,0.260649302508682,1,colour,0.06,3.8
74,23,1,1,14,3,653,1049.1058059609495,1049.935762917623,"[51, 0, 203]",203,l,0.3075729119591415,1,colour,0.06,3.8
74,23,1,1,14,4,654,1050.4496741518378,1051.1357634686865,"[91, 0, 163]",163,l,0.16381476167589426,1,colour,0.06,3.8
74,23,1,1,14,5,655,1051.6529176314361,1052.343765003141,"[68, 0, 186]",186,l,0.1687382310628891,1,colour,0.06,3.8
74,23,1,1,14,6,656,1052.8560862806626,1053.6717639542185,"[64, 0, 190]",190,l,0.2940612346865237,1,colour,0.06,3.8
74,23,1,1,14,7,657,1054.1842853054404,1054.9997345479205,"[59, 0, 195]",195,l,0.29314120998606086,1,colour,0.06,3.8
74,23,1,1,14,8,658,1055.512484723702,1056.2717656083405,"[79, 0, 175]",175,l,0.23702168883755803,1,colour,0.06,3.8
74,23,1,1,14,9,659,1056.7782851392403,1057.5197527594864,"[94, 0, 160]",160,l,0.21924426453188062,1,colour,0.06,3.8
74,23,1,1,14,10,660,1058.0283494344912,1058.743779102806,"[50, 0, 204]",204,l,0.1931625958532095,0,colour,0.06,3.8
74,23,1,1,14,11,661,1059.262864293065,1060.055754819885,"[88, 0, 166]",166,l,0.2706494480371475,1,colour,0.06,3.8
74,23,1,1,14,12,662,1060.5754213267937,1061.3677533799782,"[63, 0, 191]",191,l,0.269964549690485,1,colour,0.06,3.8
74,23,1,1,14,13,663,1061.8880756408907,1062.6557804988697,"[65, 0, 189]",189,l,0.24552364414557815,1,colour,0.06,3.8
74,23,1,1,14,14,664,1063.16941761598,1063.959778863471,"[93, 0, 161]",161,l,0.2681926363147795,1,colour,0.06,3.8
74,23,1,1,14,15,665,1064.4664870467968,1065.2477811700664,"[13, 0, 241]",241,a,0.25915662618353963,1,colour,0.06,3.8
74,23,1,1,14,16,666,1065.7633871235885,1066.6477846358903,"[77, 0, 177]",177,l,0.3622147226706147,1,colour,0.06,3.8
74,23,1,1,14,17,667,1067.1541159083135,1067.8637505252846,"[62, 0, 192]",192,l,0.18753295997157693,1,colour,0.06,3.8
74,23,1,1,14,18,668,1068.3728544744663,1069.1757640517317,"[45, 0, 209]",209,l,0.28050426486879587,0,colour,0.06,3.8
74,23,1,1,14,19,669,1069.6749604088254,1070.4717720672488,"[67, 0, 187]",187,l,0.2744413982145488,1,colour,0.06,3.8
74,23,1,1,14,20,670,1070.9751849402674,1071.6317700664513,"[57, 0, 197]",197,l,0.1343113579787314,1,colour,0.06,3.8
74,23,1,1,14,21,671,1072.147157435771,1072.9837711788714,"[98, 0, 156]",156,l,0.31435691053047776,1,colour,0.06,3.8
74,23,1,1,14,22,672,1073.49103350332,1074.2077703471296,"[96, 0, 158]",158,l,0.19446307560428977,1,colour,0.06,3.8
74,23,1,1,14,23,673,1074.7254940113053,1075.4797675362788,"[90, 0, 164]",164,l,0.23204544326290488,1,colour,0.06,3.8
74,23,1,1,14,24,674,1075.9912491342984,1076.8637505252846,"[82, 0, 172]",172,l,0.35026385681703687,1,colour,0.06,3.8
74,23,1,1,14,25,675,1077.3820015494712,1078.159782959614,"[86, 0, 168]",168,l,0.2555265468545258,1,colour,0.06,3.8
74,23,1,1,14,26,676,1078.6789630665444,1079.4797698995098,"[70, 0, 184]",184,l,0.27849446842446923,1,colour,0.06,3.8
74,23,1,1,14,27,677,1079.991598081775,1080.7997462055646,"[71, 0, 183]",183,l,0.28597124200314283,1,colour,0.06,3.8
74,23,1,1,14,28,678,1081.3198006511666,1082.167746133171,"[83, 0, 171]",171,l,0.32583752321079373,1,colour,0.06,3.8
74,23,1,1,14,29,679,1082.6792923216708,1083.4957824996673,"[61, 0, 193]",193,l,0.29448422510176897,1,colour,0.06,3.8
74,23,1,1,14,30,680,1084.0080372169614,1084.8078153240494,"[55, 0, 199]",199,l,0.2780143697746098,1,colour,0.06,3.8
74,23,1,1,14,31,681,1085.3201279370114,1086.0797447720543,"[73, 0, 181]",181,l,0.23746831016615033,1,colour,0.06,3.8
74,23,1,1,14,32,682,1086.5858094110154,1087.3597488524392,"[87, 0, 167]",167,l,0.2516995444893837,1,colour,0.06,3.8
74,23,1,1,14,33,683,1087.867169897072,1088.5597612191923,"[69, 0, 185]",185,l,0.17032346175983548,1,colour,0.06,3.8
74,23,1,1,14,34,684,1089.0704492172226,1089.7757668872364,"[80, 0, 174]",174,l,0.18334598233923316,1,colour,0.06,3.8
74,23,1,1,14,35,685,1090.2892606449313,1090.9117564237677,"[76, 0, 178]",178,l,0.10031023249030113,1,colour,0.06,3.8
74,23,1,1,14,36,686,1091.432263004128,1092.1197418104857,"[97, 0, 157]",157,l,0.165247967466712,1,colour,0.06,3.8
74,23,1,1,14,37,687,1092.6355273579247,1093.3997616446577,"[54, 0, 200]",200,l,0.24202510947361588,1,colour,0.06,3.8
74,23,1,1,14,38,688,1093.9168551550247,1094.5597844561562,"[95, 0, 159]",159,l,0.1206783764064312,1,colour,0.06,3.8
74,23,1,1,14,39,689,1095.0731907794252,1095.791757825762,"[89, 0, 165]",165,l,0.1962775243446231,1,colour,0.06,3.8
74,23,1,1,14,40,690,1096.3076225365512,1096.9677617293783,"[99, 0, 155]",155,l,0.13780201552435756,1,colour,0.06,3.8
74,23,1,1,14,41,691,1097.479612361174,1098.1997937825508,"[43, 0, 211]",211,l,0.19789780722931027,0,colour,0.06,3.8
74,23,1,1,14,42,692,1098.7140846843831,1099.27976974193,"[81, 0, 173]",173,l,0.044155658688396215,1,colour,0.06,3.8
74,23,1,1,14,43,693,1099.792229653336,1100.5117541393265,"[84, 0, 170]",170,l,0.19717667484655976,1,colour,0.06,3.8
74,23,1,1,14,44,694,1101.026765779592,1101.5757667296566,"[74, 0, 180]",180,l,0.026770899072289467,1,colour,0.06,3.8
74,23,1,1,14,45,695,1102.0893577672541,1102.8397227642126,"[56, 0, 198]",198,l,0.2281443984247744,1,colour,0.06,3.8
74,23,1,1,14,46,696,1103.3551483363844,1104.7197733968496,"[78, 0, 176]",176,l,0.8424619631841779,1,colour,0.06,3.8
74,23,1,1,14,47,697,1105.230254625436,1106.0957526457496,"[75, 0, 179]",179,l,0.3431687201373279,1,colour,0.06,3.8
74,23,1,1,14,48,698,1106.605291401036,1107.295780372806,"[52, 0, 202]",202,l,0.16811910551041365,1,colour,0.06,3.8
74,23,1,1,14,49,699,1107.8086542161182,1108.6877741906792,"[72, 0, 182]",182,l,0.3569261571392417,1,colour,0.06,3.8
74,23,1,1,14,50,700,1109.1993447979912,1110.0237788506784,"[58, 0, 196]",196,l,0.30227450048550963,1,colour,0.06,3.8
74,23,1,1,15,1,701,1114.6833583884872,1115.431771878153,"[59, 0, 195]",195,l,0.22541583236306906,1,colour,0.06,3.8
74,23,1,1,15,2,702,1115.949929954484,1116.6717407172546,"[74, 0, 180]",180,l,0.20041920989751816,1,colour,0.06,3.8
74,23,1,1,15,3,703,1117.184318782296,1117.8717459947802,"[91, 0, 163]",163,l,0.16521212738007307,1,colour,0.06,3.8
74,23,1,1,15,4,704,1118.3875224837102,1119.167728016153,"[70, 0, 184]",184,l,0.25822714902460575,1,colour,0.06,3.8
74,23,1,1,15,5,705,1119.6844891207293,1120.3917724769562,"[95, 0, 159]",159,l,0.18499186541885138,1,colour,0.06,3.8
74,23,1,1,15,6,706,1120.9033777425066,1121.6477818787098,"[69, 0, 185]",185,l,0.2251834631897509,1,colour,0.06,3.8
74,23,1,1,15,7,707,1122.1660805582069,1122.86376746092,"[50, 0, 204]",204,a,0.1754379472695291,1,colour,0.06,3.8
74,23,1,1,15,8,708,1123.369262598455,1124.0157589633018,"[82, 0, 172]",172,l,0.12425371119752526,1,colour,0.06,3.8
74,23,1,1,15,9,709,1124.5257337060757,1125.2157559702173,"[76, 0, 178]",178,l,0.16791548719629645,1,colour,0.06,3.8
74,23,1,1,15,10,710,1125.7290130257607,1126.5757710621692,"[88, 0, 166]",166,l,0.32460478506982327,1,colour,0.06,3.8
74,23,1,1,15,11,711,1127.0884802779183,1127.9037778899074,"[78, 0, 176]",176,l,0.2931226990185678,1,colour,0.06,3.8
74,23,1,1,15,12,712,1128.4167127795517,1129.3117366526276,"[54, 0, 200]",200,a,0.3727556187659502,0,colour,0.06,3.8
74,23,1,1,15,13,713,1129.8230425948277,1130.711723970715,"[63, 0, 191]",191,l,0.3664501430466771,1,colour,0.06,3.8
74,23,1,1,15,14,714,1131.22942833649,1132.0397626999766,"[94, 0, 160]",160,l,0.28813070012256503,1,colour,0.06,3.8
74,23,1,1,15,15,715,1132.5453157327138,1133.335792771075,"[65, 0, 189]",189,l,0.268336390145123,1,colour,0.06,3.8
74,23,1,1,15,16,716,1133.8421965111047,1134.663788964972,"[60, 0, 194]",194,l,0.2992911166511476,1,colour,0.06,3.8
74,23,1,1,15,17,717,1135.1704833633266,1136.0077556171454,"[89, 0, 165]",165,l,0.3152111624367535,1,colour,0.06,3.8
74,23,1,1,15,18,718,1136.5143826683052,1137.3837762200274,"[58, 0, 196]",196,l,0.3471442023292184,1,colour,0.06,3.8
74,23,1,1,15,19,719,1137.8893985697068,1138.671755289659,"[51, 0, 203]",203,l,0.2600794075988233,1,colour,0.06,3.8
74,23,1,1,15,20,720,1139.1864246772602,1139.8077487642877,"[7, 0, 247]",247,a,0.0993472789414227,1,colour,0.06,3.8
74,23,1,1,15,21,721,1140.3270950741135,1141.103737481404,"[19, 0, 235]",235,a,0.25433713151142,1,colour,0.06,3.8
74,23,1,1,15,22,722,1141.6241582036018,1142.2077561686747,"[86, 0, 168]",168,l,0.06136791408061981,1,colour,0.06,3.8
74,23,1,1,15,23,723,1142.717912868131,1143.535761420615,"[67, 0, 187]",187,l,0.2957240524701774,1,colour,0.06,3.8
74,23,1,1,15,24,724,1144.0461347359233,1144.8397684502415,"[53, 0, 201]",201,l,0.27143044490367174,1,colour,0.06,3.8
74,23,1,1,15,25,725,1145.3587378496304,1146.0797786428593,"[64, 0, 190]",190,l,0.19870716100558639,1,colour,0.06,3.8
74,23,1,1,15,26,726,1146.5932452250272,1147.3757775998674,"[87, 0, 167]",167,l,0.2603566749021411,1,colour,0.06,3.8
74,23,1,1,15,27,727,1147.890294963494,1148.6317428913899,"[56, 0, 198]",198,l,0.2192623815499246,1,colour,0.06,3.8
74,23,1,1,15,28,728,1149.1402871850878,1150.5357519686222,"[97, 0, 157]",157,l,0.873247729614377,1,colour,0.06,3.8
74,23,1,1,15,29,729,1151.0467270803638,1152.4797313027084,"[61, 0, 193]",193,l,0.9107406944967806,1,colour,0.06,3.8
74,23,1,1,15,30,730,1153.000097673852,1154.4157297397032,"[98, 0, 156]",156,l,0.8942192452959716,1,colour,0.06,3.8
74,23,1,1,15,31,731,1154.922033837065,1155.7357336152345,"[47, 0, 207]",207,l,0.29144452093169093,0,colour,0.06,3.8
74,23,1,1,15,32,732,1156.2502482216805,1157.0077501032501,"[80, 0, 174]",174,l,0.23526198463514447,1,colour,0.06,3.8
74,23,1,1,15,33,733,1157.5160738429986,1158.2397742792964,"[75, 0, 179]",179,l,0.20147668663412333,1,colour,0.06,3.8
74,23,1,1,15,34,734,1158.7505296245217,1159.367781736888,"[81, 0, 173]",173,l,0.09503269521519542,1,colour,0.06,3.8
74,23,1,1,15,35,735,1159.8754977723584,1160.4877996332943,"[93, 0, 161]",161,l,0.08990481914952397,1,colour,0.06,3.8
74,23,1,1,15,36,736,1161.0007943878882,1162.351722269319,"[57, 0, 197]",197,l,0.8288344950415194,1,colour,0.06,3.8
74,23,1,1,15,37,737,1162.8602445079014,1163.7117468137294,"[52, 0, 202]",202,l,0.32939316565170884,1,colour,0.06,3.8
74,23,1,1,15,38,738,1164.2197164860554,1164.831720599439,"[55, 0, 199]",199,l,0.08991348370909691,1,colour,0.06,3.8
74,23,1,1,15,39,739,1165.3447933355346,1165.9997715693898,"[85, 0, 169]",169,l,0.13278008438646793,1,colour,0.06,3.8
74,23,1,1,15,40,740,1166.5167394429445,1167.8717499333434,"[79, 0, 175]",175,l,0.8328210054896772,1,colour,0.06,3.8
74,23,1,1,15,41,741,1168.3918784214184,1169.1277400366962,"[96, 0, 158]",158,l,0.21358075784519315,1,colour,0.06,3.8
74,23,1,1,15,42,742,1169.6420273939148,1170.3677691337653,"[77, 0, 177]",177,l,0.20351011352613568,1,colour,0.06,3.8
74,23,1,1,15,43,743,1170.876522953622,1171.511772650294,"[62, 0, 192]",192,l,0.11309447651728988,1,colour,0.06,3.8
74,23,1,1,15,44,744,1172.0171988643706,1172.7757424688898,"[66, 0, 188]",188,l,0.23702287022024393,1,colour,0.06,3.8
74,23,1,1,15,45,745,1173.2829059381038,1173.887744416017,"[71, 0, 183]",183,l,0.08256707293912768,1,colour,0.06,3.8
74,23,1,1,15,46,746,1174.4079591566697,1175.1597455441952,"[73, 0, 181]",181,l,0.22956972708925605,1,colour,0.06,3.8
74,23,1,1,15,47,747,1175.6737650861032,1176.3357683527283,"[99, 0, 155]",155,l,0.13982244674116373,1,colour,0.06,3.8
74,23,1,1,15,48,748,1176.8456741720438,1177.6477346173488,"[68, 0, 186]",186,l,0.27984220953658223,1,colour,0.06,3.8
74,23,1,1,15,49,749,1178.1583497538231,1178.9517660648562,"[84, 0, 170]",170,l,0.2712102849036455,1,colour,0.06,3.8
74,23,1,1,15,50,750,1179.4709079689346,1180.071727247443,"[83, 0, 171]",171,l,0.07876606425270438,1,colour,0.06,3.8
74,23,1,1,16,1,751,1184.8216534997337,1186.4077323013917,"[60, 0, 194]",194,l,1.0630512121133506,1,colour,0.06,3.8
74,23,1,1,16,2,752,1186.916291167494,1187.7037395294756,"[70, 0, 184]",184,l,0.2652805387042463,1,colour,0.06,3.8
74,23,1,1,16,3,753,1188.213410222903,1188.9837349448353,"[59, 0, 195]",195,l,0.2480060555972159,1,colour,0.06,3.8
74,23,1,1,16,4,754,1189.4947746475227,1190.23177093314,"[73, 0, 181]",181,l,0.21471542865037918,1,colour,0.06,3.8
74,23,1,1,16,5,755,1190.744923225604,1191.5598159637302,"[74, 0, 180]",180,l,0.2926386622712016,1,colour,0.06,3.8
74,23,1,1,16,6,756,1192.0731655736454,1192.8637568270788,"[58, 0, 196]",196,l,0.26878931326791644,1,colour,0.06,3.8
74,23,1,1,16,7,757,1193.3700857367367,1194.5517484205775,"[21, 0, 233]",233,a,0.6594310575164855,1,colour,0.06,3.8
74,23,1,1,16,8,758,1195.0577287767082,1196.5277238101698,"[90, 0, 164]",164,l,0.9476862135343254,1,colour,0.06,3.8
74,23,1,1,16,9,759,1197.0422372347675,1197.6797204324976,"[65, 0, 189]",189,l,0.11591086955741048,1,colour,0.06,3.8
74,23,1,1,16,10,760,1198.1986614749767,1198.911763512995,"[81, 0, 173]",173,l,0.19074438093230128,1,colour,0.06,3.8
74,23,1,1,16,11,761,1199.417381530162,1200.2717258296907,"[87, 0, 167]",167,l,0.3320315405726433,1,colour,0.06,3.8
74,23,1,1,16,12,762,1200.776988204103,1201.6238537603058,"[85, 0, 169]",169,l,0.3247871361672878,1,colour,0.06,3.8
74,23,1,1,16,13,763,1202.1364247365855,1203.0397221338935,"[91, 0, 163]",163,l,0.3843795917928219,1,colour,0.06,3.8
74,23,1,1,16,14,764,1203.555544309318,1204.1277231010608,"[89, 0, 165]",165,l,0.052535127848386765,1,colour,0.06,3.8
74,23,1,1,16,15,765,1204.6468906048685,1205.3117650095373,"[98, 0, 156]",156,l,0.14259787974879146,1,colour,0.06,3.8
74,23,1,1,16,16,766,1205.8189832232893,1206.5757021391764,"[88, 0, 166]",166,l,0.2346263169310987,1,colour,0.06,3.8
74,23,1,1,16,17,767,1207.0845138542354,1207.8717704131268,"[94, 0, 160]",160,l,0.2649567970074713,1,colour,0.06,3.8
74,23,1,1,16,18,768,1208.3814765526913,1209.2237498639151,"[57, 0, 197]",197,l,0.3199416478164494,1,colour,0.06,3.8
74,23,1,1,16,19,769,1209.7410615650006,1210.4077389966697,"[61, 0, 193]",193,l,0.14448755281046033,1,colour,0.06,3.8
74,23,1,1,16,20,770,1210.912998614367,1211.7117468137294,"[26, 0, 228]",228,a,0.2765331147238612,1,colour,0.06,3.8
74,23,1,1,16,21,771,1212.2255899128504,1213.543761616107,"[93, 0, 161]",161,l,0.7959093572571874,1,colour,0.06,3.8
74,23,1,1,16,22,772,1214.0539025617763,1214.911734762136,"[2, 0, 252]",252,a,0.33581600757315755,1,colour,0.06,3.8
74,23,1,1,16,23,773,1215.4289424880408,1216.0878119212575,"[82, 0, 172]",172,l,0.136621265206486,1,colour,0.06,3.8
74,23,1,1,16,24,774,1216.6009453097358,1217.271740402095,"[86, 0, 168]",168,l,0.14783170027658343,1,colour,0.06,3.8
74,23,1,1,16,25,775,1217.789199007675,1218.5837629865855,"[80, 0, 174]",174,l,0.27228745399042964,1,colour,0.06,3.8
74,23,1,1,16,26,776,1219.1017347741872,1219.7117326352745,"[83, 0, 171]",171,l,0.08775914553552866,1,colour,0.06,3.8
74,23,1,1,16,27,777,1220.2268612477928,1220.8317548641935,"[56, 0, 198]",198,l,0.08142728265374899,1,colour,0.06,3.8
74,23,1,1,16,28,778,1221.337535539642,1221.919753074646,"[51, 0, 203]",203,l,0.06013163132593036,1,colour,0.06,3.8
74,23,1,1,16,29,779,1222.4312831154093,1223.0797648583539,"[68, 0, 186]",186,l,0.12619773531332612,1,colour,0.06,3.8
74,23,1,1,16,30,780,1223.5877506784163,1224.1277715442702,"[53, 0, 201]",201,l,0.017960562836378813,1,colour,0.06,3.8
74,23,1,1,16,31,781,1224.6222701054066,1225.3517632293515,"[76, 0, 178]",178,l,0.20721659902483225,1,colour,0.06,3.8
74,23,1,1,16,32,782,1225.8567971731536,1226.5757312835194,"[62, 0, 192]",192,l,0.1966776717454195,1,colour,0.06,3.8
74,23,1,1,16,33,783,1227.0912962774746,1228.631753525231,"[92, 0, 162]",162,l,1.0182228642515838,1,colour,0.06,3.8
74,23,1,1,16,34,784,1229.1382982623763,1230.1517126597464,"[52, 0, 202]",202,l,0.4915076941251755,1,colour,0.06,3.8
74,23,1,1,16,35,785,1230.669686416164,1231.9597280574962,"[72, 0, 182]",182,l,0.7679242305457592,1,colour,0.06,3.8
74,23,1,1,16,36,786,1232.4666784559377,1233.0237386785448,"[69, 0, 185]",185,l,0.034762823954224586,1,colour,0.06,3.8
74,23,1,1,16,37,787,1233.529225545004,1234.7597621642053,"[67, 0, 187]",187,l,0.708241977263242,1,colour,0.06,3.8
74,23,1,1,16,38,788,1235.279391256161,1236.1757278176956,"[97, 0, 157]",157,l,0.3740876060910523,1,colour,0.06,3.8
74,23,1,1,16,39,789,1236.6857265853323,1237.783727698028,"[50, 0, 204]",204,l,0.5757029266096652,0,colour,0.06,3.8
74,23,1,1,16,40,790,1238.295198268257,1239.0557288262062,"[54, 0, 200]",200,l,0.23821425484493375,1,colour,0.06,3.8
74,23,1,1,16,41,791,1239.5610101050697,1240.127768393606,"[66, 0, 188]",188,l,0.044565259013324976,1,colour,0.06,3.8
74,23,1,1,16,42,792,1240.6391424713656,1242.0716981031,"[79, 0, 175]",175,l,0.9102428732439876,1,colour,0.06,3.8
74,23,1,1,16,43,793,1242.5769419665448,1243.1597612979822,"[84, 0, 170]",170,l,0.06062000058591366,1,colour,0.06,3.8
74,23,1,1,16,44,794,1243.67068481585,1244.2157571516,"[77, 0, 177]",177,l,0.02296949690207839,1,colour,0.06,3.8
74,23,1,1,16,45,795,1244.733345726505,1245.9437438142486,"[63, 0, 191]",191,l,0.6882314458489418,1,colour,0.06,3.8
74,23,1,1,16,46,796,1246.4521904340945,1247.0397311924025,"[96, 0, 158]",158,l,0.06532015930861235,1,colour,0.06,3.8
74,23,1,1,16,47,797,1247.5459927543998,1248.7837339998223,"[99, 0, 155]",155,l,0.7183271939866245,1,colour,0.06,3.8
74,23,1,1,16,48,798,1249.2932522748597,1250.023749312386,"[95, 0, 159]",159,l,0.20835757115855813,1,colour,0.06,3.8
74,23,1,1,16,49,799,1250.54331696406,1251.2077191467397,"[78, 0, 176]",176,l,0.14223751006647944,1,colour,0.06,3.8
74,23,1,1,16,50,800,1251.7153000929393,1252.4877279535867,"[64, 0, 190]",190,l,0.2501800861209631,1,colour,0.06,3.8
