id,age,condition,counterbalance,block,trialinblock,trial,tstart,tend,trialstim,trialintensity,response,RT,accuracy,trialtype,colourfreq,credits
68,21,1,1,Practice,1,NA,5.907611921429634e-06,1.2694094839971513,"[63, 0, 191]",191,a,0.7138591797556728,0,colour,0.5,4
68,21,1,1,Practice,2,NA,1.7820664905011654,3.1654331432655454,"[94, 0, 160]",160,l,0.8600108388345689,1,colour,0.5,4
68,21,1,1,Practice,3,NA,3.6725719831883907,4.805392766138539,"[9, 0, 245]",245,a,0.60933224321343,1,colour,0.5,4
68,21,1,1,Practice,4,NA,5.313254312146455,6.941400939133018,"[78, 0, 176]",176,l,1.1047167701181024,1,colour,0.5,4
68,21,1,1,Practice,5,NA,7.454195003723726,8.853353671496734,"[69, 0, 185]",185,l,0.8764712091069669,1,colour,0.5,4
68,21,1,1,Practice,6,NA,9.36004904168658,10.741374000208452,"[35, 0, 219]",219,a,0.8579762338194996,1,colour,0.5,4
68,21,1,1,Practice,7,NA,11.250817229039967,12.469374195439741,"[34, 0, 220]",220,a,0.695153103210032,1,colour,0.5,4
68,21,1,1,Practice,8,NA,12.985227650497109,14.221381624927744,"[42, 0, 212]",212,a,0.7128387265838683,1,colour,0.5,4
68,21,1,1,Practice,9,NA,14.735189841361716,16.30135663948022,"[53, 0, 201]",201,a,1.0430039684288204,0,colour,0.5,4
68,21,1,1,Practice,10,NA,16.81333268736489,19.397360763745382,"[10, 0, 244]",244,a,2.0606033394578844,1,colour,0.5,4
68,21,1,1,1,1,1,4.839820359135047,6.1919787102378905,"[18, 0, 236]",236,a,0.8283259843010455,1,colour,0.5,4.0
68,21,1,1,1,2,2,6.699907997623086,9.959941994398832,"[76, 0, 178]",178,l,2.736556878313422,1,colour,0.5,4.0
68,21,1,1,1,3,3,10.481180102098733,11.7840187815018,"[87, 0, 167]",167,l,0.7794285146519542,1,colour,0.5,4.0
68,21,1,1,1,4,4,12.293752274243161,13.775931562297046,"[83, 0, 171]",171,l,0.9589250860735774,1,colour,0.5,4.0
68,21,1,1,1,5,5,14.293686108430848,16.200008822139353,"[54, 0, 200]",200,a,1.3829550843220204,0,colour,0.5,4.0
68,21,1,1,1,6,6,16.715468037873507,18.639927721349522,"[43, 0, 211]",211,a,1.401051094289869,1,colour,0.5,4.0
68,21,1,1,1,7,7,19.152994327014312,20.759935141541064,"[35, 0, 219]",219,a,1.0834424286149442,1,colour,0.5,4.0
68,21,1,1,1,8,8,21.27797680092044,23.119913684669882,"[3, 0, 251]",251,a,1.3185286882799119,1,colour,0.5,4.0
68,21,1,1,1,9,9,23.63743428676389,25.727910792455077,"[71, 0, 183]",183,l,1.567084064008668,1,colour,0.5,4.0
68,21,1,1,1,10,10,26.24675432080403,27.351894868304953,"[68, 0, 186]",186,l,0.581899736309424,1,colour,0.5,4.0
68,21,1,1,1,11,11,27.871743883937597,29.367937369039282,"[58, 0, 196]",196,a,0.9728498803451657,0,colour,0.5,4.0
68,21,1,1,1,12,12,29.887339764041826,31.43990944698453,"[36, 0, 218]",218,a,1.0292233212385327,1,colour,0.5,4.0
68,21,1,1,1,13,13,31.94976503169164,33.47185778385028,"[42, 0, 212]",212,a,0.9985691600013524,1,colour,0.5,4.0
68,21,1,1,1,14,14,33.981125357793644,35.49592724558897,"[78, 0, 176]",176,l,0.9915212984196842,1,colour,0.5,4.0
68,21,1,1,1,15,15,36.01231514848769,37.91990840714425,"[28, 0, 226]",226,a,1.384877443080768,1,colour,0.5,4.0
68,21,1,1,1,16,16,38.434178210096434,40.26389919430949,"[48, 0, 206]",206,a,1.306266708765179,1,colour,0.5,4.0
68,21,1,1,1,17,17,40.77782556414604,42.47191331605427,"[70, 0, 184]",184,l,1.1717323048505932,1,colour,0.5,4.0
68,21,1,1,1,18,18,42.981063524028286,44.83990346058272,"[55, 0, 199]",199,a,1.3354112613014877,0,colour,0.5,4.0
68,21,1,1,1,19,19,45.35610231780447,47.14404931245372,"[30, 0, 224]",224,a,1.2647731371689588,1,colour,0.5,4.0
68,21,1,1,1,20,20,47.652826548786834,49.72784895868972,"[53, 0, 201]",201,a,1.551707949489355,0,colour,0.5,4.0
68,21,1,1,1,21,21,50.246739354683086,52.127889052033424,"[69, 0, 185]",185,l,1.3579683569259942,1,colour,0.5,4.0
68,21,1,1,1,22,22,52.637253117980435,54.487876653904095,"[5, 0, 249]",249,a,1.3271598082501441,1,colour,0.5,4.0
68,21,1,1,1,23,23,54.99650265369564,56.74385561933741,"[96, 0, 158]",158,l,1.2240794652607292,1,colour,0.5,4.0
68,21,1,1,1,24,24,57.2622627671808,59.07188228121959,"[65, 0, 189]",189,l,1.2864696811884642,1,colour,0.5,4.0
68,21,1,1,1,25,25,59.59023389662616,60.727987986058,"[26, 0, 228]",228,a,0.6142391618341208,1,colour,0.5,4.0
68,21,1,1,1,26,26,61.246566456509754,62.16789664537646,"[67, 0, 187]",187,l,0.3979629531968385,1,colour,0.5,4.0
68,21,1,1,1,27,27,62.684081324143335,63.45587987382896,"[17, 0, 237]",237,a,0.2483170989435166,1,colour,0.5,4.0
68,21,1,1,1,28,28,63.9652833242435,64.67991916718893,"[8, 0, 246]",246,a,0.19120598584413528,1,colour,0.5,4.0
68,21,1,1,1,29,29,65.19970398582518,65.79994115931913,"[24, 0, 230]",230,a,0.07692822720855474,1,colour,0.5,4.0
68,21,1,1,1,30,30,66.30904961959459,67.71185450721532,"[98, 0, 156]",156,l,0.8798760017380118,1,colour,0.5,4.0
68,21,1,1,1,31,31,68.23091504420154,69.37582845357247,"[22, 0, 232]",232,a,0.6219222960062325,1,colour,0.5,4.0
68,21,1,1,1,32,32,69.88717671204358,71.71982002840377,"[57, 0, 197]",197,l,1.3091984933707863,1,colour,0.5,4.0
68,21,1,1,1,33,33,72.23094103811309,73.62378991022706,"[90, 0, 164]",164,l,0.8694556427653879,1,colour,0.5,4.0
68,21,1,1,1,34,34,74.13711212133057,75.34383600577712,"[79, 0, 175]",175,l,0.6832337691448629,1,colour,0.5,4.0
68,21,1,1,1,35,35,75.85595659492537,76.84777288348414,"[27, 0, 227]",227,a,0.46935017104260623,1,colour,0.5,4.0
68,21,1,1,1,36,36,77.35594399203546,78.59182857628912,"[34, 0, 220]",220,a,0.712472056504339,1,colour,0.5,4.0
68,21,1,1,1,37,37,79.10590697056614,81.05578267294914,"[41, 0, 213]",213,a,1.426854657009244,1,colour,0.5,4.0
68,21,1,1,1,38,38,81.57460138900205,82.99980977270752,"[84, 0, 170]",170,l,0.9017997942864895,1,colour,0.5,4.0
68,21,1,1,1,39,39,83.51209538290277,84.51982735376805,"[46, 0, 208]",208,a,0.48487161425873637,1,colour,0.5,4.0
68,21,1,1,1,40,40,85.02768299216405,86.2158091077581,"[50, 0, 204]",204,a,0.6647817229386419,1,colour,0.5,4.0
68,21,1,1,1,41,41,86.73079058923759,88.24779052776285,"[44, 0, 210]",210,a,0.993518881732598,1,colour,0.5,4.0
68,21,1,1,1,42,42,88.76203630608507,89.9118081908673,"[2, 0, 252]",252,a,0.6264747537206858,1,colour,0.5,4.0
68,21,1,1,1,43,43,90.41823653387837,91.75995483365841,"[6, 0, 248]",248,a,0.8190745580941439,1,colour,0.5,4.0
68,21,1,1,1,44,44,92.27765424153768,93.82377116312273,"[72, 0, 182]",182,l,1.0227079384494573,1,colour,0.5,4.0
68,21,1,1,1,45,45,94.3400680879131,95.43176236306317,"[16, 0, 238]",238,a,0.5687197034712881,1,colour,0.5,4.0
68,21,1,1,1,46,46,95.94947988772765,97.03981263982132,"[51, 0, 203]",203,a,0.5668524829670787,0,colour,0.5,4.0
68,21,1,1,1,47,47,97.5588467894122,98.53572452557273,"[88, 0, 166]",166,l,0.453636531252414,1,colour,0.5,4.0
68,21,1,1,1,48,48,99.04310715571046,100.1357978596352,"[29, 0, 225]",225,a,0.5696897443849593,1,colour,0.5,4.0
68,21,1,1,1,49,49,100.65249217418022,101.9517862459179,"[19, 0, 235]",235,a,0.7768417387269437,1,colour,0.5,4.0
68,21,1,1,1,50,50,102.46511790924706,103.38376876851544,"[86, 0, 168]",168,l,0.39532458363100886,1,colour,0.5,4.0
68,21,1,1,2,1,51,116.80805634171702,118.31175297382288,"[74, 0, 180]",180,l,0.9794716013129801,1,colour,0.5,4.0
68,21,1,1,2,2,52,118.8244769340381,119.74371895496733,"[4, 0, 250]",250,a,0.3959303176961839,1,colour,0.5,4.0
68,21,1,1,2,3,53,120.26191578945145,121.31970274122432,"[78, 0, 176]",176,l,0.5344051439315081,1,colour,0.5,4.0
68,21,1,1,2,4,54,121.84003224805929,122.89573497045785,"[59, 0, 195]",195,l,0.5323236715048552,1,colour,0.5,4.0
68,21,1,1,2,5,55,123.4024496388156,125.10372821823694,"[55, 0, 199]",199,a,1.1784268873743713,0,colour,0.5,4.0
68,21,1,1,2,6,56,125.62119683274068,126.58369764010422,"[25, 0, 229]",229,a,0.4392505439464003,1,colour,0.5,4.0
68,21,1,1,2,7,57,127.09002870344557,128.65567759494297,"[72, 0, 182]",182,l,1.0422781114466488,1,colour,0.5,4.0
68,21,1,1,2,8,58,129.17040819698013,130.03965667705052,"[86, 0, 168]",168,l,0.3485393065493554,1,colour,0.5,4.0
68,21,1,1,2,9,59,130.55872942344286,131.631698717596,"[89, 0, 165]",165,l,0.5495792157016695,1,colour,0.5,4.0
68,21,1,1,2,10,60,132.15240513440222,133.37573668756522,"[79, 0, 175]",175,l,0.6999292653053999,1,colour,0.5,4.0
68,21,1,1,2,11,61,133.88680334668607,135.00764571875334,"[60, 0, 194]",194,a,0.5974144844803959,0,colour,0.5,4.0
68,21,1,1,2,12,62,135.52757350332104,136.3116553002037,"[29, 0, 225]",225,a,0.2612001725938171,1,colour,0.5,4.0
68,21,1,1,2,13,63,136.8243111250922,137.91968627856113,"[27, 0, 227]",227,a,0.5719909826293588,1,colour,0.5,4.0
68,21,1,1,2,14,64,138.4337453742046,139.68766255956143,"[11, 0, 243]",243,a,0.7305416790768504,1,colour,0.5,4.0
68,21,1,1,2,15,65,140.19929162971675,141.43966644443572,"[18, 0, 236]",236,a,0.7172423109877855,1,colour,0.5,4.0
68,21,1,1,2,16,66,141.9492786328774,143.36769003421068,"[19, 0, 235]",235,a,0.8949539752211422,1,colour,0.5,4.0
68,21,1,1,2,17,67,143.8866867683828,146.1596656725742,"[10, 0, 244]",244,a,1.749506118008867,1,colour,0.5,4.0
68,21,1,1,2,18,68,146.66809947579168,147.4316390894819,"[96, 0, 158]",158,l,0.24098173016682267,1,colour,0.5,4.0
68,21,1,1,2,19,69,147.94924397440627,148.8636164921336,"[7, 0, 247]",247,a,0.3909954361151904,1,colour,0.5,4.0
68,21,1,1,2,20,70,149.37110979296267,150.44765323330648,"[24, 0, 230]",230,a,0.5532033802010119,1,colour,0.5,4.0
68,21,1,1,2,21,71,150.9648977497127,151.8956609275192,"[2, 0, 252]",252,a,0.4073959421366453,1,colour,0.5,4.0
68,21,1,1,2,22,72,152.40231770067476,153.59960859641433,"[5, 0, 249]",249,a,0.6736936545930803,1,colour,0.5,4.0
68,21,1,1,2,23,73,154.12109876517206,155.30361691769212,"[12, 0, 242]",242,a,0.6597149034496397,1,colour,0.5,4.0
68,21,1,1,2,24,74,155.82429025135934,157.23161096894182,"[9, 0, 245]",245,a,0.8839822327718139,1,colour,0.5,4.0
68,21,1,1,2,25,75,157.74614701140672,159.03967755078338,"[38, 0, 216]",216,a,0.7703846450895071,1,colour,0.5,4.0
68,21,1,1,2,26,76,159.55850847624242,162.65583395166323,"[26, 0, 228]",228,a,2.5738263016100973,1,colour,0.5,4.0
68,21,1,1,2,27,77,163.16793130384758,164.13564819842577,"[80, 0, 174]",174,l,0.444368957541883,1,colour,0.5,4.0
68,21,1,1,2,28,78,164.65227201464586,165.6876023011282,"[87, 0, 167]",167,l,0.5118433218449354,1,colour,0.5,4.0
68,21,1,1,2,29,79,166.1998524654191,167.17576803755946,"[64, 0, 190]",190,l,0.45385157060809433,1,colour,0.5,4.0
68,21,1,1,2,30,80,167.6835594791919,168.5356150364969,"[95, 0, 159]",159,l,0.3290022164583206,1,colour,0.5,4.0
68,21,1,1,2,31,81,169.04287281772122,170.10360691393726,"[57, 0, 197]",197,a,0.5372731254901737,0,colour,0.5,4.0
68,21,1,1,2,32,82,170.62116335588507,171.351563250646,"[47, 0, 207]",207,a,0.20713505893945694,1,colour,0.5,4.0
68,21,1,1,2,33,83,171.87112200213596,172.6315679610707,"[93, 0, 161]",161,l,0.23795424145646393,1,colour,0.5,4.0
68,21,1,1,2,34,84,173.15220624255016,174.39961592201144,"[92, 0, 162]",162,l,0.7238151952624321,1,colour,0.5,4.0
68,21,1,1,2,35,85,174.91787734697573,176.2955950764008,"[63, 0, 191]",191,a,0.8549089664593339,0,colour,0.5,4.0
68,21,1,1,2,36,86,176.80855967616662,177.91963783558458,"[51, 0, 203]",203,a,0.5876825670711696,0,colour,0.5,4.0
68,21,1,1,2,37,87,178.43353978684172,180.21560627757572,"[66, 0, 188]",188,l,1.258664596825838,1,colour,0.5,4.0
68,21,1,1,2,38,88,180.73039438086562,181.83173747197725,"[3, 0, 251]",251,a,0.5781054308172315,1,colour,0.5,4.0
68,21,1,1,2,39,89,182.3398609252181,183.3516069673933,"[70, 0, 184]",184,l,0.4884150403086096,1,colour,0.5,4.0
68,21,1,1,2,40,90,183.87108064838685,184.88753196038306,"[98, 0, 156]",156,l,0.4935673247091472,1,colour,0.5,4.0
68,21,1,1,2,41,91,185.40224208240397,186.53566308575682,"[99, 0, 155]",155,l,0.6101282045710832,1,colour,0.5,4.0
68,21,1,1,2,42,92,187.0429559191689,187.75157774426043,"[21, 0, 233]",233,a,0.18525183270685375,1,colour,0.5,4.0
68,21,1,1,2,43,93,188.26163655309938,189.98365463223308,"[30, 0, 224]",224,a,1.1987800248898566,1,colour,0.5,4.0
68,21,1,1,2,44,94,190.49600483314134,191.56771067157388,"[54, 0, 200]",200,a,0.5488017648458481,0,colour,0.5,4.0
68,21,1,1,2,45,95,192.07472978252918,193.37562444154173,"[39, 0, 215]",215,a,0.7780929852742702,1,colour,0.5,4.0
68,21,1,1,2,46,96,193.88657649164088,195.24757666978985,"[32, 0, 222]",222,a,0.837715256260708,1,colour,0.5,4.0
68,21,1,1,2,47,97,195.76158180856146,196.3355156299658,"[0, 0, 254]",254,a,0.05093798181042075,1,colour,0.5,4.0
68,21,1,1,2,48,98,196.8553540117573,197.51153179025277,"[83, 0, 171]",171,l,0.13366951956413686,1,colour,0.5,4.0
68,21,1,1,2,49,99,198.0272013193462,199.0635398500599,"[48, 0, 206]",206,a,0.5128980397712439,1,colour,0.5,4.0
68,21,1,1,2,50,100,199.57410475006327,200.59952510125004,"[44, 0, 210]",210,a,0.5021933245006949,1,colour,0.5,4.0
68,21,1,1,3,1,101,213.24510371522047,214.35950474720448,"[73, 0, 181]",181,l,0.5908581416588277,1,colour,0.5,4.0
68,21,1,1,3,2,102,214.87093335017562,216.10349545581266,"[81, 0, 173]",173,l,0.7092165315989405,1,colour,0.5,4.0
68,21,1,1,3,3,103,216.62083134427667,217.37547871889547,"[5, 0, 249]",249,a,0.23172479029744864,1,colour,0.5,4.0
68,21,1,1,3,4,104,217.88646975974552,218.89548369706608,"[12, 0, 242]",242,a,0.48563173576258123,1,colour,0.5,4.0
68,21,1,1,3,5,105,219.40206367056817,220.4956098063849,"[13, 0, 241]",241,a,0.5700453869067132,1,colour,0.5,4.0
68,21,1,1,3,6,106,221.01153375953436,222.45551084098406,"[44, 0, 210]",210,a,0.9206827073357999,1,colour,0.5,4.0
68,21,1,1,3,7,107,222.96466695633717,224.70350577449426,"[66, 0, 188]",188,l,1.215189983136952,1,colour,0.5,4.0
68,21,1,1,3,8,108,225.2146705009509,226.53551972610876,"[54, 0, 200]",200,a,0.7977431090548635,0,colour,0.5,4.0
68,21,1,1,3,9,109,227.04277593176812,228.01550529547967,"[69, 0, 185]",185,l,0.44963821372948587,1,colour,0.5,4.0
68,21,1,1,3,10,110,228.52708828588948,229.35147542320192,"[74, 0, 180]",180,l,0.3017831740435213,1,colour,0.5,4.0
68,21,1,1,3,11,111,229.87069625547156,231.3195176338777,"[64, 0, 190]",190,l,0.9253155093174428,1,colour,0.5,4.0
68,21,1,1,3,12,112,231.83968684566207,232.76762694027275,"[10, 0, 244]",244,a,0.4047193694859743,1,colour,0.5,4.0
68,21,1,1,3,13,113,233.2773060821928,234.32766708079726,"[98, 0, 156]",156,l,0.5278196565341204,1,colour,0.5,4.0
68,21,1,1,3,14,114,234.83959468570538,235.7035561867524,"[3, 0, 251]",251,a,0.3411554950289428,1,colour,0.5,4.0
68,21,1,1,3,15,115,236.2144341939129,237.19957441068254,"[14, 0, 240]",240,a,0.46205418673343956,1,colour,0.5,4.0
68,21,1,1,3,16,116,237.71462639025412,238.79141165176407,"[6, 0, 248]",248,a,0.5536062838509679,1,colour,0.5,4.0
68,21,1,1,3,17,117,239.30823908606544,240.8714177799411,"[27, 0, 227]",227,a,1.0397315076552331,1,colour,0.5,4.0
68,21,1,1,3,18,118,241.38643667660654,242.7434767400846,"[28, 0, 226]",226,a,0.8336621939670295,1,colour,0.5,4.0
68,21,1,1,3,19,119,243.26139748911373,245.23145343083888,"[61, 0, 193]",193,a,1.4467454198747873,0,colour,0.5,4.0
68,21,1,1,3,20,120,245.74563422473148,246.96744750416838,"[18, 0, 236]",236,a,0.6986311511136591,1,colour,0.5,4.0
68,21,1,1,3,21,121,247.4799599694088,248.5354090554174,"[0, 0, 254]",254,a,0.5318660230841488,1,colour,0.5,4.0
68,21,1,1,3,22,122,249.04259121837094,249.74355196463875,"[94, 0, 160]",160,l,0.17755924607627094,1,colour,0.5,4.0
68,21,1,1,3,23,123,250.26145341503434,251.38344187708572,"[33, 0, 221]",221,a,0.5987953061703593,1,colour,0.5,4.0
68,21,1,1,3,24,124,251.90197899378836,253.21542510855943,"[49, 0, 205]",205,a,0.7904384599532932,1,colour,0.5,4.0
68,21,1,1,3,25,125,253.73009387683123,254.5274206912145,"[67, 0, 187]",187,l,0.27389932051301,1,colour,0.5,4.0
68,21,1,1,3,26,126,255.0426172122825,255.7674016605597,"[31, 0, 223]",223,a,0.2014010651037097,1,colour,0.5,4.0
68,21,1,1,3,27,127,256.27705480903387,256.99940686882474,"[88, 0, 166]",166,l,0.19906792556867003,1,colour,0.5,4.0
68,21,1,1,3,28,128,257.5113273845054,258.21539950859733,"[21, 0, 233]",233,a,0.18082382972352207,1,colour,0.5,4.0
68,21,1,1,3,29,129,258.73013956286013,259.4233687319793,"[2, 0, 252]",252,a,0.16984145366586745,1,colour,0.5,4.0
68,21,1,1,3,30,130,259.9332251045853,262.1753816753626,"[55, 0, 199]",199,a,1.7187357724178582,0,colour,0.5,4.0
68,21,1,1,3,31,131,262.6832050185185,263.75148243363947,"[26, 0, 228]",228,a,0.5449019088409841,1,colour,0.5,4.0
68,21,1,1,3,32,132,264.26127303391695,265.567404653877,"[40, 0, 214]",214,l,0.7828037689905614,0,colour,0.5,4.0
68,21,1,1,3,33,133,266.0737160248682,267.44768395321444,"[15, 0, 239]",239,a,0.8504490624181926,1,colour,0.5,4.0
68,21,1,1,3,34,134,267.96439126483165,268.9674073320348,"[41, 0, 213]",213,a,0.4796244134195149,1,colour,0.5,4.0
68,21,1,1,3,35,135,269.4800785169937,270.61543487594463,"[75, 0, 179]",179,l,0.6121123970951885,1,colour,0.5,4.0
68,21,1,1,3,36,136,271.1362724432256,272.7754164126236,"[91, 0, 163]",163,l,1.1158145430963486,1,colour,0.5,4.0
68,21,1,1,3,37,137,273.2925715262536,274.53533264948055,"[56, 0, 198]",198,a,0.7194687183946371,0,colour,0.5,4.0
68,21,1,1,3,38,138,275.04255104623735,276.15949474368244,"[58, 0, 196]",196,a,0.5936820125207305,0,colour,0.5,4.0
68,21,1,1,3,39,139,276.6675575445406,277.85535519314,"[52, 0, 202]",202,a,0.665082226973027,0,colour,0.5,4.0
68,21,1,1,3,40,140,278.37055486487225,279.7193730138242,"[62, 0, 192]",192,l,0.8253548152279109,1,colour,0.5,4.0
68,21,1,1,3,41,141,280.2299107387662,281.05533368932083,"[17, 0, 237]",237,a,0.3019021153450012,1,colour,0.5,4.0
68,21,1,1,3,42,142,281.5737179941498,282.7993161268532,"[89, 0, 165]",165,l,0.7020950205624104,1,colour,0.5,4.0
68,21,1,1,3,43,143,283.3081949753687,284.583407769911,"[29, 0, 225]",225,a,0.7518857312388718,1,colour,0.5,4.0
68,21,1,1,3,44,144,285.1050231815316,286.6153466545511,"[92, 0, 162]",162,l,0.9878640507813543,1,colour,0.5,4.0
68,21,1,1,3,45,145,287.1363283691462,288.21532743494026,"[4, 0, 250]",250,a,0.5556444332469255,1,colour,0.5,4.0
68,21,1,1,3,46,146,288.73004425223917,290.84735737671144,"[59, 0, 195]",195,l,1.593888387316838,1,colour,0.5,4.0
68,21,1,1,3,47,147,291.35505705233663,292.3193896343,"[72, 0, 182]",182,l,0.44094604812562466,1,colour,0.5,4.0
68,21,1,1,3,48,148,292.8393753140699,293.83933002175763,"[50, 0, 204]",204,a,0.47679148404859006,1,colour,0.5,4.0
68,21,1,1,3,49,149,294.35500742774457,295.2313254310284,"[37, 0, 217]",217,a,0.3528928724117577,1,colour,0.5,4.0
68,21,1,1,3,50,150,295.7456165016629,297.02335541998036,"[87, 0, 167]",167,l,0.7545311900321394,1,colour,0.5,4.0
68,21,1,1,4,1,151,304.4166706050746,305.7992724101059,"[11, 0, 243]",243,a,0.858513044891879,1,colour,0.5,4.0
68,21,1,1,4,2,152,306.3080149879679,307.78329174313694,"[64, 0, 190]",190,l,0.9521328299306333,1,colour,0.5,4.0
68,21,1,1,4,3,153,308.2923659388907,309.41529647866264,"[86, 0, 168]",168,l,0.6003226379398257,1,colour,0.5,4.0
68,21,1,1,4,4,154,309.93305535730906,310.70328955329023,"[50, 0, 204]",204,a,0.24689728673547506,1,colour,0.5,4.0
68,21,1,1,4,5,155,311.2141990682576,313.93552516098134,"[15, 0, 239]",239,a,2.1979978478047997,1,colour,0.5,4.0
68,21,1,1,4,6,156,314.4485043329187,315.03129415982403,"[5, 0, 249]",249,a,0.059164622565731406,1,colour,0.5,4.0
68,21,1,1,4,7,157,315.54247660934925,316.4072675483767,"[26, 0, 228]",228,a,0.34219367103651166,1,colour,0.5,4.0
68,21,1,1,4,8,158,316.9174626278691,317.9913224063348,"[85, 0, 169]",169,l,0.5511120615992695,1,colour,0.5,4.0
68,21,1,1,4,9,159,318.5109831637237,319.35927710472606,"[2, 0, 252]",252,a,0.32480540103279054,1,colour,0.5,4.0
68,21,1,1,4,10,160,319.8705076035112,321.50326891592704,"[77, 0, 177]",177,l,1.1096973377279937,1,colour,0.5,4.0
68,21,1,1,4,11,161,322.0110572066624,322.5512707810849,"[6, 0, 248]",248,a,0.016855397261679173,1,colour,0.5,4.0
68,21,1,1,4,12,162,323.0579901759047,324.047288217349,"[63, 0, 191]",191,l,0.4667141642421484,1,colour,0.5,4.0
68,21,1,1,4,13,163,324.5581236893777,325.54327296465635,"[19, 0, 235]",235,a,0.461966359289363,1,colour,0.5,4.0
68,21,1,1,4,14,164,326.0578468160238,327.0393065486569,"[1, 0, 253]",253,a,0.4582201028242707,1,colour,0.5,4.0
68,21,1,1,4,15,165,327.55784917925484,328.6472788439132,"[24, 0, 230]",230,a,0.5659088294487447,1,colour,0.5,4.0
68,21,1,1,4,16,166,329.167311785277,330.0632137460634,"[79, 0, 175]",175,l,0.37274779565632343,1,colour,0.5,4.0
68,21,1,1,4,17,167,330.5736195326317,331.9592626111116,"[55, 0, 199]",199,l,0.8623920271638781,1,colour,0.5,4.0
68,21,1,1,4,18,168,332.4796748254448,333.24723284272477,"[76, 0, 178]",178,l,0.24403875740244985,1,colour,0.5,4.0
68,21,1,1,4,19,169,333.7610249114223,334.69522005692124,"[20, 0, 234]",234,a,0.4116396252065897,1,colour,0.5,4.0
68,21,1,1,4,20,170,335.2141793759074,336.1672468006145,"[75, 0, 179]",179,l,0.43055522721260786,1,colour,0.5,4.0
68,21,1,1,4,21,171,336.6828875790816,337.52720959018916,"[0, 0, 254]",254,a,0.32099100924097,1,colour,0.5,4.0
68,21,1,1,4,22,172,338.0423324620351,338.9352408046834,"[81, 0, 173]",173,l,0.3700353829190135,1,colour,0.5,4.0
68,21,1,1,4,23,173,339.44894740893506,340.47123787133023,"[70, 0, 184]",184,l,0.4996211207471788,1,colour,0.5,4.0
68,21,1,1,4,24,174,340.9797874651849,342.0152296037413,"[31, 0, 223]",223,a,0.5125932034570724,1,colour,0.5,4.0
68,21,1,1,4,25,175,342.5265963729471,343.53530232352205,"[88, 0, 166]",166,l,0.4853501364123076,1,colour,0.5,4.0
68,21,1,1,4,26,176,344.0422229729593,345.15929073188454,"[89, 0, 165]",165,l,0.5942298513837159,1,colour,0.5,4.0
68,21,1,1,4,27,177,345.66734171751887,346.7832078540232,"[56, 0, 198]",198,a,0.5931613489519805,0,colour,0.5,4.0
68,21,1,1,4,28,178,347.29234979115427,348.54326075548306,"[80, 0, 174]",174,l,0.7279170940164477,1,colour,0.5,4.0
68,21,1,1,4,29,179,349.0578468160238,350.09527669195086,"[36, 0, 218]",218,a,0.5139984434936196,1,colour,0.5,4.0
68,21,1,1,4,30,180,350.60472622234374,351.17517963284627,"[16, 0, 238]",238,a,0.04700464894995093,1,colour,0.5,4.0
68,21,1,1,4,31,181,351.682831653161,352.8551960797049,"[71, 0, 183]",183,l,0.6489188158884645,1,colour,0.5,4.0
68,21,1,1,4,32,182,353.3703059547115,354.4471542313695,"[37, 0, 217]",217,a,0.5534003027714789,1,colour,0.5,4.0
68,21,1,1,4,33,183,354.96408406528644,356.36726507521234,"[68, 0, 186]",186,l,0.8801016751676798,1,colour,0.5,4.0
68,21,1,1,4,34,184,356.8859770591371,357.61517769494094,"[43, 0, 211]",211,a,0.20623866701498628,1,colour,0.5,4.0
68,21,1,1,4,35,185,358.13589868391864,359.0071486858651,"[42, 0, 212]",212,a,0.34770592977292836,1,colour,0.5,4.0
68,21,1,1,4,36,186,359.5267200404778,360.58318012743257,"[30, 0, 224]",224,a,0.5332263649906963,1,colour,0.5,4.0
68,21,1,1,4,37,187,361.1047447330784,362.1352630176116,"[27, 0, 227]",227,a,0.5074302854482085,1,colour,0.5,4.0
68,21,1,1,4,38,188,362.6516662805807,363.7592029829975,"[84, 0, 170]",170,l,0.5840796702541411,1,colour,0.5,4.0
68,21,1,1,4,39,189,364.2765365084633,365.3671500722412,"[62, 0, 192]",192,l,0.5672356942668557,1,colour,0.5,4.0
68,21,1,1,4,40,190,365.8860215637833,366.79918930865824,"[12, 0, 242]",242,a,0.39078906108625233,1,colour,0.5,4.0
68,21,1,1,4,41,191,367.3085061132442,368.38317091134377,"[44, 0, 210]",210,a,0.5519095982890576,1,colour,0.5,4.0
68,21,1,1,4,42,192,368.9015390686691,369.4952135980129,"[78, 0, 176]",176,l,0.07040142291225493,1,colour,0.5,4.0
68,21,1,1,4,43,193,370.0109079394024,371.047154703876,"[32, 0, 222]",222,a,0.5129527843091637,1,colour,0.5,4.0
68,21,1,1,4,44,194,371.55786178214476,372.5511502644513,"[91, 0, 163]",163,l,0.4702024522703141,1,colour,0.5,4.0
68,21,1,1,4,45,195,373.0579929326195,374.17519066040404,"[99, 0, 155]",155,l,0.593782049138099,1,colour,0.5,4.0
68,21,1,1,4,46,196,374.682854102226,376.07110995054245,"[95, 0, 159]",159,l,0.8647905453108251,1,colour,0.5,4.0
68,21,1,1,4,47,197,376.58906732685864,377.4151479990687,"[38, 0, 216]",216,a,0.3038272310514003,1,colour,0.5,4.0
68,21,1,1,4,48,198,377.93273122259416,378.75111694517545,"[45, 0, 209]",209,a,0.2952366773970425,1,colour,0.5,4.0
68,21,1,1,4,49,199,379.26109934807755,380.3432420871686,"[8, 0, 246]",246,a,0.5588991709519178,1,colour,0.5,4.0
68,21,1,1,4,50,200,380.85485776653513,381.8311289809644,"[73, 0, 181]",181,l,0.4530051969923079,1,colour,0.5,4.0
68,21,1,1,5,1,201,388.29147506086156,389.8871601705905,"[96, 0, 158]",158,l,1.0716061957646161,1,colour,0.4,4.0
68,21,1,1,5,2,202,390.4015886930283,391.13509445195086,"[87, 0, 167]",167,l,0.21010150178335607,1,colour,0.4,4.0
68,21,1,1,5,3,203,391.6515315854922,392.36712683551013,"[18, 0, 236]",236,a,0.19214924541302025,1,colour,0.4,4.0
68,21,1,1,5,4,204,392.88596366834827,393.6871485915035,"[99, 0, 155]",155,l,0.2784242092166096,1,colour,0.4,4.0
68,21,1,1,5,5,205,394.1984535269439,395.0070659783669,"[41, 0, 213]",213,a,0.28519519744440913,1,colour,0.4,4.0
68,21,1,1,5,6,206,395.52663693903014,396.2713491721079,"[74, 0, 180]",180,l,0.22136823437176645,1,colour,0.4,4.0
68,21,1,1,5,7,207,396.7921804378275,397.7110998996068,"[84, 0, 170]",170,l,0.3959086562972516,1,colour,0.4,4.0
68,21,1,1,5,8,208,398.22957478882745,399.111085642362,"[60, 0, 194]",194,a,0.35830391314812005,0,colour,0.4,4.0
68,21,1,1,5,9,209,399.62025160412304,400.6230408165138,"[59, 0, 195]",195,a,0.47939046937972307,0,colour,0.4,4.0
68,21,1,1,5,10,210,401.13591561932117,402.2311241761781,"[68, 0, 186]",186,a,0.5717802753206342,0,colour,0.4,4.0
68,21,1,1,5,11,211,402.7452447116375,403.92709569004364,"[1, 0, 253]",253,a,0.6586538839619607,1,colour,0.4,4.0
68,21,1,1,5,12,212,404.44838263466954,405.5031275253277,"[7, 0, 247]",247,a,0.5313307873439044,1,colour,0.4,4.0
68,21,1,1,5,13,213,406.01080869021825,407.24708790774457,"[42, 0, 212]",212,a,0.7132160305045545,1,colour,0.4,4.0
68,21,1,1,5,14,214,407.76093078241684,408.79113399074413,"[97, 0, 157]",157,l,0.506992329377681,1,colour,0.4,4.0
68,21,1,1,5,15,215,409.3078743852675,410.6630925205536,"[51, 0, 203]",203,a,0.8318481429014355,0,colour,0.4,4.0
68,21,1,1,5,16,216,411.1827973886393,412.6071223770268,"[43, 0, 211]",211,a,0.9013228474650532,1,colour,0.4,4.0
68,21,1,1,5,17,217,413.12021497637033,414.35112687014043,"[9, 0, 245]",245,a,0.7073792431037873,1,colour,0.4,4.0
68,21,1,1,5,18,218,414.8703114686068,415.9430739940144,"[3, 0, 251]",251,a,0.5492452348116785,1,colour,0.4,4.0
68,21,1,1,5,19,219,416.46405177004635,417.7510751974769,"[52, 0, 202]",202,l,0.7636254718527198,1,colour,0.4,4.0
68,21,1,1,5,20,220,418.2610383022111,418.991055379156,"[44, 0, 210]",210,l,0.20667898608371615,0,colour,0.4,4.0
68,21,1,1,5,21,221,419.51088076410815,420.4870401264634,"[14, 0, 240]",240,a,0.45279015763662755,1,colour,0.4,4.0
68,21,1,1,5,22,222,420.99527740082704,421.90305182826705,"[54, 0, 200]",200,l,0.3846108098514378,1,colour,0.4,4.0
68,21,1,1,5,23,223,422.4171971762553,423.55116089829244,"[5, 0, 249]",249,a,0.6104558838997036,1,colour,0.4,4.0
68,21,1,1,5,24,224,424.05803743726574,425.0230261653196,"[92, 0, 162]",162,l,0.4417691845446825,1,colour,0.4,4.0
68,21,1,1,5,25,225,425.54213357018307,426.9910809791181,"[15, 0, 239]",239,a,0.9263568364549428,1,colour,0.4,4.0
68,21,1,1,5,26,226,427.5108803701587,428.4390603164211,"[82, 0, 172]",172,l,0.4048087722621858,1,colour,0.4,4.0
68,21,1,1,5,27,227,428.9484346222598,430.11105689173564,"[61, 0, 193]",193,l,0.6391648433636874,1,colour,0.4,4.0
68,21,1,1,5,28,228,430.62030556076206,431.5990335822571,"[67, 0, 187]",187,l,0.45565616991370916,1,colour,0.4,4.0
68,21,1,1,5,29,229,432.12036660686135,434.00700099393725,"[55, 0, 199]",199,a,1.3632880253717303,0,colour,0.4,4.0
68,21,1,1,5,30,230,434.5265959792305,435.51110801286995,"[79, 0, 175]",175,l,0.46132281608879566,1,colour,0.4,4.0
68,21,1,1,5,31,231,436.0265203609597,437.5270327536855,"[6, 0, 248]",248,a,0.977644553175196,1,colour,0.4,4.0
68,21,1,1,5,32,232,438.0421331762336,438.98303471971303,"[63, 0, 191]",191,l,0.4175366710405797,1,colour,0.4,4.0
68,21,1,1,5,33,233,439.4953467177693,440.5590031458996,"[77, 0, 177]",177,l,0.5405258936807513,1,colour,0.4,4.0
68,21,1,1,5,34,234,441.07333950861357,442.15102194971405,"[26, 0, 228]",228,a,0.5543317468836904,1,colour,0.4,4.0
68,21,1,1,5,35,235,442.6671861484647,443.91926447022706,"[81, 0, 173]",173,l,0.7293837738689035,1,colour,0.4,4.0
68,21,1,1,5,36,236,444.43275918555446,445.4230020621326,"[71, 0, 183]",183,l,0.46703593619167805,1,colour,0.4,4.0
68,21,1,1,5,37,237,445.9329281451646,447.0311023571994,"[57, 0, 197]",197,l,0.5749050439335406,1,colour,0.4,4.0
68,21,1,1,5,38,238,447.5421894961037,448.2149883341044,"[2, 0, 252]",252,a,0.14913149224594235,1,colour,0.4,4.0
68,21,1,1,5,39,239,448.72977328673005,449.78299202700146,"[39, 0, 215]",215,a,0.529796366347,1,colour,0.4,4.0
68,21,1,1,5,40,240,450.2923367943149,451.0549922254868,"[95, 0, 159]",159,l,0.2394315553829074,1,colour,0.4,4.0
68,21,1,1,5,41,241,451.5735458836425,452.7429899473209,"[32, 0, 222]",222,a,0.6460984896402806,1,colour,0.4,4.0
68,21,1,1,5,42,242,453.26098001305945,454.3430246845819,"[76, 0, 178]",178,l,0.5587101252749562,1,colour,0.4,4.0
68,21,1,1,5,43,243,454.85469195782207,455.7989726937376,"[70, 0, 184]",184,l,0.4211502014659345,1,colour,0.4,4.0
68,21,1,1,5,44,244,456.30784130236134,457.279079567641,"[69, 0, 185]",185,l,0.44778556539677083,1,colour,0.4,4.0
68,21,1,1,5,45,245,457.7921729546506,458.8949961166363,"[56, 0, 198]",198,l,0.5794078772887588,1,colour,0.4,4.0
68,21,1,1,5,46,246,459.4016020838171,460.43896185513586,"[58, 0, 196]",196,l,0.5137979763094336,1,colour,0.4,4.0
68,21,1,1,5,47,247,460.9484129608609,461.72715224628337,"[12, 0, 242]",242,a,0.2552460194565356,1,colour,0.4,4.0
68,21,1,1,5,48,248,462.2458748642821,463.3670173464343,"[94, 0, 160]",160,l,0.5983018178958446,1,colour,0.4,4.0
68,21,1,1,5,49,249,463.88594791456126,465.2470579755027,"[23, 0, 231]",231,a,0.8376553917769343,1,colour,0.4,4.0
68,21,1,1,5,50,250,465.7610485421028,467.5510265971534,"[16, 0, 238]",238,a,1.266715188510716,1,colour,0.4,4.0
68,21,1,1,6,1,251,483.51013757800683,485.1749051224906,"[6, 0, 248]",248,l,1.1406043476890773,0,colour,0.28,3.9
68,21,1,1,6,2,252,485.6826863242313,491.0150378011167,"[86, 0, 168]",168,a,4.808797952486202,0,colour,0.28,3.9
68,21,1,1,6,3,253,491.52649318566546,492.66288929618895,"[18, 0, 236]",236,a,0.6129595583770424,1,colour,0.28,3.9
68,21,1,1,6,4,254,493.18277690862305,494.03092788369395,"[83, 0, 171]",171,l,0.32475459505803883,1,colour,0.28,3.9
68,21,1,1,6,5,255,494.54210442560725,495.46286511421204,"[53, 0, 201]",201,l,0.39721070881932974,1,colour,0.28,3.9
68,21,1,1,6,6,256,495.9795779394917,497.3988526498433,"[23, 0, 231]",231,a,0.8961083358153701,1,colour,0.28,3.9
68,21,1,1,6,7,257,497.917071539443,499.0229036794044,"[74, 0, 180]",180,l,0.5824133106507361,1,colour,0.28,3.9
68,21,1,1,6,8,258,499.5420445611235,500.59887840715237,"[20, 0, 234]",234,a,0.5333102538716048,1,colour,0.28,3.9
68,21,1,1,6,9,259,501.12016377644613,502.1509412114974,"[71, 0, 183]",183,l,0.507310556480661,1,colour,0.28,3.9
68,21,1,1,6,10,260,502.6670534226578,503.34287699265406,"[75, 0, 179]",179,l,0.15309239458292723,1,colour,0.28,3.9
68,21,1,1,6,11,261,503.8544627397787,504.84686743305065,"[40, 0, 214]",214,a,0.468963808612898,1,colour,0.28,3.9
68,21,1,1,6,12,262,505.3545265425928,506.5349084781483,"[41, 0, 213]",213,a,0.6568894570227712,1,colour,0.28,3.9
68,21,1,1,6,13,263,507.04209221643396,509.6308539195452,"[93, 0, 161]",161,l,2.0657335685100406,1,colour,0.28,3.9
68,21,1,1,6,14,264,510.15147644723766,513.7028382066637,"[76, 0, 178]",178,l,3.028082351433113,1,colour,0.28,3.9
68,21,1,1,6,15,265,514.2138835981023,514.918809578754,"[61, 0, 193]",193,l,0.18182143988087773,1,colour,0.28,3.9
68,21,1,1,6,16,266,515.4326414258685,516.4470207176637,"[29, 0, 225]",225,a,0.4909403764177114,1,colour,0.28,3.9
68,21,1,1,6,17,267,516.9639194379561,517.9348729532212,"[54, 0, 200]",200,a,0.4475996703840792,0,colour,0.28,3.9
68,21,1,1,6,18,268,518.4482298227958,520.0228469658177,"[64, 0, 190]",190,a,1.0512495136354119,0,colour,0.28,3.9
68,21,1,1,6,19,269,520.541972093517,521.8870341400616,"[78, 0, 176]",176,l,0.8218070568982512,1,colour,0.28,3.9
68,21,1,1,6,20,270,522.4013189091347,523.4948559864424,"[34, 0, 220]",220,a,0.570174174150452,1,colour,0.28,3.9
68,21,1,1,6,21,271,524.0107007767074,525.518868340645,"[87, 0, 167]",167,l,0.9847495222929865,1,colour,0.28,3.9
68,21,1,1,6,22,272,526.0264782195445,527.3031222478021,"[69, 0, 185]",185,a,0.7536962381564081,0,colour,0.28,3.9
68,21,1,1,6,23,273,527.8233288750052,529.4389268029481,"[58, 0, 196]",196,l,1.0923004031646997,1,colour,0.28,3.9
68,21,1,1,6,24,274,529.9482703888789,531.1908700356726,"[68, 0, 186]",186,a,0.7192950325552374,0,colour,0.28,3.9
68,21,1,1,6,25,275,531.6984925176948,533.214785503922,"[62, 0, 192]",192,l,0.9931569378823042,1,colour,0.28,3.9
68,21,1,1,6,26,276,533.7294897180982,535.1028070140164,"[92, 0, 162]",162,l,0.8503360287286341,1,colour,0.28,3.9
68,21,1,1,6,27,277,535.6200995796826,537.3348527883645,"[65, 0, 189]",189,l,1.1915415420662612,1,colour,0.28,3.9
68,21,1,1,6,28,278,537.8544883397408,538.8708096828777,"[3, 0, 251]",251,a,0.4933416515123099,1,colour,0.28,3.9
68,21,1,1,6,29,279,539.3857486289926,540.5428302825894,"[9, 0, 245]",245,a,0.6337163874413818,1,colour,0.28,3.9
68,21,1,1,6,30,280,541.0575140167493,541.9988846299239,"[81, 0, 173]",173,l,0.41852916101925075,1,colour,0.28,3.9
68,21,1,1,6,31,281,542.5106369736604,544.0388347220141,"[94, 0, 160]",160,l,1.0049656017217785,1,colour,0.28,3.9
68,21,1,1,6,32,282,544.5582067908254,546.974806109909,"[60, 0, 194]",194,l,1.8938094608020037,1,colour,0.28,3.9
68,21,1,1,6,33,283,547.4950501520652,548.4629399448168,"[72, 0, 182]",182,l,0.4446698552928865,1,colour,0.28,3.9
68,21,1,1,6,34,284,548.9794968073256,550.4307860205881,"[63, 0, 191]",191,a,0.9279790851287544,0,colour,0.28,3.9
68,21,1,1,6,35,285,550.9482002845034,552.0147987371311,"[11, 0, 243]",243,a,0.5431752912700176,1,colour,0.28,3.9
68,21,1,1,6,36,286,552.5262190692592,553.6387800562661,"[67, 0, 187]",187,l,0.5891634253785014,1,colour,0.28,3.9
68,21,1,1,6,37,287,554.1512645583134,555.6307849965524,"[97, 0, 157]",157,l,0.9561465072911233,1,colour,0.28,3.9
68,21,1,1,6,38,288,556.1513578996528,557.7907393577043,"[90, 0, 164]",164,l,1.1161871205549687,1,colour,0.28,3.9
68,21,1,1,6,39,289,558.3075900289696,559.550819828175,"[73, 0, 181]",181,l,0.7199661449994892,1,colour,0.28,3.9
68,21,1,1,6,40,290,560.0574309155345,561.3907677934039,"[59, 0, 195]",195,a,0.8099078086670488,0,colour,0.28,3.9
68,21,1,1,6,41,291,561.9012944905553,562.7027377760969,"[52, 0, 202]",202,a,0.2784001845866442,0,colour,0.28,3.9
68,21,1,1,6,42,292,563.2136354756076,564.0067414499354,"[16, 0, 238]",238,a,0.26976788346655667,1,colour,0.28,3.9
68,21,1,1,6,43,293,564.5261981955264,565.5987145674881,"[98, 0, 156]",156,l,0.5491676472593099,1,colour,0.28,3.9
68,21,1,1,6,44,294,566.1199865462258,567.5427530887537,"[50, 0, 204]",204,a,0.8993705564644188,1,colour,0.28,3.9
68,21,1,1,6,45,295,568.0574848724063,569.5347820536699,"[0, 0, 254]",254,a,0.9540823639836162,1,colour,0.28,3.9
68,21,1,1,6,46,296,570.0418929306325,571.118687644368,"[57, 0, 197]",197,a,0.5536090407986194,0,colour,0.28,3.9
68,21,1,1,6,47,297,571.6355402846821,572.1667115648743,"[33, 0, 221]",221,a,0.007677620276808739,1,colour,0.28,3.9
68,21,1,1,6,48,298,572.6823476171121,573.4227106166072,"[77, 0, 177]",177,l,0.21709580067545176,1,colour,0.28,3.9
68,21,1,1,6,49,299,573.9323566756211,575.1190070528537,"[55, 0, 199]",199,a,0.663222489412874,0,colour,0.28,3.9
68,21,1,1,6,50,300,575.6354792388156,576.7106847865507,"[56, 0, 198]",198,a,0.5520675303414464,0,colour,0.28,3.9
68,21,1,1,7,1,301,595.228472021874,596.910655405838,"[70, 0, 184]",184,l,1.1582844571676105,1,colour,0.14,3.9
68,21,1,1,7,2,302,597.4167328325566,598.7666482345667,"[63, 0, 191]",191,a,0.8269132610876113,0,colour,0.14,3.9
68,21,1,1,7,3,303,599.2759677958675,601.070647969842,"[79, 0, 175]",175,l,1.2712920645717531,1,colour,0.14,3.9
68,21,1,1,7,4,304,601.5885450881906,602.4946637898684,"[61, 0, 193]",193,l,0.3828585920855403,1,colour,0.14,3.9
68,21,1,1,7,5,305,603.0104502912145,604.0066209333017,"[51, 0, 203]",203,a,0.47279828670434654,0,colour,0.14,3.9
68,21,1,1,7,6,306,604.525978035992,605.6466274238192,"[95, 0, 159]",159,l,0.5972234692890197,1,colour,0.14,3.9
68,21,1,1,7,7,307,606.1666001067497,607.2790208847728,"[55, 0, 199]",199,a,0.5891748468857259,0,colour,0.14,3.9
68,21,1,1,7,8,308,607.7917452387046,608.8227002976928,"[69, 0, 185]",185,l,0.5076732879970223,1,colour,0.14,3.9
68,21,1,1,7,9,309,609.3386305526365,610.5266605699435,"[65, 0, 189]",189,l,0.6647171324584633,1,colour,0.14,3.9
68,21,1,1,7,10,310,611.0417349988129,611.9586434864905,"[82, 0, 172]",172,l,0.39342506788671017,1,colour,0.14,3.9
68,21,1,1,7,11,311,612.4791860633995,613.5026773603167,"[81, 0, 173]",173,l,0.5001398150343448,1,colour,0.14,3.9
68,21,1,1,7,12,312,614.0104467466008,614.6466156083625,"[76, 0, 178]",178,l,0.11302257352508605,1,colour,0.14,3.9
68,21,1,1,7,13,313,615.1672928805929,616.1186498352326,"[29, 0, 225]",225,a,0.4287423575296998,1,colour,0.14,3.9
68,21,1,1,7,14,314,616.635428432608,617.6706295378972,"[54, 0, 200]",200,a,0.5117121713701636,0,colour,0.14,3.9
68,21,1,1,7,15,315,618.1823480110615,619.6466045808047,"[67, 0, 187]",187,a,0.940843254327774,0,colour,0.14,3.9
68,21,1,1,7,16,316,620.1666513066739,621.3106537514832,"[53, 0, 201]",201,l,0.6205454126466066,1,colour,0.14,3.9
68,21,1,1,7,17,317,621.832717359066,622.8306142252404,"[42, 0, 212]",212,a,0.4687290769070387,1,colour,0.14,3.9
68,21,1,1,7,18,318,623.3385765957646,624.4466642877087,"[14, 0, 240]",240,a,0.5846869796514511,1,colour,0.14,3.9
68,21,1,1,7,19,319,624.9634763621725,626.1026093037799,"[88, 0, 166]",166,l,0.6158885858021677,1,colour,0.14,3.9
68,21,1,1,7,20,320,626.6198475188576,628.414661206305,"[92, 0, 162]",162,l,1.2714559042360634,1,colour,0.14,3.9
68,21,1,1,7,21,321,628.9322983864695,630.8626058851369,"[93, 0, 161]",161,l,1.4069182076491416,1,colour,0.14,3.9
68,21,1,1,7,22,322,631.3697214883287,632.4305898856837,"[98, 0, 156]",156,l,0.5375732355751097,1,colour,0.14,3.9
68,21,1,1,7,23,323,632.9478607897181,633.7265945614781,"[85, 0, 169]",169,l,0.2552605918608606,1,colour,0.14,3.9
68,21,1,1,7,24,324,634.2447945466265,635.0865967352875,"[17, 0, 237]",237,a,0.3186023375019431,1,colour,0.14,3.9
68,21,1,1,7,25,325,635.6041354543995,636.558556919219,"[77, 0, 177]",177,l,0.4310491094365716,1,colour,0.14,3.9
68,21,1,1,7,26,326,637.0728472021874,637.9745926456526,"[52, 0, 202]",202,a,0.3783845095895231,0,colour,0.14,3.9
68,21,1,1,7,27,327,638.4947248359676,639.1025533778593,"[11, 0, 243]",243,a,0.0844999032560736,1,colour,0.14,3.9
68,21,1,1,7,28,328,639.6197053405922,640.3426253253128,"[72, 0, 182]",182,l,0.19963742583058774,1,colour,0.14,3.9
68,21,1,1,7,29,329,640.8541279712226,641.9025729123969,"[97, 0, 157]",157,l,0.5250335950404406,1,colour,0.14,3.9
68,21,1,1,7,30,330,642.4174110342283,643.4465642510913,"[90, 0, 164]",164,l,0.5066693762782961,1,colour,0.14,3.9
68,21,1,1,7,31,331,643.9634338268079,644.9825900683645,"[57, 0, 197]",197,a,0.49590479652397335,0,colour,0.14,3.9
68,21,1,1,7,32,332,645.4946775746066,646.4145328127779,"[84, 0, 170]",170,l,0.39655574411153793,1,colour,0.14,3.9
68,21,1,1,7,33,333,646.9382206383161,647.974511907436,"[64, 0, 190]",190,a,0.5130094978958368,0,colour,0.14,3.9
68,21,1,1,7,34,334,648.485146518331,649.6465821315069,"[59, 0, 195]",195,a,0.6381120944861323,0,colour,0.14,3.9
68,21,1,1,7,35,335,650.1569729521871,651.2866177668329,"[62, 0, 192]",192,a,0.6062433146871626,0,colour,0.14,3.9
68,21,1,1,7,36,336,651.7976052628364,653.150569421472,"[60, 0, 194]",194,a,0.8295512369368225,0,colour,0.14,3.9
68,21,1,1,7,37,337,653.6569607430138,654.9265726634767,"[73, 0, 181]",181,a,0.746267921756953,0,colour,0.14,3.9
68,21,1,1,7,38,338,655.438203309197,656.4305382918101,"[50, 0, 204]",204,a,0.46955024427734315,1,colour,0.14,3.9
68,21,1,1,7,39,339,656.9382088228595,658.0705585670657,"[56, 0, 198]",198,a,0.6088848349172622,0,colour,0.14,3.9
68,21,1,1,7,40,340,658.5787615769077,659.5825070457067,"[74, 0, 180]",180,l,0.4808150075841695,1,colour,0.14,3.9
68,21,1,1,7,41,341,660.0944712783676,661.4705545499455,"[68, 0, 186]",186,l,0.8528074081987143,1,colour,0.14,3.9
68,21,1,1,7,42,342,661.9850023707841,663.014559279196,"[41, 0, 213]",213,a,0.506005353294313,1,colour,0.14,3.9
68,21,1,1,7,43,343,663.5319002876058,664.5825318580028,"[75, 0, 179]",179,l,0.5271599658299237,1,colour,0.14,3.9
68,21,1,1,7,44,344,665.0944405584596,666.1906321530696,"[58, 0, 196]",196,a,0.5729964694473892,0,colour,0.14,3.9
68,21,1,1,7,45,345,666.7037921000738,668.0945173583459,"[66, 0, 188]",188,a,0.8673359674867243,0,colour,0.14,3.9
68,21,1,1,7,46,346,668.6099879955873,669.6865200144239,"[94, 0, 160]",160,l,0.5535795025061816,1,colour,0.14,3.9
68,21,1,1,7,47,347,670.2038373921532,671.2145247783046,"[86, 0, 168]",168,l,0.48779827868565917,1,colour,0.14,3.9
68,21,1,1,7,48,348,671.7350078846794,672.8385060974397,"[10, 0, 244]",244,a,0.580083322012797,1,colour,0.14,3.9
68,21,1,1,7,49,349,673.3599726355169,674.3905779600609,"[91, 0, 163]",163,l,0.5070951231755316,1,colour,0.14,3.9
68,21,1,1,7,50,350,674.9067713033874,676.0945914010517,"[83, 0, 171]",171,l,0.6645028805360198,1,colour,0.14,3.9
68,21,1,1,8,1,351,707.8277423053514,709.1424711742438,"[54, 0, 200]",200,a,0.7907984345220029,0,colour,0.06,3.9
68,21,1,1,8,2,352,709.6566440912429,710.6384460753761,"[92, 0, 162]",162,l,0.45862418808974326,1,colour,0.06,3.9
68,21,1,1,8,3,353,711.156615734566,712.1744663789868,"[74, 0, 180]",180,l,0.49442748283036053,1,colour,0.06,3.9
68,21,1,1,8,4,354,712.6878504238557,714.1904407443944,"[91, 0, 163]",163,l,0.9791454975493252,1,colour,0.06,3.9
68,21,1,1,8,5,355,714.7035542174708,715.7663890842814,"[65, 0, 189]",189,a,0.5394195821136236,0,colour,0.06,3.9
68,21,1,1,8,6,356,716.2816809159704,717.358403555816,"[55, 0, 199]",199,a,0.5533286228310317,0,colour,0.06,3.9
68,21,1,1,8,7,357,717.8753747437149,718.8304492041934,"[77, 0, 177]",177,l,0.43162963748909533,1,colour,0.06,3.9
68,21,1,1,8,8,358,719.344137691427,720.5743910756428,"[63, 0, 191]",191,a,0.7071917727589607,0,colour,0.06,3.9
68,21,1,1,8,9,359,721.0941270575859,722.062436689157,"[71, 0, 183]",183,a,0.4449782359879464,0,colour,0.06,3.9
68,21,1,1,8,10,360,722.5785402359907,723.598359713098,"[83, 0, 171]",171,l,0.49669012427330017,1,colour,0.06,3.9
68,21,1,1,8,11,361,724.1097946173977,725.0384507228155,"[53, 0, 201]",201,a,0.40535700507462025,0,colour,0.06,3.9
68,21,1,1,8,12,362,725.5472582851071,726.2703874018043,"[88, 0, 166]",166,l,0.19975518574938178,1,colour,0.06,3.9
68,21,1,1,8,13,363,726.7816797343548,727.8945030223113,"[51, 0, 203]",203,a,0.589558452134952,0,colour,0.06,3.9
68,21,1,1,8,14,364,728.4065397223458,729.8624365318101,"[81, 0, 173]",173,l,0.9324968848377466,1,colour,0.06,3.9
68,21,1,1,8,15,365,730.3753499314189,731.2463860753924,"[11, 0, 243]",243,a,0.34767324081622064,1,colour,0.06,3.9
68,21,1,1,8,16,366,731.7659219838679,732.6864266730845,"[70, 0, 184]",184,l,0.39766481262631714,1,colour,0.06,3.9
68,21,1,1,8,17,367,733.2034829314798,734.2785313350614,"[61, 0, 193]",193,a,0.5517922325525433,0,colour,0.06,3.9
68,21,1,1,8,18,368,734.7972039345186,736.1023852059152,"[93, 0, 161]",161,l,0.7818234881851822,1,colour,0.06,3.9
68,21,1,1,8,19,369,736.6097067899536,737.5423631819431,"[59, 0, 195]",195,a,0.40952073759399354,0,colour,0.06,3.9
68,21,1,1,8,20,370,738.0628269899171,739.1023513351101,"[75, 0, 179]",179,l,0.5160822789184749,1,colour,0.06,3.9
68,21,1,1,8,21,371,739.609743811423,740.9343794651795,"[60, 0, 194]",194,a,0.8012467566877604,0,colour,0.06,3.9
68,21,1,1,8,22,372,741.4534218853805,742.5504137738608,"[4, 0, 250]",250,a,0.5737936126533896,1,colour,0.06,3.9
68,21,1,1,8,23,373,743.0628053285182,744.1183481495827,"[86, 0, 168]",168,l,0.532133050262928,1,colour,0.06,3.9
68,21,1,1,8,24,374,744.6253365406301,745.7983890150208,"[84, 0, 170]",170,l,0.6497360449284315,1,colour,0.06,3.9
68,21,1,1,8,25,375,746.3127592485398,747.3583216359839,"[76, 0, 178]",178,l,0.5222857363987714,1,colour,0.06,3.9
68,21,1,1,8,26,376,747.8753089716192,748.9343538652174,"[89, 0, 165]",165,l,0.5359112084843218,1,colour,0.06,3.9
68,21,1,1,8,27,377,749.4534002239816,750.4943621044513,"[52, 0, 202]",202,a,0.51751075591892,0,colour,0.06,3.9
68,21,1,1,8,28,378,751.0002414269838,752.0303831957281,"[97, 0, 157]",157,l,0.5069872096646577,1,colour,0.06,3.9
68,21,1,1,8,29,379,752.547075934941,754.7744006854482,"[68, 0, 186]",186,a,1.7038535398896784,0,colour,0.06,3.9
68,21,1,1,8,30,380,755.2815891499631,756.4543328494765,"[87, 0, 167]",167,l,0.6494788636919111,1,colour,0.06,3.9
68,21,1,1,8,31,381,756.9689196979161,757.6943335111719,"[57, 0, 197]",197,a,0.2020394883584231,0,colour,0.06,3.9
68,21,1,1,8,32,382,758.2033628085628,759.070309656905,"[98, 0, 156]",156,l,0.3435670097824186,1,colour,0.06,3.9
68,21,1,1,8,33,383,759.5783819102217,760.5503310663626,"[78, 0, 176]",176,l,0.44875678792595863,1,colour,0.06,3.9
68,21,1,1,8,34,384,761.0627466454171,762.710318116704,"[66, 0, 188]",188,l,1.1243460199330002,1,colour,0.06,3.9
68,21,1,1,8,35,385,763.2189642025623,764.9344535081182,"[69, 0, 185]",185,l,1.1920744148083031,1,colour,0.06,3.9
68,21,1,1,8,36,386,765.4532993994653,766.5982974853832,"[64, 0, 190]",190,a,0.6216210043057799,0,colour,0.06,3.9
68,21,1,1,8,37,387,767.1094882057514,767.8943765978329,"[85, 0, 169]",169,l,0.2614605042617768,1,colour,0.06,3.9
68,21,1,1,8,38,388,768.406495611649,769.6222562766634,"[99, 0, 155]",155,l,0.6924174539744854,1,colour,0.06,3.9
68,21,1,1,8,39,389,770.1408067841548,771.0463130564895,"[43, 0, 211]",211,a,0.3820287601556629,1,colour,0.06,3.9
68,21,1,1,8,40,390,771.5627364055254,772.3823225686792,"[82, 0, 172]",172,l,0.2963863117620349,1,colour,0.06,3.9
68,21,1,1,8,41,391,772.8907894550357,774.2303124610335,"[58, 0, 196]",196,a,0.8164413084741682,0,colour,0.06,3.9
68,21,1,1,8,42,392,774.7501260302961,775.7823039791547,"[56, 0, 198]",198,a,0.5085334461182356,0,colour,0.06,3.9
68,21,1,1,8,43,393,776.2970034673344,777.3422822861467,"[62, 0, 192]",192,a,0.5218761372379959,0,colour,0.06,3.9
68,21,1,1,8,44,394,777.8594011659734,778.8942647457588,"[95, 0, 159]",159,l,0.5116105594206601,1,colour,0.06,3.9
68,21,1,1,8,45,395,779.4063140489161,780.950390458107,"[67, 0, 187]",187,l,1.0205638445913792,1,colour,0.06,3.9
68,21,1,1,8,46,396,781.4689287564252,782.4302925323136,"[72, 0, 182]",182,l,0.43797448510304093,1,colour,0.06,3.9
68,21,1,1,8,47,397,782.9376751626842,783.95028175693,"[50, 0, 204]",204,a,0.48914562352001667,1,colour,0.06,3.9
68,21,1,1,8,48,398,784.468936239602,785.5422848067246,"[94, 0, 160]",160,l,0.5500144145917147,1,colour,0.06,3.9
68,21,1,1,8,49,399,786.0626643318683,786.9102765265852,"[96, 0, 158]",158,l,0.32430758071132004,1,colour,0.06,3.9
68,21,1,1,8,50,400,787.4218937812839,788.2943040516693,"[80, 0, 174]",174,l,0.34895166265778244,1,colour,0.06,3.9
68,21,1,1,9,1,401,820.5460416970309,822.2302321165334,"[91, 0, 163]",163,l,1.1609011653345078,1,colour,0.06,3.8
68,21,1,1,9,2,402,822.7501051565632,823.5501762849744,"[90, 0, 164]",164,l,0.2777349797543138,1,colour,0.06,3.8
68,21,1,1,9,3,403,824.062507187482,824.8783325219993,"[9, 0, 245]",245,a,0.29262115084566176,1,colour,0.06,3.8
68,21,1,1,9,4,404,825.3904889510013,826.3343155833427,"[76, 0, 178]",178,l,0.4213156164623797,1,colour,0.06,3.8
68,21,1,1,9,5,405,826.8436359325424,827.8544032690115,"[80, 0, 174]",174,l,0.4880983887705952,1,colour,0.06,3.8
68,21,1,1,9,6,406,828.3748840123881,829.7822055178694,"[11, 0, 243]",243,a,0.8841669464018196,1,colour,0.06,3.8
68,21,1,1,9,7,407,830.2968408092856,831.2781934158411,"[97, 0, 157]",157,l,0.4588664029724896,1,colour,0.06,3.8
68,21,1,1,9,8,408,831.7968794060871,832.7662205186207,"[70, 0, 184]",184,l,0.44620545813813806,1,colour,0.06,3.8
68,21,1,1,9,9,409,833.2812646212988,834.798123563407,"[66, 0, 188]",188,a,0.9934724080376327,0,colour,0.06,3.8
68,21,1,1,9,10,410,835.312611556612,836.4221470239572,"[62, 0, 192]",192,a,0.5865392340347171,0,colour,0.06,3.8
68,21,1,1,9,11,411,836.9374073478393,837.8221619112883,"[98, 0, 156]",156,l,0.3614141093567014,1,colour,0.06,3.8
68,21,1,1,9,12,412,838.3437422707211,839.5101545131765,"[53, 0, 201]",201,a,0.6430733639281243,0,colour,0.06,3.8
68,21,1,1,9,13,413,840.0312567444053,841.4382344228216,"[15, 0, 239]",239,a,0.8839223682880402,1,colour,0.06,3.8
68,21,1,1,9,14,414,841.9530516709201,843.7661334788427,"[65, 0, 189]",189,a,1.2897279632743448,0,colour,0.06,3.8
68,21,1,1,9,15,415,844.2811062955298,845.0701363647822,"[94, 0, 160]",160,l,0.26566992281004786,1,colour,0.06,3.8
68,21,1,1,9,16,416,845.5781207906548,846.4701780336909,"[56, 0, 198]",198,l,0.3691322957165539,1,colour,0.06,3.8
68,21,1,1,9,17,417,846.9842891169246,847.9100914192386,"[63, 0, 191]",191,l,0.40244412515312433,1,colour,0.06,3.8
68,21,1,1,9,18,418,848.421748452587,849.9662675438449,"[92, 0, 162]",162,l,1.021114834351465,1,colour,0.06,3.8
68,21,1,1,9,19,419,850.4843513446394,851.6301335764583,"[77, 0, 177]",177,l,0.6225949835497886,1,colour,0.06,3.8
68,21,1,1,9,20,420,852.1405255785212,853.3182620550506,"[87, 0, 167]",167,l,0.6543712101411074,1,colour,0.06,3.8
68,21,1,1,9,21,421,853.8280105139129,855.2781591513194,"[50, 0, 204]",204,a,0.9267640726175159,1,colour,0.06,3.8
68,21,1,1,9,22,422,855.7968077261467,856.8061205921695,"[59, 0, 195]",195,a,0.4859928919468075,0,colour,0.06,3.8
68,21,1,1,9,23,423,857.3124032123014,858.2381267456803,"[84, 0, 170]",170,l,0.40244885138235986,1,colour,0.06,3.8
68,21,1,1,9,24,424,858.7498196186498,859.7821747979615,"[83, 0, 171]",171,l,0.5088307994883507,1,colour,0.06,3.8
68,21,1,1,9,25,425,860.2966974494047,861.7741277506575,"[55, 0, 199]",199,a,0.9541059946641326,0,colour,0.06,3.8
68,21,1,1,9,26,426,862.2810940863565,863.4380953954533,"[88, 0, 166]",166,l,0.6336750334594399,1,colour,0.06,3.8
68,21,1,1,9,27,427,863.9528850743081,865.4781478871591,"[95, 0, 159]",159,l,1.001953078666702,1,colour,0.06,3.8
68,21,1,1,9,28,428,865.9998184372671,867.5261288785841,"[60, 0, 194]",194,a,1.0036986011546105,0,colour,0.06,3.8
68,21,1,1,9,29,429,868.0467104464769,868.9101154438686,"[52, 0, 202]",202,a,0.3399042484816164,0,colour,0.06,3.8
68,21,1,1,9,30,430,869.4216562926304,870.3820984705817,"[78, 0, 176]",176,l,0.4370710039511323,1,colour,0.06,3.8
68,21,1,1,9,31,431,870.8904011235572,872.7021407065913,"[61, 0, 193]",193,a,1.2887059345375746,0,colour,0.06,3.8
68,21,1,1,9,32,432,873.2185164003167,874.1740658383351,"[67, 0, 187]",187,l,0.4319537722039968,1,colour,0.06,3.8
68,21,1,1,9,33,433,874.6874530338682,875.814080205746,"[54, 0, 200]",200,a,0.6033064101357013,0,colour,0.06,3.8
68,21,1,1,9,34,434,876.3279313510284,877.0540694459341,"[86, 0, 168]",168,l,0.20272832410410047,1,colour,0.06,3.8
68,21,1,1,9,35,435,877.5622736373916,878.3500552170444,"[82, 0, 172]",172,l,0.2645892114378512,1,colour,0.06,3.8
68,21,1,1,9,36,436,878.8590730929282,879.8220650253352,"[72, 0, 182]",182,l,0.43949787877500057,1,colour,0.06,3.8
68,21,1,1,9,37,437,880.3279892462306,881.486081507057,"[96, 0, 158]",158,l,0.6348668094724417,1,colour,0.06,3.8
68,21,1,1,9,38,438,881.9997337604873,882.8620761632919,"[51, 0, 203]",203,a,0.33880226919427514,0,colour,0.06,3.8
68,21,1,1,9,39,439,883.3747784618754,884.2860281802714,"[73, 0, 181]",181,l,0.3879837009590119,1,colour,0.06,3.8
68,21,1,1,9,40,440,884.7966230127495,886.0940222947393,"[93, 0, 161]",161,l,0.7739489451050758,1,colour,0.06,3.8
68,21,1,1,9,41,441,886.6090085022151,887.4380146572366,"[79, 0, 175]",175,l,0.3059374541044235,1,colour,0.06,3.8
68,21,1,1,9,42,442,887.9528578990139,888.8860589789692,"[99, 0, 155]",155,l,0.41059160279110074,1,colour,0.06,3.8
68,21,1,1,9,43,443,889.4059993666597,890.1260269514751,"[85, 0, 169]",169,l,0.19680055836215615,1,colour,0.06,3.8
68,21,1,1,9,44,444,890.6402849392034,892.0300137687009,"[68, 0, 186]",186,l,0.866660522762686,1,colour,0.06,3.8
68,21,1,1,9,45,445,892.5463910377584,893.2859998233616,"[89, 0, 165]",165,l,0.21604344574734569,1,colour,0.06,3.8
68,21,1,1,9,46,446,893.796432785457,895.0540580244269,"[71, 0, 183]",183,a,0.7346573625691235,0,colour,0.06,3.8
68,21,1,1,9,47,447,895.562135791406,896.574052762473,"[69, 0, 185]",185,a,0.48873641807585955,0,colour,0.06,3.8
68,21,1,1,9,48,448,897.0933850531001,899.0380253698677,"[58, 0, 196]",196,l,1.4216247852891684,1,colour,0.06,3.8
68,21,1,1,9,49,449,899.546489105327,901.0860666197259,"[74, 0, 180]",180,l,1.0161622297018766,1,colour,0.06,3.8
68,21,1,1,9,50,450,901.5934342837427,902.589996014256,"[75, 0, 179]",179,a,0.47323191026225686,0,colour,0.06,3.8
68,21,1,1,10,1,451,912.5925501009915,913.7100254895631,"[71, 0, 183]",183,a,0.5933342471253127,0,colour,0.06,3.8
68,21,1,1,10,2,452,914.218354529934,914.9259854401462,"[87, 0, 167]",167,l,0.18428769917227328,1,colour,0.06,3.8
68,21,1,1,10,3,453,915.437054462498,916.0939966947772,"[78, 0, 176]",176,l,0.13386053475551307,1,colour,0.06,3.8
68,21,1,1,10,4,454,916.6089419424534,917.4859728056472,"[79, 0, 175]",175,l,0.35362621233798563,1,colour,0.06,3.8
68,21,1,1,10,5,455,917.9995096623898,918.8779646703042,"[80, 0, 174]",174,l,0.3553603133186698,1,colour,0.06,3.8
68,21,1,1,10,6,456,919.3900884103496,920.3660110717174,"[66, 0, 188]",188,a,0.45317927678115666,0,colour,0.06,3.8
68,21,1,1,10,7,457,920.8745598776732,921.8379208433907,"[59, 0, 195]",195,a,0.44009888684377074,0,colour,0.06,3.8
68,21,1,1,10,8,458,922.3589068900328,923.2939436831512,"[60, 0, 194]",194,a,0.4116766466759145,0,colour,0.06,3.8
68,21,1,1,10,9,459,923.8119900687598,925.5579563050997,"[56, 0, 198]",198,a,1.2233205253724009,0,colour,0.06,3.8
68,21,1,1,10,10,460,926.0776304532774,926.9739727331325,"[76, 0, 178]",178,l,0.3729986750986427,1,colour,0.06,3.8
68,21,1,1,10,11,461,927.4839799483307,928.4219796396792,"[93, 0, 161]",161,l,0.41471398156136274,1,colour,0.06,3.8
68,21,1,1,10,12,462,928.9370792745613,929.9261335260235,"[95, 0, 159]",159,l,0.4657488495577127,1,colour,0.06,3.8
68,21,1,1,10,13,463,930.4370103518013,931.270083353389,"[62, 0, 192]",192,a,0.3101992541924119,0,colour,0.06,3.8
68,21,1,1,10,14,464,931.7807211149484,932.6699273118284,"[81, 0, 173]",173,l,0.36576806916855276,1,colour,0.06,3.8
68,21,1,1,10,15,465,933.1869851455558,933.9739884869196,"[84, 0, 170]",170,l,0.2644809039775282,1,colour,0.06,3.8
68,21,1,1,10,16,466,934.483771604253,935.3499697525986,"[97, 0, 157]",157,l,0.34359064046293497,1,colour,0.06,3.8
68,21,1,1,10,17,467,935.8587391120382,936.7578977798112,"[90, 0, 164]",164,l,0.3759111613035202,1,colour,0.06,3.8
68,21,1,1,10,18,468,937.2651894316077,938.3739183037542,"[94, 0, 160]",160,l,0.5861241212114692,1,colour,0.06,3.8
68,21,1,1,10,19,469,938.8900533581618,939.8699912722223,"[49, 0, 205]",205,a,0.45648048794828355,1,colour,0.06,3.8
68,21,1,1,10,20,470,940.3900592657737,941.3180399264675,"[77, 0, 177]",177,l,0.40456773922778666,1,colour,0.06,3.8
68,21,1,1,10,21,471,941.827459130669,942.5420063580386,"[63, 0, 191]",191,a,0.191959805553779,0,colour,0.06,3.8
68,21,1,1,10,22,472,943.0618876689114,944.0939175318927,"[72, 0, 182]",182,l,0.5092628477141261,1,colour,0.06,3.8
68,21,1,1,10,23,473,944.6088411179371,945.4538846537471,"[75, 0, 179]",179,l,0.3216038327664137,1,colour,0.06,3.8
68,21,1,1,10,24,474,945.9681442165747,946.9499142991845,"[70, 0, 184]",184,l,0.45840245322324336,1,colour,0.06,3.8
68,21,1,1,10,25,475,947.4681079827715,948.3019383489154,"[64, 0, 190]",190,a,0.3109432279597968,0,colour,0.06,3.8
68,21,1,1,10,26,476,948.8119947947562,949.8219011856709,"[57, 0, 197]",197,a,0.48685895767994225,0,colour,0.06,3.8
68,21,1,1,10,27,477,950.3431849796325,951.1899464684539,"[58, 0, 196]",196,a,0.32371996343135834,0,colour,0.06,3.8
68,21,1,1,10,28,478,951.7025656658225,952.7419112049975,"[65, 0, 189]",189,a,0.5161634110845625,0,colour,0.06,3.8
68,21,1,1,10,29,479,953.2493399151135,954.3419400346465,"[82, 0, 172]",172,l,0.5695030617062002,1,colour,0.06,3.8
68,21,1,1,10,30,480,954.8587462012656,955.8858904133085,"[73, 0, 181]",181,l,0.503717899788171,1,colour,0.06,3.8
68,21,1,1,10,31,481,956.4057476995513,957.2459004642442,"[86, 0, 168]",168,l,0.31729870964773,1,colour,0.06,3.8
68,21,1,1,10,32,482,957.7649747859687,959.0219533308409,"[68, 0, 186]",186,a,0.7335112725850195,0,colour,0.06,3.8
68,21,1,1,10,33,483,959.5305379768834,960.5578988036141,"[69, 0, 185]",185,a,0.5038498376961797,0,colour,0.06,3.8
68,21,1,1,10,34,484,961.0774181706365,962.2458815595601,"[55, 0, 199]",199,a,0.6451158456038684,0,colour,0.06,3.8
68,21,1,1,10,35,485,962.7649109829217,963.7178799463436,"[92, 0, 162]",162,l,0.42942252825014293,1,colour,0.06,3.8
68,21,1,1,10,36,486,964.2337987795472,965.277929933276,"[98, 0, 156]",156,l,0.5208348103333265,1,colour,0.06,3.8
68,21,1,1,10,37,487,965.7962732780725,966.6618794768583,"[88, 0, 166]",166,l,0.34220942482352257,1,colour,0.06,3.8
68,21,1,1,10,38,488,967.171206521336,968.0219025248662,"[25, 0, 229]",229,a,0.327290958724916,1,colour,0.06,3.8
68,21,1,1,10,39,489,968.5306273796596,969.5498619964346,"[74, 0, 180]",180,l,0.4958583228290081,1,colour,0.06,3.8
68,21,1,1,10,40,490,970.06193768722,970.877866996685,"[3, 0, 251]",251,a,0.292972854571417,1,colour,0.06,3.8
68,21,1,1,10,41,491,971.3898595862556,972.2138414566871,"[85, 0, 169]",169,l,0.3005094781983644,1,colour,0.06,3.8
68,21,1,1,10,42,492,972.7337700289208,973.7498653049115,"[83, 0, 171]",171,l,0.49281862494535744,1,colour,0.06,3.8
68,21,1,1,10,43,493,974.2649566689506,975.2778980317526,"[61, 0, 193]",193,a,0.4895351363811642,0,colour,0.06,3.8
68,21,1,1,10,44,494,975.7961708784569,976.9339096075855,"[99, 0, 155]",155,l,0.6142293156590313,1,colour,0.06,3.8
68,21,1,1,10,45,495,977.4523718939163,978.4138640633319,"[53, 0, 201]",201,a,0.43818440451286733,0,colour,0.06,3.8
68,21,1,1,10,46,496,978.9211919491645,979.5498289135285,"[89, 0, 165]",165,l,0.10529060265980661,1,colour,0.06,3.8
68,21,1,1,10,47,497,980.0617604567669,980.7498164679855,"[51, 0, 203]",203,a,0.1649140550289303,0,colour,0.06,3.8
68,21,1,1,10,48,498,981.2649094075896,982.0058856240939,"[54, 0, 200]",200,a,0.21757432259619236,0,colour,0.06,3.8
68,21,1,1,10,49,499,982.514925555326,983.4458376064431,"[96, 0, 158]",158,l,0.4076145263388753,1,colour,0.06,3.8
68,21,1,1,10,50,500,983.9524356967304,984.7098262037616,"[52, 0, 202]",202,a,0.23411306808702648,0,colour,0.06,3.8
68,21,1,1,11,1,501,1013.0453745231498,1014.4858487443998,"[72, 0, 182]",182,l,0.9162964520510286,1,colour,0.06,3.7
68,21,1,1,11,2,502,1014.9991615032777,1015.925754253054,"[75, 0, 179]",179,l,0.4030703392345458,1,colour,0.06,3.7
68,21,1,1,11,3,503,1016.4368232751731,1017.3497491991147,"[79, 0, 175]",175,l,0.3896354881580919,1,colour,0.06,3.7
68,21,1,1,11,4,504,1017.858759198105,1018.7017901842482,"[57, 0, 197]",197,a,0.3198071103543043,0,colour,0.06,3.7
68,21,1,1,11,5,505,1019.218062690692,1020.2777578227688,"[97, 0, 157]",157,l,0.5362774843815714,1,colour,0.06,3.7
68,21,1,1,11,6,506,1020.7961118016392,1021.741786356084,"[84, 0, 170]",170,l,0.4221537192352116,1,colour,0.06,3.7
68,21,1,1,11,7,507,1022.2492859584745,1023.4377838638611,"[98, 0, 156]",156,a,0.6651188544929028,0,colour,0.06,3.7
68,21,1,1,11,8,508,1023.9523537768982,1025.597770520486,"[56, 0, 198]",198,a,1.1219309605658054,0,colour,0.06,3.7
68,21,1,1,11,9,509,1026.1087182383053,1027.3657680691686,"[99, 0, 155]",155,l,0.7336857460904866,1,colour,0.06,3.7
68,21,1,1,11,10,510,1027.8742278662976,1029.4217256093398,"[96, 0, 158]",158,l,1.0240824585780501,1,colour,0.06,3.7
68,21,1,1,11,11,511,1029.9367338723969,1030.8223651354201,"[95, 0, 159]",159,l,0.36232074117287993,1,colour,0.06,3.7
68,21,1,1,11,12,512,1031.3431203889195,1032.213730392279,"[55, 0, 199]",199,a,0.3478595295455307,0,colour,0.06,3.7
68,21,1,1,11,13,513,1032.7335821646266,1033.709737194702,"[62, 0, 192]",192,a,0.4527090254705399,0,colour,0.06,3.7
68,21,1,1,11,14,514,1034.2179847091902,1035.205715640448,"[31, 0, 223]",223,a,0.46440504933707416,1,colour,0.06,3.7
68,21,1,1,11,15,515,1035.7179622601252,1036.733756638132,"[60, 0, 194]",194,a,0.4923408904578537,0,colour,0.06,3.7
68,21,1,1,11,16,516,1037.2491563833319,1038.061745490646,"[53, 0, 201]",201,a,0.28911513974890113,0,colour,0.06,3.7
68,21,1,1,11,17,517,1038.5772960786708,1039.5977543727495,"[71, 0, 183]",183,a,0.49709972320124507,0,colour,0.06,3.7
68,21,1,1,11,18,518,1040.108561881585,1041.0298526859842,"[89, 0, 165]",165,l,0.39816893450915813,1,colour,0.06,3.7
68,21,1,1,11,19,519,1041.5460353954695,1042.805694845505,"[61, 0, 193]",193,l,0.736215808428824,1,colour,0.06,3.7
68,21,1,1,11,20,520,1043.3116659340449,1044.3737481625285,"[90, 0, 164]",164,a,0.5388823773246258,0,colour,0.06,3.7
68,21,1,1,11,21,521,1044.889769001864,1047.7896917292383,"[86, 0, 168]",168,l,2.3764523044228554,1,colour,0.06,3.7
68,21,1,1,11,22,522,1048.2960991985165,1049.1578063287307,"[83, 0, 171]",171,l,0.3383107502013445,1,colour,0.06,3.7
68,21,1,1,11,23,523,1049.67104071239,1050.3896807804704,"[58, 0, 196]",196,a,0.19608966750092804,0,colour,0.06,3.7
68,21,1,1,11,24,524,1050.9054393186234,1051.7176719959825,"[54, 0, 200]",200,a,0.28917224728502333,0,colour,0.06,3.7
68,21,1,1,11,25,525,1052.2335593216121,1053.0617167400196,"[52, 0, 202]",202,a,0.30469841696321964,0,colour,0.06,3.7
68,21,1,1,11,26,526,1053.5773086815607,1054.5496481384616,"[70, 0, 184]",184,a,0.44906871346756816,0,colour,0.06,3.7
68,21,1,1,11,27,527,1055.0616241863463,1055.885649773758,"[67, 0, 187]",187,a,0.3008028930053115,0,colour,0.06,3.7
68,21,1,1,11,28,528,1056.4054078110494,1057.1737011375371,"[65, 0, 189]",189,a,0.24497335241176188,0,colour,0.06,3.7
68,21,1,1,11,29,529,1057.6866322602145,1058.77368546254,"[73, 0, 181]",181,a,0.5638505942188203,0,colour,0.06,3.7
68,21,1,1,11,30,530,1059.2803682296071,1060.1016632872634,"[88, 0, 166]",166,l,0.2980184066109359,1,colour,0.06,3.7
68,21,1,1,11,31,531,1060.6084803557023,1061.5416857681703,"[91, 0, 163]",163,l,0.4097724047023803,1,colour,0.06,3.7
68,21,1,1,11,32,532,1062.0616698723752,1063.0216933928896,"[50, 0, 204]",204,a,0.4368622659239918,1,colour,0.06,3.7
68,21,1,1,11,33,533,1063.5303414480295,1064.5097201019526,"[2, 0, 252]",252,a,0.4561134243849665,1,colour,0.06,3.7
68,21,1,1,11,34,534,1065.0303209680133,1065.9256750901695,"[87, 0, 167]",167,l,0.37187582231126726,1,colour,0.06,3.7
68,21,1,1,11,35,535,1066.4365743650123,1067.2456625816412,"[76, 0, 178]",178,l,0.2857300394680351,1,colour,0.06,3.7
68,21,1,1,11,36,536,1067.7646987002809,1068.6136436676607,"[51, 0, 203]",203,a,0.3256639838218689,0,colour,0.06,3.7
68,21,1,1,11,37,537,1069.1240711158607,1069.9496531796176,"[78, 0, 176]",176,l,0.30217583756893873,1,colour,0.06,3.7
68,21,1,1,11,38,538,1070.4678267773706,1071.6216619641054,"[69, 0, 185]",185,a,0.6305329357273877,0,colour,0.06,3.7
68,21,1,1,11,39,539,1072.1397241032682,1073.173634971492,"[92, 0, 162]",162,l,0.5105211834888905,1,colour,0.06,3.7
68,21,1,1,11,40,540,1073.686531435931,1076.2136315370444,"[68, 0, 186]",186,a,2.003743893234059,0,colour,0.06,3.7
68,21,1,1,11,41,541,1076.7334238388576,1077.6216296686325,"[85, 0, 169]",169,l,0.3648232342675328,1,colour,0.06,3.7
68,21,1,1,11,42,542,1078.1397879063152,1078.7576067280024,"[77, 0, 177]",177,l,0.09444607235491276,1,colour,0.06,3.7
68,21,1,1,11,43,543,1079.2647644726094,1080.917629224481,"[64, 0, 190]",190,a,1.1294805810321122,0,colour,0.06,3.7
68,21,1,1,11,44,544,1081.4367003955413,1082.6616092990153,"[81, 0, 173]",173,l,0.7015649047680199,1,colour,0.06,3.7
68,21,1,1,11,45,545,1083.170993451029,1084.1976733193733,"[82, 0, 172]",172,l,0.5032263807952404,1,colour,0.06,3.7
68,21,1,1,11,46,546,1084.7178326849826,1085.6696405925322,"[59, 0, 195]",195,a,0.4284213737118989,0,colour,0.06,3.7
68,21,1,1,11,47,547,1086.1866196570918,1087.2056163914967,"[43, 0, 211]",211,a,0.4955912958830595,1,colour,0.06,3.7
68,21,1,1,11,48,548,1087.7177838480566,1088.9575958577916,"[74, 0, 180]",180,a,0.716287629911676,0,colour,0.06,3.7
68,21,1,1,11,49,549,1089.467806691071,1090.4936275829095,"[94, 0, 160]",160,l,0.5023721302859485,1,colour,0.06,3.7
68,21,1,1,11,50,550,1091.0147152419668,1092.2535859614145,"[93, 0, 161]",161,l,0.7160855873953551,1,colour,0.06,3.7
68,21,1,1,12,1,551,1115.2482174560428,1116.5815913553815,"[89, 0, 165]",165,l,0.8092110962606966,1,colour,0.06,3.7
68,21,1,1,12,2,552,1117.0927399343345,1118.6698292442597,"[59, 0, 195]",195,a,1.0537161666434258,0,colour,0.06,3.7
68,21,1,1,12,3,553,1119.1864294297993,1119.8375963147264,"[56, 0, 198]",198,a,0.12772600026801229,0,colour,0.06,3.7
68,21,1,1,12,4,554,1120.3583488112781,1122.5976405513939,"[74, 0, 180]",180,a,1.7159441967960447,0,colour,0.06,3.7
68,21,1,1,12,5,555,1123.1084307311103,1124.44583366788,"[76, 0, 178]",178,l,0.8147733733057976,1,colour,0.06,3.7
68,21,1,1,12,6,556,1124.9520402760245,1125.9255116442218,"[47, 0, 207]",207,a,0.4501021634787321,1,colour,0.06,3.7
68,21,1,1,12,7,557,1126.436394771561,1127.389507882297,"[99, 0, 155]",155,l,0.42970609688200057,1,colour,0.06,3.7
68,21,1,1,12,8,558,1127.9051104576793,1128.677537190728,"[14, 0, 240]",240,a,0.2494627949781716,1,colour,0.06,3.7
68,21,1,1,12,9,559,1129.1864128883462,1130.1015360753518,"[83, 0, 171]",171,l,0.3917874591425061,1,colour,0.06,3.7
68,21,1,1,12,10,560,1130.6082972176373,1131.525542049203,"[96, 0, 158]",158,l,0.39449475170113146,1,colour,0.06,3.7
68,21,1,1,12,11,561,1132.045703383861,1133.005687519908,"[91, 0, 163]",163,l,0.4368555706460029,1,colour,0.06,3.7
68,21,1,1,12,12,562,1133.5145309222862,1134.5255282646976,"[66, 0, 188]",188,a,0.4875521254725754,0,colour,0.06,3.7
68,21,1,1,12,13,563,1135.0457337100524,1136.00548350811,"[78, 0, 176]",176,l,0.43661847594194114,1,colour,0.06,3.7
68,21,1,1,12,14,564,1136.514463968575,1137.3896067375317,"[53, 0, 201]",201,a,0.3522083694115281,0,colour,0.06,3.7
68,21,1,1,12,15,565,1137.9049989995547,1138.9175138277933,"[54, 0, 200]",200,a,0.4895855486392975,0,colour,0.06,3.7
68,21,1,1,12,16,566,1139.4363010362722,1140.949532662984,"[57, 0, 197]",197,a,0.9899518247693777,0,colour,0.06,3.7
68,21,1,1,12,17,567,1141.4675573871937,1142.7175211533904,"[62, 0, 192]",192,a,0.7265957430936396,0,colour,0.06,3.7
68,21,1,1,12,18,568,1143.233200528659,1144.2215151386335,"[82, 0, 172]",172,l,0.4648099225014448,1,colour,0.06,3.7
68,21,1,1,12,19,569,1144.733207223937,1145.7094536260702,"[67, 0, 187]",187,a,0.45351798366755247,0,colour,0.06,3.7
68,21,1,1,12,20,570,1146.2175195780583,1147.1174360038713,"[70, 0, 184]",184,a,0.3765204397495836,0,colour,0.06,3.7
68,21,1,1,12,21,571,1147.6238036947325,1148.7335463247728,"[63, 0, 191]",191,a,0.5865628647152334,0,colour,0.06,3.7
68,21,1,1,12,22,572,1149.2487582056783,1149.9415057019796,"[80, 0, 174]",174,l,0.1692369009833783,1,colour,0.06,3.7
68,21,1,1,12,23,573,1150.4519532362465,1151.2054588533938,"[58, 0, 196]",196,a,0.23025653511285782,0,colour,0.06,3.7
68,21,1,1,12,24,574,1151.7286772152875,1152.885430795839,"[95, 0, 159]",159,l,0.6288011979777366,1,colour,0.06,3.7
68,21,1,1,12,25,575,1153.4050391716883,1154.1814705238212,"[93, 0, 161]",161,l,0.25352885387837887,1,colour,0.06,3.7
68,21,1,1,12,26,576,1154.7018701350316,1157.1495123405475,"[97, 0, 157]",157,l,1.924246613169089,1,colour,0.06,3.7
68,21,1,1,12,27,577,1157.6705421044026,1158.805430575274,"[90, 0, 164]",164,l,0.6118272531311959,1,colour,0.06,3.7
68,21,1,1,12,28,578,1159.3268620611634,1160.8854512756225,"[71, 0, 183]",183,a,1.035531147615984,0,colour,0.06,3.7
68,21,1,1,12,29,579,1161.4049934856594,1162.0454418705776,"[51, 0, 203]",203,a,0.11699489713646472,0,colour,0.06,3.7
68,21,1,1,12,30,580,1162.561200015014,1163.4134438305628,"[4, 0, 250]",250,a,0.3289545613806695,1,colour,0.06,3.7
68,21,1,1,12,31,581,1163.9206322948448,1164.7254693452269,"[55, 0, 199]",199,a,0.28150211018510163,0,colour,0.06,3.7
68,21,1,1,12,32,582,1165.2331761100795,1165.949478706345,"[88, 0, 166]",166,l,0.19295977894216776,1,colour,0.06,3.7
68,21,1,1,12,33,583,1166.4675152455457,1167.7734641213901,"[73, 0, 181]",181,l,0.7824823912233114,1,colour,0.06,3.7
68,21,1,1,12,34,584,1168.280172882136,1169.1414306350052,"[87, 0, 167]",167,l,0.33791493554599583,1,colour,0.06,3.7
68,21,1,1,12,35,585,1169.6550769808237,1170.3654210914392,"[86, 0, 168]",168,l,0.1869981426279992,1,colour,0.06,3.7
68,21,1,1,12,36,586,1170.8737115350086,1172.3574350902345,"[69, 0, 185]",185,a,0.9604618703015149,0,colour,0.06,3.7
68,21,1,1,12,37,587,1172.8737993624527,1173.6454065034632,"[50, 0, 204]",204,a,0.2483155238442123,1,colour,0.06,3.7
68,21,1,1,12,38,588,1174.155076587107,1175.0934260128997,"[92, 0, 162]",162,l,0.41503654094412923,1,colour,0.06,3.7
68,21,1,1,12,39,589,1175.6081770947203,1176.5493708713911,"[68, 0, 186]",186,a,0.4179852607194334,0,colour,0.06,3.7
68,21,1,1,12,40,590,1177.0613221069798,1177.9654644932598,"[60, 0, 194]",194,a,0.38092244882136583,0,colour,0.06,3.7
68,21,1,1,12,41,591,1178.4833478266373,1179.8774038346019,"[77, 0, 177]",177,l,0.870770298410207,1,colour,0.06,3.7
68,21,1,1,12,42,592,1180.3893117473926,1181.4614401818253,"[61, 0, 193]",193,a,0.548716694349423,0,colour,0.06,3.7
68,21,1,1,12,43,593,1181.967444353504,1182.8613885093946,"[85, 0, 169]",169,l,0.3713220756035298,1,colour,0.06,3.7
68,21,1,1,12,44,594,1183.373644187348,1184.421429437818,"[84, 0, 170]",170,l,0.5248453370295465,1,colour,0.06,3.7
68,21,1,1,12,45,595,1184.9362088765483,1186.0613827591296,"[64, 0, 190]",190,a,0.6026415990199894,0,colour,0.06,3.7
68,21,1,1,12,46,596,1186.5767127936706,1187.5175603802782,"[98, 0, 156]",156,l,0.41827001073397696,1,colour,0.06,3.7
68,21,1,1,12,47,597,1188.0299885626882,1188.9253710415214,"[75, 0, 179]",179,l,0.3723665534052998,1,colour,0.06,3.7
68,21,1,1,12,48,598,1189.4361805196386,1190.381373007549,"[52, 0, 202]",202,a,0.42216120241209865,0,colour,0.06,3.7
68,21,1,1,12,49,599,1190.8892329782248,1191.7814131011255,"[81, 0, 173]",173,l,0.3691259943880141,1,colour,0.06,3.7
68,21,1,1,12,50,600,1192.2955805042293,1193.1813700932544,"[79, 0, 175]",175,l,0.36274609435349703,1,colour,0.06,3.7
68,21,1,1,13,1,601,1237.6539557033684,1238.5974585949443,"[97, 0, 157]",157,l,0.41918294434435666,1,colour,0.06,3.6
68,21,1,1,13,2,602,1239.108013255056,1239.90951010352,"[83, 0, 171]",171,l,0.2785301534458995,1,colour,0.06,3.6
68,21,1,1,13,3,603,1240.4203632986173,1241.333288434893,"[95, 0, 159]",159,l,0.3898910938296467,1,colour,0.06,3.6
68,21,1,1,13,4,604,1241.8423004029319,1242.8692748676986,"[93, 0, 161]",161,l,0.503614318324253,1,colour,0.06,3.6
68,21,1,1,13,5,605,1243.3890659878962,1244.2772686670069,"[51, 0, 203]",203,a,0.36482756678014994,0,colour,0.06,3.6
68,21,1,1,13,6,606,1244.7953185969964,1245.7653182190843,"[53, 0, 201]",201,a,0.44695258256979287,0,colour,0.06,3.6
68,21,1,1,13,7,607,1246.2796742741484,1247.293291475391,"[86, 0, 168]",168,l,0.49016804597340524,1,colour,0.06,3.6
68,21,1,1,13,8,608,1247.8109542555176,1248.7412869601976,"[69, 0, 185]",185,a,0.40724667464382946,0,colour,0.06,3.6
68,21,1,1,13,9,609,1249.2484793632757,1250.2772741809022,"[56, 0, 198]",198,a,0.5055673972237855,0,colour,0.06,3.6
68,21,1,1,13,10,610,1250.7952874833718,1251.685481444234,"[84, 0, 170]",170,l,0.36699017114005983,1,colour,0.06,3.6
68,21,1,1,13,11,611,1252.2014810156543,1253.357316148933,"[74, 0, 180]",180,a,0.6327762785367668,0,colour,0.06,3.6
68,21,1,1,13,12,612,1253.873591806041,1254.8533473699354,"[58, 0, 196]",196,a,0.4569141117390245,0,colour,0.06,3.6
68,21,1,1,13,13,613,1255.3733960648533,1256.2132164242212,"[96, 0, 158]",158,l,0.31668037245981395,1,colour,0.06,3.6
68,21,1,1,13,14,614,1256.7328204677906,1257.7013408069033,"[59, 0, 195]",195,a,0.44509442057460546,0,colour,0.06,3.6
68,21,1,1,13,15,615,1258.217142668087,1259.6292757813353,"[80, 0, 174]",174,l,0.888994701905176,1,colour,0.06,3.6
68,21,1,1,13,16,616,1260.139047871111,1260.9892677154858,"[78, 0, 176]",176,l,0.3272586634848267,1,colour,0.06,3.6
68,21,1,1,13,17,617,1261.4984080772847,1262.5812081440818,"[42, 0, 212]",212,a,0.5603024417068809,1,colour,0.06,3.6
68,21,1,1,13,18,618,1263.0921164772008,1264.0372597344685,"[77, 0, 177]",177,l,0.4220241440925747,1,colour,0.06,3.6
68,21,1,1,13,19,619,1264.5451890220866,1265.7573018916883,"[88, 0, 166]",166,l,0.688781080301851,1,colour,0.06,3.6
68,21,1,1,13,20,620,1266.2640449171886,1267.2212166038807,"[62, 0, 192]",192,a,0.4343227515928447,0,colour,0.06,3.6
68,21,1,1,13,21,621,1267.7326463882346,1268.7172293139156,"[68, 0, 186]",186,a,0.46159890154376626,0,colour,0.06,3.6
68,21,1,1,13,22,622,1269.2327633602545,1269.9092131443322,"[1, 0, 253]",253,a,0.1529624257236719,1,colour,0.06,3.6
68,21,1,1,13,23,623,1270.420206154231,1271.341224417556,"[66, 0, 188]",188,a,0.39796571014449,0,colour,0.06,3.6
68,21,1,1,13,24,624,1271.8576635206118,1272.81321413978,"[87, 0, 167]",167,l,0.43238818319514394,1,colour,0.06,3.6
68,21,1,1,13,25,625,1273.3263433668762,1274.3332147859037,"[98, 0, 156]",156,l,0.4835766509640962,1,colour,0.06,3.6
68,21,1,1,13,26,626,1274.842024317477,1275.965285293525,"[38, 0, 216]",216,a,0.6000158325769007,1,colour,0.06,3.6
68,21,1,1,13,27,627,1276.4825798284728,1277.4052290052641,"[82, 0, 172]",172,a,0.39904839103110135,0,colour,0.06,3.6
68,21,1,1,13,28,628,1277.920224271249,1278.9892023371067,"[94, 0, 160]",160,l,0.5461543370038271,1,colour,0.06,3.6
68,21,1,1,13,29,629,1279.498442735523,1280.6532585972454,"[60, 0, 194]",194,a,0.6320705078542233,0,colour,0.06,3.6
68,21,1,1,13,30,630,1281.1703069787472,1282.205343456706,"[85, 0, 169]",169,l,0.5120453648269176,1,colour,0.06,3.6
68,21,1,1,13,31,631,1282.7171280956827,1283.6132336745504,"[90, 0, 164]",164,l,0.37316645309329033,1,colour,0.06,3.6
68,21,1,1,13,32,632,1284.1232834251132,1285.2052126999479,"[65, 0, 189]",189,a,0.5585033562965691,0,colour,0.06,3.6
68,21,1,1,13,33,633,1285.7170969818253,1287.0451858711895,"[72, 0, 182]",182,a,0.8047259859740734,0,colour,0.06,3.6
68,21,1,1,13,34,634,1287.56081050192,1288.9171802408528,"[79, 0, 175]",175,a,0.833159253699705,0,colour,0.06,3.6
68,21,1,1,13,35,635,1289.4357547729742,1290.0131607344374,"[92, 0, 162]",162,l,0.05410410440526903,1,colour,0.06,3.6
68,21,1,1,13,36,636,1290.5294206377584,1291.5092037706636,"[64, 0, 190]",190,l,0.4565411403309554,1,colour,0.06,3.6
68,21,1,1,13,37,637,1292.0294844405726,1293.037198688602,"[89, 0, 165]",165,l,0.48426154791377485,1,colour,0.06,3.6
68,21,1,1,13,38,638,1293.5450779576786,1294.4691737282556,"[70, 0, 184]",184,a,0.40117042954079807,0,colour,0.06,3.6
68,21,1,1,13,39,639,1294.9825806161389,1295.9092056611553,"[55, 0, 199]",199,a,0.40369419008493423,0,colour,0.06,3.6
68,21,1,1,13,40,640,1296.4200639761984,1297.3971642348915,"[63, 0, 191]",191,a,0.45369560783728957,0,colour,0.06,3.6
68,21,1,1,13,41,641,1297.904425954679,1298.8771206599195,"[91, 0, 163]",163,l,0.44961615838110447,1,colour,0.06,3.6
68,21,1,1,13,42,642,1299.388902935898,1300.5651424063835,"[54, 0, 200]",200,a,0.6530368621461093,0,colour,0.06,3.6
68,21,1,1,13,43,643,1301.0764599449467,1302.5651290158276,"[50, 0, 204]",204,a,0.9657791757490486,1,colour,0.06,3.6
68,21,1,1,13,44,644,1303.0763276130892,1304.0371396117844,"[52, 0, 202]",202,a,0.4377283318899572,0,colour,0.06,3.6
68,21,1,1,13,45,645,1304.545043693157,1305.6052256179973,"[73, 0, 181]",181,a,0.537271155975759,0,colour,0.06,3.6
68,21,1,1,13,46,646,1306.12309792405,1307.1651145222131,"[99, 0, 155]",155,l,0.5186477873940021,1,colour,0.06,3.6
68,21,1,1,13,47,647,1307.685608262429,1308.821165088797,"[71, 0, 183]",183,a,0.6122081014327705,0,colour,0.06,3.6
68,21,1,1,13,48,648,1309.3419557884336,1310.421166742919,"[57, 0, 197]",197,a,0.5559929863084108,0,colour,0.06,3.6
68,21,1,1,13,49,649,1310.9357768283226,1311.9415864401963,"[67, 0, 187]",187,a,0.4825680130161345,0,colour,0.06,3.6
68,21,1,1,13,50,650,1312.4511805118527,1313.4451727955602,"[81, 0, 173]",173,a,0.4703292704652995,0,colour,0.06,3.6
68,21,1,1,14,1,651,1349.9971213846002,1350.973090519663,"[68, 0, 186]",186,a,0.45197253464721143,0,colour,0.06,3.6
68,21,1,1,14,2,652,1351.4823647888843,1352.1970695545897,"[96, 0, 158]",158,l,0.19142575142905116,1,colour,0.06,3.6
68,21,1,1,14,3,653,1352.7166357890237,1353.6930775386281,"[46, 0, 208]",208,a,0.45344748557545245,1,colour,0.06,3.6
68,21,1,1,14,4,654,1354.2009123030584,1355.0852147322148,"[62, 0, 192]",192,a,0.36165868723765016,0,colour,0.06,3.6
68,21,1,1,14,5,655,1355.5915934506338,1356.437010745518,"[60, 0, 194]",194,a,0.3227770975790918,0,colour,0.06,3.6
68,21,1,1,14,6,656,1356.9509591707028,1357.7330327504314,"[56, 0, 198]",198,a,0.25900881737470627,0,colour,0.06,3.6
68,21,1,1,14,7,657,1358.2478692969307,1359.1330350348726,"[94, 0, 160]",160,l,0.3617941702250391,1,colour,0.06,3.6
68,21,1,1,14,8,658,1359.6386173979845,1360.7010080076288,"[86, 0, 168]",168,l,0.5395590036641806,1,colour,0.06,3.6
68,21,1,1,14,9,659,1361.2167161335237,1362.1250021660235,"[42, 0, 212]",212,a,0.3857246043626219,1,colour,0.06,3.6
68,21,1,1,14,10,660,1362.6386465425603,1363.501317806309,"[83, 0, 171]",171,l,0.33999719587154686,1,colour,0.06,3.6
68,21,1,1,14,11,661,1364.0134265800007,1364.9650474109221,"[89, 0, 165]",165,l,0.42846981645561755,1,colour,0.06,3.6
68,21,1,1,14,12,662,1365.4821824384853,1366.4690181592014,"[74, 0, 180]",180,l,0.4634369774721563,1,colour,0.06,3.6
68,21,1,1,14,13,663,1366.9822517551947,1367.972965277033,"[53, 0, 201]",201,a,0.4678957003634423,0,colour,0.06,3.6
68,21,1,1,14,14,664,1368.4821985862218,1369.6769850195851,"[84, 0, 170]",170,a,0.6716224220581353,0,colour,0.06,3.6
68,21,1,1,14,15,665,1370.1853361153044,1371.2051189648919,"[69, 0, 185]",185,a,0.497012683423236,0,colour,0.06,3.6
68,21,1,1,14,16,666,1371.7166145213414,1372.4450160451233,"[82, 0, 172]",172,l,0.20492401137016714,1,colour,0.06,3.6
68,21,1,1,14,17,667,1372.9508599217515,1373.6770086502656,"[55, 0, 199]",199,a,0.20277440384961665,0,colour,0.06,3.6
68,21,1,1,14,18,668,1374.1852920046076,1375.4209910880309,"[91, 0, 163]",163,l,0.7128659021109343,1,colour,0.06,3.6
68,21,1,1,14,19,669,1375.9353684107773,1376.9252111404203,"[58, 0, 196]",196,a,0.4667720596771687,0,colour,0.06,3.6
68,21,1,1,14,20,670,1377.4353857398964,1378.2849880349822,"[59, 0, 195]",195,a,0.32692428887821734,0,colour,0.06,3.6
68,21,1,1,14,21,671,1378.794704592321,1379.7570289568976,"[61, 0, 193]",193,a,0.43923754687421024,0,colour,0.06,3.6
68,21,1,1,14,22,672,1380.263454542961,1381.8529511615634,"[78, 0, 176]",176,a,1.0661345028784126,0,colour,0.06,3.6
68,21,1,1,14,23,673,1382.3727060479578,1383.4050403533038,"[72, 0, 182]",182,a,0.5090548973530531,0,colour,0.06,3.6
68,21,1,1,14,24,674,1383.919778438285,1384.6289197453298,"[77, 0, 177]",177,a,0.186126169282943,0,colour,0.06,3.6
68,21,1,1,14,25,675,1385.138721373165,1385.693005464971,"[93, 0, 161]",161,l,0.03146902727894485,1,colour,0.06,3.6
68,21,1,1,14,26,676,1386.201074173674,1386.7730269529857,"[88, 0, 166]",166,l,0.04853276861831546,1,colour,0.06,3.6
68,21,1,1,14,27,677,1387.2791563675273,1388.236979080364,"[81, 0, 173]",173,l,0.4348812240641564,1,colour,0.06,3.6
68,21,1,1,14,28,678,1388.7478653583676,1389.7969282427803,"[79, 0, 175]",175,l,0.526069408049807,1,colour,0.06,3.6
68,21,1,1,14,29,679,1390.310374515364,1391.13293775497,"[54, 0, 200]",200,a,0.2995374680031091,0,colour,0.06,3.6
68,21,1,1,14,30,680,1391.6385252382606,1392.7170095483307,"[80, 0, 174]",174,a,0.5557050856295973,0,colour,0.06,3.6
68,21,1,1,14,31,681,1393.2321757432073,1394.180951041868,"[64, 0, 190]",190,a,0.42604491114616394,0,colour,0.06,3.6
68,21,1,1,14,32,682,1394.7009717738256,1395.5090084234253,"[63, 0, 191]",191,a,0.28474739543162286,0,colour,0.06,3.6
68,21,1,1,14,33,683,1396.0292670379858,1396.6289800035302,"[92, 0, 162]",162,l,0.076980214798823,1,colour,0.06,3.6
68,21,1,1,14,34,684,1397.1384803398978,1397.7489295282867,"[57, 0, 197]",197,a,0.08777827140875161,0,colour,0.06,3.6
68,21,1,1,14,35,685,1398.2635329181794,1399.2209791149944,"[95, 0, 159]",159,l,0.4341593056451529,1,colour,0.06,3.6
68,21,1,1,14,36,686,1399.732209220063,1400.980980028864,"[65, 0, 189]",189,a,0.725581985199824,0,colour,0.06,3.6
68,21,1,1,14,37,687,1401.497878355207,1402.2369345759507,"[98, 0, 156]",156,l,0.21577051118947566,1,colour,0.06,3.6
68,21,1,1,14,38,688,1402.7478433030192,1403.492905270541,"[70, 0, 184]",184,a,0.22192040528170764,0,colour,0.06,3.6
68,21,1,1,14,39,689,1404.0134194907732,1404.9729034432676,"[52, 0, 202]",202,a,0.43688432150520384,0,colour,0.06,3.6
68,21,1,1,14,40,690,1405.482210007729,1406.4689311194234,"[97, 0, 157]",157,l,0.4632353289052844,1,colour,0.06,3.6
68,21,1,1,14,41,691,1406.9821469923481,1407.95690505323,"[51, 0, 203]",203,a,0.4520426392555237,0,colour,0.06,3.6
68,21,1,1,14,42,692,1408.4665554447565,1409.6289075361565,"[76, 0, 178]",178,a,0.6398028726689517,0,colour,0.06,3.6
68,21,1,1,14,43,693,1410.1384149615187,1410.988913648529,"[66, 0, 188]",188,a,0.32819680287502706,0,colour,0.06,3.6
68,21,1,1,14,44,694,1411.4977684724145,1412.388918689685,"[15, 0, 239]",239,a,0.3686262045521289,1,colour,0.06,3.6
68,21,1,1,14,45,695,1412.9040549523197,1413.7329807628412,"[71, 0, 183]",183,a,0.30652428371831775,0,colour,0.06,3.6
68,21,1,1,14,46,696,1414.2478602384217,1415.228987565497,"[87, 0, 167]",167,l,0.4582177398260683,1,colour,0.06,3.6
68,21,1,1,14,47,697,1415.7478350321762,1416.81292820815,"[99, 0, 155]",155,l,0.5426829843781888,1,colour,0.06,3.6
68,21,1,1,14,48,698,1417.3259790600277,1418.9808977150824,"[75, 0, 179]",179,a,1.1317365269642323,0,colour,0.06,3.6
68,21,1,1,14,49,699,1419.4979071060661,1420.676943665836,"[90, 0, 164]",164,l,0.6560379634611309,1,colour,0.06,3.6
68,21,1,1,14,50,700,1421.1853309953585,1422.3169592148624,"[73, 0, 181]",181,l,0.6088844409678131,1,colour,0.06,3.6
68,21,1,1,15,1,701,1448.6377080092207,1450.5968055995181,"[67, 0, 187]",187,a,1.4352475004270673,0,colour,0.06,3.5
68,21,1,1,15,2,702,1451.1072527398355,1452.620851824293,"[78, 0, 176]",176,l,0.9912566342391074,1,colour,0.06,3.5
68,21,1,1,15,3,703,1453.1384988506325,1453.796844747616,"[94, 0, 160]",160,l,0.13540046964772046,1,colour,0.06,3.5
68,21,1,1,15,4,704,1454.3103949951474,1455.180791140534,"[57, 0, 197]",197,a,0.34796862467192113,0,colour,0.06,3.5
68,21,1,1,15,5,705,1455.701008795295,1456.6935367621481,"[93, 0, 161]",161,l,0.46994842193089426,1,colour,0.06,3.5
68,21,1,1,15,6,706,1457.2009154539555,1457.9247948459815,"[81, 0, 173]",173,l,0.20136601314879954,1,colour,0.06,3.5
68,21,1,1,15,7,707,1458.4354522996582,1459.1248316310812,"[54, 0, 200]",200,a,0.16698843822814524,0,colour,0.06,3.5
68,21,1,1,15,8,708,1459.6385177553166,1460.284895481309,"[89, 0, 165]",165,l,0.1234342681709677,1,colour,0.06,3.5
68,21,1,1,15,9,709,1460.7947305859998,1462.548842330929,"[91, 0, 163]",163,l,1.231144656194374,1,colour,0.06,3.5
68,21,1,1,15,10,710,1463.060350490734,1464.1968553026672,"[86, 0, 168]",168,l,0.613244308391586,1,colour,0.06,3.5
68,21,1,1,15,11,711,1464.7166448475327,1465.7488058609888,"[70, 0, 184]",184,a,0.5095357825048268,0,colour,0.06,3.5
68,21,1,1,15,12,712,1466.2635014106054,1467.3488717118744,"[77, 0, 177]",177,l,0.5625824120361358,1,colour,0.06,3.5
68,21,1,1,15,13,713,1467.8572287152056,1469.3567820948083,"[61, 0, 193]",193,a,0.9769584746100008,0,colour,0.06,3.5
68,21,1,1,15,14,714,1469.8730049764272,1471.028808602132,"[82, 0, 172]",172,l,0.6332205361686647,1,colour,0.06,3.5
68,21,1,1,15,15,715,1471.5447640628554,1472.3169162857812,"[97, 0, 157]",157,l,0.24925248161889613,1,colour,0.06,3.5
68,21,1,1,15,16,716,1472.8259629122913,1473.7727433845866,"[71, 0, 183]",183,a,0.4240851369686425,0,colour,0.06,3.5
68,21,1,1,15,17,717,1474.2790606631897,1475.1888874184806,"[62, 0, 192]",192,a,0.3872223983053118,0,colour,0.06,3.5
68,21,1,1,15,18,718,1475.7009894968942,1476.5567397170234,"[69, 0, 185]",185,a,0.33251177216880023,0,colour,0.06,3.5
68,21,1,1,15,19,719,1477.0758888693526,1477.8288115952164,"[65, 0, 189]",189,a,0.229798492975533,0,colour,0.06,3.5
68,21,1,1,15,20,720,1478.3416202322114,1479.196795832133,"[96, 0, 158]",158,l,0.3326956978999078,1,colour,0.06,3.5
68,21,1,1,15,21,721,1479.7166302753612,1480.6207667535637,"[51, 0, 203]",203,a,0.38075467059388757,0,colour,0.06,3.5
68,21,1,1,15,22,722,1481.1384389861487,1482.108777315123,"[80, 0, 174]",174,a,0.44782613147981465,0,colour,0.06,3.5
68,21,1,1,15,23,723,1482.6227989953477,1484.4047524523921,"[60, 0, 194]",194,a,1.2594956101384014,0,colour,0.06,3.5
68,21,1,1,15,24,724,1484.9196535893716,1485.892743715318,"[63, 0, 191]",191,a,0.4503750982694328,0,colour,0.06,3.5
68,21,1,1,15,25,725,1486.4040797646157,1488.1407622795086,"[72, 0, 182]",182,a,1.2140446808189154,0,colour,0.06,3.5
68,21,1,1,15,26,726,1488.6540254140273,1489.5807292282116,"[88, 0, 166]",166,l,0.4033078281208873,1,colour,0.06,3.5
68,21,1,1,15,27,727,1490.0915564291645,1490.9727415728848,"[43, 0, 211]",211,a,0.3586245032493025,1,colour,0.06,3.5
68,21,1,1,15,28,728,1491.4821812568698,1493.22872644593,"[59, 0, 195]",195,a,1.223686801502481,0,colour,0.06,3.5
68,21,1,1,15,29,729,1493.7477594139054,1494.5807418311015,"[53, 0, 201]",201,a,0.3103335553314537,0,colour,0.06,3.5
68,21,1,1,15,30,730,1495.0914437894244,1495.988715544343,"[84, 0, 170]",170,l,0.3745319149456918,1,colour,0.06,3.5
68,21,1,1,15,31,731,1496.4977078202646,1497.4927032280248,"[90, 0, 164]",164,l,0.4721511988900602,1,colour,0.06,3.5
68,21,1,1,15,32,732,1497.9977649278007,1498.9407306143548,"[58, 0, 196]",196,a,0.4200308930594474,0,colour,0.06,3.5
68,21,1,1,15,33,733,1499.4508193556685,1500.8766823101323,"[68, 0, 186]",186,a,0.9024086790159345,0,colour,0.06,3.5
68,21,1,1,15,34,734,1501.3883413125295,1502.4126793767791,"[50, 0, 204]",204,a,0.5017187409102917,1,colour,0.06,3.5
68,21,1,1,15,35,735,1502.9196240508463,1503.9007356241345,"[76, 0, 178]",178,l,0.4579424418043345,1,colour,0.06,3.5
68,21,1,1,15,36,736,1504.4196086910088,1505.4446911227424,"[52, 0, 202]",202,a,0.50175143009983,0,colour,0.06,3.5
68,21,1,1,15,37,737,1505.9508229002822,1506.9007171133999,"[73, 0, 181]",181,l,0.4264147316571325,1,colour,0.06,3.5
68,21,1,1,15,38,738,1507.4196634355467,1508.2447035682853,"[87, 0, 167]",167,l,0.30276148580014706,1,colour,0.06,3.5
68,21,1,1,15,39,739,1508.7632698295638,1509.7327003451064,"[85, 0, 169]",169,l,0.4466418386436999,1,colour,0.06,3.5
68,21,1,1,15,40,740,1510.2477570509072,1511.0926958236378,"[55, 0, 199]",199,a,0.32240491383709013,0,colour,0.06,3.5
68,21,1,1,15,41,741,1511.6069998911116,1512.4687936673872,"[92, 0, 162]",162,l,0.3382229225244373,1,colour,0.06,3.5
68,21,1,1,15,42,742,1512.9819792143535,1513.9566510231234,"[74, 0, 180]",180,l,0.45111867832019925,1,colour,0.06,3.5
68,21,1,1,15,43,743,1514.46651527239,1515.3567257749382,"[98, 0, 156]",156,l,0.36755849001929164,1,colour,0.06,3.5
68,21,1,1,15,44,744,1515.8726938387845,1516.6526717676315,"[20, 0, 234]",234,a,0.25725659960880876,1,colour,0.06,3.5
68,21,1,1,15,45,745,1517.1695208635647,1518.0926918853074,"[75, 0, 179]",179,l,0.4004008558113128,1,colour,0.06,3.5
68,21,1,1,15,46,746,1518.6070727526676,1519.5327120029833,"[83, 0, 171]",171,l,0.40249926364049315,1,colour,0.06,3.5
68,21,1,1,15,47,747,1520.0445793494582,1522.1327168077696,"[66, 0, 188]",188,l,1.564936425536871,1,colour,0.06,3.5
68,21,1,1,15,48,748,1522.6383480078075,1523.6047900251579,"[33, 0, 221]",221,a,0.44334141490980983,1,colour,0.06,3.5
68,21,1,1,15,49,749,1524.1227387371473,1524.9966716133058,"[56, 0, 198]",198,a,0.35140571277588606,0,colour,0.06,3.5
68,21,1,1,15,50,750,1525.5133170911577,1526.412643930642,"[99, 0, 155]",155,l,0.37658621184527874,1,colour,0.06,3.5
68,21,1,1,16,1,751,1533.4032314217184,1534.228629559977,"[50, 0, 204]",204,a,0.3016346942167729,1,colour,0.06,3.5
68,21,1,1,16,2,752,1534.747746417066,1535.5966323073953,"[97, 0, 157]",157,l,0.32601489988155663,1,colour,0.06,3.5
68,21,1,1,16,3,753,1536.1071385247633,1537.7086474248208,"[71, 0, 183]",183,l,1.0790534163825214,1,colour,0.06,3.5
68,21,1,1,16,4,754,1538.216451469576,1539.4126482629217,"[67, 0, 187]",187,l,0.673627094598487,1,colour,0.06,3.5
68,21,1,1,16,5,755,1539.9196709184907,1540.8046176785138,"[52, 0, 202]",202,a,0.3623439781367779,0,colour,0.06,3.5
68,21,1,1,16,6,756,1541.3259278601035,1542.188709006412,"[98, 0, 156]",156,l,0.34042215486988425,1,colour,0.06,3.5
68,21,1,1,16,7,757,1542.7007945433725,1543.6366316301282,"[58, 0, 196]",196,a,0.4129759424831718,0,colour,0.06,3.5
68,21,1,1,16,8,758,1544.153989180224,1545.0606080654543,"[73, 0, 181]",181,a,0.38427446596324444,0,colour,0.06,3.5
68,21,1,1,16,9,759,1545.5758849307895,1546.5486001160461,"[70, 0, 184]",184,a,0.45024709845893085,0,colour,0.06,3.5
68,21,1,1,16,10,760,1547.0602024048567,1547.812651335029,"[60, 0, 194]",194,a,0.2294247339013964,0,colour,0.06,3.5
68,21,1,1,16,11,761,1548.3264512803871,1549.6606290182099,"[94, 0, 160]",160,l,0.812160603934899,1,colour,0.06,3.5
68,21,1,1,16,12,762,1550.1696248385124,1550.8686009983066,"[54, 0, 200]",200,a,0.176209538243711,0,colour,0.06,3.5
68,21,1,1,16,13,763,1551.388427958591,1552.6606699780095,"[69, 0, 185]",185,l,0.7496715330053121,1,colour,0.06,3.5
68,21,1,1,16,14,764,1553.169589392608,1554.02869832539,"[10, 0, 244]",244,a,0.3357042819261551,1,colour,0.06,3.5
68,21,1,1,16,15,765,1554.5445624140557,1555.4446958489716,"[68, 0, 186]",186,a,0.3774703945964575,0,colour,0.06,3.5
68,21,1,1,16,16,766,1555.9508319587912,1556.9086302532814,"[62, 0, 192]",192,a,0.43507145158946514,0,colour,0.06,3.5
68,21,1,1,16,17,767,1557.4196843092795,1558.2686588149518,"[89, 0, 165]",165,l,0.3264079575892538,1,colour,0.06,3.5
68,21,1,1,16,18,768,1558.7789744110778,1559.7006637868471,"[79, 0, 175]",175,l,0.39908620016649365,1,colour,0.06,3.5
68,21,1,1,16,19,769,1560.2164613155182,1561.1325994418003,"[92, 0, 162]",162,l,0.39362750411964953,1,colour,0.06,3.5
68,21,1,1,16,20,770,1561.6382932635024,1562.6366395070218,"[65, 0, 189]",189,a,0.4754232654813677,0,colour,0.06,3.5
68,21,1,1,16,21,771,1563.1539119863883,1564.0365712929051,"[53, 0, 201]",201,a,0.3600301370024681,0,colour,0.06,3.5
68,21,1,1,16,22,772,1564.5445419342723,1565.444582815282,"[18, 0, 236]",236,a,0.3769060142803937,1,colour,0.06,3.5
68,21,1,1,16,23,773,1565.950834715739,1566.900570209138,"[61, 0, 193]",193,a,0.4262564058881253,0,colour,0.06,3.5
68,21,1,1,16,24,774,1567.4196618599817,1568.3645644779317,"[85, 0, 169]",169,l,0.4219721567351371,1,colour,0.06,3.5
68,21,1,1,16,25,775,1568.8726481527556,1570.5006557523739,"[64, 0, 190]",190,a,1.1051527569070458,0,colour,0.06,3.5
68,21,1,1,16,26,776,1571.0132013005204,1571.9005820245948,"[99, 0, 155]",155,l,0.3645979550201446,1,colour,0.06,3.5
68,21,1,1,16,27,777,1572.419500777265,1573.348579478683,"[86, 0, 168]",168,l,0.40583473932929337,1,colour,0.06,3.5
68,21,1,1,16,28,778,1573.8574792009313,1574.756527985679,"[63, 0, 191]",191,a,0.376434187637642,0,colour,0.06,3.5
68,21,1,1,16,29,779,1575.2631820021197,1576.276571560884,"[55, 0, 199]",199,a,0.49060797109268606,0,colour,0.06,3.5
68,21,1,1,16,30,780,1576.7944923096802,1577.7005476024933,"[74, 0, 180]",180,l,0.38334223441779613,1,colour,0.06,3.5
68,21,1,1,16,31,781,1578.2163250450976,1579.1646111879963,"[95, 0, 159]",159,a,0.4254777738824487,0,colour,0.06,3.5
68,21,1,1,16,32,782,1579.6851321035065,1581.0525125754066,"[44, 0, 210]",210,a,0.8450470801908523,1,colour,0.06,3.5
68,21,1,1,16,33,783,1581.5600795252249,1582.596547236899,"[78, 0, 176]",176,l,0.5134206723887473,1,colour,0.06,3.5
68,21,1,1,16,34,784,1583.1069924081676,1584.1805339595303,"[76, 0, 178]",178,l,0.5502286665141582,1,colour,0.06,3.5
68,21,1,1,16,35,785,1584.7006964760367,1586.2045963320415,"[72, 0, 182]",182,a,0.9803884732536972,0,colour,0.06,3.5
68,21,1,1,16,36,786,1586.7164223250002,1587.67652855278,"[77, 0, 177]",177,l,0.4367834967561066,1,colour,0.06,3.5
68,21,1,1,16,37,787,1588.1850891744252,1589.0286231010687,"[88, 0, 166]",166,l,0.32111625210382044,1,colour,0.06,3.5
68,21,1,1,16,38,788,1589.5447211337741,1590.220528556034,"[57, 0, 197]",197,a,0.15337123698554933,0,colour,0.06,3.5
68,21,1,1,16,39,789,1590.7319193498697,1591.9964995027985,"[82, 0, 172]",172,l,0.7413212249521166,1,colour,0.06,3.5
68,21,1,1,16,40,790,1592.5133663218003,1594.2365671182051,"[83, 0, 171]",171,l,1.1999757390003651,1,colour,0.06,3.5
68,21,1,1,16,41,791,1594.7475349220913,1595.8686057245359,"[84, 0, 170]",170,l,0.5983514422550797,1,colour,0.06,3.5
68,21,1,1,16,42,792,1596.388292869553,1597.4605398515705,"[59, 0, 195]",195,a,0.5493929269723594,0,colour,0.06,3.5
68,21,1,1,16,43,793,1597.9819146236405,1599.588519881945,"[91, 0, 163]",163,l,1.0834711792413145,1,colour,0.06,3.5
68,21,1,1,16,44,794,1600.1068880390376,1600.8604803020135,"[56, 0, 198]",198,a,0.23103241017088294,0,colour,0.06,3.5
68,21,1,1,16,45,795,1601.3725209406111,1602.0205059493892,"[87, 0, 167]",167,l,0.12464101007208228,1,colour,0.06,3.5
68,21,1,1,16,46,796,1602.5287570082583,1603.084591275081,"[80, 0, 174]",174,l,0.03312081447802484,1,colour,0.06,3.5
68,21,1,1,16,47,797,1603.5912984604947,1604.8125639013015,"[81, 0, 173]",173,l,0.6983030780684203,1,colour,0.06,3.5
68,21,1,1,16,48,798,1605.3257214850746,1606.2204686915502,"[93, 0, 161]",161,l,0.372331501217559,1,colour,0.06,3.5
68,21,1,1,16,49,799,1606.7320162358228,1607.7645128052682,"[75, 0, 179]",179,a,0.5099804336205125,0,colour,0.06,3.5
68,21,1,1,16,50,800,1608.278819235973,1609.1165415812284,"[90, 0, 164]",164,l,0.3151798218023032,1,colour,0.06,3.5
