id,age,condition,counterbalance,block,trialinblock,trial,tstart,tend,trialstim,trialintensity,response,RT,accuracy,trialtype,colourfreq,credits
78,23,1,1,Practice,1,NA,6.301328539848328e-06,2.4928794596344233,"[90, 0, 164]",164,l,1.9382677781395614,1,colour,0.5,4
78,23,1,1,Practice,2,NA,3.0011630272492766,4.044845677446574,"[77, 0, 177]",177,l,0.5216833930462599,1,colour,0.5,4
78,23,1,1,Practice,3,NA,4.563649267423898,5.092857089359313,"[42, 0, 212]",212,a,0.006869069300591946,1,colour,0.5,4
78,23,1,1,Practice,4,NA,5.610609504394233,6.356863141991198,"[54, 0, 200]",200,a,0.22404012829065323,0,colour,0.5,4
78,23,1,1,Practice,5,NA,6.876761230174452,7.812843163032085,"[41, 0, 213]",213,a,0.41427447833120823,1,colour,0.5,4
78,23,1,1,Practice,6,NA,8.329586544074118,9.188851950224489,"[1, 0, 253]",253,a,0.33698494266718626,1,colour,0.5,4
78,23,1,1,Practice,7,NA,9.70454415678978,10.460850321687758,"[71, 0, 183]",183,l,0.23379254480823874,1,colour,0.5,4
78,23,1,1,Practice,8,NA,10.970432399772108,11.636861314531416,"[43, 0, 211]",211,a,0.14415396563708782,1,colour,0.5,4
78,23,1,1,Practice,9,NA,12.142367479391396,12.996881526894867,"[84, 0, 170]",170,l,0.3322280701249838,1,colour,0.5,4
78,23,1,1,Practice,10,NA,13.501843790523708,14.364844038616866,"[0, 0, 254]",254,a,0.34088992653414607,1,colour,0.5,4
78,23,1,1,1,1,1,5.8420440927147865,6.9679913418367505,"[59, 0, 195]",195,l,0.602926354855299,1,colour,0.5,4.0
78,23,1,1,1,2,2,7.483620926737785,8.647952020168304,"[0, 0, 254]",254,a,0.642257793340832,1,colour,0.5,4.0
78,23,1,1,1,3,3,9.155571169685572,10.303962918929756,"[46, 0, 208]",208,a,0.6261652428656816,1,colour,0.5,4.0
78,23,1,1,1,4,4,10.81189832650125,11.847953359596431,"[1, 0, 253]",253,a,0.5137737821787596,1,colour,0.5,4.0
78,23,1,1,1,5,5,12.358863092493266,13.399975108914077,"[22, 0, 232]",232,a,0.5188520331867039,1,colour,0.5,4.0
78,23,1,1,1,6,6,13.905888117384166,15.071982460096478,"[49, 0, 205]",205,l,0.6438040332868695,0,colour,0.5,4.0
78,23,1,1,1,7,7,15.577889166306704,16.59200697299093,"[94, 0, 160]",160,l,0.4918070170097053,1,colour,0.5,4.0
78,23,1,1,1,8,8,17.10928244004026,18.055936777032912,"[11, 0, 243]",243,a,0.42434079060330987,1,colour,0.5,4.0
78,23,1,1,1,9,9,18.562394868116826,19.5039615011774,"[2, 0, 252]",252,a,0.4191530500538647,1,colour,0.5,4.0
78,23,1,1,1,10,10,20.015765658579767,20.959980512503535,"[83, 0, 171]",171,l,0.42194069223478436,1,colour,0.5,4.0
78,23,1,1,1,11,11,21.469071071129292,22.439983962569386,"[17, 0, 237]",237,a,0.44870450207963586,1,colour,0.5,4.0
78,23,1,1,1,12,12,22.953491504769772,23.871928345412016,"[86, 0, 168]",168,l,0.39614022988826036,1,colour,0.5,4.0
78,23,1,1,1,13,13,24.391136415302753,25.3599631045945,"[39, 0, 215]",215,a,0.44709012703970075,1,colour,0.5,4.0
78,23,1,1,1,14,14,25.87562577240169,26.927978549618274,"[73, 0, 181]",181,l,0.530053015332669,1,colour,0.5,4.0
78,23,1,1,1,15,15,27.438291999977082,28.439949698280543,"[15, 0, 239]",239,a,0.47943749325349927,1,colour,0.5,4.0
78,23,1,1,1,16,16,28.95400389842689,29.951949203386903,"[5, 0, 249]",249,a,0.4756522383540869,1,colour,0.5,4.0
78,23,1,1,1,17,17,30.46981189539656,31.463964462745935,"[61, 0, 193]",193,l,0.4720044364221394,1,colour,0.5,4.0
78,23,1,1,1,18,18,31.969888498540968,32.95995294349268,"[28, 0, 226]",226,a,0.46777216624468565,1,colour,0.5,4.0
78,23,1,1,1,19,19,33.47003520606086,34.51997055625543,"[43, 0, 211]",211,a,0.5276860008016229,1,colour,0.5,4.0
78,23,1,1,1,20,20,35.03257185826078,36.02394229685888,"[88, 0, 166]",166,l,0.4690245967358351,1,colour,0.5,4.0
78,23,1,1,1,21,21,36.53274771058932,37.88794370228425,"[56, 0, 198]",198,l,0.8329690913669765,1,colour,0.5,4.0
78,23,1,1,1,22,22,38.40789811080322,39.55198157764971,"[60, 0, 194]",194,l,0.6218679882586002,1,colour,0.5,4.0
78,23,1,1,1,23,23,40.06430364307016,41.16796235460788,"[77, 0, 177]",177,l,0.5814448082819581,1,colour,0.5,4.0
78,23,1,1,1,24,24,41.67375208903104,42.67996894940734,"[37, 0, 217]",217,a,0.48401556024327874,1,colour,0.5,4.0
78,23,1,1,1,25,25,43.189397821202874,44.240035398863256,"[96, 0, 158]",158,l,0.5283031570725143,1,colour,0.5,4.0
78,23,1,1,1,26,26,44.75222316291183,45.815962030086666,"[72, 0, 182]",182,l,0.54163563484326,1,colour,0.5,4.0
78,23,1,1,1,27,27,46.33035021228716,47.36007495690137,"[50, 0, 204]",204,l,0.5074541275389493,0,colour,0.5,4.0
78,23,1,1,1,28,28,47.87734491052106,48.95993088791147,"[8, 0, 246]",246,a,0.5603681355714798,1,colour,0.5,4.0
78,23,1,1,1,29,29,49.471204535104334,50.59996817726642,"[14, 0, 240]",240,a,0.6064276467077434,1,colour,0.5,4.0
78,23,1,1,1,30,30,51.11201573209837,52.07195882918313,"[84, 0, 170]",170,l,0.4377079261466861,1,colour,0.5,4.0
78,23,1,1,1,31,31,52.580911934841424,53.583957546856254,"[7, 0, 247]",247,a,0.480637542437762,1,colour,0.5,4.0
78,23,1,1,1,32,32,54.0965773598291,55.0239521432668,"[82, 0, 172]",172,l,0.4051506402902305,1,colour,0.5,4.0
78,23,1,1,1,33,33,55.53420691052452,56.58394179306924,"[58, 0, 196]",196,l,0.5276044746860862,1,colour,0.5,4.0
78,23,1,1,1,34,34,57.09681366709992,58.015942889265716,"[25, 0, 229]",229,a,0.3968909000977874,1,colour,0.5,4.0
78,23,1,1,1,35,35,58.53443455323577,59.63194690365344,"[3, 0, 251]",251,a,0.575526877772063,1,colour,0.5,4.0
78,23,1,1,1,36,36,60.144003516528755,61.13596117962152,"[93, 0, 161]",161,l,0.4697307627648115,1,colour,0.5,4.0
78,23,1,1,1,37,37,61.64414589200169,62.67195260617882,"[24, 0, 230]",230,a,0.5056215617805719,1,colour,0.5,4.0
78,23,1,1,1,38,38,63.191023617982864,64.11194799048826,"[4, 0, 250]",250,a,0.39853599527850747,1,colour,0.5,4.0
78,23,1,1,1,39,39,64.62865828862414,65.6559640308842,"[54, 0, 200]",200,l,0.505054029636085,1,colour,0.5,4.0
78,23,1,1,1,40,40,66.17565338080749,67.07195292133838,"[32, 0, 222]",222,a,0.3740537352859974,1,colour,0.5,4.0
78,23,1,1,1,41,41,67.58211867930368,68.50397449778393,"[79, 0, 175]",175,l,0.3996269488707185,1,colour,0.5,4.0
78,23,1,1,1,42,42,69.01967891305685,70.08798954589292,"[55, 0, 199]",199,l,0.546067584771663,1,colour,0.5,4.0
78,23,1,1,1,43,43,70.59792254073545,71.49594712723047,"[18, 0, 236]",236,a,0.3757583014667034,1,colour,0.5,4.0
78,23,1,1,1,44,44,72.00425550714135,72.90395984658971,"[76, 0, 178]",178,l,0.37746168533340096,1,colour,0.5,4.0
78,23,1,1,1,45,45,73.41062785778195,74.42397648282349,"[80, 0, 174]",174,l,0.491096124984324,1,colour,0.5,4.0
78,23,1,1,1,46,46,74.94195023924112,75.9119738265872,"[91, 0, 163]",163,l,0.44778408389538527,1,colour,0.5,4.0
78,23,1,1,1,47,47,76.42652899911627,77.34397649858147,"[33, 0, 221]",221,a,0.39512843918055296,1,colour,0.5,4.0
78,23,1,1,1,48,48,77.8641061685048,78.92793877143413,"[66, 0, 188]",188,l,0.5415501701645553,1,colour,0.5,4.0
78,23,1,1,1,49,49,79.44234467623755,80.42396151693538,"[78, 0, 176]",176,l,0.4594222358427942,1,colour,0.5,4.0
78,23,1,1,1,50,50,80.94243782060221,82.00798089709133,"[44, 0, 210]",210,a,0.5431897514499724,1,colour,0.5,4.0
78,23,1,1,2,1,51,89.08301487611607,90.1759330118075,"[43, 0, 211]",211,l,0.5700291800312698,0,colour,0.5,4.0
78,23,1,1,2,2,52,90.69337822683156,91.68794157542288,"[81, 0, 173]",173,l,0.47250146977603436,1,colour,0.5,4.0
78,23,1,1,2,3,53,92.19334888504818,93.25598222669214,"[39, 0, 215]",215,l,0.5403355490416288,0,colour,0.5,4.0
78,23,1,1,2,4,54,93.77166182966903,95.04795666784048,"[38, 0, 216]",216,l,0.7540163439698517,0,colour,0.5,4.0
78,23,1,1,2,5,55,95.55303826648742,96.54395538847893,"[27, 0, 227]",227,a,0.4687248799018562,1,colour,0.5,4.0
78,23,1,1,2,6,56,97.05316606955603,98.0079671125859,"[92, 0, 162]",162,l,0.43261943478137255,1,colour,0.5,4.0
78,23,1,1,2,7,57,98.52184211276472,100.50397489173338,"[94, 0, 160]",160,l,1.4597349492833018,1,colour,0.5,4.0
78,23,1,1,2,8,58,101.02217668527737,102.03995765373111,"[96, 0, 158]",158,l,0.4954603328369558,1,colour,0.5,4.0
78,23,1,1,2,9,59,102.55360422329977,103.55196149135008,"[8, 0, 246]",246,a,0.4760645953938365,1,colour,0.5,4.0
78,23,1,1,2,10,60,104.0693082450889,105.12794247362763,"[77, 0, 177]",177,l,0.5363592789508402,1,colour,0.5,4.0
78,23,1,1,2,11,61,105.64756171870977,106.75996893364936,"[91, 0, 163]",163,l,0.5901681054383516,1,colour,0.5,4.0
78,23,1,1,2,12,62,107.272732894402,108.31198713881895,"[64, 0, 190]",190,l,0.5167134492658079,1,colour,0.5,4.0
78,23,1,1,2,13,63,108.82029748801142,109.75993781955913,"[20, 0, 234]",234,a,0.41804122226312757,1,colour,0.5,4.0
78,23,1,1,2,14,64,110.27291800174862,111.33598102955148,"[58, 0, 196]",196,l,0.5408562137745321,1,colour,0.5,4.0
78,23,1,1,2,15,65,111.85117817111313,112.99995864648372,"[83, 0, 171]",171,l,0.6267552245408297,1,colour,0.5,4.0
78,23,1,1,2,16,66,113.50755101395771,114.58396030357108,"[9, 0, 245]",245,a,0.5542245307005942,1,colour,0.5,4.0
78,23,1,1,2,17,67,115.10138976480812,116.64794847555459,"[34, 0, 220]",220,l,1.024486592039466,0,colour,0.5,4.0
78,23,1,1,2,18,68,117.16414756188169,118.23995938664302,"[13, 0, 241]",241,a,0.5536018600687385,1,colour,0.5,4.0
78,23,1,1,2,19,69,118.7579744970426,120.70392266754061,"[56, 0, 198]",198,l,1.4237401746213436,1,colour,0.5,4.0
78,23,1,1,2,20,70,121.2112933001481,122.29598123440519,"[75, 0, 179]",179,l,0.5624062893912196,1,colour,0.5,4.0
78,23,1,1,2,21,71,122.80525650642812,123.83196478383616,"[10, 0, 244]",244,a,0.5045014633797109,1,colour,0.5,4.0
78,23,1,1,2,22,72,124.35216692183167,125.35996428644285,"[87, 0, 167]",167,l,0.48547042766585946,1,colour,0.5,4.0
78,23,1,1,2,23,73,125.86790284467861,126.91194271296263,"[69, 0, 185]",185,l,0.5219370294362307,1,colour,0.5,4.0
78,23,1,1,2,24,74,127.43052574945614,128.28794480487704,"[28, 0, 226]",226,a,0.33516813069581985,1,colour,0.5,4.0
78,23,1,1,2,25,75,128.8057165183127,129.67993507860228,"[72, 0, 182]",182,l,0.3520609769038856,1,colour,0.5,4.0
78,23,1,1,2,26,76,130.1963499924168,131.04795351671055,"[98, 0, 156]",156,l,0.32933802716434,1,colour,0.5,4.0
78,23,1,1,2,27,77,131.5558656877838,132.45593748567626,"[93, 0, 161]",161,l,0.37775352550670505,1,colour,0.5,4.0
78,23,1,1,2,28,78,132.96230853674933,133.9759683003649,"[19, 0, 235]",235,a,0.4914419217966497,1,colour,0.5,4.0
78,23,1,1,2,29,79,134.4935647523962,135.47994476743042,"[7, 0, 247]",247,a,0.4640845856629312,1,colour,0.5,4.0
78,23,1,1,2,30,80,135.9944944260642,136.99196869088337,"[41, 0, 213]",213,a,0.4760216660797596,1,colour,0.5,4.0
78,23,1,1,2,31,81,137.50936231203377,138.42398514738306,"[74, 0, 180]",180,l,0.392356944270432,1,colour,0.5,4.0
78,23,1,1,2,32,82,138.9313900442794,139.99193521402776,"[37, 0, 217]",217,a,0.5382268968969584,1,colour,0.5,4.0
78,23,1,1,2,33,83,140.50971047207713,141.4879126669839,"[80, 0, 174]",174,l,0.4559961683116853,1,colour,0.5,4.0
78,23,1,1,2,34,84,141.994195102714,142.94394585723057,"[14, 0, 240]",240,a,0.42749195266515017,1,colour,0.5,4.0
78,23,1,1,2,35,85,143.4630980012007,145.28794165421277,"[62, 0, 192]",192,l,1.3026277804747224,1,colour,0.5,4.0
78,23,1,1,2,36,86,145.8069961243309,146.8719590655528,"[95, 0, 159]",159,l,0.5428037825040519,1,colour,0.5,4.0
78,23,1,1,2,37,87,147.38519879197702,148.4079504921101,"[46, 0, 208]",208,l,0.5009115566499531,0,colour,0.5,4.0
78,23,1,1,2,38,88,148.91657513054088,149.8239318993874,"[35, 0, 219]",219,a,0.3851267178542912,1,colour,0.5,4.0
78,23,1,1,2,39,89,150.3386485488154,151.27196331880987,"[36, 0, 218]",218,a,0.41108235577121377,1,colour,0.5,4.0
78,23,1,1,2,40,90,151.7918641641736,152.6559380372055,"[12, 0, 242]",242,a,0.34187690494582057,1,colour,0.5,4.0
78,23,1,1,2,41,91,153.16694701975212,154.095946024172,"[32, 0, 222]",222,a,0.40693082427605987,1,colour,0.5,4.0
78,23,1,1,2,42,92,154.60449110576883,155.51992605160922,"[89, 0, 165]",165,l,0.3931076149456203,1,colour,0.5,4.0
78,23,1,1,2,43,93,156.02654955815524,158.50396307650954,"[26, 0, 228]",228,a,1.9550534980371594,1,colour,0.5,4.0
78,23,1,1,2,44,94,159.01116632437333,160.23193004680797,"[70, 0, 184]",184,l,0.6984564778394997,1,colour,0.5,4.0
78,23,1,1,2,45,95,160.74567625951022,161.58392722066492,"[30, 0, 224]",224,a,0.3159799501299858,1,colour,0.5,4.0
78,23,1,1,2,46,96,162.08944283798337,162.99994249874726,"[31, 0, 223]",223,a,0.3881160099990666,1,colour,0.5,4.0
78,23,1,1,2,47,97,163.51148671796545,164.40795561205596,"[84, 0, 170]",170,l,0.3741959137842059,1,colour,0.5,4.0
78,23,1,1,2,48,98,164.9178716717288,165.90395669592544,"[55, 0, 199]",199,l,0.4640113301575184,1,colour,0.5,4.0
78,23,1,1,2,49,99,166.41800656402484,167.50394259626046,"[85, 0, 169]",169,l,0.5639596180990338,1,colour,0.5,4.0
78,23,1,1,2,50,100,168.01195401651785,168.88790156086907,"[24, 0, 230]",230,a,0.35382422572001815,1,colour,0.5,4.0
78,23,1,1,3,1,101,175.13668073620647,176.67197269247845,"[21, 0, 233]",233,l,1.0122403423301876,0,colour,0.5,4.0
78,23,1,1,3,2,102,177.1844901056029,178.23994481470436,"[30, 0, 224]",224,l,0.533438122831285,0,colour,0.5,4.0
78,23,1,1,3,3,103,178.74704526830465,179.63995891436934,"[4, 0, 250]",250,a,0.37063160724937916,1,colour,0.5,4.0
78,23,1,1,3,4,104,180.15350269014016,181.21593871479854,"[54, 0, 200]",200,l,0.5401969151571393,1,colour,0.5,4.0
78,23,1,1,3,5,105,181.73177979467437,182.68796205567196,"[85, 0, 169]",169,l,0.43474265933036804,1,colour,0.5,4.0
78,23,1,1,3,6,106,183.2006035298109,184.09593342151493,"[23, 0, 231]",231,a,0.37319357600063086,1,colour,0.5,4.0
78,23,1,1,3,7,107,184.60696800379083,185.5759518374689,"[59, 0, 195]",195,l,0.44671479193493724,1,colour,0.5,4.0
78,23,1,1,3,8,108,186.0914022224024,186.9199519669637,"[0, 0, 254]",254,a,0.30624722596257925,1,colour,0.5,4.0
78,23,1,1,3,9,109,187.4353405176662,188.31990462634712,"[86, 0, 168]",168,l,0.3625888763926923,1,colour,0.5,4.0
78,23,1,1,3,10,110,188.8259787177667,189.70395496301353,"[66, 0, 188]",188,l,0.35571232391521335,1,colour,0.5,4.0
78,23,1,1,3,11,111,190.2167362528853,191.047915707808,"[79, 0, 175]",175,l,0.3090210841037333,1,colour,0.5,4.0
78,23,1,1,3,12,112,191.56057726824656,192.6799508323893,"[37, 0, 217]",217,l,0.5970521406270564,0,colour,0.5,4.0
78,23,1,1,3,13,113,193.18571260385215,194.21593241300434,"[65, 0, 189]",189,l,0.5079531306400895,1,colour,0.5,4.0
78,23,1,1,3,14,114,194.7326789451763,195.68794748326764,"[87, 0, 167]",167,l,0.43370723770931363,1,colour,0.5,4.0
78,23,1,1,3,15,115,196.2015708158724,197.10391274280846,"[9, 0, 245]",245,a,0.38028359273448586,1,colour,0.5,4.0
78,23,1,1,3,16,116,197.62358515756205,198.6079199295491,"[83, 0, 171]",171,l,0.4621059028431773,1,colour,0.5,4.0
78,23,1,1,3,17,117,199.12368893576786,200.22393457777798,"[8, 0, 246]",246,a,0.577960058581084,1,colour,0.5,4.0
78,23,1,1,3,18,118,200.73316770792007,201.80790866585448,"[26, 0, 228]",228,l,0.5531737497076392,0,colour,0.5,4.0
78,23,1,1,3,19,119,202.32709034811705,203.41595383826643,"[47, 0, 207]",207,l,0.5666377716697752,0,colour,0.5,4.0
78,23,1,1,3,20,120,203.92096375720575,205.35192155558616,"[71, 0, 183]",183,l,0.9086655196733773,1,colour,0.5,4.0
78,23,1,1,3,21,121,205.8586447048001,206.8479509963654,"[84, 0, 170]",170,l,0.46707348339259624,1,colour,0.5,4.0
78,23,1,1,3,22,122,207.35883434163406,208.76792068593204,"[96, 0, 158]",158,l,0.8869240344502032,1,colour,0.5,4.0
78,23,1,1,3,23,123,209.28074017865583,211.34393396321684,"[34, 0, 220]",220,l,1.5409657028503716,0,colour,0.5,4.0
78,23,1,1,3,24,124,211.85912913549691,212.8079512012191,"[1, 0, 253]",253,a,0.4266495159827173,1,colour,0.5,4.0
78,23,1,1,3,25,125,213.32801509881392,215.0399186629802,"[61, 0, 193]",193,l,1.1897125039249659,1,colour,0.5,4.0
78,23,1,1,3,26,126,215.54689032956958,216.8399389856495,"[39, 0, 215]",215,l,0.7707339283078909,0,colour,0.5,4.0
78,23,1,1,3,27,127,217.35948143107817,218.23994048219174,"[94, 0, 160]",160,l,0.35814629262313247,1,colour,0.5,4.0
78,23,1,1,3,28,128,218.75022281846032,219.75192108284682,"[43, 0, 211]",211,l,0.479544619563967,0,colour,0.5,4.0
78,23,1,1,3,29,129,220.2660111230798,221.22391212824732,"[49, 0, 205]",205,l,0.43570836959406734,0,colour,0.5,4.0
78,23,1,1,3,30,130,221.73484785528854,222.75193565525115,"[52, 0, 202]",202,l,0.4953705361112952,1,colour,0.5,4.0
78,23,1,1,3,31,131,223.26624034158885,224.16794620733708,"[38, 0, 216]",216,a,0.37957585183903575,1,colour,0.5,4.0
78,23,1,1,3,32,132,224.6882196306251,225.59991382667795,"[18, 0, 236]",236,a,0.3894050680100918,1,colour,0.5,4.0
78,23,1,1,3,33,133,226.11015480943024,227.84791909484193,"[33, 0, 221]",221,a,1.2154968190006912,1,colour,0.5,4.0
78,23,1,1,3,34,134,228.36052236612886,229.18392533017322,"[69, 0, 185]",185,l,0.3012347468174994,1,colour,0.5,4.0
78,23,1,1,3,35,135,229.68860481213778,230.71204298594967,"[78, 0, 176]",176,l,0.5010797288268805,1,colour,0.5,4.0
78,23,1,1,3,36,136,231.21995436912403,232.3039180203341,"[28, 0, 226]",226,a,0.5615701540373266,1,colour,0.5,4.0
78,23,1,1,3,37,137,232.81387779675424,233.91993857594207,"[46, 0, 208]",208,l,0.5837850417010486,0,colour,0.5,4.0
78,23,1,1,3,38,138,234.4390265229158,235.41594084119424,"[64, 0, 190]",190,l,0.4546204642392695,1,colour,0.5,4.0
78,23,1,1,3,39,139,235.92345483368263,236.79193505644798,"[16, 0, 238]",238,a,0.3461276856251061,1,colour,0.5,4.0
78,23,1,1,3,40,140,237.29869837826118,238.34390403097495,"[29, 0, 225]",225,a,0.5231000571511686,1,colour,0.5,4.0
78,23,1,1,3,41,141,238.86115823080763,239.78391319978982,"[95, 0, 159]",159,l,0.40045599499717355,1,colour,0.5,4.0
78,23,1,1,3,42,142,240.29887679079548,241.28805074980482,"[68, 0, 186]",186,l,0.4669553297571838,1,colour,0.5,4.0
78,23,1,1,3,43,143,241.79900026135147,242.67990750959143,"[82, 0, 172]",172,l,0.3587181572802365,1,colour,0.5,4.0
78,23,1,1,3,44,144,243.1896297968924,244.0719462260604,"[81, 0, 173]",173,l,0.36002336302772164,1,colour,0.5,4.0
78,23,1,1,3,45,145,244.58048894442618,245.56791068241,"[74, 0, 180]",180,l,0.4651759332045913,1,colour,0.5,4.0
78,23,1,1,3,46,146,246.08059863047674,247.10391825670376,"[92, 0, 162]",162,l,0.5011557415127754,1,colour,0.5,4.0
78,23,1,1,3,47,147,247.6119064395316,248.5679228915833,"[13, 0, 241]",241,a,0.43371629621833563,1,colour,0.5,4.0
78,23,1,1,3,48,148,249.0808215471916,250.1359123424627,"[5, 0, 249]",249,a,0.5327571625821292,1,colour,0.5,4.0
78,23,1,1,3,49,149,250.64344839053228,251.6319213034585,"[24, 0, 230]",230,a,0.46618260350078344,1,colour,0.5,4.0
78,23,1,1,3,50,150,252.1435249936767,253.0319121661596,"[70, 0, 184]",184,l,0.36608347250148654,1,colour,0.5,4.0
78,23,1,1,4,1,151,259.3464691503905,261.2319221701473,"[40, 0, 214]",214,l,1.362421885598451,0,colour,0.5,4.0
78,23,1,1,4,2,152,261.7380962977186,262.8639320884831,"[64, 0, 190]",190,a,0.6034903428517282,0,colour,0.5,4.0
78,23,1,1,4,3,153,263.378867322579,265.56790477456525,"[80, 0, 174]",174,l,1.6668755365535617,1,colour,0.5,4.0
78,23,1,1,4,4,154,266.0820999718271,266.9359149420634,"[15, 0, 239]",239,a,0.33152859937399626,1,colour,0.5,4.0
78,23,1,1,4,5,155,267.44162078714,268.52792939776555,"[68, 0, 186]",186,l,0.5639919135719538,1,colour,0.5,4.0
78,23,1,1,4,6,156,269.0355099500157,269.96789996977895,"[78, 0, 176]",176,l,0.4102139254100621,1,colour,0.5,4.0
78,23,1,1,4,7,157,270.47303867619485,271.0959334215149,"[34, 0, 220]",220,a,0.10046028811484575,1,colour,0.5,4.0
78,23,1,1,4,8,158,271.6138587347232,272.95992931257933,"[36, 0, 218]",218,a,0.8237897208891809,1,colour,0.5,4.0
78,23,1,1,4,9,159,273.4732647440396,274.51191089022905,"[83, 0, 171]",171,l,0.5162447723560035,1,colour,0.5,4.0
78,23,1,1,4,10,160,275.0203378177248,275.919927154202,"[29, 0, 225]",225,a,0.3773088729940355,1,colour,0.5,4.0
78,23,1,1,4,11,161,276.426630217582,277.46391483815387,"[3, 0, 251]",251,a,0.5149998250417411,1,colour,0.5,4.0
78,23,1,1,4,12,162,277.97372731612995,279.0719541031867,"[43, 0, 211]",211,l,0.5759219052270055,0,colour,0.5,4.0
78,23,1,1,4,13,163,279.5832186914049,280.5599349052645,"[39, 0, 215]",215,l,0.454489313531667,0,colour,0.5,4.0
78,23,1,1,4,14,164,281.06767378374934,281.96793344663456,"[65, 0, 189]",189,l,0.37820329796522856,1,colour,0.5,4.0
78,23,1,1,4,15,165,282.47412372240797,283.36793888174,"[38, 0, 216]",216,a,0.37167096696794033,1,colour,0.5,4.0
78,23,1,1,4,16,166,283.88050198042765,284.79991555958986,"[8, 0, 246]",246,a,0.3972221249714494,1,colour,0.5,4.0
78,23,1,1,4,17,167,285.3180444915779,286.2558940052986,"[82, 0, 172]",172,l,0.41570571530610323,1,colour,0.5,4.0
78,23,1,1,4,18,168,286.77124120201916,287.58390280231833,"[99, 0, 155]",155,l,0.2911325949244201,1,colour,0.5,4.0
78,23,1,1,4,19,169,288.09955995576456,288.8719330714084,"[69, 0, 185]",185,l,0.25018402421846986,1,colour,0.5,4.0
78,23,1,1,4,20,170,289.3808708176948,290.1679091854021,"[12, 0, 242]",242,a,0.26474057557061315,1,colour,0.5,4.0
78,23,1,1,4,21,171,290.67780003882945,291.49592585954815,"[21, 0, 233]",233,a,0.29587647086009383,1,colour,0.5,4.0
78,23,1,1,4,22,172,292.0060612913221,292.8959411405958,"[60, 0, 194]",194,l,0.3675072258338332,1,colour,0.5,4.0
78,23,1,1,4,23,173,293.41247617732733,294.3679443956353,"[5, 0, 249]",249,a,0.43329527508467436,1,colour,0.5,4.0
78,23,1,1,4,24,174,294.88127588806674,295.8559354376048,"[22, 0, 232]",232,a,0.4522916520945728,1,colour,0.5,4.0
78,23,1,1,4,25,175,296.36581211257726,297.1839351761155,"[18, 0, 236]",236,a,0.29592727683484554,1,colour,0.5,4.0
78,23,1,1,4,26,176,297.69401271268725,298.5598959145136,"[94, 0, 160]",160,l,0.343702775426209,1,colour,0.5,4.0
78,23,1,1,4,27,177,299.06910305144265,299.83192539960146,"[23, 0, 231]",231,a,0.24051982956007123,1,colour,0.5,4.0
78,23,1,1,4,28,178,300.35051552485675,302.0399285093881,"[7, 0, 247]",247,a,1.1672888780012727,1,colour,0.5,4.0
78,23,1,1,4,29,179,302.55376136815175,303.4559173998423,"[93, 0, 161]",161,l,0.3799255867488682,1,colour,0.5,4.0
78,23,1,1,4,30,180,303.97576901409775,304.8559051118791,"[14, 0, 240]",240,a,0.3577941944822669,1,colour,0.5,4.0
78,23,1,1,4,31,181,305.36651827860624,306.21588475769386,"[59, 0, 195]",195,l,0.3272384339943528,1,colour,0.5,4.0
78,23,1,1,4,32,182,306.7258957340382,307.6879301541485,"[51, 0, 203]",203,l,0.439708664547652,1,colour,0.5,4.0
78,23,1,1,4,33,183,308.1948025710881,309.0319298892282,"[95, 0, 159]",159,l,0.3148582763969898,1,colour,0.5,4.0
78,23,1,1,4,34,184,309.5387235372327,310.3679436077364,"[89, 0, 165]",165,l,0.30694236420094967,1,colour,0.5,4.0
78,23,1,1,4,35,185,310.88258542632684,312.0959066399373,"[44, 0, 210]",210,l,0.6911041592247784,0,colour,0.5,4.0
78,23,1,1,4,36,186,312.6014762138948,313.4799069580622,"[11, 0, 243]",243,a,0.3564366069622338,1,colour,0.5,4.0
78,23,1,1,4,37,187,313.99215931259096,314.8879287359305,"[17, 0, 237]",237,a,0.3734873845241964,1,colour,0.5,4.0
78,23,1,1,4,38,188,315.39857813715935,316.3279406619258,"[66, 0, 188]",188,l,0.40771221509203315,1,colour,0.5,4.0
78,23,1,1,4,39,189,316.83622265420854,318.80791181651875,"[84, 0, 170]",170,l,1.44953079149127,1,colour,0.5,4.0
78,23,1,1,4,40,190,319.3207569094375,320.2559152729809,"[85, 0, 169]",169,l,0.4129665158689022,1,colour,0.5,4.0
78,23,1,1,4,41,191,320.7739973370917,321.67192267393693,"[52, 0, 202]",202,l,0.37652354408055544,1,colour,0.5,4.0
78,23,1,1,4,42,192,322.1809667586349,322.98390075424686,"[41, 0, 213]",213,l,0.281280929222703,0,colour,0.5,4.0
78,23,1,1,4,43,193,323.49293932458386,324.88790274225175,"[37, 0, 217]",217,l,0.8727747201919556,0,colour,0.5,4.0
78,23,1,1,4,44,194,325.39929611841217,326.3999140630476,"[57, 0, 197]",197,l,0.4788896534591913,1,colour,0.5,4.0
78,23,1,1,4,45,195,326.9150312538259,327.7598948907107,"[81, 0, 173]",173,l,0.32255402905866504,1,colour,0.5,4.0
78,23,1,1,4,46,196,328.2746469862759,329.3678947710432,"[49, 0, 205]",205,l,0.571083506103605,0,colour,0.5,4.0
78,23,1,1,4,47,197,329.8840450197458,330.65590968029574,"[72, 0, 182]",182,l,0.249685809481889,1,colour,0.5,4.0
78,23,1,1,4,48,198,331.1654433151707,331.9998987815343,"[77, 0, 177]",177,l,0.31222935346886516,1,colour,0.5,4.0
78,23,1,1,4,49,199,332.5091338814236,333.35195621382445,"[30, 0, 224]",224,a,0.3204571921378374,1,colour,0.5,4.0
78,23,1,1,4,50,200,333.868575533852,334.74390395218506,"[58, 0, 196]",196,l,0.3530751303769648,1,colour,0.5,4.0
78,23,1,1,5,1,201,341.4621976693161,342.439913070295,"[94, 0, 160]",160,l,0.455290790181607,1,colour,0.4,3.9
78,23,1,1,5,2,202,342.9476102013141,343.7360731107183,"[17, 0, 237]",237,a,0.26644317200407386,1,colour,0.4,3.9
78,23,1,1,5,3,203,344.24456108454615,345.09589797537774,"[1, 0, 253]",253,a,0.3290178310126066,1,colour,0.4,3.9
78,23,1,1,5,4,204,345.6041138013825,347.0318987756036,"[55, 0, 199]",199,l,0.9055994278751314,1,colour,0.4,3.9
78,23,1,1,5,5,205,347.54183255834505,348.35190777108073,"[89, 0, 165]",165,l,0.2879637097939849,1,colour,0.4,3.9
78,23,1,1,5,6,206,348.87052152724937,349.6399140157737,"[20, 0, 234]",234,a,0.247742572799325,1,colour,0.4,3.9
78,23,1,1,5,7,207,350.15133850555867,351.04786135675386,"[0, 0, 254]",254,a,0.37451414158567786,1,colour,0.4,3.9
78,23,1,1,5,8,208,351.5576864378527,353.35189004801214,"[45, 0, 209]",209,l,1.272005066741258,0,colour,0.4,3.9
78,23,1,1,5,9,209,353.87032342283055,354.68786910781637,"[91, 0, 163]",163,l,0.29522504936903715,1,colour,0.4,3.9
78,23,1,1,5,10,210,355.1985748289153,356.1118715843186,"[65, 0, 189]",189,l,0.39114311058074236,1,colour,0.4,3.9
78,23,1,1,5,11,211,356.62048519495875,357.5759163913317,"[24, 0, 230]",230,a,0.433056210167706,1,colour,0.4,3.9
78,23,1,1,5,12,212,358.0893963640556,358.99992004968226,"[71, 0, 183]",183,l,0.38824558537453413,1,colour,0.4,3.9
78,23,1,1,5,13,213,359.5113921947777,360.4319286290556,"[31, 0, 223]",223,a,0.39827369386330247,1,colour,0.4,3.9
78,23,1,1,5,14,214,360.94903474254534,361.81588286720216,"[75, 0, 179]",179,l,0.3444105167873204,1,colour,0.4,3.9
78,23,1,1,5,15,215,362.32411326561123,363.0798652889207,"[12, 0, 242]",242,a,0.23358813859522343,1,colour,0.4,3.9
78,23,1,1,5,16,216,363.5898309731856,364.41592114884406,"[76, 0, 178]",178,l,0.303749059792608,1,colour,0.4,3.9
78,23,1,1,5,17,217,364.93367001926526,366.0398812475614,"[56, 0, 198]",198,l,0.584015048108995,1,colour,0.4,3.9
78,23,1,1,5,18,218,366.5588766410947,367.3758866954595,"[96, 0, 158]",158,l,0.29484262503683567,1,colour,0.4,3.9
78,23,1,1,5,19,219,367.88709535775706,368.7759165489115,"[63, 0, 191]",191,l,0.36657065991312265,1,colour,0.4,3.9
78,23,1,1,5,20,220,369.2934235977009,370.13592297630385,"[67, 0, 187]",187,l,0.3201948907226324,1,colour,0.4,3.9
78,23,1,1,5,21,221,370.65292314533144,371.9838881511241,"[50, 0, 204]",204,l,0.8087081732228398,0,colour,0.4,3.9
78,23,1,1,5,22,222,372.4967875946313,373.7518883938901,"[52, 0, 202]",202,l,0.7328337267972529,1,colour,0.4,3.9
78,23,1,1,5,23,223,374.26257560402155,375.12787748873234,"[93, 0, 161]",161,l,0.34294777223840356,1,colour,0.4,3.9
78,23,1,1,5,24,224,375.63768405932933,376.59192229574546,"[88, 0, 166]",166,l,0.4319628933444619,1,colour,0.4,3.9
78,23,1,1,5,25,225,377.10646880371496,378.14391883974895,"[48, 0, 206]",206,a,0.5151431849226356,1,colour,0.4,3.9
78,23,1,1,5,26,226,378.6536454590969,379.5039217225276,"[40, 0, 214]",214,a,0.32812695065513253,1,colour,0.4,3.9
78,23,1,1,5,27,227,380.0129835298285,380.9279151405208,"[3, 0, 251]",251,a,0.3926669009961188,1,colour,0.4,3.9
78,23,1,1,5,28,228,381.4351069666445,382.3119430281222,"[33, 0, 221]",221,a,0.35481238551437855,1,colour,0.4,3.9
78,23,1,1,5,29,229,382.82577746221796,384.3279225449078,"[99, 0, 155]",155,l,0.9799193642102182,1,colour,0.4,3.9
78,23,1,1,5,30,230,384.8415584806353,385.9438895373605,"[53, 0, 201]",201,l,0.5801392085850239,1,colour,0.4,3.9
78,23,1,1,5,31,231,386.45107939466834,387.35189910652116,"[44, 0, 210]",210,a,0.37872002413496375,1,colour,0.4,3.9
78,23,1,1,5,32,232,387.8574706497602,388.6878966768272,"[84, 0, 170]",170,l,0.3082782896235585,1,colour,0.4,3.9
78,23,1,1,5,33,233,389.20121871773154,390.60790811432526,"[58, 0, 196]",196,l,0.884538508951664,1,colour,0.4,3.9
78,23,1,1,5,34,234,391.12321907747537,392.1199028934352,"[37, 0, 217]",217,a,0.47431513108313084,1,colour,0.4,3.9
78,23,1,1,5,35,235,392.6390101388097,393.4719284242019,"[18, 0, 236]",236,a,0.31067681265994906,1,colour,0.4,3.9
78,23,1,1,5,36,236,393.98290471732616,394.87194567453116,"[79, 0, 175]",175,l,0.366789638530463,1,colour,0.4,3.9
78,23,1,1,5,37,237,395.38924240972847,396.351919980254,"[15, 0, 239]",239,a,0.4408622393384576,1,colour,0.4,3.9
78,23,1,1,5,38,238,396.85811852663755,397.70387658756226,"[35, 0, 219]",219,a,0.32342364080250263,1,colour,0.4,3.9
78,23,1,1,5,39,239,398.2176755759865,399.75993191218004,"[68, 0, 186]",186,l,1.0202724393457174,1,colour,0.4,3.9
78,23,1,1,5,40,240,400.2802821355872,401.0959003381431,"[80, 0, 174]",174,l,0.2933475850149989,1,colour,0.4,3.9
78,23,1,1,5,41,241,401.60856465576217,402.4719469351694,"[82, 0, 172]",172,l,0.341256991494447,1,colour,0.4,3.9
78,23,1,1,5,42,242,402.98363845283166,403.8878523297608,"[87, 0, 167]",167,l,0.3820007615722716,1,colour,0.4,3.9
78,23,1,1,5,43,243,404.40564255416393,405.2799197975546,"[85, 0, 169]",169,l,0.35210233088582754,1,colour,0.4,3.9
78,23,1,1,5,44,244,405.79628429887816,406.6238683327101,"[95, 0, 159]",159,l,0.3052700934931636,1,colour,0.4,3.9
78,23,1,1,5,45,245,407.1400717510842,407.9199157329276,"[19, 0, 235]",235,a,0.2574138571508229,1,colour,0.4,3.9
78,23,1,1,5,46,246,408.4371589049697,409.24000625452027,"[4, 0, 250]",250,a,0.2805456188507378,1,colour,0.4,3.9
78,23,1,1,5,47,247,409.7497679265216,410.71190632134676,"[49, 0, 205]",205,l,0.439860294573009,0,colour,0.4,3.9
78,23,1,1,5,48,248,411.2186089907773,412.0158790862188,"[57, 0, 197]",197,l,0.27516371197998524,1,colour,0.4,3.9
78,23,1,1,5,49,249,412.5311805969104,413.3278981265612,"[54, 0, 200]",200,l,0.2744177677668631,1,colour,0.4,3.9
78,23,1,1,5,50,250,413.84388059703633,414.55987385939807,"[69, 0, 185]",185,l,0.19366278033703566,1,colour,0.4,3.9
78,23,1,1,6,1,251,420.8592717079446,421.7839061105624,"[63, 0, 191]",191,l,0.40162926260381937,1,colour,0.28,3.9
78,23,1,1,6,2,252,422.2975967908278,423.1039186506532,"[93, 0, 161]",161,l,0.28398350114002824,1,colour,0.28,3.9
78,23,1,1,6,3,253,423.6102448031306,424.26390759134665,"[33, 0, 221]",221,a,0.1314280112273991,1,colour,0.28,3.9
78,23,1,1,6,4,254,424.7821834278293,425.67190298158675,"[66, 0, 188]",188,l,0.3682129979133606,1,colour,0.28,3.9
78,23,1,1,6,5,255,426.1885435692966,427.0239092139527,"[70, 0, 184]",184,l,0.31315528601408005,1,colour,0.28,3.9
78,23,1,1,6,6,256,427.5324416924268,428.38389437366277,"[6, 0, 248]",248,a,0.32926871022209525,1,colour,0.28,3.9
78,23,1,1,6,7,257,428.8918498675339,429.8398499763571,"[12, 0, 242]",242,a,0.4256408764049411,1,colour,0.28,3.9
78,23,1,1,6,8,258,430.34618479339406,431.1278826086782,"[90, 0, 164]",164,l,0.26060716062784195,1,colour,0.28,3.9
78,23,1,1,6,9,259,431.6421286123805,432.51187426270917,"[34, 0, 220]",220,a,0.34751323657110333,1,colour,0.28,3.9
78,23,1,1,6,10,260,433.0172402183525,433.99990075081587,"[69, 0, 185]",185,l,0.4606250412762165,1,colour,0.28,3.9
78,23,1,1,6,11,261,434.5174306430854,435.3678691708483,"[68, 0, 186]",186,l,0.32844242127612233,1,colour,0.28,3.9
78,23,1,1,6,12,262,435.87680809851736,437.0558903031051,"[55, 0, 199]",199,a,0.656884843017906,0,colour,0.28,3.9
78,23,1,1,6,13,263,437.5644743749872,438.29590088967234,"[80, 0, 174]",174,l,0.2092114295810461,1,colour,0.28,3.9
78,23,1,1,6,14,264,438.8145607258193,439.71188702294603,"[54, 0, 200]",200,a,0.37516123056411743,0,colour,0.28,3.9
78,23,1,1,6,15,265,440.2209504060447,441.07989246444777,"[85, 0, 169]",169,l,0.33671161346137524,1,colour,0.28,3.9
78,23,1,1,6,16,266,441.59606949519366,442.43189003225416,"[73, 0, 181]",181,l,0.31357906479388475,1,colour,0.28,3.9
78,23,1,1,6,17,267,442.93984119361266,443.79987302422523,"[30, 0, 224]",224,a,0.33772773668169975,1,colour,0.28,3.9
78,23,1,1,6,18,268,444.3149843076244,445.735890366137,"[57, 0, 197]",197,a,0.8986444999463856,0,colour,0.28,3.9
78,23,1,1,6,19,269,446.25263768574223,447.15990938432515,"[65, 0, 189]",189,l,0.3850633092224598,1,colour,0.28,3.9
78,23,1,1,6,20,270,447.6746323350817,449.0958991567604,"[59, 0, 195]",195,l,0.8989832075312734,1,colour,0.28,3.9
78,23,1,1,6,21,271,449.61232785508037,451.2400645436719,"[45, 0, 209]",209,a,1.1056519667617977,1,colour,0.28,3.9
78,23,1,1,6,22,272,451.75306953815743,452.687873440329,"[98, 0, 156]",156,l,0.41250492818653584,1,colour,0.28,3.9
78,23,1,1,6,23,273,453.2063052393496,454.19987215753645,"[83, 0, 171]",171,l,0.47125770384445786,1,colour,0.28,3.9
78,23,1,1,6,24,274,454.70643067965284,455.6159012205899,"[7, 0, 247]",247,a,0.3871932285837829,1,colour,0.28,3.9
78,23,1,1,6,25,275,456.12840760545805,457.031894443091,"[79, 0, 175]",175,l,0.3812225218862295,1,colour,0.28,3.9
78,23,1,1,6,26,276,457.55049480870366,458.53586342697963,"[52, 0, 202]",202,a,0.46331776725128293,0,colour,0.28,3.9
78,23,1,1,6,27,277,459.05059661809355,459.9279076573439,"[86, 0, 168]",168,l,0.35518299462273717,1,colour,0.28,3.9
78,23,1,1,6,28,278,460.4412521473132,461.28785540210083,"[77, 0, 177]",177,l,0.32444212678819895,1,colour,0.28,3.9
78,23,1,1,6,29,279,461.800732396543,463.77590158302337,"[53, 0, 201]",201,a,1.4529852154664695,0,colour,0.28,3.9
78,23,1,1,6,30,280,464.2853336054832,465.27183689456433,"[50, 0, 204]",204,a,0.46447409968823195,1,colour,0.28,3.9
78,23,1,1,6,31,281,465.785430688411,466.71989982156083,"[91, 0, 163]",163,l,0.4124545156955719,1,colour,0.28,3.9
78,23,1,1,6,32,282,467.23879163339734,468.1438987534493,"[74, 0, 180]",180,l,0.3828837648034096,1,colour,0.28,3.9
78,23,1,1,6,33,283,468.660693728365,469.88786453939974,"[95, 0, 159]",159,l,0.7049553319811821,1,colour,0.28,3.9
78,23,1,1,6,34,284,470.39519342407584,471.15986409178004,"[96, 0, 158]",158,l,0.24293213663622737,1,colour,0.28,3.9
78,23,1,1,6,35,285,471.67658108565956,472.48789258114994,"[25, 0, 229]",229,a,0.28906214609742165,1,colour,0.28,3.9
78,23,1,1,6,36,286,473.00476987008005,473.64792169397697,"[88, 0, 166]",166,l,0.12083197617903352,1,colour,0.28,3.9
78,23,1,1,6,37,287,474.1610771375708,475.0478715971112,"[87, 0, 167]",167,l,0.36443365132436156,1,colour,0.28,3.9
78,23,1,1,6,38,288,475.5674707563594,476.2878731251694,"[81, 0, 173]",173,l,0.19830031786113977,1,colour,0.28,3.9
78,23,1,1,6,39,289,476.8018863652833,477.63189609721303,"[24, 0, 230]",230,a,0.3078552992083132,1,colour,0.28,3.9
78,23,1,1,6,40,290,478.145745891612,478.95185664948076,"[14, 0, 240]",240,a,0.2838102085515857,1,colour,0.28,3.9
78,23,1,1,6,41,291,479.45844786055386,480.3118658340536,"[58, 0, 196]",196,l,0.33124266704544425,1,colour,0.28,3.9
78,23,1,1,6,42,292,480.8178182267584,481.67985630920157,"[4, 0, 250]",250,a,0.33995060343295336,1,colour,0.28,3.9
78,23,1,1,6,43,293,482.1929865470156,483.1198981674388,"[42, 0, 212]",212,a,0.40472174203023314,1,colour,0.28,3.9
78,23,1,1,6,44,294,483.63063106359914,484.4318963335827,"[78, 0, 176]",176,l,0.2790545173920691,1,colour,0.28,3.9
78,23,1,1,6,45,295,484.94324993155897,485.8478600177914,"[84, 0, 170]",170,l,0.38233592454344034,1,colour,0.28,3.9
78,23,1,1,6,46,296,486.3651835345663,487.36789004458115,"[37, 0, 217]",217,a,0.4804547973908484,1,colour,0.28,3.9
78,23,1,1,6,47,297,487.8810261897743,488.4878689502366,"[76, 0, 178]",178,l,0.0845894725061953,1,colour,0.28,3.9
78,23,1,1,6,48,298,489.00596519280225,489.8798820669763,"[10, 0, 244]",244,a,0.35162065690383315,1,colour,0.28,3.9
78,23,1,1,6,49,299,490.3968223715201,491.89586158376187,"[82, 0, 172]",172,l,0.977446798235178,1,colour,0.28,3.9
78,23,1,1,6,50,300,492.4126022080891,493.47988411504775,"[64, 0, 190]",190,l,0.5450313757173717,1,colour,0.28,3.9
78,23,1,1,7,1,301,498.44355850992724,499.28786642989144,"[99, 0, 155]",155,l,0.3213110505603254,1,colour,0.14,3.9
78,23,1,1,7,2,302,499.8037520144135,500.8238767609,"[52, 0, 202]",202,a,0.49779977882280946,0,colour,0.14,3.9
78,23,1,1,7,3,303,501.3350617927499,501.991852900479,"[81, 0, 173]",173,l,0.1346445521339774,1,colour,0.14,3.9
78,23,1,1,7,4,304,502.5070866695605,503.5118695362471,"[57, 0, 197]",197,l,0.48248783126473427,1,colour,0.14,3.9
78,23,1,1,7,5,305,504.0229159342125,504.64789294358343,"[87, 0, 167]",167,l,0.10272844787687063,1,colour,0.14,3.9
78,23,1,1,7,6,306,505.1636339863762,506.14385464275256,"[61, 0, 193]",193,l,0.4579650051891804,1,colour,0.14,3.9
78,23,1,1,7,7,307,506.6636605709791,507.74385826615617,"[98, 0, 156]",156,l,0.557874302379787,1,colour,0.14,3.9
78,23,1,1,7,8,308,508.25755879236385,509.1518670474179,"[79, 0, 175]",175,l,0.3721305853687227,1,colour,0.14,3.9
78,23,1,1,7,9,309,509.6639965218492,510.5198618546128,"[7, 0, 247]",247,a,0.3336545801721513,1,colour,0.14,3.9
78,23,1,1,7,10,310,511.0390293588862,511.991884408053,"[71, 0, 183]",183,l,0.43051865976303816,1,colour,0.14,3.9
78,23,1,1,7,11,311,512.5079452539794,513.5198764270172,"[50, 0, 204]",204,l,0.4898196696303785,0,colour,0.14,3.9
78,23,1,1,7,12,312,514.0393188353628,514.7198927323334,"[77, 0, 177]",177,l,0.15830839984118938,1,colour,0.14,3.9
78,23,1,1,7,13,313,515.2268021707423,516.2478686035611,"[75, 0, 179]",179,l,0.4987828186713159,1,colour,0.14,3.9
78,23,1,1,7,14,314,516.7581919003278,517.6638645832427,"[95, 0, 159]",159,l,0.38339300733059645,1,colour,0.14,3.9
78,23,1,1,7,15,315,518.1802164814435,519.0638546585105,"[92, 0, 162]",162,l,0.36122735030949116,1,colour,0.14,3.9
78,23,1,1,7,16,316,519.5709594446234,520.5998807437718,"[96, 0, 158]",158,l,0.5066833710297942,1,colour,0.14,3.9
78,23,1,1,7,17,317,521.1178663154133,522.783889174927,"[54, 0, 200]",200,a,1.1438983590342104,0,colour,0.14,3.9
78,23,1,1,7,18,318,523.2899085218087,524.2478579697199,"[86, 0, 168]",168,l,0.4355902154929936,1,colour,0.14,3.9
78,23,1,1,7,19,319,524.7588882199489,525.7198718586005,"[12, 0, 242]",242,a,0.43880754429847,1,colour,0.14,3.9
78,23,1,1,7,20,320,526.2278060847893,527.1278857598081,"[56, 0, 198]",198,a,0.3778578951023519,0,colour,0.14,3.9
78,23,1,1,7,21,321,527.6341260536574,528.5198468887247,"[88, 0, 166]",166,l,0.36368888849392533,1,colour,0.14,3.9
78,23,1,1,7,22,322,529.0404901336879,529.9359736251645,"[80, 0, 174]",174,l,0.37271072063595057,1,colour,0.14,3.9
78,23,1,1,7,23,323,530.4467675676569,531.3518853215501,"[76, 0, 178]",178,l,0.38287313049659133,1,colour,0.14,3.9
78,23,1,1,7,24,324,531.8688630415127,533.007850533817,"[64, 0, 190]",190,l,0.6173655395396054,1,colour,0.14,3.9
78,23,1,1,7,25,325,533.5251539642923,534.599850023631,"[74, 0, 180]",180,l,0.5524478913284838,1,colour,0.14,3.9
78,23,1,1,7,26,326,535.1190009862185,535.967865311075,"[85, 0, 169]",169,l,0.3267425815574825,1,colour,0.14,3.9
78,23,1,1,7,27,327,536.4785706382245,537.8638434731402,"[62, 0, 192]",192,a,0.8630018238909543,0,colour,0.14,3.9
78,23,1,1,7,28,328,538.3693405799568,539.247882782016,"[90, 0, 164]",164,l,0.35640864353626966,1,colour,0.14,3.9
78,23,1,1,7,29,329,539.7600055611692,540.7198478337377,"[78, 0, 176]",176,l,0.43757362430915236,1,colour,0.14,3.9
78,23,1,1,7,30,330,541.228917518165,542.2798674157821,"[84, 0, 170]",170,l,0.5287316618487239,1,colour,0.14,3.9
78,23,1,1,7,31,331,542.7915057642385,544.3599185999483,"[63, 0, 191]",191,a,1.046207597013563,0,colour,0.14,3.9
78,23,1,1,7,32,332,544.8698047273792,545.8798797037452,"[51, 0, 203]",203,a,0.4877685192041099,0,colour,0.14,3.9
78,23,1,1,7,33,333,546.3855926380493,547.2318611238152,"[13, 0, 241]",241,a,0.3245260161347687,1,colour,0.14,3.9
78,23,1,1,7,34,334,547.7450327151455,548.6558750215918,"[89, 0, 165]",165,l,0.3885571169666946,1,colour,0.14,3.9
78,23,1,1,7,35,335,549.1670415424742,550.1598648796789,"[70, 0, 184]",184,l,0.4705550828948617,1,colour,0.14,3.9
78,23,1,1,7,36,336,550.6672016410157,551.5838531777263,"[69, 0, 185]",185,l,0.3944730795919895,1,colour,0.14,3.9
78,23,1,1,7,37,337,552.0892392196693,553.0398836107925,"[59, 0, 195]",195,a,0.42848365707322955,0,colour,0.14,3.9
78,23,1,1,7,38,338,553.5580475949682,554.9118501590565,"[83, 0, 171]",171,l,0.8316426179371774,1,colour,0.14,3.9
78,23,1,1,7,39,339,555.4175548227504,556.551864605397,"[37, 0, 217]",217,a,0.6122380578890443,1,colour,0.14,3.9
78,23,1,1,7,40,340,557.0583179704845,557.8638753746636,"[72, 0, 182]",182,l,0.28329939022660255,1,colour,0.14,3.9
78,23,1,1,7,41,341,558.3708970593289,559.2318784529343,"[93, 0, 161]",161,l,0.33867178531363606,1,colour,0.14,3.9
78,23,1,1,7,42,342,559.7459145365283,560.5998512050137,"[91, 0, 163]",163,l,0.3316636881791055,1,colour,0.14,3.9
78,23,1,1,7,43,343,561.1055830442347,561.9598414851353,"[53, 0, 201]",201,a,0.3320390237495303,0,colour,0.14,3.9
78,23,1,1,7,44,344,562.4650006718002,563.3998348996975,"[10, 0, 244]",244,a,0.4126092968508601,1,colour,0.14,3.9
78,23,1,1,7,45,345,563.9188523483463,564.7998690856621,"[40, 0, 214]",214,a,0.35961494455114007,1,colour,0.14,3.9
78,23,1,1,7,46,346,565.3089072625153,566.199883185327,"[67, 0, 187]",187,l,0.368645834736526,1,colour,0.14,3.9
78,23,1,1,7,47,347,566.7155553055927,567.551871300675,"[97, 0, 157]",157,l,0.31424978422001004,1,colour,0.14,3.9
78,23,1,1,7,48,348,568.0591210224666,569.0958676491864,"[68, 0, 186]",186,l,0.5143889696337283,1,colour,0.14,3.9
78,23,1,1,7,49,349,569.6062496285886,570.4238937753253,"[16, 0, 238]",238,a,0.29554957896471024,1,colour,0.14,3.9
78,23,1,1,7,50,350,570.9344100560993,571.999823557213,"[55, 0, 199]",199,a,0.543335868511349,0,colour,0.14,3.9
78,23,1,1,8,1,351,576.684129933361,577.7758393553086,"[77, 0, 177]",177,l,0.5689350757747889,1,colour,0.06,3.9
78,23,1,1,8,2,352,578.2944302684627,579.1998441945761,"[87, 0, 167]",167,l,0.3831539428792894,1,colour,0.06,3.9
78,23,1,1,8,3,353,579.7163741113618,580.5198689438403,"[99, 0, 155]",155,l,0.2813057415187359,1,colour,0.06,3.9
78,23,1,1,8,4,354,581.0289835268632,581.8398452503607,"[1, 0, 253]",253,a,0.2885942570865154,1,colour,0.06,3.9
78,23,1,1,8,5,355,582.3571368651465,583.4238772336394,"[53, 0, 201]",201,a,0.5445170127786696,0,colour,0.06,3.9
78,23,1,1,8,6,356,583.935544332955,584.7998131597415,"[73, 0, 181]",181,l,0.34249091101810336,1,colour,0.06,3.9
78,23,1,1,8,7,357,585.3104964313097,586.3198660295457,"[65, 0, 189]",189,l,0.4871037071570754,1,colour,0.06,3.9
78,23,1,1,8,8,358,586.8263339665718,587.7598716537468,"[93, 0, 161]",161,l,0.4113202393054962,1,colour,0.06,3.9
78,23,1,1,8,9,359,588.2794688437134,589.3598855170421,"[57, 0, 197]",197,a,0.5580546841956675,0,colour,0.06,3.9
78,23,1,1,8,10,360,589.873687655665,590.6958685154095,"[69, 0, 185]",185,l,0.30022138077765703,1,colour,0.06,3.9
78,23,1,1,8,11,361,591.201638951432,592.127838104032,"[97, 0, 157]",157,l,0.40422195103019476,1,colour,0.06,3.9
78,23,1,1,8,12,362,592.639304342214,593.8238338320516,"[63, 0, 191]",191,a,0.6623104666359723,0,colour,0.06,3.9
78,23,1,1,8,13,363,594.3425137544982,595.1678615300916,"[92, 0, 162]",162,l,0.30306219263002276,1,colour,0.06,3.9
78,23,1,1,8,14,364,595.6863461048342,596.6558423326351,"[78, 0, 176]",176,l,0.4472496351227164,1,colour,0.06,3.9
78,23,1,1,8,15,365,597.1708453078754,597.991834783461,"[59, 0, 195]",195,a,0.2986818365752697,0,colour,0.06,3.9
78,23,1,1,8,16,366,598.4990608743392,599.4078732985072,"[82, 0, 172]",172,l,0.3866190011613071,1,colour,0.06,3.9
78,23,1,1,8,17,367,599.9211035724729,600.7918322626501,"[51, 0, 203]",203,a,0.3483970267698169,0,colour,0.06,3.9
78,23,1,1,8,18,368,601.3117969110608,602.1278475564905,"[95, 0, 159]",159,l,0.2937241019681096,1,colour,0.06,3.9
78,23,1,1,8,19,369,602.6399738802575,603.487869344186,"[85, 0, 169]",169,l,0.32563705602660775,1,colour,0.06,3.9
78,23,1,1,8,20,370,603.9994789417833,604.9278210112825,"[75, 0, 179]",179,l,0.4060202524997294,1,colour,0.06,3.9
78,23,1,1,8,21,371,605.4371317294426,606.2558451681398,"[48, 0, 206]",206,a,0.29647905519232154,1,colour,0.06,3.9
78,23,1,1,8,22,372,606.7653819541447,607.6318504111841,"[90, 0, 164]",164,l,0.3442734582349658,1,colour,0.06,3.9
78,23,1,1,8,23,373,608.1403572894633,609.063811335247,"[56, 0, 198]",198,a,0.40092270262539387,0,colour,0.06,3.9
78,23,1,1,8,24,374,609.5780738801695,610.9358196314424,"[61, 0, 193]",193,a,0.8354983711615205,0,colour,0.06,3.9
78,23,1,1,8,25,375,611.4532845388167,612.3678770479746,"[96, 0, 158]",158,l,0.392400661483407,1,colour,0.06,3.9
78,23,1,1,8,26,376,612.8751685172319,613.927846217528,"[79, 0, 175]",175,l,0.5305886464193463,1,colour,0.06,3.9
78,23,1,1,8,27,377,614.4378378954716,615.5438604713418,"[81, 0, 173]",173,l,0.5837929188273847,1,colour,0.06,3.9
78,23,1,1,8,28,378,616.0629409356043,616.9678574344143,"[80, 0, 174]",174,l,0.38258444191887975,1,colour,0.06,3.9
78,23,1,1,8,29,379,617.4849647292867,618.3278583479114,"[60, 0, 194]",194,a,0.32094398606568575,0,colour,0.06,3.9
78,23,1,1,8,30,380,618.8444150462747,619.7678194674663,"[72, 0, 182]",182,l,0.4019207083620131,1,colour,0.06,3.9
78,23,1,1,8,31,381,620.2819957602769,621.11186528299,"[76, 0, 178]",178,l,0.30757921328768134,1,colour,0.06,3.9
78,23,1,1,8,32,382,621.6259423261508,622.5998571128584,"[68, 0, 186]",186,l,0.45171545585617423,1,colour,0.06,3.9
78,23,1,1,8,33,383,623.1104084462859,624.0078824358061,"[70, 0, 184]",184,l,0.3751785601489246,1,colour,0.06,3.9
78,23,1,1,8,34,384,624.5167429875582,625.2958453572355,"[64, 0, 190]",190,a,0.2568857092410326,0,colour,0.06,3.9
78,23,1,1,8,35,385,625.8137218337506,626.6398639972322,"[55, 0, 199]",199,a,0.3039381061680615,0,colour,0.06,3.9
78,23,1,1,8,36,386,627.1575829354115,628.2798662343994,"[89, 0, 165]",165,l,0.6000500973314047,1,colour,0.06,3.9
78,23,1,1,8,37,387,628.7983185136691,629.7358624031767,"[54, 0, 200]",200,a,0.41526775853708386,0,colour,0.06,3.9
78,23,1,1,8,38,388,630.2515542153269,631.5918124127202,"[98, 0, 156]",156,l,0.818225069437176,1,colour,0.06,3.9
78,23,1,1,8,39,389,632.1111433627084,633.2078369068913,"[83, 0, 171]",171,l,0.5743985082954168,1,colour,0.06,3.9
78,23,1,1,8,40,390,633.7206150460988,634.6718635973521,"[74, 0, 180]",180,l,0.4289905373007059,1,colour,0.06,3.9
78,23,1,1,8,41,391,635.1895258212462,636.359861492645,"[67, 0, 187]",187,l,0.6481134970672429,1,colour,0.06,3.9
78,23,1,1,8,42,392,636.8770896983333,637.7838332490064,"[62, 0, 192]",192,a,0.3844878999516368,0,colour,0.06,3.9
78,23,1,1,8,43,393,638.29916469194,639.1758636948653,"[94, 0, 160]",160,l,0.3545630811713636,1,colour,0.06,3.9
78,23,1,1,8,44,394,639.689820615109,640.503824442625,"[52, 0, 202]",202,l,0.2918064654804766,1,colour,0.06,3.9
78,23,1,1,8,45,395,641.0180865935981,642.4318853057921,"[66, 0, 188]",188,l,0.8917238367721438,1,colour,0.06,3.9
78,23,1,1,8,46,396,642.9400873472914,643.9598332140595,"[86, 0, 168]",168,l,0.4975008494220674,1,colour,0.06,3.9
78,23,1,1,8,47,397,644.4714502948336,645.3438319573179,"[37, 0, 217]",217,a,0.3500996236689389,1,colour,0.06,3.9
78,23,1,1,8,48,398,645.8622558796778,646.7598602320068,"[50, 0, 204]",204,a,0.3754818211309612,1,colour,0.06,3.9
78,23,1,1,8,49,399,647.2686242917553,648.3678246662021,"[88, 0, 166]",166,l,0.5772357755340636,1,colour,0.06,3.9
78,23,1,1,8,50,400,648.8780309902504,649.9918194231577,"[91, 0, 163]",163,l,0.5914886710233986,1,colour,0.06,3.9
78,23,1,1,9,1,401,654.4402738334611,655.3278362927958,"[83, 0, 171]",171,l,0.36462033446878195,1,colour,0.06,3.9
78,23,1,1,9,2,402,655.8473929162137,656.7278322754428,"[76, 0, 178]",178,l,0.3586957077495754,1,colour,0.06,3.9
78,23,1,1,9,3,403,657.2380929500796,658.1518272687681,"[99, 0, 155]",155,l,0.3914613383822143,1,colour,0.06,3.9
78,23,1,1,9,4,404,658.6600084365346,659.5118565396406,"[95, 0, 159]",159,l,0.3295266800560057,1,colour,0.06,3.9
78,23,1,1,9,5,405,660.0195580027066,660.8478092118166,"[97, 0, 157]",157,l,0.30592821072787046,1,colour,0.06,3.9
78,23,1,1,9,6,406,661.3633560887538,662.2078530546278,"[79, 0, 175]",175,l,0.3221546686254442,1,colour,0.06,3.9
78,23,1,1,9,7,407,662.7228280669078,663.5438730744645,"[73, 0, 181]",181,l,0.2987066488713026,1,colour,0.06,3.9
78,23,1,1,9,8,408,664.0511704515666,665.0878867520951,"[66, 0, 188]",188,l,0.51468750461936,1,colour,0.06,3.9
78,23,1,1,9,9,409,665.5981277348474,666.5358709101565,"[93, 0, 161]",161,l,0.41542293364182115,1,colour,0.06,3.9
78,23,1,1,9,10,410,667.051423300989,667.9038747758605,"[55, 0, 199]",199,a,0.3305455595254898,0,colour,0.06,3.9
78,23,1,1,9,11,411,668.4108354146592,669.3198884786107,"[84, 0, 170]",170,l,0.38694668048992753,1,colour,0.06,3.9
78,23,1,1,9,12,412,669.8328434545547,670.7998344274238,"[70, 0, 184]",184,l,0.4459239491261542,1,colour,0.06,3.9
78,23,1,1,9,13,413,671.3173540793359,672.1758207655512,"[80, 0, 174]",174,l,0.33629649970680475,1,colour,0.06,3.9
78,23,1,1,9,14,414,672.6925735990517,673.5838693249971,"[50, 0, 204]",204,a,0.3691286901012063,1,colour,0.06,3.9
78,23,1,1,9,15,415,674.0988053469919,674.9678097786382,"[61, 0, 193]",193,a,0.346657014451921,0,colour,0.06,3.9
78,23,1,1,9,16,416,675.4738913532346,676.3358845370822,"[91, 0, 163]",163,l,0.3397170528769493,1,colour,0.06,3.9
78,23,1,1,9,17,417,676.84901516838,677.7758720442653,"[59, 0, 195]",195,a,0.4045980740338564,0,colour,0.06,3.9
78,23,1,1,9,18,418,678.286608485505,679.2318552159704,"[94, 0, 160]",160,l,0.42300801491364837,1,colour,0.06,3.9
78,23,1,1,9,19,419,679.7398804207332,680.8078385610133,"[67, 0, 187]",187,l,0.5456481385044754,1,colour,0.06,3.9
78,23,1,1,9,20,420,681.3181516174227,682.5838697189465,"[62, 0, 192]",192,l,0.7436010842211545,1,colour,0.06,3.9
78,23,1,1,9,21,421,683.0995587743819,684.0638259076513,"[78, 0, 176]",176,l,0.4420851315371692,1,colour,0.06,3.9
78,23,1,1,9,22,422,684.584024106618,685.4158152043819,"[71, 0, 183]",183,l,0.3097083452157676,1,colour,0.06,3.9
78,23,1,1,9,23,423,685.9278926914558,686.7198175075464,"[20, 0, 234]",234,a,0.2695510112680495,1,colour,0.06,3.9
78,23,1,1,9,24,424,687.2253862940706,688.103807979729,"[58, 0, 196]",196,a,0.3569836588576436,0,colour,0.06,3.9
78,23,1,1,9,25,425,688.615594020579,689.5118226688355,"[57, 0, 197]",197,a,0.37399387126788497,0,colour,0.06,3.9
78,23,1,1,9,26,426,690.02195770666,691.0958554400131,"[74, 0, 180]",180,l,0.5516235716640949,1,colour,0.06,3.9
78,23,1,1,9,27,427,691.6158334789798,692.7280418016016,"[75, 0, 179]",179,l,0.5899573978967965,1,colour,0.06,3.9
78,23,1,1,9,28,428,693.2409849618562,694.1918526641093,"[54, 0, 200]",200,a,0.4286675835028291,0,colour,0.06,3.9
78,23,1,1,9,29,429,694.7097992449999,695.7518395567313,"[81, 0, 173]",173,l,0.5197476390749216,1,colour,0.06,3.9
78,23,1,1,9,30,430,696.2725044633262,697.1358331795782,"[8, 0, 246]",246,a,0.34110732981935143,1,colour,0.06,3.9
78,23,1,1,9,31,431,697.6474983096123,698.567857906688,"[51, 0, 203]",203,a,0.3980302968993783,0,colour,0.06,3.9
78,23,1,1,9,32,432,699.0851377067156,699.9838546742685,"[68, 0, 186]",186,l,0.37662515649572015,1,colour,0.06,3.9
78,23,1,1,9,33,433,700.4915533801541,701.5358193162829,"[90, 0, 164]",164,l,0.5221804264001548,1,colour,0.06,3.9
78,23,1,1,9,34,434,702.0541510786861,702.9598347898573,"[98, 0, 156]",156,l,0.3834237279370427,1,colour,0.06,3.9
78,23,1,1,9,35,435,703.4761669957079,704.4718595012091,"[96, 0, 158]",158,l,0.47341164853423834,1,colour,0.06,3.9
78,23,1,1,9,36,436,704.991868654266,705.9118603989482,"[92, 0, 162]",162,l,0.39768607541918755,1,colour,0.06,3.9
78,23,1,1,9,37,437,706.4294749679975,707.4318849123083,"[64, 0, 190]",190,l,0.48018146865069866,1,colour,0.06,3.9
78,23,1,1,9,38,438,707.9453069893643,708.815847421065,"[52, 0, 202]",202,a,0.3483005343005061,0,colour,0.06,3.9
78,23,1,1,9,39,439,709.3359436141327,710.2638122807257,"[65, 0, 189]",189,l,0.40562522504478693,1,colour,0.06,3.9
78,23,1,1,9,40,440,710.7734172018245,712.0318448184989,"[60, 0, 194]",194,a,0.7360786241479218,0,colour,0.06,3.9
78,23,1,1,9,41,441,712.5394596355036,713.3918248582631,"[89, 0, 165]",165,l,0.3301225686445832,1,colour,0.06,3.9
78,23,1,1,9,42,442,713.8988567832857,714.8958178670146,"[85, 0, 169]",169,l,0.4748161034658551,1,colour,0.06,3.9
78,23,1,1,9,43,443,715.414638786111,717.0798538676463,"[69, 0, 185]",185,l,1.1429283167235553,1,colour,0.06,3.9
78,23,1,1,9,44,444,717.586640032474,718.5760042192414,"[82, 0, 172]",172,l,0.4671687944792211,1,colour,0.06,3.9
78,23,1,1,9,45,445,719.0867217555642,719.9278139220551,"[86, 0, 168]",168,l,0.3188802325166762,1,colour,0.06,3.9
78,23,1,1,9,46,446,720.4462575367652,721.327837868128,"[87, 0, 167]",167,l,0.35938336327672005,1,colour,0.06,3.9
78,23,1,1,9,47,447,721.8371863951907,722.7358462554403,"[11, 0, 243]",243,a,0.37663657823577523,1,colour,0.06,3.9
78,23,1,1,9,48,448,723.243296444416,724.1278282580897,"[77, 0, 177]",177,l,0.36227301182225347,1,colour,0.06,3.9
78,23,1,1,9,49,449,724.6340953339823,725.5678110392764,"[88, 0, 166]",166,l,0.4115309468470514,1,colour,0.06,3.9
78,23,1,1,9,50,450,726.0873247338459,726.9598418790847,"[72, 0, 182]",182,l,0.35028433753177524,1,colour,0.06,3.9
78,23,1,1,10,1,451,731.430691558402,733.2478500930592,"[52, 0, 202]",202,a,1.2941065267659724,0,colour,0.06,3.8
78,23,1,1,10,2,452,733.7599000106566,734.6318279621191,"[90, 0, 164]",164,l,0.3498223558999598,1,colour,0.06,3.8
78,23,1,1,10,3,453,735.150501976721,735.9598139156587,"[92, 0, 162]",162,l,0.2870696787722409,1,colour,0.06,3.8
78,23,1,1,10,4,454,736.4787896168418,737.2798611144535,"[85, 0, 169]",169,l,0.278846173081547,1,colour,0.06,3.8
78,23,1,1,10,5,455,737.7913387734443,738.599838601891,"[80, 0, 174]",174,l,0.2863142821006477,1,colour,0.06,3.8
78,23,1,1,10,6,456,739.1195854535326,739.9042981606908,"[82, 0, 172]",172,l,0.2625216469168663,1,colour,0.06,3.8
78,23,1,1,10,7,457,740.4165568165481,741.535836645402,"[59, 0, 195]",195,a,0.5969800669699907,0,colour,0.06,3.8
78,23,1,1,10,8,458,742.0416866382584,742.8798048729077,"[49, 0, 205]",205,a,0.31587085453793406,1,colour,0.06,3.8
78,23,1,1,10,9,459,743.3855193825439,744.2957831295207,"[79, 0, 175]",175,l,0.38855160353705287,1,colour,0.06,3.8
78,23,1,1,10,10,460,744.8074821303599,745.7198068737052,"[72, 0, 182]",182,l,0.3900879970751703,1,colour,0.06,3.8
78,23,1,1,10,11,461,746.2295145890675,747.1918085534126,"[65, 0, 189]",189,l,0.44009030144661665,1,colour,0.06,3.8
78,23,1,1,10,12,462,747.6983851920813,748.4318482843228,"[84, 0, 170]",170,l,0.21131377993151546,1,colour,0.06,3.8
78,23,1,1,10,13,463,748.9484829641879,749.8478076364845,"[70, 0, 184]",184,l,0.3771446398459375,1,colour,0.06,3.8
78,23,1,1,10,14,464,750.3548651612364,751.151825693436,"[87, 0, 167]",167,l,0.27468282589688897,1,colour,0.06,3.8
78,23,1,1,10,15,465,751.6674214070663,752.4638770287856,"[93, 0, 161]",161,l,0.2742822845466435,1,colour,0.06,3.8
78,23,1,1,10,16,466,752.9799827733077,753.8878346066922,"[71, 0, 183]",183,l,0.3855697945691645,1,colour,0.06,3.8
78,23,1,1,10,17,467,754.4020290165208,755.1918317899108,"[75, 0, 179]",179,l,0.2677495595999062,1,colour,0.06,3.8
78,23,1,1,10,18,468,755.6989842317998,756.3358207340352,"[83, 0, 171]",171,l,0.11458872817456722,1,colour,0.06,3.8
78,23,1,1,10,19,469,756.8553517577238,757.6958362199366,"[51, 0, 203]",203,a,0.3181488602422178,0,colour,0.06,3.8
78,23,1,1,10,20,470,758.2148288562894,759.3118150280789,"[88, 0, 166]",166,l,0.5752972653135657,1,colour,0.06,3.8
78,23,1,1,10,21,471,759.8242800594307,760.6638909708709,"[50, 0, 204]",204,a,0.3172158389352262,1,colour,0.06,3.8
78,23,1,1,10,22,472,761.183831200935,762.0878127091564,"[86, 0, 168]",168,l,0.38175460789352655,1,colour,0.06,3.8
78,23,1,1,10,23,473,762.6057797702961,763.5118565396406,"[98, 0, 156]",156,l,0.3845591861754656,1,colour,0.06,3.8
78,23,1,1,10,24,474,764.0278677609749,765.671829726547,"[66, 0, 188]",188,l,1.1217614533379674,1,colour,0.06,3.8
78,23,1,1,10,25,475,766.1842148071155,767.0718213766813,"[97, 0, 157]",157,l,0.3654584386385977,1,colour,0.06,3.8
78,23,1,1,10,26,476,767.590524142608,768.599827574566,"[57, 0, 197]",197,a,0.48685676604509354,0,colour,0.06,3.8
78,23,1,1,10,27,477,769.1063597085886,770.0238308385015,"[77, 0, 177]",177,l,0.39524068497121334,1,colour,0.06,3.8
78,23,1,1,10,28,478,770.5439963485114,771.6797830541618,"[69, 0, 185]",185,l,0.6138122607953846,1,colour,0.06,3.8
78,23,1,1,10,29,479,772.2003723424859,773.0878142844886,"[96, 0, 158]",158,l,0.3653001128695905,1,colour,0.06,3.8
78,23,1,1,10,30,480,773.6067340592854,774.4318419829942,"[91, 0, 163]",163,l,0.3028853558935225,1,colour,0.06,3.8
78,23,1,1,10,31,481,774.9505648347549,775.71982420329,"[20, 0, 234]",234,a,0.24707815470173955,1,colour,0.06,3.8
78,23,1,1,10,32,482,776.2318556099199,777.5118092778139,"[61, 0, 193]",193,a,0.7576054632663727,0,colour,0.06,3.8
78,23,1,1,10,33,483,778.0288846716285,778.9518479849212,"[54, 0, 200]",200,a,0.40063677029684186,0,colour,0.06,3.8
78,23,1,1,10,34,484,779.4665496684611,780.7117972262204,"[68, 0, 186]",186,a,0.7230549221858382,0,colour,0.06,3.8
78,23,1,1,10,35,485,781.2322955359705,782.2399266976863,"[73, 0, 181]",181,l,0.4854629444889724,1,colour,0.06,3.8
78,23,1,1,10,36,486,782.7481023515575,783.6477901497856,"[62, 0, 192]",192,l,0.377549119759351,1,colour,0.06,3.8
78,23,1,1,10,37,487,784.1543640312739,784.9918087893166,"[81, 0, 173]",173,l,0.315034719184041,1,colour,0.06,3.8
78,23,1,1,10,38,488,785.4982204069383,786.3918118616566,"[33, 0, 221]",221,a,0.37136455485597253,1,colour,0.06,3.8
78,23,1,1,10,39,489,786.9046293850988,787.799797012005,"[95, 0, 159]",159,l,0.37294387724250555,1,colour,0.06,3.8
78,23,1,1,10,40,490,788.3110068556853,789.431828985922,"[55, 0, 199]",199,a,0.5986074390821159,0,colour,0.06,3.8
78,23,1,1,10,41,491,789.951790089719,790.7278054938652,"[89, 0, 165]",165,l,0.2540149656124413,1,colour,0.06,3.8
78,23,1,1,10,42,492,791.2330718068406,792.1118306242861,"[58, 0, 196]",196,a,0.35648701898753643,0,colour,0.06,3.8
78,23,1,1,10,43,493,792.6237907451577,793.5359421963803,"[56, 0, 198]",198,a,0.39041173877194524,0,colour,0.06,3.8
78,23,1,1,10,44,494,794.0456034373492,796.8558354009874,"[60, 0, 194]",194,a,2.2877841158770025,0,colour,0.06,3.8
78,23,1,1,10,45,495,797.3742116680369,798.0158184338361,"[99, 0, 155]",155,l,0.11932315165176988,1,colour,0.06,3.8
78,23,1,1,10,46,496,798.5305819511414,799.3278185697272,"[74, 0, 180]",180,l,0.2750687953084707,1,colour,0.06,3.8
78,23,1,1,10,47,497,799.8430834524333,800.8798056608066,"[53, 0, 201]",201,a,0.5144551354460418,0,colour,0.06,3.8
78,23,1,1,10,48,498,801.3901084773242,802.3038325556554,"[76, 0, 178]",178,l,0.3920225687325001,1,colour,0.06,3.8
78,23,1,1,10,49,499,802.8121086400934,804.3278370802291,"[63, 0, 191]",191,l,0.993421982973814,1,colour,0.06,3.8
78,23,1,1,10,50,500,804.8435084125958,805.7038277508691,"[94, 0, 160]",160,l,0.3380562043748796,1,colour,0.06,3.8
78,23,1,1,11,1,501,810.2026015110314,811.2638213392347,"[79, 0, 175]",175,l,0.5381583678536117,1,colour,0.06,3.8
78,23,1,1,11,2,502,811.7815926587209,812.5918305297382,"[97, 0, 157]",157,l,0.2879593772813678,1,colour,0.06,3.8
78,23,1,1,11,3,503,813.1098704524338,814.1918144607916,"[56, 0, 198]",198,a,0.5599585357122123,0,colour,0.06,3.8
78,23,1,1,11,4,504,814.7036698185839,815.6558257909492,"[70, 0, 184]",184,l,0.4298680261708796,1,colour,0.06,3.8
78,23,1,1,11,5,505,816.1726195844822,816.9277690234594,"[36, 0, 218]",218,a,0.2329339599236846,1,colour,0.06,3.8
78,23,1,1,11,6,506,817.4383569848724,818.4317955090664,"[52, 0, 202]",202,a,0.471249433234334,0,colour,0.06,3.8
78,23,1,1,11,7,507,818.9385099937208,819.7678234060295,"[67, 0, 187]",187,l,0.30715937353670597,1,colour,0.06,3.8
78,23,1,1,11,8,508,820.282244276721,821.1358276656829,"[81, 0, 173]",173,l,0.33131946716457605,1,colour,0.06,3.8
78,23,1,1,11,9,509,821.6417733631097,822.4238157938235,"[82, 0, 172]",172,l,0.2599041457287967,1,colour,0.06,3.8
78,23,1,1,11,10,510,822.9386966768652,823.7917810627259,"[84, 0, 170]",170,l,0.3308003777638078,1,colour,0.06,3.8
78,23,1,1,11,11,511,824.2982214307413,825.2558707683347,"[78, 0, 176]",176,l,0.43546379124745727,1,colour,0.06,3.8
78,23,1,1,11,12,512,825.7670644647442,826.6237659328617,"[73, 0, 181]",181,l,0.3344438481144607,1,colour,0.06,3.8
78,23,1,1,11,13,513,827.1421831599437,827.8157859812491,"[87, 0, 167]",167,l,0.15128336707130075,1,colour,0.06,3.8
78,23,1,1,11,14,514,828.329631049186,829.0877938042395,"[72, 0, 182]",182,l,0.235836211591959,1,colour,0.06,3.8
78,23,1,1,11,15,515,829.5954873906448,830.3918201322667,"[54, 0, 200]",200,a,0.2740853615105152,0,colour,0.06,3.8
78,23,1,1,11,16,516,830.908125163056,831.7118074661121,"[92, 0, 162]",162,l,0.28170628286898136,1,colour,0.06,3.8
78,23,1,1,11,17,517,832.2207822338678,833.135809155181,"[58, 0, 196]",196,a,0.39281419990584254,0,colour,0.06,3.8
78,23,1,1,11,18,518,833.6427241074853,834.6558273662813,"[62, 0, 192]",192,a,0.4909051093272865,0,colour,0.06,3.8
78,23,1,1,11,19,519,835.1740126181394,835.9517995421775,"[88, 0, 166]",166,l,0.2554599866271019,1,colour,0.06,3.8
78,23,1,1,11,20,520,836.4710083999671,837.4478010195307,"[42, 0, 212]",212,a,0.45447277184575796,1,colour,0.06,3.8
78,23,1,1,11,21,521,837.9554902734235,838.7198013598099,"[90, 0, 164]",164,l,0.2426851950585842,1,colour,0.06,3.8
78,23,1,1,11,22,522,839.2368452460505,840.119788678363,"[99, 0, 155]",155,l,0.36064524622634053,1,colour,0.06,3.8
78,23,1,1,11,23,523,840.6276338952594,841.4157888167538,"[50, 0, 204]",204,a,0.2659654370509088,1,colour,0.06,3.8
78,23,1,1,11,24,524,841.9245268828236,842.8158245780505,"[75, 0, 179]",179,l,0.3689227090217173,1,colour,0.06,3.8
78,23,1,1,11,25,525,843.3309618551284,844.5358291622251,"[55, 0, 199]",199,a,0.6825734530575573,0,colour,0.06,3.8
78,23,1,1,11,26,526,845.0497746611945,845.9119639806449,"[57, 0, 197]",197,a,0.33986828988417983,0,colour,0.06,3.8
78,23,1,1,11,27,527,846.4249425875023,847.2717971159145,"[23, 0, 231]",231,a,0.32463196059688926,1,colour,0.06,3.8
78,23,1,1,11,28,528,847.7844055071473,848.6478291405365,"[68, 0, 186]",186,l,0.34118964383378625,1,colour,0.06,3.8
78,23,1,1,11,29,529,849.1594938766211,849.9357885173522,"[93, 0, 161]",161,l,0.25405159313231707,1,colour,0.06,3.8
78,23,1,1,11,30,530,850.440907925833,851.2558636791073,"[51, 0, 203]",203,a,0.29268001625314355,0,colour,0.06,3.8
78,23,1,1,11,31,531,851.7690596887842,852.5677893776447,"[64, 0, 190]",190,l,0.2754342844709754,1,colour,0.06,3.8
78,23,1,1,11,32,532,853.0816714670509,854.0237969676964,"[76, 0, 178]",178,l,0.41985291428864,1,colour,0.06,3.8
78,23,1,1,11,33,533,854.5349461594597,855.4078185539693,"[86, 0, 168]",168,l,0.3507628603838384,1,colour,0.06,3.8
78,23,1,1,11,34,534,855.9258116087876,856.7438177000731,"[94, 0, 160]",160,l,0.295864655636251,1,colour,0.06,3.8
78,23,1,1,11,35,535,857.2538692425005,858.1438239226118,"[69, 0, 185]",185,l,0.36766633996739984,1,colour,0.06,3.8
78,23,1,1,11,36,536,858.6602699500509,859.5198346795514,"[71, 0, 183]",183,l,0.33727560145780444,1,colour,0.06,3.8
78,23,1,1,11,37,537,860.0354646579362,860.8237916901708,"[80, 0, 174]",174,l,0.2662434922531247,1,colour,0.06,3.8
78,23,1,1,11,38,538,861.3323560701683,862.255832565017,"[59, 0, 195]",195,a,0.40124959452077746,0,colour,0.06,3.8
78,23,1,1,11,39,539,862.769973017741,863.5757824839093,"[61, 0, 193]",193,l,0.28348252875730395,1,colour,0.06,3.8
78,23,1,1,11,40,540,864.082593461033,864.8637981810607,"[53, 0, 201]",201,a,0.2589081092737615,0,colour,0.06,3.8
78,23,1,1,11,41,541,865.3795478884131,866.1598128918558,"[96, 0, 158]",158,l,0.25795224448665977,1,colour,0.06,3.8
78,23,1,1,11,42,542,866.6765409130603,867.4958329116926,"[95, 0, 159]",159,l,0.2970087784342468,1,colour,0.06,3.8
78,23,1,1,11,43,543,868.004842731636,868.8398283147253,"[85, 0, 169]",169,l,0.3127047261223197,1,colour,0.06,3.8
78,23,1,1,11,44,544,869.3493016916327,870.4157970873639,"[60, 0, 194]",194,a,0.544973086565733,0,colour,0.06,3.8
78,23,1,1,11,45,545,870.9269088637084,871.75982754305,"[74, 0, 180]",180,l,0.31065003108233213,1,colour,0.06,3.8
78,23,1,1,11,46,546,872.2707333378494,873.247812283691,"[91, 0, 163]",163,l,0.4547902117483318,1,colour,0.06,3.8
78,23,1,1,11,47,547,873.7552156052552,874.6557923140936,"[83, 0, 171]",171,l,0.37824977142736316,1,colour,0.06,3.8
78,23,1,1,11,48,548,875.1615773220547,876.2878305898048,"[65, 0, 189]",189,l,0.6039621704258025,1,colour,0.06,3.8
78,23,1,1,11,49,549,876.8023333805613,877.7277913154103,"[63, 0, 191]",191,a,0.403383846860379,0,colour,0.06,3.8
78,23,1,1,11,50,550,878.2399046421051,879.0717847491615,"[89, 0, 165]",165,l,0.3095630160532892,1,colour,0.06,3.8
78,23,1,1,12,1,551,883.4895518547855,884.3757807509974,"[82, 0, 172]",172,l,0.36305873468518257,1,colour,0.06,3.8
78,23,1,1,12,2,552,884.8810856607743,885.7118295216933,"[72, 0, 182]",182,l,0.3084504008293152,1,colour,0.06,3.8
78,23,1,1,12,3,553,886.2249380974099,887.1517870966345,"[54, 0, 200]",200,a,0.4046047697775066,0,colour,0.06,3.8
78,23,1,1,12,4,554,887.6625451990403,889.7998379720375,"[92, 0, 162]",162,l,1.615041060373187,1,colour,0.06,3.8
78,23,1,1,12,5,555,890.3190535251051,891.2078140638769,"[74, 0, 180]",180,l,0.3666222537867725,1,colour,0.06,3.8
78,23,1,1,12,6,556,891.7252699127421,892.6158055160195,"[96, 0, 158]",158,l,0.3681243830360472,1,colour,0.06,3.8
78,23,1,1,12,7,557,893.1317938943394,893.9358137235977,"[30, 0, 224]",224,a,0.2817350337281823,1,colour,0.06,3.8
78,23,1,1,12,8,558,894.444322177209,895.3358164019883,"[75, 0, 179]",179,l,0.36921415524557233,1,colour,0.06,3.8
78,23,1,1,12,9,559,895.8507780232467,896.6718053077348,"[57, 0, 197]",197,l,0.2989145992323756,1,colour,0.06,3.8
78,23,1,1,12,10,560,897.1789609002881,897.9997743265703,"[91, 0, 163]",163,l,0.29852981213480234,1,colour,0.06,3.8
78,23,1,1,12,11,561,898.5071721342392,899.3757744492032,"[58, 0, 196]",196,l,0.34623205475509167,1,colour,0.06,3.8
78,23,1,1,12,12,562,899.8822912233882,900.7037749756128,"[39, 0, 215]",215,a,0.2992391288280487,1,colour,0.06,3.8
78,23,1,1,12,13,563,901.2105363281444,902.0558253182098,"[95, 0, 159]",159,l,0.32290455140173435,1,colour,0.06,3.8
78,23,1,1,12,14,564,902.5700567495078,903.4718059380539,"[3, 0, 251]",251,a,0.3795313467271626,1,colour,0.06,3.8
78,23,1,1,12,15,565,903.9920513988473,904.8317658919841,"[88, 0, 166]",166,l,0.3174946825020015,1,colour,0.06,3.8
78,23,1,1,12,16,566,905.3514989586547,906.2637957390398,"[67, 0, 187]",187,l,0.390164403244853,1,colour,0.06,3.8
78,23,1,1,12,17,567,906.7734699770808,907.647772426717,"[63, 0, 191]",191,l,0.3520712172612548,1,colour,0.06,3.8
78,23,1,1,12,18,568,908.164200337138,909.3037730851211,"[85, 0, 169]",169,l,0.6172666847705841,1,colour,0.06,3.8
78,23,1,1,12,19,569,909.820653130766,910.7597712227143,"[79, 0, 175]",175,l,0.4169112779200077,1,colour,0.06,3.8
78,23,1,1,12,20,570,911.2737332633696,912.2157536069863,"[66, 0, 188]",188,l,0.4196618990972638,1,colour,0.06,3.8
78,23,1,1,12,21,571,912.7270922386087,913.5997787374072,"[80, 0, 174]",174,l,0.35038831224665046,1,colour,0.06,3.8
78,23,1,1,12,22,572,914.1177725801244,915.055775300134,"[50, 0, 204]",204,a,0.41580732772126794,1,colour,0.06,3.8
78,23,1,1,12,23,573,915.5710744475946,916.3838010323234,"[81, 0, 173]",173,l,0.2904886566102505,1,colour,0.06,3.8
78,23,1,1,12,24,574,916.8993475153111,917.7278137644753,"[98, 0, 156]",156,l,0.306289367377758,1,colour,0.06,3.8
78,23,1,1,12,25,575,918.2431377246976,919.1197752873413,"[68, 0, 186]",186,l,0.354394908528775,1,colour,0.06,3.8
78,23,1,1,12,26,576,919.6339271613397,920.1997646377422,"[78, 0, 176]",176,l,0.04369643423706293,1,colour,0.06,3.8
78,23,1,1,12,27,577,920.7120378660038,921.6237820805982,"[93, 0, 161]",161,l,0.3893979787826538,1,colour,0.06,3.8
78,23,1,1,12,28,578,922.134027001448,923.0317825907841,"[62, 0, 192]",192,l,0.3755156919360161,1,colour,0.06,3.8
78,23,1,1,12,29,579,923.5404009274207,924.2958307848312,"[76, 0, 178]",178,l,0.23314388003200293,1,colour,0.06,3.8
78,23,1,1,12,30,580,924.8061670782045,925.7118039214984,"[56, 0, 198]",198,a,0.3832756415940821,0,colour,0.06,3.8
78,23,1,1,12,31,581,926.228195598349,927.0958121167496,"[60, 0, 194]",194,a,0.34536716900765896,0,colour,0.06,3.8
78,23,1,1,12,32,582,927.6032414319925,928.4797773826867,"[94, 0, 160]",160,l,0.35422909958288074,1,colour,0.06,3.8
78,23,1,1,12,33,583,928.9940296877176,930.0797758861445,"[99, 0, 155]",155,l,0.5635598646476865,1,colour,0.06,3.8
78,23,1,1,12,34,584,930.5878637121059,931.4958222778514,"[55, 0, 199]",199,a,0.3856465946882963,0,colour,0.06,3.8
78,23,1,1,12,35,585,932.0100978198461,932.9997696001083,"[87, 0, 167]",167,l,0.4675716985948384,1,colour,0.06,3.8
78,23,1,1,12,36,586,933.5099641089328,934.399812056683,"[84, 0, 170]",170,l,0.3675336134620011,1,colour,0.06,3.8
78,23,1,1,12,37,587,934.9163002260029,935.8557991669513,"[59, 0, 195]",195,a,0.41716767149046063,0,colour,0.06,3.8
78,23,1,1,12,38,588,936.3702751765959,937.33576717088,"[83, 0, 171]",171,l,0.4439681093208492,1,colour,0.06,3.8
78,23,1,1,12,39,589,937.854022921063,938.783823796548,"[65, 0, 189]",189,l,0.4075704305432737,1,colour,0.06,3.8
78,23,1,1,12,40,590,939.2916560168378,940.2477736868896,"[71, 0, 183]",183,l,0.43392306519672275,1,colour,0.06,3.8
78,23,1,1,12,41,591,940.760538041126,941.6397600220516,"[53, 0, 201]",201,a,0.3569596344605088,0,colour,0.06,3.8
78,23,1,1,12,42,592,942.1512762783095,943.0077922446653,"[77, 0, 177]",177,l,0.33437689393758774,1,colour,0.06,3.8
78,23,1,1,12,43,593,943.5263843396679,944.0557796321809,"[70, 0, 184]",184,l,0.007122706156224012,1,colour,0.06,3.8
78,23,1,1,12,44,594,944.5734166502953,945.4077799567021,"[90, 0, 164]",164,l,0.3121415260247886,1,colour,0.06,3.8
78,23,1,1,12,45,595,945.9171592043713,946.8398042903282,"[61, 0, 193]",193,a,0.40044575510546565,0,colour,0.06,3.8
78,23,1,1,12,46,596,947.3548277458176,948.1037835613824,"[73, 0, 181]",181,l,0.22664266312494874,1,colour,0.06,3.8
78,23,1,1,12,47,597,948.6205655396916,949.4477864475921,"[69, 0, 185]",185,l,0.3049498968757689,1,colour,0.06,3.8
78,23,1,1,12,48,598,949.9643860748038,950.7837639320642,"[86, 0, 168]",168,l,0.29786933213472366,1,colour,0.06,3.8
78,23,1,1,12,49,599,951.2926091239788,952.2157547883689,"[89, 0, 165]",165,l,0.400887256488204,1,colour,0.06,3.8
78,23,1,1,12,50,600,952.7301843240857,953.6397938928567,"[64, 0, 190]",190,l,0.3873539175838232,1,colour,0.06,3.8
78,23,1,1,13,1,601,958.2924255919643,960.7677970184013,"[59, 0, 195]",195,a,1.9523194190114737,0,colour,0.06,3.8
78,23,1,1,13,2,602,961.2777642779984,962.5518039530143,"[52, 0, 202]",202,a,0.7517922949045897,0,colour,0.06,3.8
78,23,1,1,13,3,603,963.0591608006507,963.9437969834544,"[69, 0, 185]",185,l,0.36239313473924994,1,colour,0.06,3.8
78,23,1,1,13,4,604,964.4499848959967,965.2317957454361,"[44, 0, 210]",210,a,0.259612699970603,1,colour,0.06,3.8
78,23,1,1,13,5,605,965.7468833979219,966.4477651799098,"[96, 0, 158]",158,l,0.17867024196311831,1,colour,0.06,3.8
78,23,1,1,13,6,606,966.9657743824646,969.1037752903067,"[95, 0, 159]",159,l,1.6165589429438114,1,colour,0.06,3.8
78,23,1,1,13,7,607,969.6221968499012,970.7837639320642,"[77, 0, 177]",177,l,0.6392775601707399,1,colour,0.06,3.8
78,23,1,1,13,8,608,971.294215622358,972.1197650474496,"[54, 0, 200]",200,a,0.30329653108492494,0,colour,0.06,3.8
78,23,1,1,13,9,609,972.6380755421706,973.4957943148911,"[75, 0, 179]",179,l,0.33547690603882074,1,colour,0.06,3.8
78,23,1,1,13,10,610,974.0131501266733,974.9917571954429,"[64, 0, 190]",190,l,0.45630336832255125,1,colour,0.06,3.8
78,23,1,1,13,11,611,975.4976887144148,976.5517610237002,"[79, 0, 175]",175,l,0.5318816429935396,1,colour,0.06,3.8
78,23,1,1,13,12,612,977.0602517547086,978.055775300134,"[55, 0, 199]",199,l,0.4732099990360439,1,colour,0.06,3.8
78,23,1,1,13,13,613,978.5760522685014,979.5438175424933,"[98, 0, 156]",156,l,0.44553325371816754,1,colour,0.06,3.8
78,23,1,1,13,14,614,980.0605144496076,981.0557634844445,"[91, 0, 163]",163,l,0.47287444211542606,1,colour,0.06,3.8
78,23,1,1,13,15,615,981.560663914308,982.5517622055486,"[74, 0, 180]",180,l,0.46891510765999556,1,colour,0.06,3.8
78,23,1,1,13,16,616,983.0607637544163,984.2237687683664,"[93, 0, 161]",161,l,0.6407056460157037,1,colour,0.06,3.8
78,23,1,1,13,17,617,984.7327852835879,985.5918002035469,"[65, 0, 189]",189,l,0.33683803817257285,1,colour,0.06,3.8
78,23,1,1,13,18,618,986.1078937388957,986.9437902881764,"[61, 0, 193]",193,a,0.3136507445015013,0,colour,0.06,3.8
78,23,1,1,13,19,619,987.451784378849,988.3277390124276,"[80, 0, 174]",174,l,0.35422122245654464,1,colour,0.06,3.8
78,23,1,1,13,20,620,988.8424485726282,989.6477558850311,"[97, 0, 157]",157,l,0.2830453598871827,1,colour,0.06,3.8
78,23,1,1,13,21,621,990.1550497175194,991.0877674166113,"[68, 0, 186]",186,l,0.41033286694437265,1,colour,0.06,3.8
78,23,1,1,13,22,622,991.6083212587982,992.5997755867429,"[63, 0, 191]",191,l,0.4692766582593322,1,colour,0.06,3.8
78,23,1,1,13,23,623,993.1083927419968,994.0157924401574,"[50, 0, 204]",204,a,0.3851275057531893,1,colour,0.06,3.8
78,23,1,1,13,24,624,994.5304645849392,995.4077653842978,"[87, 0, 167]",167,l,0.3550924099981785,1,colour,0.06,3.8
78,23,1,1,13,25,625,995.9212311785668,996.7997639290988,"[88, 0, 166]",166,l,0.3563279053196311,1,colour,0.06,3.8
78,23,1,1,13,26,626,997.3118768618442,998.1197859211825,"[35, 0, 219]",219,a,0.28561914386227727,1,colour,0.06,3.8
78,23,1,1,13,27,627,998.6400089324452,999.5757809085771,"[57, 0, 197]",197,a,0.4134221957065165,0,colour,0.06,3.8
78,23,1,1,13,28,628,1000.0933505785652,1000.9597938298248,"[85, 0, 169]",169,l,0.34417105838656425,1,colour,0.06,3.8
78,23,1,1,13,29,629,1001.4684913293459,1002.5597797301598,"[86, 0, 168]",168,l,0.5692663001827896,1,colour,0.06,3.8
78,23,1,1,13,30,630,1003.0780370556749,1003.943760749884,"[92, 0, 162]",162,l,0.34353932924568653,1,colour,0.06,3.8
78,23,1,1,13,31,631,1004.4531041570008,1005.2957563479431,"[72, 0, 182]",182,l,0.3204099307768047,1,colour,0.06,3.8
78,23,1,1,13,32,632,1005.8125458094291,1006.5997834634036,"[78, 0, 176]",176,l,0.2648721197620034,1,colour,0.06,3.8
78,23,1,1,13,33,633,1007.1095337141305,1008.3357967096381,"[90, 0, 164]",164,l,0.7040069508366287,1,colour,0.06,3.8
78,23,1,1,13,34,634,1008.8440574337728,1009.935768825002,"[6, 0, 248]",248,a,0.5693781524896622,1,colour,0.06,3.8
78,23,1,1,13,35,635,1010.4535448709503,1011.3357541742735,"[76, 0, 178]",178,l,0.3600048525258899,1,colour,0.06,3.8
78,23,1,1,13,36,636,1011.8445958215743,1012.7757767336443,"[70, 0, 184]",184,l,0.40939354384317994,1,colour,0.06,3.8
78,23,1,1,13,37,637,1013.2819851264358,1014.1677693701349,"[99, 0, 155]",155,l,0.3636530484072864,1,colour,0.06,3.8
78,23,1,1,13,38,638,1014.6726162368432,1015.5997484112158,"[62, 0, 192]",192,l,0.40486904000863433,1,colour,0.06,3.8
78,23,1,1,13,39,639,1016.1103639416397,1017.1277636671439,"[89, 0, 165]",165,l,0.49521102849394083,1,colour,0.06,3.8
78,23,1,1,13,40,640,1017.6416607229039,1018.5197693007067,"[66, 0, 188]",188,l,0.35593720991164446,1,colour,0.06,3.8
78,23,1,1,13,41,641,1019.0323658767156,1019.88777671149,"[67, 0, 187]",187,l,0.3332363157533109,1,colour,0.06,3.8
78,23,1,1,13,42,642,1020.4074014709331,1021.3837746446952,"[53, 0, 201]",201,a,0.45399779360741377,0,colour,0.06,3.8
78,23,1,1,13,43,643,1021.891958175227,1022.7917530997656,"[71, 0, 183]",183,l,0.37754518119618297,1,colour,0.06,3.8
78,23,1,1,13,44,644,1023.2982883844525,1024.1677457396872,"[84, 0, 170]",170,l,0.34711505798622966,1,colour,0.06,3.8
78,23,1,1,13,45,645,1024.6734401630238,1025.5357433040626,"[81, 0, 173]",173,l,0.3401183825917542,1,colour,0.06,3.8
78,23,1,1,13,46,646,1026.0485509815626,1026.9037853730842,"[73, 0, 181]",181,l,0.33301654970273376,1,colour,0.06,3.8
78,23,1,1,13,47,647,1027.423678735271,1028.3357659894973,"[51, 0, 203]",203,a,0.38978512957692146,0,colour,0.06,3.8
78,23,1,1,13,48,648,1028.8455879199319,1029.9277516943403,"[60, 0, 194]",194,l,0.559797452762723,1,colour,0.06,3.8
78,23,1,1,13,49,649,1030.4395609721541,1031.2637894377112,"[94, 0, 160]",160,l,0.3019932946190238,1,colour,0.06,3.8
78,23,1,1,13,50,650,1031.7833208553493,1032.6957381526008,"[82, 0, 172]",172,l,0.39015928329899907,1,colour,0.06,3.8
78,23,1,1,14,1,651,1037.8299538060091,1039.047786526382,"[86, 0, 168]",168,l,0.6948736603371799,1,colour,0.06,3.7
78,23,1,1,14,2,652,1039.5652104737237,1040.5517744147219,"[65, 0, 189]",189,l,0.4642551210708916,1,colour,0.06,3.7
78,23,1,1,14,3,653,1041.0653634825721,1042.055757183116,"[91, 0, 163]",163,l,0.46814395720139146,1,colour,0.06,3.7
78,23,1,1,14,4,654,1042.5655385474674,1043.4077775939368,"[79, 0, 175]",175,l,0.32003026315942407,1,colour,0.06,3.7
78,23,1,1,14,5,655,1043.925003436394,1044.847757617943,"[70, 0, 184]",184,l,0.4006092012859881,1,colour,0.06,3.7
78,23,1,1,14,6,656,1045.362535707187,1046.4237720766105,"[63, 0, 191]",191,l,0.5389653583988547,1,colour,0.06,3.7
78,23,1,1,14,7,657,1046.9406832363456,1047.8957847836427,"[99, 0, 155]",155,l,0.4326584255322814,1,colour,0.06,3.7
78,23,1,1,14,8,658,1048.4096578150056,1049.2637858930975,"[74, 0, 180]",180,l,0.33180665504187346,1,colour,0.06,3.7
78,23,1,1,14,9,659,1049.7691770549864,1050.559789576102,"[77, 0, 177]",177,l,0.26855773152783513,1,colour,0.06,3.7
78,23,1,1,14,10,660,1051.0661058826372,1051.8797725779004,"[64, 0, 190]",190,l,0.29136969055980444,1,colour,0.06,3.7
78,23,1,1,14,11,661,1052.394322630018,1053.5757797267288,"[66, 0, 188]",188,l,0.6596523993648589,1,colour,0.06,3.7
78,23,1,1,14,12,662,1054.0820873687044,1055.4157600658946,"[88, 0, 166]",166,l,0.8115198402665555,1,colour,0.06,3.7
78,23,1,1,14,13,663,1055.9259191285819,1056.8477761284448,"[56, 0, 198]",198,a,0.3996462472714484,0,colour,0.06,3.7
78,23,1,1,14,14,664,1057.3635730976239,1058.1277739075013,"[83, 0, 171]",171,l,0.2420826107263565,1,colour,0.06,3.7
78,23,1,1,14,15,665,1058.6447910116985,1059.4237862550654,"[54, 0, 200]",200,a,0.2566131679341197,0,colour,0.06,3.7
78,23,1,1,14,16,666,1059.941893919371,1060.7437436566688,"[82, 0, 172]",172,l,0.27970160637050867,1,colour,0.06,3.7
78,23,1,1,14,17,667,1061.2544596176594,1062.335795134306,"[87, 0, 167]",167,l,0.5590582038275898,1,colour,0.06,3.7
78,23,1,1,14,18,668,1062.8483444484882,1063.8317493502982,"[89, 0, 165]",165,l,0.461141767911613,1,colour,0.06,3.7
78,23,1,1,14,19,669,1064.3484698883258,1065.23975813156,"[76, 0, 178]",178,l,0.36905464762821794,1,colour,0.06,3.7
78,23,1,1,14,20,670,1065.7548253037967,1066.57575373305,"[55, 0, 199]",199,a,0.29866568883880973,0,colour,0.06,3.7
78,23,1,1,14,21,671,1067.0830353563651,1068.3357825311832,"[50, 0, 204]",204,a,0.7304663178510964,1,colour,0.06,3.7
78,23,1,1,14,22,672,1068.8488178513944,1069.7917192289606,"[67, 0, 187]",187,l,0.42067211400717497,1,colour,0.06,3.7
78,23,1,1,14,23,673,1070.3020062916912,1071.319739998784,"[69, 0, 185]",185,l,0.4956671022810042,1,colour,0.06,3.7
78,23,1,1,14,24,674,1071.8333751470782,1072.927770992741,"[71, 0, 183]",183,l,0.5724733886308968,1,colour,0.06,3.7
78,23,1,1,14,25,675,1073.4428952732123,1074.3037738725543,"[20, 0, 234]",234,a,0.33862097933888435,1,colour,0.06,3.7
78,23,1,1,14,26,676,1074.8180139684118,1075.6877517416142,"[93, 0, 161]",161,l,0.34757782705128193,1,colour,0.06,3.7
78,23,1,1,14,27,677,1076.193088158965,1077.0717812045477,"[44, 0, 210]",210,a,0.3563349945470691,1,colour,0.06,3.7
78,23,1,1,14,28,678,1077.5839484883472,1078.5277722533792,"[51, 0, 203]",203,a,0.42164806462824345,0,colour,0.06,3.7
78,23,1,1,14,29,679,1079.0371629223228,1079.951773548033,"[58, 0, 196]",196,a,0.39233252545818686,0,colour,0.06,3.7
78,23,1,1,14,30,680,1080.4592028637417,1081.3677640138194,"[97, 0, 157]",157,l,0.38638229900971055,1,colour,0.06,3.7
78,23,1,1,14,31,681,1081.8810856607743,1083.1917534149252,"[60, 0, 194]",194,a,0.7884853589348495,0,colour,0.06,3.7
78,23,1,1,14,32,682,1083.709340414498,1084.5517748086713,"[98, 0, 156]",156,l,0.32012636167928576,1,colour,0.06,3.7
78,23,1,1,14,33,683,1085.0688320850022,1085.9437639005482,"[80, 0, 174]",174,l,0.3528514257632196,1,colour,0.06,3.7
78,23,1,1,14,34,684,1086.459636487998,1087.4557429258712,"[68, 0, 186]",186,l,0.4739669715054333,1,colour,0.06,3.7
78,23,1,1,14,35,685,1087.975268829614,1088.847746196203,"[90, 0, 164]",164,l,0.3509759306907654,1,colour,0.06,3.7
78,23,1,1,14,36,686,1089.366035817191,1090.3277614619583,"[92, 0, 162]",162,l,0.43946054112166166,1,colour,0.06,3.7
78,23,1,1,14,37,687,1090.834876487963,1091.9037648928352,"[84, 0, 170]",170,l,0.5468017137609422,1,colour,0.06,3.7
78,23,1,1,14,38,688,1092.4131468972191,1093.239762070123,"[13, 0, 241]",241,a,0.30429571866989136,1,colour,0.06,3.7
78,23,1,1,14,39,689,1093.7570186327212,1094.7037497693673,"[59, 0, 195]",195,l,0.4243199164047837,1,colour,0.06,3.7
78,23,1,1,14,40,690,1095.2102799341083,1096.271747885272,"[94, 0, 160]",160,l,0.5392367183230817,1,colour,0.06,3.7
78,23,1,1,14,41,691,1096.7884735432453,1097.7598023368046,"[62, 0, 192]",192,l,0.4489506562240422,1,colour,0.06,3.7
78,23,1,1,14,42,692,1098.273047577124,1099.183769761119,"[78, 0, 176]",176,l,0.38856420665979385,1,colour,0.06,3.7
78,23,1,1,14,43,693,1099.6950083556585,1100.6397749879397,"[95, 0, 159]",159,l,0.42252634139731526,1,colour,0.06,3.7
78,23,1,1,14,44,694,1101.1482755648904,1102.135745352134,"[73, 0, 181]",181,l,0.4652515514753759,1,colour,0.06,3.7
78,23,1,1,14,45,695,1102.6483679218218,1103.4157372228801,"[81, 0, 173]",173,l,0.24514515791088343,1,colour,0.06,3.7
78,23,1,1,14,46,696,1103.9296736633405,1104.7757680690847,"[61, 0, 193]",193,l,0.32380449026823044,1,colour,0.06,3.7
78,23,1,1,14,47,697,1105.2891452480108,1106.1677646441385,"[72, 0, 182]",182,l,0.35629364056512713,1,colour,0.06,3.7
78,23,1,1,14,48,698,1106.6798527645878,1107.5837346296757,"[96, 0, 158]",158,l,0.3815899798646569,1,colour,0.06,3.7
78,23,1,1,14,49,699,1108.1019663554616,1108.9277591775171,"[75, 0, 179]",179,l,0.3037766292691231,1,colour,0.06,3.7
78,23,1,1,14,50,700,1109.4457404171117,1110.3197608725168,"[52, 0, 202]",202,a,0.35171124152839184,0,colour,0.06,3.7
78,23,1,1,15,1,701,1115.2266938630491,1116.1437479103915,"[65, 0, 189]",189,l,0.39410522719845176,1,colour,0.06,3.7
78,23,1,1,15,2,702,1116.6495258291252,1117.4958494533785,"[89, 0, 165]",165,l,0.3241337453946471,1,colour,0.06,3.7
78,23,1,1,15,3,703,1118.0089663001709,1118.991722931154,"[76, 0, 178]",178,l,0.46045844489708543,1,colour,0.06,3.7
78,23,1,1,15,4,704,1119.5090763801709,1120.6637405217625,"[52, 0, 202]",202,a,0.632415974047035,0,colour,0.06,3.7
78,23,1,1,15,5,705,1121.1810281984508,1122.4717697040178,"[95, 0, 159]",159,l,0.7682861746288836,1,colour,0.06,3.7
78,23,1,1,15,6,706,1122.9781344537623,1124.0877764751203,"[69, 0, 185]",185,l,0.588087810203433,1,colour,0.06,3.7
78,23,1,1,15,7,707,1124.6031886567362,1125.6077529387549,"[58, 0, 196]",196,a,0.4823247785679996,0,colour,0.06,3.7
78,23,1,1,15,8,708,1126.118964358233,1126.8317198120058,"[80, 0, 174]",174,l,0.19081448577344418,1,colour,0.06,3.7
78,23,1,1,15,9,709,1127.337888032198,1128.191756959539,"[99, 0, 155]",155,l,0.33170071011409163,1,colour,0.06,3.7
78,23,1,1,15,10,710,1128.6971666319296,1129.5758013883606,"[64, 0, 190]",190,l,0.3562648897059262,1,colour,0.06,3.7
78,23,1,1,15,11,711,1130.0880584688857,1130.871781046968,"[55, 0, 199]",199,a,0.26217742543667555,0,colour,0.06,3.7
78,23,1,1,15,12,712,1131.3848163676448,1132.1597262457944,"[54, 0, 200]",200,a,0.25312369177117944,0,colour,0.06,3.7
78,23,1,1,15,13,713,1132.6663962258026,1133.4477541521192,"[78, 0, 176]",176,l,0.2591637154109776,1,colour,0.06,3.7
78,23,1,1,15,14,714,1133.963313632179,1134.8637513131835,"[66, 0, 188]",188,l,0.3781284671276808,1,colour,0.06,3.7
78,23,1,1,15,15,715,1135.3697052812204,1136.199738250114,"[71, 0, 183]",183,l,0.30796793941408396,1,colour,0.06,3.7
78,23,1,1,15,16,716,1136.7134931273758,1137.5437505883165,"[51, 0, 203]",203,a,0.30792540358379483,0,colour,0.06,3.7
78,23,1,1,15,17,717,1138.057300271932,1138.9437552359886,"[59, 0, 195]",195,a,0.3639728515408933,0,colour,0.06,3.7
78,23,1,1,15,18,718,1139.4637478473596,1140.9597394787706,"[61, 0, 193]",193,a,0.9737986018881202,0,colour,0.06,3.7
78,23,1,1,15,19,719,1141.479507992044,1142.3997592814267,"[92, 0, 162]",162,l,0.3980401433072984,1,colour,0.06,3.7
78,23,1,1,15,20,720,1142.9171312409453,1143.7677363660187,"[90, 0, 164]",164,l,0.3283534124493599,1,colour,0.06,3.7
78,23,1,1,15,21,721,1144.276633151807,1145.1997350994498,"[42, 0, 212]",212,a,0.40082424134016037,1,colour,0.06,3.7
78,23,1,1,15,22,722,1145.7142367088236,1146.5597344376147,"[81, 0, 173]",173,l,0.32317788107320666,1,colour,0.06,3.7
78,23,1,1,15,23,723,1147.073716564104,1147.9437414514832,"[98, 0, 156]",156,l,0.3476416300982237,1,colour,0.06,3.7
78,23,1,1,15,24,724,1148.448862040881,1149.2957102679648,"[97, 0, 157]",157,l,0.32459730189293623,1,colour,0.06,3.7
78,23,1,1,15,25,725,1149.8083407147788,1150.615759829525,"[56, 0, 198]",198,a,0.28523041727021337,0,colour,0.06,3.7
78,23,1,1,15,26,726,1151.120947767049,1151.9597229375504,"[11, 0, 243]",243,a,0.31656638719141483,1,colour,0.06,3.7
78,23,1,1,15,27,727,1152.464713558089,1153.3837596783414,"[75, 0, 179]",179,l,0.3966849185526371,1,colour,0.06,3.7
78,23,1,1,15,28,728,1153.9023084500805,1154.80772198271,"[46, 0, 208]",208,a,0.3832338936626911,1,colour,0.06,3.7
78,23,1,1,15,29,729,1155.324312157929,1156.695741303265,"[57, 0, 197]",197,a,0.8490293468348682,0,colour,0.06,3.7
78,23,1,1,15,30,730,1157.2151872562245,1157.9837495172396,"[94, 0, 160]",160,l,0.24621996376663446,1,colour,0.06,3.7
78,23,1,1,15,31,731,1158.496498117689,1159.4637608444318,"[85, 0, 169]",169,l,0.4450066816061735,1,colour,0.06,3.7
78,23,1,1,15,32,732,1159.9809855055064,1161.095721532125,"[70, 0, 184]",184,l,0.5931688183918595,1,colour,0.06,3.7
78,23,1,1,15,33,733,1161.606111782603,1162.5437899730168,"[93, 0, 161]",161,l,0.4152945396490395,1,colour,0.06,3.7
78,23,1,1,15,34,734,1163.0593592994846,1163.8317383225076,"[53, 0, 201]",201,a,0.25006075063720345,0,colour,0.06,3.7
78,23,1,1,15,35,735,1164.340718603693,1165.1517284135334,"[84, 0, 170]",170,l,0.28874903870746493,1,colour,0.06,3.7
78,23,1,1,15,36,736,1165.668975523673,1166.543760040775,"[73, 0, 181]",181,l,0.3525958196260035,1,colour,0.06,3.7
78,23,1,1,15,37,737,1167.059743299149,1167.999753058888,"[63, 0, 191]",191,l,0.4178419364616275,1,colour,0.06,3.7
78,23,1,1,15,38,738,1168.5129065332003,1169.319742362015,"[72, 0, 182]",182,l,0.2845411873422563,1,colour,0.06,3.7
78,23,1,1,15,39,739,1169.825554545503,1170.6877324432135,"[68, 0, 186]",186,l,0.33995257318019867,1,colour,0.06,3.7
78,23,1,1,15,40,740,1171.200678754598,1172.2237282022834,"[60, 0, 194]",194,l,0.5008158520795405,1,colour,0.06,3.7
78,23,1,1,15,41,741,1172.7320397328585,1173.5837696823291,"[91, 0, 163]",163,l,0.3295542490668595,1,colour,0.06,3.7
78,23,1,1,15,42,742,1174.0914865052328,1175.0477455663495,"[96, 0, 158]",158,l,0.4340128623880446,1,colour,0.06,3.7
78,23,1,1,15,43,743,1175.5603330838494,1177.2717262236401,"[87, 0, 167]",167,l,1.1892040488310158,1,colour,0.06,3.7
78,23,1,1,15,44,744,1177.7792894467711,1178.7277814690024,"[77, 0, 177]",177,l,0.42626787908375263,1,colour,0.06,3.7
78,23,1,1,15,45,745,1179.248171471525,1180.2717640330084,"[67, 0, 187]",187,l,0.5013463627547026,1,colour,0.06,3.7
78,23,1,1,15,46,746,1180.7795438715257,1181.8877239362337,"[62, 0, 192]",192,l,0.5859252014197409,1,colour,0.06,3.7
78,23,1,1,15,47,747,1182.4046248560771,1183.2317555728368,"[79, 0, 175]",175,l,0.30475494265556335,1,colour,0.06,3.7
78,23,1,1,15,48,748,1183.7484749299474,1184.495767139364,"[88, 0, 166]",166,l,0.22503065085038543,1,colour,0.06,3.7
78,23,1,1,15,49,749,1185.014212329872,1185.999759754166,"[83, 0, 171]",171,l,0.4632842903956771,1,colour,0.06,3.7
78,23,1,1,15,50,750,1186.5143228033558,1187.4877515840344,"[82, 0, 172]",172,l,0.4510069265961647,1,colour,0.06,3.7
78,23,1,1,16,1,751,1192.9047089419328,1193.9917170233093,"[93, 0, 161]",161,l,0.5639222026802599,1,colour,0.06,3.7
78,23,1,1,16,2,752,1194.4993479880504,1195.479694281239,"[75, 0, 179]",179,l,0.4580189622938633,1,colour,0.06,3.7
78,23,1,1,16,3,753,1195.9995092679746,1196.9517298312858,"[74, 0, 180]",180,l,0.42996018612757325,1,colour,0.06,3.7
78,23,1,1,16,4,754,1197.4684712435119,1198.5038299565203,"[87, 0, 167]",167,l,0.513375997543335,1,colour,0.06,3.7
78,23,1,1,16,5,755,1199.0153182493523,1200.4797068843618,"[53, 0, 201]",201,a,0.9421156547032297,0,colour,0.06,3.7
78,23,1,1,16,6,756,1200.999825920444,1201.839809410274,"[90, 0, 164]",164,l,0.31770145148038864,1,colour,0.06,3.7
78,23,1,1,16,7,757,1202.3593762740493,1203.2637185449712,"[54, 0, 200]",200,a,0.3820310877636075,0,colour,0.06,3.7
78,23,1,1,16,8,758,1203.7813071203418,1204.6157472268678,"[42, 0, 212]",212,a,0.3121537356637418,1,colour,0.06,3.7
78,23,1,1,16,9,759,1205.1250855140388,1206.0157278492115,"[30, 0, 224]",224,a,0.3683024011552334,1,colour,0.06,3.7
78,23,1,1,16,10,760,1206.5316043756902,1207.3757484555244,"[62, 0, 192]",192,l,0.3219415983185172,1,colour,0.06,3.7
78,23,1,1,16,11,761,1207.8909412645735,1208.7357485815883,"[66, 0, 188]",188,l,0.3223984595388174,1,colour,0.06,3.7
78,23,1,1,16,12,762,1209.2505211569369,1209.85572394263,"[71, 0, 183]",183,l,0.08299715304747224,1,colour,0.06,3.7
78,23,1,1,16,13,763,1210.3756299079396,1211.2797256312333,"[52, 0, 202]",202,a,0.38185306917876005,0,colour,0.06,3.7
78,23,1,1,16,14,764,1211.7976028956473,1212.615714143496,"[76, 0, 178]",178,l,0.2958823787048459,1,colour,0.06,3.7
78,23,1,1,16,15,765,1213.1257629292086,1214.023750887718,"[56, 0, 198]",198,a,0.3757074950262904,0,colour,0.06,3.7
78,23,1,1,16,16,766,1214.5321663939394,1215.527756893076,"[99, 0, 155]",155,l,0.47324859583750367,1,colour,0.06,3.7
78,23,1,1,16,17,767,1216.047944852151,1217.0157278492115,"[83, 0, 171]",171,l,0.44548323517665267,1,colour,0.06,3.7
78,23,1,1,16,18,768,1217.5324531137012,1218.5677362084389,"[64, 0, 190]",190,l,0.5130002680234611,1,colour,0.06,3.7
78,23,1,1,16,19,769,1219.0793828275055,1220.0797179904766,"[86, 0, 168]",168,l,0.4780759671702981,1,colour,0.06,3.7
78,23,1,1,16,20,770,1220.5951695567928,1221.4797277580947,"[96, 0, 158]",158,l,0.3621639162302017,1,colour,0.06,3.7
78,23,1,1,16,21,771,1221.9859282737598,1222.8397302469239,"[68, 0, 186]",186,l,0.3320031836628914,1,colour,0.06,3.7
78,23,1,1,16,22,772,1223.3453821353614,1224.2477591144852,"[77, 0, 177]",177,l,0.3802016726695001,1,colour,0.06,3.7
78,23,1,1,16,23,773,1224.7673972644843,1225.6237293048762,"[73, 0, 181]",181,l,0.334041730966419,1,colour,0.06,3.7
78,23,1,1,16,24,774,1226.142506507691,1227.1357059674338,"[80, 0, 174]",174,l,0.47083628876134753,1,colour,0.06,3.7
78,23,1,1,16,25,775,1227.642688661348,1228.4717204733752,"[89, 0, 165]",165,l,0.3068005796521902,1,colour,0.06,3.7
78,23,1,1,16,26,776,1228.9864410613663,1230.4717350457795,"[84, 0, 170]",170,l,0.9632021733559668,1,colour,0.06,3.7
78,23,1,1,16,27,777,1230.986658070702,1232.191749476362,"[97, 0, 157]",157,l,0.6828392995521426,1,colour,0.06,3.7
78,23,1,1,16,28,778,1232.7055583102629,1233.6477283155546,"[12, 0, 242]",242,a,0.4198859971947968,1,colour,0.06,3.7
78,23,1,1,16,29,779,1234.1587735321373,1235.1277191629633,"[65, 0, 189]",189,l,0.44679474318400025,1,colour,0.06,3.7
78,23,1,1,16,30,780,1235.6432168087922,1236.5837350236252,"[63, 0, 191]",191,l,0.4181932467035949,1,colour,0.06,3.7
78,23,1,1,16,31,781,1237.0965044982731,1238.1757258488797,"[72, 0, 182]",182,l,0.5569400996901095,1,colour,0.06,3.7
78,23,1,1,16,32,782,1238.690438953694,1239.7277546878904,"[91, 0, 163]",163,l,0.5151010435074568,1,colour,0.06,3.7
78,23,1,1,16,33,783,1240.2373288888484,1241.1757128518075,"[70, 0, 184]",184,l,0.41611019521951675,1,colour,0.06,3.7
78,23,1,1,16,34,784,1241.6905799503438,1242.6237249728292,"[95, 0, 159]",159,l,0.41082675009965897,1,colour,0.06,3.7
78,23,1,1,16,35,785,1243.1438483409584,1243.879715076182,"[79, 0, 175]",175,l,0.21360084414482117,1,colour,0.06,3.7
78,23,1,1,16,36,786,1244.394010310527,1245.4157218630426,"[78, 0, 176]",176,l,0.5003255140036345,1,colour,0.06,3.7
78,23,1,1,16,37,787,1245.925361836329,1246.8477347749285,"[59, 0, 195]",195,l,0.40025473991408944,1,colour,0.06,3.7
78,23,1,1,16,38,788,1247.3629606673494,1248.2717455220409,"[58, 0, 196]",196,l,0.38645909912884235,1,colour,0.06,3.7
78,23,1,1,16,39,789,1248.7848804858513,1249.8077408871613,"[60, 0, 194]",194,l,0.5006949412636459,1,colour,0.06,3.7
78,23,1,1,16,40,790,1250.3162454026751,1251.3357443278655,"[51, 0, 203]",203,a,0.49721649289131165,0,colour,0.06,3.7
78,23,1,1,16,41,791,1251.847652460914,1252.8237255243585,"[55, 0, 199]",199,a,0.4538378925062716,0,colour,0.06,3.7
78,23,1,1,16,42,792,1253.3321453626268,1254.191693156492,"[50, 0, 204]",204,a,0.3372047091834247,1,colour,0.06,3.7
78,23,1,1,16,43,793,1254.7071868642233,1255.711710580159,"[69, 0, 185]",185,l,0.48218299448490143,1,colour,0.06,3.7
78,23,1,1,16,44,794,1256.223046454601,1257.0957601289265,"[82, 0, 172]",172,l,0.3505084356293082,1,colour,0.06,3.7
78,23,1,1,16,45,795,1257.6137996576726,1258.455699996557,"[67, 0, 187]",187,l,0.3196253892965615,1,colour,0.06,3.7
78,23,1,1,16,46,796,1258.9732743930072,1259.9277201867662,"[92, 0, 162]",162,l,0.43218384124338627,1,colour,0.06,3.7
78,23,1,1,16,47,797,1260.4420918268152,1261.2797378404066,"[85, 0, 169]",169,l,0.31547306990250945,1,colour,0.06,3.7
78,23,1,1,16,48,798,1261.7859092117287,1262.8797343745828,"[57, 0, 197]",197,a,0.5716951489448547,0,colour,0.06,3.7
78,23,1,1,16,49,799,1263.3954190975055,1264.3117205048911,"[88, 0, 166]",166,l,0.394509706646204,1,colour,0.06,3.7
78,23,1,1,16,50,800,1264.8174893655814,1265.7597318384796,"[81, 0, 173]",173,l,0.4199966681189835,1,colour,0.06,3.7
