id,age,condition,counterbalance,block,trialinblock,trial,tstart,tend,trialstim,trialintensity,response,RT,accuracy,trialtype,colourfreq,credits
39,19,1,2,Practice,1,NA,7.0892274379730225e-06,1.034102778416127,"[52, 0, 202]",202,a,0.46288941614329815,0,colour,0.5,4
39,19,1,2,Practice,2,NA,1.5477196285501122,2.57811276614666,"[50, 0, 204]",204,a,0.5071329544298351,1,colour,0.5,4
39,19,1,2,Practice,3,NA,3.0944719701074064,4.106115255504847,"[96, 0, 158]",158,l,0.4884134288877249,1,colour,0.5,4
39,19,1,2,Practice,4,NA,4.625684702303261,5.602151189930737,"[40, 0, 214]",214,a,0.45335281547158957,1,colour,0.5,4
39,19,1,2,Practice,5,NA,6.110420391894877,7.210180539172143,"[28, 0, 226]",226,a,0.5769847896881402,1,colour,0.5,4
39,19,1,2,Practice,6,NA,7.719446172937751,8.834126803092659,"[12, 0, 242]",242,a,0.5913101700134575,1,colour,0.5,4
39,19,1,2,Practice,7,NA,9.344397139269859,10.402096445206553,"[74, 0, 180]",180,a,0.5348825943656266,0,colour,0.5,4
39,19,1,2,Practice,8,NA,10.922599702142179,12.082143391482532,"[38, 0, 216]",216,a,0.6362775987945497,1,colour,0.5,4
39,19,1,2,Practice,9,NA,12.594405015930533,16.58612793730572,"[79, 0, 175]",175,a,3.468359550461173,0,colour,0.5,4
39,19,1,2,Practice,10,NA,17.094468819443136,17.98614605423063,"[29, 0, 225]",225,a,0.36824021488428116,1,colour,0.5,4
39,19,1,2,1,1,1,4.202580482698977,5.247840539552271,"[57, 0, 197]",197,a,0.5210664574988186,0,colour,0.5,4.0
39,19,1,2,1,2,2,5.76591021893546,6.95984340691939,"[1, 0, 253]",253,a,0.6705985683947802,1,colour,0.5,4.0
39,19,1,2,1,3,3,7.468877458479255,8.847880711778998,"[38, 0, 216]",216,a,0.8555043991655111,1,colour,0.5,4.0
39,19,1,2,1,4,4,9.36026167171076,10.551850684918463,"[92, 0, 162]",162,l,0.668864855542779,1,colour,0.5,4.0
39,19,1,2,1,5,5,11.06256724940613,12.303867572918534,"[21, 0, 233]",233,a,0.7184040546417236,1,colour,0.5,4.0
39,19,1,2,1,6,6,12.806645766831934,14.415827904827893,"[98, 0, 156]",156,l,1.0857785949483514,1,colour,0.5,4.0
39,19,1,2,1,7,7,14.931799170095474,16.103824249934405,"[51, 0, 203]",203,a,0.6488109771162271,0,colour,0.5,4.0
39,19,1,2,1,8,8,16.619283908512443,17.67178798466921,"[25, 0, 229]",229,a,0.5290422439575195,1,colour,0.5,4.0
39,19,1,2,1,9,9,18.181797988247126,19.247825573198497,"[31, 0, 223]",223,a,0.5428611375391483,1,colour,0.5,4.0
39,19,1,2,1,10,10,19.759933597408235,23.43986987322569,"[77, 0, 177]",177,a,3.15641536610201,0,colour,0.5,4.0
39,19,1,2,1,11,11,23.947344292886555,24.975841453298926,"[2, 0, 252]",252,a,0.5052771498449147,1,colour,0.5,4.0
39,19,1,2,1,12,12,25.494246689602733,26.807866297196597,"[58, 0, 196]",196,a,0.7910403851419687,0,colour,0.5,4.0
39,19,1,2,1,13,13,27.32244413299486,28.27986105112359,"[34, 0, 220]",220,a,0.4341232581064105,1,colour,0.5,4.0
39,19,1,2,1,14,14,28.791119154542685,30.279859081842005,"[74, 0, 180]",180,a,0.9653899474069476,0,colour,0.5,4.0
39,19,1,2,1,15,15,30.791082526557148,31.895847282372415,"[76, 0, 178]",178,a,0.5813911450095475,0,colour,0.5,4.0
39,19,1,2,1,16,16,32.41606184979901,33.34387096017599,"[28, 0, 226]",226,a,0.40420313039794564,1,colour,0.5,4.0
39,19,1,2,1,17,17,33.853637172840536,34.839880113024265,"[97, 0, 157]",157,l,0.46283427719026804,1,colour,0.5,4.0
39,19,1,2,1,18,18,35.35361078521237,36.407867872621864,"[14, 0, 240]",240,a,0.5307897413149476,1,colour,0.5,4.0
39,19,1,2,1,19,19,36.916123289614916,37.927892606239766,"[49, 0, 205]",205,a,0.4885248872451484,1,colour,0.5,4.0
39,19,1,2,1,20,20,38.447343898937106,39.375867053400725,"[87, 0, 167]",167,l,0.40520901465788484,1,colour,0.5,4.0
39,19,1,2,1,21,21,39.88485226826742,40.855893125757575,"[7, 0, 247]",247,a,0.4476191974245012,1,colour,0.5,4.0
39,19,1,2,1,22,22,41.36932604992762,42.44787637935951,"[29, 0, 225]",225,a,0.5551940482109785,1,colour,0.5,4.0
39,19,1,2,1,23,23,42.962957551237196,43.97590171173215,"[60, 0, 194]",194,a,0.4894279772415757,0,colour,0.5,4.0
39,19,1,2,1,24,24,44.49422896653414,45.50389238540083,"[70, 0, 184]",184,a,0.4865068173967302,0,colour,0.5,4.0
39,19,1,2,1,25,25,46.02547163143754,46.967814072966576,"[94, 0, 160]",160,l,0.41896371077746153,1,colour,0.5,4.0
39,19,1,2,1,26,26,47.47859010845423,48.55984813300893,"[96, 0, 158]",158,l,0.558120721951127,1,colour,0.5,4.0
39,19,1,2,1,27,27,49.07228895742446,50.0878455019556,"[72, 0, 182]",182,a,0.4917260720394552,0,colour,0.5,4.0
39,19,1,2,1,28,28,50.603736815974116,51.78388891974464,"[12, 0, 242]",242,a,0.6568568684160709,1,colour,0.5,4.0
39,19,1,2,1,29,29,52.291119548492134,53.45587500883266,"[27, 0, 227]",227,a,0.6414358066394925,1,colour,0.5,4.0
39,19,1,2,1,30,30,53.96301190229133,55.263845675159246,"[73, 0, 181]",181,a,0.7777693318203092,0,colour,0.5,4.0
39,19,1,2,1,31,31,55.77548817312345,56.74387647397816,"[19, 0, 235]",235,a,0.444989878218621,1,colour,0.5,4.0
39,19,1,2,1,32,32,57.259843406733125,58.33594282949343,"[32, 0, 222]",222,a,0.5529782678931952,1,colour,0.5,4.0
39,19,1,2,1,33,33,58.853640323504806,59.83986829780042,"[63, 0, 191]",191,a,0.462879569735378,0,colour,0.5,4.0
39,19,1,2,1,34,34,60.35362693294883,61.367913322523236,"[84, 0, 170]",170,l,0.49098957888782024,1,colour,0.5,4.0
39,19,1,2,1,35,35,61.884777437429875,63.10389120411128,"[82, 0, 172]",172,l,0.6957326726987958,1,colour,0.5,4.0
39,19,1,2,1,36,36,63.6191905667074,64.55992768984288,"[15, 0, 239]",239,a,0.4173587863333523,1,colour,0.5,4.0
39,19,1,2,1,37,37,65.07232361612841,66.02388797421008,"[54, 0, 200]",200,a,0.4278610982000828,0,colour,0.5,4.0
39,19,1,2,1,38,38,66.54114160360768,68.23991162097082,"[65, 0, 189]",189,a,1.1756799761205912,0,colour,0.5,4.0
39,19,1,2,1,39,39,68.75979220680892,69.62387537118047,"[5, 0, 249]",249,a,0.34069498162716627,1,colour,0.5,4.0
39,19,1,2,1,40,40,70.13477743742988,71.21599844051525,"[0, 0, 254]",254,a,0.557810764759779,1,colour,0.5,4.0
39,19,1,2,1,41,41,71.72858892660588,72.71187526080757,"[59, 0, 195]",195,a,0.4599867663346231,0,colour,0.5,4.0
39,19,1,2,1,42,42,73.22868896368891,74.25591321196407,"[43, 0, 211]",211,a,0.504084188491106,1,colour,0.5,4.0
39,19,1,2,1,43,43,74.77549132378772,75.68786480044946,"[88, 0, 166]",166,l,0.38938819896429777,1,colour,0.5,4.0
39,19,1,2,1,44,44,76.19733877899125,77.22389978962019,"[6, 0, 248]",248,a,0.5032661692239344,1,colour,0.5,4.0
39,19,1,2,1,45,45,77.74420888070017,78.82393562979996,"[44, 0, 210]",210,a,0.5562275014817715,1,colour,0.5,4.0
39,19,1,2,1,46,46,79.33791284961626,80.44790355488658,"[45, 0, 209]",209,a,0.5866048852913082,1,colour,0.5,4.0
39,19,1,2,1,47,47,80.96298984671012,82.079899254255,"[24, 0, 230]",230,a,0.5938355140388012,1,colour,0.5,4.0
39,19,1,2,1,48,48,82.58796286815777,83.60789110930637,"[89, 0, 165]",165,l,0.4966164641082287,1,colour,0.5,4.0
39,19,1,2,1,49,49,84.119230738841,85.14392491709441,"[41, 0, 213]",213,a,0.5013426225632429,1,colour,0.5,4.0
39,19,1,2,1,50,50,85.65040841884911,91.49592447606847,"[79, 0, 175]",175,a,5.322515419218689,0,colour,0.5,4.0
39,19,1,2,2,1,51,97.80583247356117,98.63997306115925,"[12, 0, 242]",242,a,0.3099387176334858,1,colour,0.5,4.0
39,19,1,2,2,2,52,99.1504501667805,100.04003765201196,"[17, 0, 237]",237,a,0.36632769647985697,1,colour,0.5,4.0
39,19,1,2,2,3,53,100.5566386776045,101.34393515717238,"[98, 0, 156]",156,l,0.26468181144446135,1,colour,0.5,4.0
39,19,1,2,2,4,54,101.85350011428818,102.67992406664416,"[38, 0, 216]",216,a,0.30306412605568767,1,colour,0.5,4.0
39,19,1,2,2,5,55,103.19731672341004,104.11995974881575,"[22, 0, 232]",232,a,0.3996920119971037,1,colour,0.5,4.0
39,19,1,2,2,6,56,104.63479437259957,106.23196852393448,"[81, 0, 173]",173,l,1.0742093529552221,1,colour,0.5,4.0
39,19,1,2,2,7,57,106.74456255463883,107.59993895376101,"[4, 0, 250]",250,a,0.3324009673669934,1,colour,0.5,4.0
39,19,1,2,2,8,58,108.11054760450497,109.00797657389194,"[28, 0, 226]",226,a,0.37476388877257705,1,colour,0.5,4.0
39,19,1,2,2,9,59,109.51668649027124,110.43990768259391,"[87, 0, 167]",167,l,0.39972312608733773,1,colour,0.5,4.0
39,19,1,2,2,10,60,110.95438823848963,111.81595826800913,"[10, 0, 244]",244,a,0.3384784129448235,1,colour,0.5,4.0
39,19,1,2,2,11,61,112.32919584400952,113.28799476986751,"[52, 0, 202]",202,a,0.4354985705576837,0,colour,0.5,4.0
39,19,1,2,2,12,62,113.79791221953928,114.73593416484073,"[20, 0, 234]",234,a,0.4147853930480778,1,colour,0.5,4.0
39,19,1,2,2,13,63,115.25110867805779,116.23994982428849,"[75, 0, 179]",179,l,0.4653474120423198,1,colour,0.5,4.0
39,19,1,2,2,14,64,116.75119808129966,117.67198372632265,"[54, 0, 200]",200,a,0.39745496353134513,0,colour,0.5,4.0
39,19,1,2,2,15,65,118.18850913317874,119.34390955697745,"[74, 0, 180]",180,a,0.6321930158883333,0,colour,0.5,4.0
39,19,1,2,2,16,66,119.86047828756273,120.92803439078853,"[48, 0, 206]",206,a,0.5441305050626397,1,colour,0.5,4.0
39,19,1,2,2,17,67,121.43852567486465,122.5039825765416,"[30, 0, 224]",224,a,0.543013162445277,1,colour,0.5,4.0
39,19,1,2,2,18,68,123.01669397344813,123.96798775950447,"[42, 0, 212]",212,a,0.42776066763326526,1,colour,0.5,4.0
39,19,1,2,2,19,69,124.48540247185156,125.44794097030535,"[86, 0, 168]",168,l,0.43916213093325496,1,colour,0.5,4.0
39,19,1,2,2,20,70,125.95414602244273,127.0559939504601,"[5, 0, 249]",249,a,0.5784179968759418,1,colour,0.5,4.0
39,19,1,2,2,21,71,127.5635404442437,128.67195024946705,"[60, 0, 194]",194,a,0.584963726811111,0,colour,0.5,4.0
39,19,1,2,2,22,72,129.18854142865166,130.2239498081617,"[14, 0, 240]",240,a,0.5119067686609924,1,colour,0.5,4.0
39,19,1,2,2,23,73,130.7354371305555,131.8161740959622,"[32, 0, 222]",222,a,0.5572144808247685,1,colour,0.5,4.0
39,19,1,2,2,24,74,132.32914937054738,133.35995604703203,"[8, 0, 246]",246,a,0.50759257376194,1,colour,0.5,4.0
39,19,1,2,2,25,75,133.87610217975453,138.5120552489534,"[72, 0, 182]",182,l,4.112685403320938,1,colour,0.5,4.0
39,19,1,2,2,26,76,139.03217371786013,139.96003993600607,"[84, 0, 170]",170,l,0.4046320291236043,1,colour,0.5,4.0
39,19,1,2,2,27,77,140.46966633340344,141.43999235937372,"[34, 0, 220]",220,a,0.4469102737493813,1,colour,0.5,4.0
39,19,1,2,2,28,78,141.95426220726222,142.94412814220414,"[77, 0, 177]",177,l,0.46652777027338743,1,colour,0.5,4.0
39,19,1,2,2,29,79,143.45424960413948,144.3599721947685,"[90, 0, 164]",164,l,0.38242341671139,1,colour,0.5,4.0
39,19,1,2,2,30,80,144.87607618561015,145.66393586620688,"[24, 0, 230]",230,a,0.26448843302205205,1,colour,0.5,4.0
39,19,1,2,2,31,81,146.17302741948515,147.03201302839443,"[92, 0, 162]",162,l,0.3360814629122615,1,colour,0.5,4.0
39,19,1,2,2,32,82,147.54791970271617,148.51998416753486,"[95, 0, 159]",159,l,0.4493844178505242,1,colour,0.5,4.0
39,19,1,2,2,33,83,149.03225366864353,149.92000543512404,"[57, 0, 197]",197,a,0.36456168815493584,0,colour,0.5,4.0
39,19,1,2,2,34,84,150.43854339793324,151.49596661748365,"[44, 0, 210]",210,a,0.5341965137049556,1,colour,0.5,4.0
39,19,1,2,2,35,85,152.0166514380835,153.03198782214895,"[83, 0, 171]",171,l,0.49195135198533535,1,colour,0.5,4.0
39,19,1,2,2,36,86,153.54787953011692,154.4880384868011,"[49, 0, 205]",205,a,0.4172697770409286,1,colour,0.5,4.0
39,19,1,2,2,37,87,155.0009830412455,156.07204556046054,"[33, 0, 221]",221,a,0.5476215607486665,1,colour,0.5,4.0
39,19,1,2,2,38,88,156.57927028136328,157.60802738042548,"[62, 0, 192]",192,a,0.5055221226066351,0,colour,0.5,4.0
39,19,1,2,2,39,89,158.12597654247656,159.06400281982496,"[46, 0, 208]",208,a,0.4145156079903245,1,colour,0.5,4.0
39,19,1,2,2,40,90,159.5790536655113,160.47997762961313,"[43, 0, 211]",211,a,0.37758225481957197,1,colour,0.5,4.0
39,19,1,2,2,41,91,161.00104881357402,161.8880168250762,"[93, 0, 161]",161,l,0.3636916810646653,1,colour,0.5,4.0
39,19,1,2,2,42,92,162.40727355796844,164.36002930207178,"[67, 0, 187]",187,a,1.4293848904781044,0,colour,0.5,4.0
39,19,1,2,2,43,93,164.87609548447654,165.95997849619016,"[16, 0, 238]",238,a,0.5601958995684981,1,colour,0.5,4.0
39,19,1,2,2,44,94,166.46974077029154,168.55996037926525,"[70, 0, 184]",184,a,1.5670697032473981,0,colour,0.5,4.0
39,19,1,2,2,45,95,169.07915527792647,170.01603861292824,"[3, 0, 251]",251,a,0.4137243707664311,1,colour,0.5,4.0
39,19,1,2,2,46,96,170.53227493632585,171.42400849144906,"[91, 0, 163]",163,l,0.36852417839691043,1,colour,0.5,4.0
39,19,1,2,2,47,97,171.93842406244949,172.76801926689222,"[96, 0, 158]",158,l,0.3060959563590586,1,colour,0.5,4.0
39,19,1,2,2,48,98,173.28240687493235,174.09599654981866,"[35, 0, 219]",219,a,0.29061187990009785,1,colour,0.5,4.0
39,19,1,2,2,49,99,174.61040463810787,175.75998085923493,"[85, 0, 169]",169,l,0.626240813639015,1,colour,0.5,4.0
39,19,1,2,2,50,100,176.26666285982355,177.14406748954207,"[66, 0, 188]",188,a,0.354218490421772,0,colour,0.5,4.0
39,19,1,2,3,1,101,184.89081392344087,185.49615369457752,"[49, 0, 205]",205,a,0.08135648583993316,1,colour,0.5,3.9
39,19,1,2,3,2,102,186.01659551169723,186.8880558158271,"[66, 0, 188]",188,a,0.34885430010035634,0,colour,0.5,3.9
39,19,1,2,3,3,103,187.4070947514847,187.9441442899406,"[25, 0, 229]",229,a,0.014191078953444958,1,colour,0.5,3.9
39,19,1,2,3,4,104,188.4540302315727,189.07204595394433,"[2, 0, 252]",252,a,0.09535733656957746,1,colour,0.5,3.9
39,19,1,2,3,5,105,189.57891975762323,193.48002764815465,"[83, 0, 171]",171,l,3.378248249180615,1,colour,0.5,3.9
39,19,1,2,3,6,106,194.00087197637185,194.90421179495752,"[1, 0, 253]",253,a,0.37995163537561893,1,colour,0.5,3.9
39,19,1,2,3,7,107,195.42280095815659,196.24804691504687,"[37, 0, 217]",217,a,0.30191291263327,1,colour,0.5,3.9
39,19,1,2,3,8,108,196.76655455166474,197.76002181926742,"[70, 0, 184]",184,a,0.4708785926923156,0,colour,0.5,3.9
39,19,1,2,3,9,109,198.26653485931456,198.91211117524654,"[43, 0, 211]",211,a,0.12245712988078594,1,colour,0.5,3.9
39,19,1,2,3,10,110,199.42281237943098,200.17610690603033,"[61, 0, 193]",193,a,0.2303332732990384,0,colour,0.5,3.9
39,19,1,2,3,11,111,200.68838822236285,201.68003867566586,"[53, 0, 201]",201,a,0.46851787669584155,0,colour,0.5,3.9
39,19,1,2,3,12,112,202.1884303642437,203.0641323956661,"[87, 0, 167]",167,l,0.35263247042894363,1,colour,0.5,3.9
39,19,1,2,3,13,113,203.57905957335606,204.37607854884118,"[86, 0, 168]",168,l,0.2743026944808662,1,colour,0.5,3.9
39,19,1,2,3,14,114,204.8915736535564,205.7520302790217,"[21, 0, 233]",233,a,0.33718265825882554,1,colour,0.5,3.9
39,19,1,2,3,15,115,206.26644781930372,207.1040656780824,"[59, 0, 195]",195,a,0.31439784821122885,0,colour,0.5,3.9
39,19,1,2,3,16,116,207.61028372729197,208.29601309169084,"[99, 0, 155]",155,l,0.1625534649938345,1,colour,0.5,3.9
39,19,1,2,3,17,117,208.81343449931592,209.95211574388668,"[69, 0, 185]",185,a,0.6156711541116238,0,colour,0.5,3.9
39,19,1,2,3,18,118,210.46961867809296,211.29605090105906,"[68, 0, 186]",186,a,0.3028975292108953,0,colour,0.5,3.9
39,19,1,2,3,19,119,211.81346206879243,212.52804581215605,"[48, 0, 206]",206,a,0.19116247724741697,1,colour,0.5,3.9
39,19,1,2,3,20,120,213.0478582624346,213.73607791867107,"[27, 0, 227]",227,a,0.16489094402641058,1,colour,0.5,3.9
39,19,1,2,3,21,121,214.2510944996029,214.904139327351,"[16, 0, 238]",238,a,0.1297224168665707,1,colour,0.5,3.9
39,19,1,2,3,22,122,215.4227879610844,216.26404023543,"[65, 0, 189]",189,a,0.31786290975287557,0,colour,0.5,3.9
39,19,1,2,3,23,123,216.78235213039443,217.56806455925107,"[96, 0, 158]",158,l,0.2625499200075865,1,colour,0.5,3.9
39,19,1,2,3,24,124,218.0791308595799,218.9920435124077,"[6, 0, 248]",248,a,0.38945869728922844,1,colour,0.5,3.9
39,19,1,2,3,25,125,219.50097358878702,220.70407828083262,"[75, 0, 179]",179,a,0.6797109954059124,0,colour,0.5,3.9
39,19,1,2,3,26,126,221.219665939454,222.10409521637484,"[8, 0, 246]",246,a,0.36096311220899224,1,colour,0.5,3.9
39,19,1,2,3,27,127,222.61040818272159,223.49607531912625,"[22, 0, 232]",232,a,0.3621804919093847,1,colour,0.5,3.9
39,19,1,2,3,28,128,224.01657188124955,225.63228241959587,"[67, 0, 187]",187,a,1.0928111192770302,0,colour,0.5,3.9
39,19,1,2,3,29,129,226.14166423818097,226.9760805182159,"[44, 0, 210]",210,a,0.31101076770573854,1,colour,0.5,3.9
39,19,1,2,3,30,130,227.4853240964003,228.0800693957135,"[89, 0, 165]",165,l,0.0714689688757062,1,colour,0.5,3.9
39,19,1,2,3,31,131,228.594813041389,229.78402164578438,"[72, 0, 182]",182,a,0.6659192768856883,0,colour,0.5,3.9
39,19,1,2,3,32,132,230.2978980410844,231.1360306572169,"[17, 0, 237]",237,a,0.3148117810487747,1,colour,0.5,3.9
39,19,1,2,3,33,133,231.65728379786015,232.37604507198557,"[9, 0, 245]",245,a,0.19542153412476182,1,colour,0.5,3.9
39,19,1,2,3,34,134,232.8916937764734,233.80807621730492,"[15, 0, 239]",239,a,0.3930273409932852,1,colour,0.5,3.9
39,19,1,2,3,35,135,234.32923798589036,235.09604105446488,"[0, 0, 254]",254,a,0.24357163673266768,1,colour,0.5,3.9
39,19,1,2,3,36,136,235.610330988653,236.50408930890262,"[40, 0, 214]",214,a,0.3702342598699033,1,colour,0.5,3.9
39,19,1,2,3,37,137,237.0165305272676,237.8560616923496,"[90, 0, 164]",164,l,0.31633163476362824,1,colour,0.5,3.9
39,19,1,2,3,38,138,238.37597851175815,239.28806172357872,"[74, 0, 180]",180,a,0.38863240694627166,0,colour,0.5,3.9
39,19,1,2,3,39,139,239.79787913663313,240.63204453606158,"[50, 0, 204]",204,a,0.3112352602183819,1,colour,0.5,3.9
39,19,1,2,3,40,140,241.14158113626763,241.99206438614056,"[5, 0, 249]",249,a,0.32731050066649914,1,colour,0.5,3.9
39,19,1,2,3,41,141,242.50092711485922,243.28010129742324,"[19, 0, 235]",235,a,0.25593763031065464,1,colour,0.5,3.9
39,19,1,2,3,42,142,243.79786180704832,244.82408332219347,"[82, 0, 172]",172,l,0.5028675966896117,1,colour,0.5,3.9
39,19,1,2,3,43,143,245.34457791456953,246.23203272093087,"[31, 0, 223]",223,a,0.3640142413787544,1,colour,0.5,3.9
39,19,1,2,3,44,144,246.75098540401086,247.62407426396385,"[34, 0, 220]",220,a,0.34971643052995205,1,colour,0.5,3.9
39,19,1,2,3,45,145,248.14161106897518,249.16808543307707,"[73, 0, 181]",181,a,0.5030751535668969,0,colour,0.5,3.9
39,19,1,2,3,46,146,249.68840870261192,250.56813348270953,"[93, 0, 161]",161,l,0.35615857830271125,1,colour,0.5,3.9
39,19,1,2,3,47,147,251.07908044708893,252.06414027232677,"[11, 0, 243]",243,a,0.46164643578231335,1,colour,0.5,3.9
39,19,1,2,3,48,148,252.5790674504824,253.54410057282075,"[94, 0, 160]",160,l,0.4415996470488608,1,colour,0.5,3.9
39,19,1,2,3,49,149,254.06350263487548,254.98406339343637,"[64, 0, 190]",190,a,0.39710877230390906,0,colour,0.5,3.9
39,19,1,2,3,50,150,255.501033059787,256.56007656408474,"[32, 0, 222]",222,a,0.5357258198782802,1,colour,0.5,3.9
39,19,1,2,4,1,151,287.42203886481,289.1281667230651,"[54, 0, 200]",200,a,1.1824954901821911,0,colour,0.5,3.9
39,19,1,2,4,2,152,289.6416126443073,290.52812930801883,"[58, 0, 196]",196,a,0.3632545117288828,0,colour,0.5,3.9
39,19,1,2,4,3,153,291.0477243550122,291.9201105921529,"[66, 0, 188]",188,a,0.34923711931332946,0,colour,0.5,3.9
39,19,1,2,4,4,154,292.43838231498376,293.2721341755241,"[16, 0, 238]",238,a,0.3102856958284974,1,colour,0.5,3.9
39,19,1,2,4,5,155,293.78216150868684,294.736116909422,"[0, 0, 254]",254,a,0.4308413350954652,1,colour,0.5,3.9
39,19,1,2,4,6,156,295.25093893008307,296.1761380196549,"[47, 0, 207]",207,a,0.4024300333112478,1,colour,0.5,3.9
39,19,1,2,4,7,157,296.68837128719315,297.52010980434716,"[94, 0, 160]",160,l,0.3085035406984389,1,colour,0.5,3.9
39,19,1,2,4,8,158,298.0320910103619,298.9761250228621,"[49, 0, 205]",205,a,0.42084432812407613,1,colour,0.5,3.9
39,19,1,2,4,9,159,299.4852969208732,300.4001323324628,"[64, 0, 190]",190,a,0.39151654532179236,0,colour,0.5,3.9
39,19,1,2,4,10,160,300.90699195768684,301.8481055982411,"[31, 0, 223]",223,a,0.4176541711203754,1,colour,0.5,3.9
39,19,1,2,4,11,161,302.3602888472378,303.2641343646683,"[43, 0, 211]",211,a,0.38104101503267884,1,colour,0.5,3.9
39,19,1,2,4,12,162,303.7822008933872,304.6321473303251,"[60, 0, 194]",194,a,0.3268835712224245,0,colour,0.5,3.9
39,19,1,2,4,13,163,305.14151772717014,306.120201964397,"[71, 0, 183]",183,a,0.45534528512507677,0,colour,0.5,3.9
39,19,1,2,4,14,164,306.641484644264,307.5121072367765,"[34, 0, 220]",220,a,0.34782793652266264,1,colour,0.5,3.9
39,19,1,2,4,15,165,308.03201854228973,308.94415137916803,"[85, 0, 169]",169,l,0.38876789063215256,1,colour,0.5,3.9
39,19,1,2,4,16,166,309.45395500725135,310.3841748521663,"[2, 0, 252]",252,a,0.40714516397565603,1,colour,0.5,3.9
39,19,1,2,4,17,167,310.89160122256726,311.82417272543535,"[65, 0, 189]",189,a,0.40991508681327105,0,colour,0.5,3.9
39,19,1,2,4,18,168,312.3445995762013,313.2481189891696,"[8, 0, 246]",246,a,0.3804313410073519,1,colour,0.5,3.9
39,19,1,2,4,19,169,313.7665230440907,314.77618173649535,"[5, 0, 249]",249,a,0.4866753835231066,1,colour,0.5,3.9
39,19,1,2,4,20,170,315.28201381629333,316.1763369119726,"[27, 0, 227]",227,a,0.37102037761360407,1,colour,0.5,3.9
39,19,1,2,4,21,171,316.68835159484297,319.61616543121636,"[77, 0, 177]",177,a,2.404637936502695,0,colour,0.5,3.9
39,19,1,2,4,22,172,320.12589974235743,321.048172946088,"[26, 0, 228]",228,a,0.39941119961440563,1,colour,0.5,3.9
39,19,1,2,4,23,173,321.5632856255397,322.51216355664656,"[1, 0, 253]",253,a,0.4261982780881226,1,colour,0.5,3.9
39,19,1,2,4,24,174,323.03213157644495,323.9681137902662,"[30, 0, 224]",224,a,0.4128157664090395,1,colour,0.5,3.9
39,19,1,2,4,25,175,324.48519806563854,325.5442163636908,"[40, 0, 214]",214,a,0.5356352352537215,1,colour,0.5,3.9
39,19,1,2,4,26,176,326.0633419454098,327.0721518988721,"[38, 0, 216]",216,a,0.48596370313316584,1,colour,0.5,3.9
39,19,1,2,4,27,177,327.5789894685149,328.5041846195236,"[81, 0, 173]",173,l,0.4018022418022156,1,colour,0.5,3.9
39,19,1,2,4,28,178,329.0163950440474,330.01616228045896,"[93, 0, 161]",161,l,0.4763743272051215,1,colour,0.5,3.9
39,19,1,2,4,29,179,330.53220522543415,331.48813537321985,"[99, 0, 155]",155,l,0.43283301731571555,1,colour,0.5,3.9
39,19,1,2,4,30,180,332.0007947823033,332.97615534905344,"[89, 0, 165]",165,l,0.45192906027659774,1,colour,0.5,3.9
39,19,1,2,4,31,181,333.48512638546526,334.3841350735165,"[22, 0, 232]",232,a,0.37559923715889454,1,colour,0.5,3.9
39,19,1,2,4,32,182,334.89150354871526,335.992140004877,"[23, 0, 231]",231,a,0.5773483100347221,1,colour,0.5,3.9
39,19,1,2,4,33,183,336.50086212996393,340.01616779435426,"[79, 0, 175]",175,l,2.991968287155032,1,colour,0.5,3.9
39,19,1,2,4,34,184,340.53209652379155,341.41618788056076,"[10, 0, 244]",244,a,0.3609327860176563,1,colour,0.5,3.9
39,19,1,2,4,35,185,341.92259615752846,343.2641871403903,"[76, 0, 178]",178,l,0.818109457846731,1,colour,0.5,3.9
39,19,1,2,4,36,186,343.7820268133655,344.78417524602264,"[20, 0, 234]",234,a,0.47873583110049367,1,colour,0.5,3.9
39,19,1,2,4,37,187,345.29773420095444,346.592160878703,"[74, 0, 180]",180,a,0.7710837870836258,0,colour,0.5,3.9
39,19,1,2,4,38,188,347.1100348159671,348.0481441952288,"[37, 0, 217]",217,a,0.41460067918524146,1,colour,0.5,3.9
39,19,1,2,4,39,189,348.56336360704154,349.4081675899215,"[96, 0, 158]",158,l,0.3214677874930203,1,colour,0.5,3.9
39,19,1,2,4,40,190,349.9227040717378,350.8401743164286,"[25, 0, 229]",229,a,0.39413404930382967,1,colour,0.5,3.9
39,19,1,2,4,41,191,351.3602364654653,354.38418272929266,"[61, 0, 193]",193,a,2.500729797873646,0,colour,0.5,3.9
39,19,1,2,4,42,192,354.89155671792105,355.6721448097378,"[57, 0, 197]",197,a,0.25733421044424176,0,colour,0.5,3.9
39,19,1,2,4,43,193,356.18829881958663,357.3202405613847,"[78, 0, 176]",176,a,0.6085610422305763,0,colour,0.5,3.9
39,19,1,2,4,44,194,357.8290079794824,358.6401538364589,"[87, 0, 167]",167,l,0.287802966311574,1,colour,0.5,3.9
39,19,1,2,4,45,195,359.15697896061465,359.9601785703562,"[12, 0, 242]",242,a,0.2798878327012062,1,colour,0.5,3.9
39,19,1,2,4,46,196,360.46961119491607,361.3761663767509,"[67, 0, 187]",187,a,0.38346750382333994,0,colour,0.5,3.9
39,19,1,2,4,47,197,361.8914799178019,362.7042275490239,"[6, 0, 248]",248,a,0.2897568391636014,1,colour,0.5,3.9
39,19,1,2,4,48,198,363.21953163761646,364.04817452142015,"[35, 0, 219]",219,a,0.30556229455396533,1,colour,0.5,3.9
39,19,1,2,4,49,199,364.563320283778,365.4481757027097,"[50, 0, 204]",204,a,0.3626590152271092,1,colour,0.5,3.9
39,19,1,2,4,50,200,365.9695422714576,366.8482280843891,"[73, 0, 181]",181,a,0.3553362265229225,0,colour,0.5,3.9
39,19,1,2,5,1,201,380.1249588429928,380.9123884430155,"[53, 0, 201]",201,a,0.26376533042639494,0,colour,0.4,3.9
39,19,1,2,5,2,202,381.4226241209544,382.7121714334935,"[77, 0, 177]",177,a,0.7662107236683369,0,colour,0.4,3.9
39,19,1,2,5,3,203,383.21948516368866,384.0401999168098,"[28, 0, 226]",226,a,0.29787559201940894,1,colour,0.4,3.9
39,19,1,2,5,4,204,384.54755381913856,385.2002997174859,"[98, 0, 156]",156,l,0.13014501426368952,1,colour,0.4,3.9
39,19,1,2,5,5,205,385.7195619638078,386.34419076377526,"[8, 0, 246]",246,a,0.10146904783323407,1,colour,0.4,3.9
39,19,1,2,5,6,206,386.8600808964111,387.6082050050609,"[43, 0, 211]",211,a,0.22480287961661816,1,colour,0.4,3.9
39,19,1,2,5,7,207,388.12573590222746,389.1362114325166,"[78, 0, 176]",176,a,0.4874800122343004,0,colour,0.4,3.9
39,19,1,2,5,8,208,389.6570148007013,390.4322757241316,"[51, 0, 203]",203,a,0.2514883461408317,0,colour,0.4,3.9
39,19,1,2,5,9,209,390.95390420081094,391.68821414234117,"[35, 0, 219]",219,a,0.2109213643707335,1,colour,0.4,3.9
39,19,1,2,5,10,210,392.2039073514752,392.9122695014812,"[59, 0, 195]",195,a,0.18519333936274052,0,colour,0.4,3.9
39,19,1,2,5,11,211,393.4226280595176,394.7522346852347,"[54, 0, 200]",200,a,0.8061857535503805,0,colour,0.4,3.9
39,19,1,2,5,12,212,395.26643482223153,396.12828133255243,"[44, 0, 210]",210,a,0.33868439495563507,1,colour,0.4,3.9
39,19,1,2,5,13,213,396.64129914250225,397.50424881652,"[56, 0, 198]",198,a,0.3396233250387013,0,colour,0.4,3.9
39,19,1,2,5,14,214,398.0163178499788,398.8162351422943,"[41, 0, 213]",213,a,0.27672524470835924,1,colour,0.4,3.9
39,19,1,2,5,15,215,399.3289524470456,400.1842831601389,"[75, 0, 179]",179,a,0.3320598960854113,0,colour,0.4,3.9
39,19,1,2,5,16,216,400.70386678539217,401.4882011455484,"[55, 0, 199]",199,a,0.2608914324082434,0,colour,0.4,3.9
39,19,1,2,5,17,217,402.0006994716823,402.56844934727997,"[60, 0, 194]",194,a,0.04434790788218379,0,colour,0.4,3.9
39,19,1,2,5,18,218,403.07886068103835,403.68020487902686,"[10, 0, 244]",244,a,0.0781281259842217,1,colour,0.4,3.9
39,19,1,2,5,19,219,404.18823659140617,404.8162548346445,"[68, 0, 186]",186,a,0.10480768466368318,0,colour,0.4,3.9
39,19,1,2,5,20,220,405.3288457146846,406.24821154307574,"[89, 0, 165]",165,l,0.396123762242496,1,colour,0.4,3.9
39,19,1,2,5,21,221,406.76641788706183,407.6482103615999,"[0, 0, 254]",254,a,0.35857364535331726,1,colour,0.4,3.9
39,19,1,2,5,22,222,408.15700968075544,408.9682563627139,"[45, 0, 209]",209,a,0.28793884348124266,1,colour,0.4,3.9
39,19,1,2,5,23,223,409.4850385575555,410.3122383877635,"[65, 0, 189]",189,a,0.3038356718607247,0,colour,0.4,3.9
39,19,1,2,5,24,224,410.8288902193308,411.6402121260762,"[37, 0, 217]",217,a,0.28825392108410597,1,colour,0.4,3.9
39,19,1,2,5,25,225,412.15704749012366,413.01621426828206,"[11, 0, 243]",243,a,0.33595267543569207,1,colour,0.4,3.9
39,19,1,2,5,26,226,413.5319350468926,414.36024788720533,"[9, 0, 245]",245,a,0.30504674976691604,1,colour,0.4,3.9
39,19,1,2,5,27,227,414.8756929729134,415.6883319024928,"[67, 0, 187]",187,a,0.2892401125282049,0,colour,0.4,3.9
39,19,1,2,5,28,228,416.2038766318001,419.04033540003,"[79, 0, 175]",175,l,2.3130465606227517,1,colour,0.4,3.9
39,19,1,2,5,29,229,419.54760580696166,420.43224657932296,"[64, 0, 190]",190,a,0.362047765403986,0,colour,0.4,3.9
39,19,1,2,5,30,230,420.9537754128687,421.8242262885906,"[61, 0, 193]",193,a,0.3472710372880101,0,colour,0.4,3.9
39,19,1,2,5,31,231,422.3443790222518,423.2162461699918,"[29, 0, 225]",225,a,0.34842225071042776,1,colour,0.4,3.9
39,19,1,2,5,32,232,423.73507636692375,424.5684339874424,"[14, 0, 240]",240,a,0.3099158741533756,1,colour,0.4,3.9
39,19,1,2,5,33,233,425.07874370831996,425.9363051680848,"[12, 0, 242]",242,a,0.3343138797208667,1,colour,0.4,3.9
39,19,1,2,5,34,234,426.45386796677485,427.3282553385943,"[82, 0, 172]",172,l,0.35099800722673535,1,colour,0.4,3.9
39,19,1,2,5,35,235,427.84439910855144,428.84821390593424,"[92, 0, 162]",162,l,0.48044945765286684,1,colour,0.4,3.9
39,19,1,2,5,36,236,429.36003954242915,430.20024182181805,"[48, 0, 206]",206,a,0.3168054320849478,1,colour,0.4,3.9
39,19,1,2,5,37,237,430.71942844986916,431.5362551496364,"[71, 0, 183]",183,a,0.29356494126841426,0,colour,0.4,3.9
39,19,1,2,5,38,238,432.04763337643817,432.9362342758104,"[52, 0, 202]",202,a,0.3656479171477258,0,colour,0.4,3.9
39,19,1,2,5,39,239,433.45377029292285,434.3762518414296,"[31, 0, 223]",223,a,0.3990228669717908,1,colour,0.4,3.9
39,19,1,2,5,40,240,434.8913133209571,435.74423802504316,"[88, 0, 166]",166,l,0.3295373087748885,1,colour,0.4,3.9
39,19,1,2,5,41,241,436.25070577301085,437.168270541355,"[93, 0, 161]",161,l,0.39409230183809996,1,colour,0.4,3.9
39,19,1,2,5,42,242,437.68821965623647,438.6162568037398,"[57, 0, 197]",197,a,0.4047178877517581,0,colour,0.4,3.9
39,19,1,2,5,43,243,439.12567643169314,441.1763239153661,"[83, 0, 171]",171,l,1.5276173073798418,1,colour,0.4,3.9
39,19,1,2,5,44,244,441.6882157176733,442.5202409555204,"[47, 0, 207]",207,a,0.308817436452955,1,colour,0.4,3.9
39,19,1,2,5,45,245,443.0319287455641,443.9042590567842,"[70, 0, 184]",184,a,0.3490996668115258,0,colour,0.4,3.9
39,19,1,2,5,46,246,444.4224590989761,445.23228084435686,"[4, 0, 250]",250,a,0.2864930331707001,1,colour,0.4,3.9
39,19,1,2,5,47,247,445.7505698958412,446.56029081624,"[7, 0, 247]",247,a,0.2864737343043089,1,colour,0.4,3.9
39,19,1,2,5,48,248,447.07881341921166,447.69625648856163,"[97, 0, 157]",157,l,0.09413995733484626,1,colour,0.4,3.9
39,19,1,2,5,49,249,448.20378210861236,449.29628839017823,"[72, 0, 182]",182,a,0.5697868498973548,0,colour,0.4,3.9
39,19,1,2,5,50,250,449.8131221793592,450.7682433659211,"[99, 0, 155]",155,l,0.43164990190416574,1,colour,0.4,3.9
39,19,1,2,6,1,251,457.8123553600162,458.8242818210274,"[90, 0, 164]",164,l,0.48861389653757215,1,colour,0.28,3.8
39,19,1,2,6,2,252,459.3442447204143,460.7285582064651,"[61, 0, 193]",193,a,0.861318361479789,0,colour,0.28,3.8
39,19,1,2,6,3,253,461.23492591734976,462.2003426468,"[80, 0, 174]",174,a,0.4420084599405527,0,colour,0.28,3.8
39,19,1,2,6,4,254,462.7193890651688,463.7203638353385,"[64, 0, 190]",190,a,0.47792883962392807,0,colour,0.28,3.8
39,19,1,2,6,5,255,464.2349011050537,465.1123234583065,"[4, 0, 250]",250,a,0.3542468473315239,1,colour,0.28,3.8
39,19,1,2,6,6,256,465.62556576076895,466.5283380462788,"[88, 0, 166]",166,l,0.3793577146716416,1,colour,0.28,3.8
39,19,1,2,6,7,257,467.0475116777234,467.8802934945561,"[83, 0, 171]",171,l,0.309838286601007,1,colour,0.28,3.8
39,19,1,2,6,8,258,468.39110418828204,469.12025986006483,"[49, 0, 205]",205,a,0.20628657843917608,1,colour,0.28,3.8
39,19,1,2,6,9,259,469.6412097392604,470.51232306472957,"[81, 0, 173]",173,l,0.3477208102121949,1,colour,0.28,3.8
39,19,1,2,6,10,260,471.0318133481778,471.8403157074936,"[65, 0, 189]",189,a,0.28588887210935354,0,colour,0.28,3.8
39,19,1,2,6,11,261,472.36001827474684,473.1764983893372,"[17, 0, 237]",237,a,0.293391649145633,1,colour,0.28,3.8
39,19,1,2,6,12,262,473.68814285611734,474.5603223242797,"[60, 0, 194]",194,a,0.349452159833163,0,colour,0.28,3.8
39,19,1,2,6,13,263,475.07880317931995,476.2163276961073,"[91, 0, 163]",163,l,0.6149539593607187,1,colour,0.28,3.8
39,19,1,2,6,14,264,476.7349617574364,477.6643903651275,"[66, 0, 188]",188,a,0.4060073415748775,0,colour,0.28,3.8
39,19,1,2,6,15,265,478.17242877278477,478.96026679174975,"[69, 0, 185]",185,a,0.26446952810510993,0,colour,0.28,3.8
39,19,1,2,6,16,266,479.469253975898,480.3203575341031,"[50, 0, 204]",204,a,0.3276263657025993,1,colour,0.28,3.8
39,19,1,2,6,17,267,480.8289957703091,481.6403054674156,"[12, 0, 242]",242,a,0.28839570563286543,1,colour,0.28,3.8
39,19,1,2,6,18,268,482.15670248074457,483.0403113751672,"[6, 0, 248]",248,a,0.36082841688767076,1,colour,0.28,3.8
39,19,1,2,6,19,269,483.54736319743097,486.2883358411491,"[76, 0, 178]",178,l,2.2182689658366144,1,colour,0.28,3.8
39,19,1,2,6,20,270,486.7973537449725,488.0163276963867,"[79, 0, 175]",175,l,0.6954995156265795,1,colour,0.28,3.8
39,19,1,2,6,21,271,488.53178696054965,490.0083373375237,"[84, 0, 170]",170,l,0.9534449758939445,1,colour,0.28,3.8
39,19,1,2,6,22,272,490.5161291975528,491.2403066488914,"[1, 0, 253]",253,a,0.20093459775671363,1,colour,0.28,3.8
39,19,1,2,6,23,273,491.75060612987727,492.62448583357036,"[37, 0, 217]",217,a,0.3504741913639009,1,colour,0.28,3.8
39,19,1,2,6,24,274,493.14121210202575,493.9763408508152,"[67, 0, 187]",187,a,0.3116948795504868,0,colour,0.28,3.8
39,19,1,2,6,25,275,494.4850172898732,495.3443199452013,"[26, 0, 228]",228,a,0.33605153067037463,1,colour,0.28,3.8
39,19,1,2,6,26,276,495.8599072098732,496.7042653579265,"[96, 0, 158]",158,l,0.3209672081284225,1,colour,0.28,3.8
39,19,1,2,6,27,277,497.2193756746128,498.1523264516145,"[97, 0, 157]",157,l,0.409902089741081,1,colour,0.28,3.8
39,19,1,2,6,28,278,498.67233937000856,499.48833072092384,"[38, 0, 216]",216,a,0.29306436236947775,1,colour,0.28,3.8
39,19,1,2,6,29,279,500.00054784072563,500.64027238450944,"[40, 0, 214]",214,a,0.11703307554125786,1,colour,0.28,3.8
39,19,1,2,6,30,280,501.15671035740525,501.94464644417167,"[55, 0, 199]",199,a,0.26518790423870087,0,colour,0.28,3.8
39,19,1,2,6,31,281,502.45352413877845,503.08033287897706,"[94, 0, 160]",160,l,0.10380770824849606,1,colour,0.28,3.8
39,19,1,2,6,32,282,503.59428213583305,504.3043437334709,"[89, 0, 165]",165,l,0.18718226393684745,1,colour,0.28,3.8
39,19,1,2,6,33,283,504.812936283648,505.4643635833636,"[43, 0, 211]",211,a,0.12852630484849215,1,colour,0.28,3.8
39,19,1,2,6,34,284,505.9848794438876,506.7603073581122,"[70, 0, 184]",184,a,0.25201334385201335,0,colour,0.28,3.8
39,19,1,2,6,35,285,507.28185942862183,508.1043397951871,"[53, 0, 201]",201,a,0.299233574885875,0,colour,0.28,3.8
39,19,1,2,6,36,286,508.62566461600363,509.392307783477,"[36, 0, 218]",218,a,0.2435149229131639,1,colour,0.28,3.8
39,19,1,2,6,37,287,509.90681354515254,510.69635298103094,"[85, 0, 169]",169,l,0.2665486438199878,1,colour,0.28,3.8
39,19,1,2,6,38,288,511.20374351134524,511.9283266249113,"[95, 0, 159]",159,l,0.2011768133379519,1,colour,0.28,3.8
39,19,1,2,6,39,289,512.4380912622437,513.2163241514936,"[34, 0, 220]",220,a,0.2549274140037596,1,colour,0.28,3.8
39,19,1,2,6,40,290,513.7349873576313,514.6083436389454,"[52, 0, 202]",202,a,0.3501004306599498,0,colour,0.28,3.8
39,19,1,2,6,41,291,515.1256102654152,515.8723271605559,"[75, 0, 179]",179,a,0.22347640478983521,0,colour,0.28,3.8
39,19,1,2,6,42,292,516.391177049838,517.2483592354693,"[92, 0, 162]",162,l,0.3340842672623694,1,colour,0.28,3.8
39,19,1,2,6,43,293,517.7661800035276,518.6723448834382,"[74, 0, 180]",180,a,0.3827652749605477,0,colour,0.28,3.8
39,19,1,2,6,44,294,519.188121588435,519.9283376527019,"[99, 0, 155]",155,l,0.21681567188352346,1,colour,0.28,3.8
39,19,1,2,6,45,295,520.4379935883917,521.232361976523,"[71, 0, 183]",183,a,0.2713208822533488,0,colour,0.28,3.8
39,19,1,2,6,46,296,521.7505832868628,522.5363650326617,"[8, 0, 246]",246,a,0.2624467322602868,1,colour,0.28,3.8
39,19,1,2,6,47,297,523.0474116406403,523.9603368965909,"[73, 0, 181]",181,a,0.3899131962098181,0,colour,0.28,3.8
39,19,1,2,6,48,298,524.4693075390533,525.1603404409252,"[98, 0, 156]",156,l,0.16776799270883203,1,colour,0.28,3.8
39,19,1,2,6,49,299,525.6723775728606,526.5283742803149,"[68, 0, 186]",186,a,0.3331347033381462,0,colour,0.28,3.8
39,19,1,2,6,50,300,527.0474478746764,527.8163741701283,"[72, 0, 182]",182,a,0.2459189621731639,0,colour,0.28,3.8
39,19,1,2,7,1,301,532.8590943105519,533.6323521304876,"[61, 0, 193]",193,a,0.24908312549814582,0,colour,0.14,3.8
39,19,1,2,7,2,302,534.1410789820366,542.0403503659181,"[90, 0, 164]",164,a,7.37570715136826,0,colour,0.14,3.8
39,19,1,2,7,3,303,542.5473253880627,543.2723448835313,"[67, 0, 187]",187,a,0.20236623007804155,0,colour,0.14,3.8
39,19,1,2,7,4,304,543.781694800593,544.4243495627306,"[97, 0, 157]",157,l,0.11933156382292509,1,colour,0.14,3.8
39,19,1,2,7,5,305,544.9380798405036,545.6563606215641,"[5, 0, 249]",249,a,0.19558498030528426,1,colour,0.14,3.8
39,19,1,2,7,6,306,546.1722735972144,547.0083381254226,"[74, 0, 180]",180,a,0.3131497483700514,0,colour,0.14,3.8
39,19,1,2,7,7,307,547.5160460961051,548.280449851416,"[94, 0, 160]",160,l,0.24156065611168742,1,colour,0.14,3.8
39,19,1,2,7,8,308,548.7973706806079,549.5203870725818,"[60, 0, 194]",194,a,0.19979086751118302,0,colour,0.14,3.8
39,19,1,2,7,9,309,550.0317491511814,551.5366450576112,"[76, 0, 178]",178,a,0.9818637603893876,0,colour,0.14,3.8
39,19,1,2,7,10,310,552.0474616591819,552.936374485027,"[73, 0, 181]",181,a,0.3659523599781096,0,colour,0.14,3.8
39,19,1,2,7,11,311,553.4537167297676,554.2883854657412,"[56, 0, 198]",198,a,0.31137468200176954,0,colour,0.14,3.8
39,19,1,2,7,12,312,554.7973584714346,555.528357738629,"[99, 0, 155]",155,l,0.20758233359083533,1,colour,0.14,3.8
39,19,1,2,7,13,313,556.0471717882901,556.992353469599,"[50, 0, 204]",204,a,0.42197072925046086,1,colour,0.14,3.8
39,19,1,2,7,14,314,557.5005974653177,558.3603727365844,"[88, 0, 166]",166,l,0.33672382682561874,1,colour,0.14,3.8
39,19,1,2,7,15,315,558.8757437793538,559.6004296867177,"[95, 0, 159]",159,l,0.2023756825365126,1,colour,0.14,3.8
39,19,1,2,7,16,316,560.1099489578046,560.904330343008,"[55, 0, 199]",199,a,0.27109087631106377,0,colour,0.14,3.8
39,19,1,2,7,17,317,561.4222972281277,562.2245500306599,"[81, 0, 173]",173,a,0.2788019976578653,0,colour,0.14,3.8
39,19,1,2,7,18,318,562.7348101264797,563.5283904280514,"[93, 0, 161]",161,l,0.2701649428345263,1,colour,0.14,3.8
39,19,1,2,7,19,319,564.0473123914562,564.8164111915976,"[91, 0, 163]",163,l,0.24607177451252937,1,colour,0.14,3.8
39,19,1,2,7,20,320,565.3285873513669,566.336372516118,"[82, 0, 172]",172,a,0.48451474169269204,0,colour,0.14,3.8
39,19,1,2,7,21,321,566.8442309359089,568.4084184700623,"[84, 0, 170]",170,a,1.0408166805282235,0,colour,0.14,3.8
39,19,1,2,7,22,322,568.9222897449508,569.7763471524231,"[0, 0, 254]",254,a,0.33051995653659105,1,colour,0.14,3.8
39,19,1,2,7,23,323,570.2972544957884,571.3444341607392,"[75, 0, 179]",179,a,0.5237796665169299,0,colour,0.14,3.8
39,19,1,2,7,24,324,571.8598304097541,573.0083664823323,"[52, 0, 202]",202,a,0.6251742774620652,0,colour,0.14,3.8
39,19,1,2,7,25,325,573.5160555480979,574.4084074422717,"[57, 0, 197]",197,a,0.3691496066749096,0,colour,0.14,3.8
39,19,1,2,7,26,326,574.9223267668858,575.8164616040885,"[79, 0, 175]",175,a,0.3707805252633989,0,colour,0.14,3.8
39,19,1,2,7,27,327,576.328577504959,577.2324324753135,"[18, 0, 236]",236,a,0.38094255374744534,1,colour,0.14,3.8
39,19,1,2,7,28,328,577.7504946715198,578.6804128298536,"[62, 0, 192]",192,a,0.40678361244499683,0,colour,0.14,3.8
39,19,1,2,7,29,329,579.1878821295686,580.2804144052789,"[59, 0, 195]",195,a,0.5691086463630199,0,colour,0.14,3.8
39,19,1,2,7,30,330,580.7980236783624,582.5764401000924,"[63, 0, 191]",191,a,1.2560463324189186,0,colour,0.14,3.8
39,19,1,2,7,31,331,583.0942073049955,583.9364355313592,"[53, 0, 201]",201,a,0.3189156618900597,0,colour,0.14,3.8
39,19,1,2,7,32,332,584.4535221699625,585.1126605910249,"[89, 0, 165]",165,l,0.13578174589201808,1,colour,0.14,3.8
39,19,1,2,7,33,333,585.6253719883971,586.5284061818384,"[64, 0, 190]",190,a,0.37961332127451897,0,colour,0.14,3.8
39,19,1,2,7,34,334,587.0472611910664,587.8564133970067,"[77, 0, 177]",177,a,0.2843477507121861,0,colour,0.14,3.8
39,19,1,2,7,35,335,588.3754487880506,589.0884764441289,"[70, 0, 184]",184,a,0.18993997760117054,0,colour,0.14,3.8
39,19,1,2,7,36,336,589.6098205638118,590.3843745323829,"[36, 0, 218]",218,a,0.2512610964477062,1,colour,0.14,3.8
39,19,1,2,7,37,337,590.8910781946033,591.7444266774692,"[58, 0, 196]",196,a,0.33030412811785936,0,colour,0.14,3.8
39,19,1,2,7,38,338,592.250427717343,593.480403771624,"[72, 0, 182]",182,a,0.7066965727135539,0,colour,0.14,3.8
39,19,1,2,7,39,339,594.0003780927509,595.2004017233849,"[85, 0, 169]",169,l,0.6765354103408754,1,colour,0.14,3.8
39,19,1,2,7,40,340,595.719263822306,596.6724189268425,"[86, 0, 168]",168,l,0.43011271907016635,1,colour,0.14,3.8
39,19,1,2,7,41,341,597.1879246649332,598.0484057092108,"[38, 0, 216]",216,a,0.3370873471722007,1,colour,0.14,3.8
39,19,1,2,7,42,342,598.5629130466841,599.3924424787983,"[30, 0, 224]",224,a,0.306360621470958,1,colour,0.14,3.8
39,19,1,2,7,43,343,599.9068178776652,601.3444546409883,"[78, 0, 176]",176,l,0.9146676328964531,1,colour,0.14,3.8
39,19,1,2,7,44,344,601.8597445511259,602.8324088444933,"[98, 0, 156]",156,l,0.4493978088721633,1,colour,0.14,3.8
39,19,1,2,7,45,345,603.3442037603818,604.3284357204102,"[92, 0, 162]",162,l,0.4608693770132959,1,colour,0.14,3.8
39,19,1,2,7,46,346,604.8442529914901,605.6644234480336,"[96, 0, 158]",158,l,0.2967818798497319,1,colour,0.14,3.8
39,19,1,2,7,47,347,606.1723425206728,607.0084448577836,"[87, 0, 167]",167,l,0.31283939722925425,1,colour,0.14,3.8
39,19,1,2,7,48,348,607.5160551541485,608.3364087496884,"[34, 0, 220]",220,a,0.29727773275226355,1,colour,0.14,3.8
39,19,1,2,7,49,349,608.8440954526886,609.6324218413793,"[51, 0, 203]",203,a,0.2649027593433857,0,colour,0.14,3.8
39,19,1,2,7,50,350,610.1409836714156,610.9844245510176,"[65, 0, 189]",189,a,0.320138948969543,0,colour,0.14,3.8
39,19,1,2,8,1,351,619.6402412704192,624.3844442432746,"[86, 0, 168]",168,a,4.220071207266301,0,colour,0.06,3.7
39,19,1,2,8,2,352,624.8911975300871,625.6564468741417,"[53, 0, 201]",201,a,0.24202382005751133,0,colour,0.06,3.7
39,19,1,2,8,3,353,626.1723830867559,626.8644147836603,"[57, 0, 197]",197,a,0.1690440559759736,0,colour,0.06,3.7
39,19,1,2,8,4,354,627.3755653668195,628.1444558221847,"[51, 0, 203]",203,a,0.2462013498879969,0,colour,0.06,3.7
39,19,1,2,8,5,355,628.6566146528348,629.3844694495201,"[95, 0, 159]",159,l,0.20443589380010962,1,colour,0.06,3.7
39,19,1,2,8,6,356,629.890997455921,630.6484951125458,"[67, 0, 187]",187,a,0.23487826203927398,0,colour,0.06,3.7
39,19,1,2,8,7,357,631.1566879083402,631.768528116867,"[63, 0, 191]",191,a,0.0884252442047,0,colour,0.06,3.7
39,19,1,2,8,8,358,632.2817101604305,632.9444396747276,"[99, 0, 155]",155,l,0.13937953440472484,1,colour,0.06,3.7
39,19,1,2,8,9,359,633.4535587974824,634.1924661095254,"[98, 0, 156]",156,l,0.21548762125894427,1,colour,0.06,3.7
39,19,1,2,8,10,360,634.7036257511936,635.6965002799407,"[81, 0, 173]",173,a,0.46947177313268185,0,colour,0.06,3.7
39,19,1,2,8,11,361,636.2035686434247,636.9924708358012,"[97, 0, 157]",157,l,0.26574637880548835,1,colour,0.06,3.7
39,19,1,2,8,12,362,637.5004572561011,638.264419903513,"[77, 0, 177]",177,a,0.24122824985533953,0,colour,0.06,3.7
39,19,1,2,8,13,363,638.7816829853691,639.5284538371488,"[80, 0, 174]",174,a,0.2235307553783059,0,colour,0.06,3.7
39,19,1,2,8,14,364,640.0472525265068,640.8484974754974,"[56, 0, 198]",198,a,0.27801469806581736,0,colour,0.06,3.7
39,19,1,2,8,15,365,641.3598063853569,641.9444530652836,"[96, 0, 158]",158,l,0.0615357649512589,1,colour,0.06,3.7
39,19,1,2,8,16,366,642.4535454064608,643.128497554455,"[94, 0, 160]",160,l,0.15173056162893772,1,colour,0.06,3.7
39,19,1,2,8,17,367,643.6412097392604,645.3204709617421,"[78, 0, 176]",176,a,1.1559809534810483,0,colour,0.06,3.7
39,19,1,2,8,18,368,645.8286952651106,646.664449442178,"[50, 0, 204]",204,a,0.31256134156137705,1,colour,0.06,3.7
39,19,1,2,8,19,369,647.172400415875,648.008657141123,"[60, 0, 194]",194,a,0.3128299452364445,0,colour,0.06,3.7
39,19,1,2,8,20,370,648.5162134808488,649.3524615410715,"[45, 0, 209]",209,a,0.31312296679243445,1,colour,0.06,3.7
39,19,1,2,8,21,371,649.8599363546818,650.856503194198,"[91, 0, 163]",163,l,0.47324797371402383,1,colour,0.06,3.7
39,19,1,2,8,22,372,651.3755184989423,652.2884819582105,"[69, 0, 185]",185,a,0.3897493560798466,0,colour,0.06,3.7
39,19,1,2,8,23,373,652.7973777698353,653.6644636206329,"[58, 0, 196]",196,a,0.34379416005685925,0,colour,0.06,3.7
39,19,1,2,8,24,374,654.172409474384,655.1844907170162,"[70, 0, 184]",184,a,0.48876985954120755,0,colour,0.06,3.7
39,19,1,2,8,25,375,655.7035926682875,656.5365024851635,"[87, 0, 167]",167,l,0.3095354186370969,1,colour,0.06,3.7
39,19,1,2,8,26,376,657.0473549268208,660.648489204701,"[79, 0, 175]",175,a,3.078116310760379,0,colour,0.06,3.7
39,19,1,2,8,27,377,661.1568769547157,662.0805368917063,"[65, 0, 189]",189,a,0.4009105730801821,0,colour,0.06,3.7
39,19,1,2,8,28,378,662.5943179759197,663.4645061558113,"[73, 0, 181]",181,a,0.3468890059739351,0,colour,0.06,3.7
39,19,1,2,8,29,379,663.984932219144,664.936482005287,"[83, 0, 171]",171,a,0.4281785385683179,0,colour,0.06,3.7
39,19,1,2,8,30,380,665.4536226005293,666.184495836962,"[90, 0, 164]",164,l,0.20809000171720982,1,colour,0.06,3.7
39,19,1,2,8,31,381,666.7035840037279,667.376529503148,"[62, 0, 192]",192,a,0.1495293532498181,0,colour,0.06,3.7
39,19,1,2,8,32,382,667.8911884715781,668.480478996411,"[88, 0, 166]",166,l,0.06600868050009012,1,colour,0.06,3.7
39,19,1,2,8,33,383,669.0005045174621,669.9124770583585,"[72, 0, 182]",182,a,0.3886694288812578,0,colour,0.06,3.7
39,19,1,2,8,34,384,670.4223641823046,671.224549242761,"[92, 0, 162]",162,l,0.27914149314165115,1,colour,0.06,3.7
39,19,1,2,8,35,385,671.7349050436169,672.5126885543577,"[52, 0, 202]",202,a,0.2547627864405513,0,colour,0.06,3.7
39,19,1,2,8,36,386,673.0317822345532,673.7925259741023,"[12, 0, 242]",242,a,0.23751112585887313,1,colour,0.06,3.7
39,19,1,2,8,37,387,674.3129819696769,675.1205036509782,"[54, 0, 200]",200,a,0.2839456335641444,0,colour,0.06,3.7
39,19,1,2,8,38,388,675.6412392775528,676.5924779251218,"[76, 0, 178]",178,a,0.42760706739500165,0,colour,0.06,3.7
39,19,1,2,8,39,389,677.1099863732234,677.8245232487097,"[84, 0, 170]",170,l,0.19134207116439939,1,colour,0.06,3.7
39,19,1,2,8,40,390,678.3442175453529,679.1764979953878,"[66, 0, 188]",188,a,0.30905571347102523,0,colour,0.06,3.7
39,19,1,2,8,41,391,679.6881251330487,680.4165163487196,"[89, 0, 165]",165,l,0.20551857771351933,1,colour,0.06,3.7
39,19,1,2,8,42,392,680.9379352987744,681.7524934425019,"[61, 0, 193]",193,a,0.29118256364017725,0,colour,0.06,3.7
39,19,1,2,8,43,393,682.2661614930257,683.024507495109,"[64, 0, 190]",190,a,0.2352634440176189,0,colour,0.06,3.7
39,19,1,2,8,44,394,683.5317786899395,684.3444751207717,"[21, 0, 233]",233,a,0.2894661803729832,1,colour,0.06,3.7
39,19,1,2,8,45,395,684.8597914190032,685.6805542209186,"[93, 0, 161]",161,l,0.2973663480952382,1,colour,0.06,3.7
39,19,1,2,8,46,396,686.1880471515469,687.0005151513033,"[74, 0, 180]",180,a,0.2891455893404782,0,colour,0.06,3.7
39,19,1,2,8,47,397,687.5160571234301,688.2885666349903,"[68, 0, 186]",186,a,0.24924657167866826,0,colour,0.06,3.7
39,19,1,2,8,48,398,688.7972757634707,689.6485128356144,"[71, 0, 183]",183,a,0.32785400887951255,0,colour,0.06,3.7
39,19,1,2,8,49,399,690.1567465914413,691.0325325122103,"[55, 0, 199]",199,a,0.3524201870895922,0,colour,0.06,3.7
39,19,1,2,8,50,400,691.5473273573443,692.6565059511922,"[75, 0, 179]",179,a,0.5865536853671074,0,colour,0.06,3.7
39,19,1,2,9,1,401,699.8121659196913,701.5205197986215,"[70, 0, 184]",184,a,1.1841429504565895,0,colour,0.06,3.6
39,19,1,2,9,2,402,702.0317231575027,702.8725370806642,"[99, 0, 155]",155,l,0.3174501587636769,1,colour,0.06,3.6
39,19,1,2,9,3,403,703.3911502682604,704.1685001538135,"[97, 0, 157]",157,l,0.2542401519604027,1,colour,0.06,3.6
39,19,1,2,9,4,404,704.6880022529513,705.4165439177305,"[64, 0, 190]",190,a,0.20514442352578044,0,colour,0.06,3.6
39,19,1,2,9,5,405,705.9222413022071,706.7685135444626,"[80, 0, 174]",174,a,0.32283797953277826,0,colour,0.06,3.6
39,19,1,2,9,6,406,707.2817223696038,708.240729640238,"[83, 0, 171]",171,a,0.43564193043857813,0,colour,0.06,3.6
39,19,1,2,9,7,407,708.750411963556,709.5605200352147,"[50, 0, 204]",204,a,0.28691011667251587,1,colour,0.06,3.6
39,19,1,2,9,8,408,710.0786322499625,710.8325277860276,"[98, 0, 156]",156,l,0.23064244259148836,1,colour,0.06,3.6
39,19,1,2,9,9,409,711.3441628003493,712.1765086292289,"[95, 0, 159]",159,l,0.3089363779872656,1,colour,0.06,3.6
39,19,1,2,9,10,410,712.6880975635722,715.1605105828494,"[76, 0, 178]",178,a,1.9491737098433077,0,colour,0.06,3.6
39,19,1,2,9,11,411,715.6722834436223,716.4885780564509,"[67, 0, 187]",187,a,0.29294817754998803,0,colour,0.06,3.6
39,19,1,2,9,12,412,717.0004151142202,718.032536056824,"[89, 0, 165]",165,l,0.5089765503071249,1,colour,0.06,3.6
39,19,1,2,9,13,413,718.5473533514887,719.3205383094028,"[53, 0, 201]",201,a,0.2505029416643083,0,colour,0.06,3.6
39,19,1,2,9,14,414,719.8285459973849,720.648573487997,"[12, 0, 242]",242,a,0.296807873994112,1,colour,0.06,3.6
39,19,1,2,9,15,415,721.1568572623655,721.920526494272,"[94, 0, 160]",160,l,0.2403877815231681,1,colour,0.06,3.6
39,19,1,2,9,16,416,722.438005797565,723.1845742124133,"[55, 0, 199]",199,a,0.22317865630611777,0,colour,0.06,3.6
39,19,1,2,9,17,417,723.7036533206701,724.5366257592104,"[51, 0, 203]",203,a,0.30952990474179387,0,colour,0.06,3.6
39,19,1,2,9,18,418,725.0474581145681,725.9285365450196,"[92, 0, 162]",162,l,0.3579942970536649,1,colour,0.06,3.6
39,19,1,2,9,19,419,726.4380376990885,727.3285558437929,"[69, 0, 185]",185,a,0.36710908776149154,0,colour,0.06,3.6
39,19,1,2,9,20,420,727.844157286454,728.7125377110206,"[66, 0, 188]",188,a,0.34486424131318927,0,colour,0.06,3.6
39,19,1,2,9,21,421,729.2193433791399,730.3445605854504,"[60, 0, 194]",194,a,0.6026647654362023,0,colour,0.06,3.6
39,19,1,2,9,22,422,730.8599489578046,731.864538451191,"[62, 0, 192]",192,a,0.4812162765301764,0,colour,0.06,3.6
39,19,1,2,9,23,423,732.375522043556,733.4005832867697,"[81, 0, 173]",173,l,0.5025032884441316,1,colour,0.06,3.6
39,19,1,2,9,24,424,733.906722960528,734.6886465856805,"[61, 0, 193]",193,a,0.25851181149482727,0,colour,0.06,3.6
39,19,1,2,9,25,425,735.2035859730095,735.9688372863457,"[56, 0, 198]",198,a,0.2422581585124135,0,colour,0.06,3.6
39,19,1,2,9,26,426,736.4849404897541,737.3285530866124,"[73, 0, 181]",181,a,0.3203342966735363,0,colour,0.06,3.6
39,19,1,2,9,27,427,737.8442982835695,738.8405484706163,"[79, 0, 175]",175,a,0.47285215789452195,0,colour,0.06,3.6
39,19,1,2,9,28,428,739.3598713697866,740.2726442068815,"[65, 0, 189]",189,a,0.389257047791034,0,colour,0.06,3.6
39,19,1,2,9,29,429,740.7817676621489,741.7125093541108,"[71, 0, 183]",183,a,0.4074858413077891,0,colour,0.06,3.6
39,19,1,2,9,30,430,742.2192681543529,742.9845785447396,"[90, 0, 164]",164,l,0.24232471827417612,1,colour,0.06,3.6
39,19,1,2,9,31,431,743.5004808865488,744.3445200193673,"[6, 0, 248]",248,a,0.321133017539978,1,colour,0.06,3.6
39,19,1,2,9,32,432,744.8598800343461,745.7205902971327,"[88, 0, 166]",166,l,0.33792978478595614,1,colour,0.06,3.6
39,19,1,2,9,33,433,746.2348337573931,747.0326286107302,"[58, 0, 196]",196,a,0.27440351946279407,0,colour,0.06,3.6
39,19,1,2,9,34,434,747.5473576835357,748.1125794588588,"[96, 0, 158]",158,l,0.04256023885682225,1,colour,0.06,3.6
39,19,1,2,9,35,435,748.6254688743502,749.4406674122438,"[93, 0, 161]",161,l,0.29184501338750124,1,colour,0.06,3.6
39,19,1,2,9,36,436,749.953623781912,750.7286145268008,"[87, 0, 167]",167,l,0.25233669159933925,1,colour,0.06,3.6
39,19,1,2,9,37,437,751.2348735360429,752.1925669345073,"[78, 0, 176]",176,a,0.4346206863410771,0,colour,0.06,3.6
39,19,1,2,9,38,438,752.7035619481467,753.8005592622794,"[59, 0, 195]",195,a,0.5735725034028292,0,colour,0.06,3.6
39,19,1,2,9,39,439,754.312983545009,755.1845277389511,"[91, 0, 163]",163,l,0.34807094000279903,1,colour,0.06,3.6
39,19,1,2,9,40,440,755.703608028125,758.7125499201939,"[82, 0, 172]",172,a,2.485608847346157,0,colour,0.06,3.6
39,19,1,2,9,41,441,759.2192555512302,760.160559813492,"[84, 0, 170]",170,a,0.41812718100845814,0,colour,0.06,3.6
39,19,1,2,9,42,442,760.6723618190736,761.5606110137887,"[21, 0, 233]",233,a,0.36494923336431384,1,colour,0.06,3.6
39,19,1,2,9,43,443,762.0787220466882,762.9449485242367,"[75, 0, 179]",179,a,0.34331051632761955,0,colour,0.06,3.6
39,19,1,2,9,44,444,763.4536363850348,764.2645660205744,"[57, 0, 197]",197,a,0.2875599632970989,0,colour,0.06,3.6
39,19,1,2,9,45,445,764.7817912930623,765.3205509125255,"[86, 0, 168]",168,l,0.015458476729691029,1,colour,0.06,3.6
39,19,1,2,9,46,446,765.8287090500817,766.9445983949117,"[74, 0, 180]",180,a,0.5926141957752407,0,colour,0.06,3.6
39,19,1,2,9,47,447,767.4535627360456,768.3765803095885,"[54, 0, 200]",200,a,0.3994939075782895,0,colour,0.06,3.6
39,19,1,2,9,48,448,768.8909431048669,769.704598158598,"[72, 0, 182]",182,a,0.29018810112029314,0,colour,0.06,3.6
39,19,1,2,9,49,449,770.2192740621977,771.0406071539037,"[85, 0, 169]",169,l,0.2980059548281133,1,colour,0.06,3.6
39,19,1,2,9,50,450,771.5472942744382,772.376602364704,"[63, 0, 191]",191,a,0.3067619511857629,0,colour,0.06,3.6
39,19,1,2,10,1,451,789.8433542335406,790.448636897374,"[53, 0, 201]",201,a,0.08114538481459022,0,colour,0.06,3.6
39,19,1,2,10,2,452,790.9692185297608,791.7126062400639,"[95, 0, 159]",159,l,0.21999401319772005,1,colour,0.06,3.6
39,19,1,2,10,3,453,792.2191838715225,793.1447130041197,"[57, 0, 197]",197,a,0.4020775402896106,0,colour,0.06,3.6
39,19,1,2,10,4,454,793.657297976315,794.4887044811621,"[92, 0, 162]",162,l,0.3085385928861797,1,colour,0.06,3.6
39,19,1,2,10,5,455,795.0003320127726,795.8326605120674,"[59, 0, 195]",195,a,0.30908485781401396,0,colour,0.06,3.6
39,19,1,2,10,6,456,796.3444207701832,796.9846155666746,"[66, 0, 188]",188,a,0.11698738904669881,0,colour,0.06,3.6
39,19,1,2,10,7,457,797.5003560371697,798.3206001436338,"[91, 0, 163]",163,l,0.2969201202504337,1,colour,0.06,3.6
39,19,1,2,10,8,458,798.8285873513669,799.5205662725493,"[74, 0, 180]",180,a,0.16867974773049355,0,colour,0.06,3.6
39,19,1,2,10,9,459,800.0316436006688,800.6725819790736,"[50, 0, 204]",204,a,0.11792238056659698,1,colour,0.06,3.6
39,19,1,2,10,10,460,801.1879490837455,805.056622529868,"[84, 0, 170]",170,a,3.345332918688655,0,colour,0.06,3.6
39,19,1,2,10,11,461,805.5628496375866,806.3526395596564,"[15, 0, 239]",239,a,0.2673012847080827,1,colour,0.06,3.6
39,19,1,2,10,12,462,806.8598264711909,807.7209423962049,"[55, 0, 199]",199,a,0.3378069051541388,0,colour,0.06,3.6
39,19,1,2,10,13,463,808.2347994926386,809.1366359991953,"[64, 0, 190]",190,a,0.37851488357409835,0,colour,0.06,3.6
39,19,1,2,10,14,464,809.6567036621273,810.5526596456766,"[58, 0, 196]",196,a,0.37254968378692865,0,colour,0.06,3.6
39,19,1,2,10,15,465,811.0629071388394,812.1526608271524,"[75, 0, 179]",179,a,0.566364717669785,0,colour,0.06,3.6
39,19,1,2,10,16,466,812.672293683514,813.4966735723428,"[97, 0, 157]",157,l,0.3010145486332476,1,colour,0.06,3.6
39,19,1,2,10,17,467,814.0160177387297,814.8406355110928,"[78, 0, 176]",176,a,0.30169117730110884,0,colour,0.06,3.6
39,19,1,2,10,18,468,815.3597689699382,816.192652399186,"[72, 0, 182]",182,a,0.30936291394755244,0,colour,0.06,3.6
39,19,1,2,10,19,469,816.7034741202369,817.5606850567274,"[93, 0, 161]",161,l,0.3340996275655925,1,colour,0.06,3.6
39,19,1,2,10,20,470,818.0784751051106,818.8887277180329,"[62, 0, 192]",192,a,0.286709648091346,0,colour,0.06,3.6
39,19,1,2,10,21,471,819.4065772374161,820.3046375429258,"[65, 0, 189]",189,a,0.37441809149459004,0,colour,0.06,3.6
39,19,1,2,10,22,472,820.8128264006227,821.6086043654941,"[94, 0, 160]",160,l,0.2723689083941281,1,colour,0.06,3.6
39,19,1,2,10,23,473,822.1253239386715,823.02489385847,"[52, 0, 202]",202,a,0.37713602650910616,0,colour,0.06,3.6
39,19,1,2,10,24,474,823.5316176065244,824.4086598977447,"[99, 0, 155]",155,l,0.3537639915011823,1,colour,0.06,3.6
39,19,1,2,10,25,475,824.9223716650158,825.8006470901892,"[82, 0, 172]",172,a,0.354924657382071,0,colour,0.06,3.6
39,19,1,2,10,26,476,826.3128370344639,827.0646936269477,"[5, 0, 249]",249,a,0.22850228054448962,1,colour,0.06,3.6
39,19,1,2,10,27,477,827.578570809681,828.4166679796763,"[68, 0, 186]",186,a,0.31486691953614354,0,colour,0.06,3.6
39,19,1,2,10,28,478,828.9379616868682,829.8326880815439,"[76, 0, 178]",178,a,0.37122045177966356,0,colour,0.06,3.6
39,19,1,2,10,29,479,830.3440950587392,831.3846384095959,"[85, 0, 169]",169,a,0.517190613783896,0,colour,0.06,3.6
39,19,1,2,10,30,480,831.8909364095889,832.6567473788746,"[90, 0, 164]",164,l,0.24238418927416205,1,colour,0.06,3.6
39,19,1,2,10,31,481,833.1723129819147,833.8726776838303,"[67, 0, 187]",187,a,0.1770631647668779,0,colour,0.06,3.6
39,19,1,2,10,32,482,834.3910120283253,836.608627602458,"[96, 0, 158]",158,l,1.6943660252727568,1,colour,0.06,3.6
39,19,1,2,10,33,483,837.125408615917,837.9766385988332,"[81, 0, 173]",173,a,0.32795010786503553,0,colour,0.06,3.6
39,19,1,2,10,34,484,838.4847108772956,839.504669838585,"[73, 0, 181]",181,l,0.49666963377967477,1,colour,0.06,3.6
39,19,1,2,10,35,485,840.0159405451268,841.4966857815161,"[88, 0, 166]",166,l,0.9574838718399405,1,colour,0.06,3.6
39,19,1,2,10,36,486,842.0159523603506,842.7126854034141,"[77, 0, 177]",177,a,0.17341850930824876,0,colour,0.06,3.6
39,19,1,2,10,37,487,843.2190818651579,844.1687356741168,"[98, 0, 156]",156,l,0.42643970623612404,1,colour,0.06,3.6
39,19,1,2,10,38,488,844.6878998526372,845.6646404573694,"[89, 0, 165]",165,a,0.4536521388217807,0,colour,0.06,3.6
39,19,1,2,10,39,489,846.1723381881602,846.9766811341979,"[61, 0, 193]",193,a,0.2812836249358952,0,colour,0.06,3.6
39,19,1,2,10,40,490,847.4847329328768,848.488828543108,"[60, 0, 194]",194,a,0.4808736303821206,0,colour,0.06,3.6
39,19,1,2,10,41,491,849.0003355573863,849.8326372751035,"[70, 0, 184]",184,a,0.30914472276344895,0,colour,0.06,3.6
39,19,1,2,10,42,492,850.3440950587392,851.384637621697,"[86, 0, 168]",168,l,0.517157924361527,1,colour,0.06,3.6
39,19,1,2,10,43,493,851.890970280394,852.7446763762273,"[45, 0, 209]",209,a,0.33042188826948404,1,colour,0.06,3.6
39,19,1,2,10,44,494,853.2660386129282,854.0807491750456,"[63, 0, 191]",191,a,0.29148661298677325,0,colour,0.06,3.6
39,19,1,2,10,45,495,854.5941249914467,855.3766382047907,"[56, 0, 198]",198,a,0.2594507415778935,0,colour,0.06,3.6
39,19,1,2,10,46,496,855.8909990312532,856.6646999283694,"[71, 0, 183]",183,a,0.2503138957545161,0,colour,0.06,3.6
39,19,1,2,10,47,497,857.1722972281277,858.1767665985972,"[80, 0, 174]",174,a,0.4813143443316221,0,colour,0.06,3.6
39,19,1,2,10,48,498,858.6878301417455,859.6327046230435,"[83, 0, 171]",171,a,0.42146463645622134,0,colour,0.06,3.6
39,19,1,2,10,49,499,860.140944680199,861.6726426314563,"[87, 0, 167]",167,a,1.0083393063396215,0,colour,0.06,3.6
39,19,1,2,10,50,500,862.1877935142256,863.7528014304116,"[69, 0, 185]",185,a,1.0418308349326253,0,colour,0.06,3.6
39,19,1,2,11,1,501,872.4994718520902,873.2807129411958,"[71, 0, 183]",183,a,0.257217631675303,0,colour,0.06,3.5
39,19,1,2,11,2,502,873.7972127483226,874.5926571250893,"[94, 0, 160]",160,l,0.2720837630331516,1,colour,0.06,3.5
39,19,1,2,11,3,503,875.1096539665014,875.9367513963953,"[53, 0, 201]",201,a,0.303962096106261,0,colour,0.06,3.5
39,19,1,2,11,4,504,876.4534981450997,877.3607480721548,"[69, 0, 185]",185,a,0.38435799069702625,0,colour,0.06,3.5
39,19,1,2,11,5,505,877.8753944374621,878.688863595482,"[97, 0, 157]",157,l,0.2901057875715196,1,colour,0.06,3.5
39,19,1,2,11,6,506,879.2034646682441,880.1368151996285,"[89, 0, 165]",165,a,0.4101482438854873,0,colour,0.06,3.5
39,19,1,2,11,7,507,880.6564752310514,881.6487676543184,"[72, 0, 182]",182,a,0.46883334778249264,0,colour,0.06,3.5
39,19,1,2,11,8,508,882.1565240682103,883.0086969193071,"[78, 0, 176]",176,a,0.3285893201828003,0,colour,0.06,3.5
39,19,1,2,11,9,509,883.5158928898163,884.4087032210082,"[84, 0, 170]",170,a,0.3694138773716986,0,colour,0.06,3.5
39,19,1,2,11,10,510,884.922123148106,885.7126889480278,"[13, 0, 241]",241,a,0.2671350813470781,1,colour,0.06,3.5
39,19,1,2,11,11,511,886.2190846218728,887.2488027065992,"[80, 0, 174]",174,l,0.5063917352817953,1,colour,0.06,3.5
39,19,1,2,11,12,512,887.7666274132207,888.5767642357387,"[85, 0, 169]",169,a,0.2875961968675256,0,colour,0.06,3.5
39,19,1,2,11,13,513,889.0940993912518,889.9207049068063,"[73, 0, 181]",181,a,0.3036458375863731,0,colour,0.06,3.5
39,19,1,2,11,14,514,890.4378112372942,891.3286736039445,"[86, 0, 168]",168,l,0.36745803570374846,1,colour,0.06,3.5
39,19,1,2,11,15,515,891.844028105028,892.7207084512338,"[74, 0, 180]",180,a,0.3533685696311295,0,colour,0.06,3.5
39,19,1,2,11,16,516,893.2346332897432,894.1207261742093,"[58, 0, 196]",196,a,0.3626861907541752,0,colour,0.06,3.5
39,19,1,2,11,17,517,894.6409301082604,895.5607291674241,"[54, 0, 200]",200,a,0.3964687716215849,0,colour,0.06,3.5
39,19,1,2,11,18,518,896.0783589202911,896.8807247565128,"[55, 0, 199]",199,a,0.2789748962968588,0,colour,0.06,3.5
39,19,1,2,11,19,519,897.390884028282,898.1207119957544,"[1, 0, 253]",253,a,0.20686080679297447,1,colour,0.06,3.5
39,19,1,2,11,20,520,898.6409308956936,899.1767291831784,"[90, 0, 164]",164,l,0.012434916570782661,1,colour,0.06,3.5
39,19,1,2,11,21,521,899.6877998160198,900.3207411407493,"[59, 0, 195]",195,a,0.10960788652300835,0,colour,0.06,3.5
39,19,1,2,11,22,522,900.82859128993,902.6887269304134,"[56, 0, 198]",198,a,1.336964073125273,0,colour,0.06,3.5
39,19,1,2,11,23,523,903.2034095297568,904.1207423219457,"[76, 0, 178]",178,a,0.3942691390402615,0,colour,0.06,3.5
39,19,1,2,11,24,524,904.64083125256,906.0566835757345,"[57, 0, 197]",197,a,0.8925787494517863,0,colour,0.06,3.5
39,19,1,2,11,25,525,906.5784215419553,907.4088134979829,"[98, 0, 156]",156,l,0.30712310830131173,1,colour,0.06,3.5
39,19,1,2,11,26,526,907.9220656463876,908.7287523732521,"[99, 0, 155]",155,l,0.28311501117423177,1,colour,0.06,3.5
39,19,1,2,11,27,527,909.2346553448588,909.9287665514275,"[67, 0, 187]",187,a,0.17117831017822027,0,colour,0.06,3.5
39,19,1,2,11,28,528,910.4376084064133,911.296724378597,"[77, 0, 177]",177,a,0.33568958612158895,0,colour,0.06,3.5
39,19,1,2,11,29,529,911.8127255756408,912.6327475523576,"[96, 0, 158]",158,l,0.2966101625934243,1,colour,0.06,3.5
39,19,1,2,11,30,530,913.1407942310907,914.0327262845822,"[60, 0, 194]",194,a,0.3690861971117556,0,colour,0.06,3.5
39,19,1,2,11,31,531,914.5471288589761,915.3687699385919,"[47, 0, 207]",207,a,0.2989980545826256,1,colour,0.06,3.5
39,19,1,2,11,32,532,915.875262892805,916.8487715926021,"[68, 0, 186]",186,a,0.4501012181863189,0,colour,0.06,3.5
39,19,1,2,11,33,533,917.3596307295375,918.3687187386677,"[87, 0, 167]",167,a,0.485610029194504,0,colour,0.06,3.5
39,19,1,2,11,34,534,918.8752408372238,919.9367305221967,"[82, 0, 172]",172,a,0.538132221903652,0,colour,0.06,3.5
39,19,1,2,11,35,535,920.4533157940023,921.4807192427106,"[63, 0, 191]",191,a,0.5046056415885687,0,colour,0.06,3.5
39,19,1,2,11,36,536,922.0001937728375,923.0087366979569,"[61, 0, 193]",193,a,0.4853331549093127,0,colour,0.06,3.5
39,19,1,2,11,37,537,923.5158554743975,924.6167459613644,"[50, 0, 204]",204,a,0.5775089995004237,1,colour,0.06,3.5
39,19,1,2,11,38,538,925.1252963696606,926.0327176200226,"[93, 0, 161]",161,l,0.384103171993047,1,colour,0.06,3.5
39,19,1,2,11,39,539,926.5470733265392,927.6967476154678,"[91, 0, 163]",163,l,0.6269422541372478,1,colour,0.06,3.5
39,19,1,2,11,40,540,928.2034079544246,929.0567265050486,"[62, 0, 192]",192,a,0.3303600545041263,0,colour,0.06,3.5
39,19,1,2,11,41,541,929.5783931850456,930.5448122536764,"[92, 0, 162]",162,l,0.4431399810127914,1,colour,0.06,3.5
39,19,1,2,11,42,542,931.06281064637,932.0647645192221,"[52, 0, 202]",202,a,0.47854402801021934,0,colour,0.06,3.5
39,19,1,2,11,43,543,932.5784223298542,933.5767839280888,"[79, 0, 175]",175,a,0.47521641897037625,0,colour,0.06,3.5
39,19,1,2,11,44,544,934.0940493727103,935.160810300149,"[83, 0, 171]",171,a,0.5438768682070076,0,colour,0.06,3.5
39,19,1,2,11,45,545,935.6720593450591,936.6247528614476,"[51, 0, 203]",203,a,0.42931360425427556,0,colour,0.06,3.5
39,19,1,2,11,46,546,937.1408915109932,938.2007849360816,"[88, 0, 166]",166,l,0.5369459562934935,1,colour,0.06,3.5
39,19,1,2,11,47,547,938.7189550464973,939.656707206741,"[64, 0, 190]",190,a,0.4143305001780391,0,colour,0.06,3.5
39,19,1,2,11,48,548,940.1721156649292,941.4727556654252,"[75, 0, 179]",179,a,0.7772490605711937,0,colour,0.06,3.5
39,19,1,2,11,49,549,941.9845375847071,943.1290713888593,"[81, 0, 173]",173,a,0.6216903105378151,0,colour,0.06,3.5
39,19,1,2,11,50,550,943.6407481511123,944.9287500097416,"[65, 0, 189]",189,a,0.7646357310004532,0,colour,0.06,3.5
39,19,1,2,12,1,551,949.7180318702012,951.4887785245664,"[79, 0, 175]",175,a,1.2464924026280642,0,colour,0.06,3.4
39,19,1,2,12,2,552,952.0001575388014,953.1127752005123,"[77, 0, 177]",177,a,0.5893637803383172,0,colour,0.06,3.4
39,19,1,2,12,3,553,953.6251734895632,954.4567918838002,"[23, 0, 231]",231,a,0.30857403948903084,1,colour,0.06,3.4
39,19,1,2,12,4,554,954.9688691878691,955.7927993037738,"[94, 0, 160]",160,l,0.3010078533552587,1,colour,0.06,3.4
39,19,1,2,12,5,555,956.3126735878177,957.4008073853329,"[85, 0, 169]",169,l,0.5647188327275217,1,colour,0.06,3.4
39,19,1,2,12,6,556,957.9220924279653,958.95274668606,"[88, 0, 166]",166,l,0.5076870969496667,1,colour,0.06,3.4
39,19,1,2,12,7,557,959.4688554033637,960.576841823291,"[92, 0, 162]",162,l,0.5845084399916232,1,colour,0.06,3.4
39,19,1,2,12,8,558,961.0938985296525,961.9127874094993,"[54, 0, 200]",200,a,0.2961028884164989,0,colour,0.06,3.4
39,19,1,2,12,9,559,962.422032169532,963.3847510498017,"[63, 0, 191]",191,a,0.4392846170812845,0,colour,0.06,3.4
39,19,1,2,12,10,560,963.890813135542,964.8247725535184,"[90, 0, 164]",164,l,0.41082605347037315,1,colour,0.06,3.4
39,19,1,2,12,11,561,965.3438233048655,966.4167896783911,"[84, 0, 170]",170,l,0.5495588919147849,1,colour,0.06,3.4
39,19,1,2,12,12,562,966.9377805171534,968.1207935223356,"[80, 0, 174]",174,a,0.6596586927771568,0,colour,0.06,3.4
39,19,1,2,12,13,563,968.6407579970546,969.7927603130229,"[61, 0, 193]",193,a,0.6284498986788094,0,colour,0.06,3.4
39,19,1,2,12,14,564,970.3126842216589,971.3207773743197,"[65, 0, 189]",189,a,0.48477349895983934,0,colour,0.06,3.4
39,19,1,2,12,15,565,971.8282632157207,973.0168322133832,"[52, 0, 202]",202,a,0.6651587593369186,0,colour,0.06,3.4
39,19,1,2,12,16,566,973.531307649333,974.4567930651829,"[96, 0, 158]",158,l,0.4024757193401456,1,colour,0.06,3.4
39,19,1,2,12,17,567,974.9689412619919,976.200792813208,"[69, 0, 185]",185,a,0.7091285749338567,0,colour,0.06,3.4
39,19,1,2,12,18,568,976.7189794648439,977.7127688988112,"[93, 0, 161]",161,l,0.471424070186913,1,colour,0.06,3.4
39,19,1,2,12,19,569,978.2189511079341,979.248799555935,"[81, 0, 173]",173,a,0.5067977914586663,0,colour,0.06,3.4
39,19,1,2,12,20,570,979.7656746986322,980.8728100163862,"[76, 0, 178]",178,a,0.5844123414717615,0,colour,0.06,3.4
39,19,1,2,12,21,571,981.390706403181,982.3288051486015,"[95, 0, 159]",159,l,0.41471253149211407,1,colour,0.06,3.4
39,19,1,2,12,22,572,982.8438563877717,983.7767988941632,"[55, 0, 199]",199,a,0.4096374246291816,0,colour,0.06,3.4
39,19,1,2,12,23,573,984.2969748647884,987.0170823060907,"[82, 0, 172]",172,l,2.1968102366663516,1,colour,0.06,3.4
39,19,1,2,12,24,574,987.5313600311056,988.6727844164707,"[83, 0, 171]",171,a,0.6181382085196674,0,colour,0.06,3.4
39,19,1,2,12,25,575,989.1876493664458,990.4728316781111,"[57, 0, 197]",197,a,0.7621489842422307,0,colour,0.06,3.4
39,19,1,2,12,26,576,990.9843690185808,992.18479673611,"[73, 0, 181]",181,a,0.6770084206946194,0,colour,0.06,3.4
39,19,1,2,12,27,577,992.7032122123055,993.8007924193516,"[78, 0, 176]",176,a,0.5741553963162005,0,colour,0.06,3.4
39,19,1,2,12,28,578,994.3125593722798,996.3928044238128,"[51, 0, 203]",203,a,1.5569888069294393,0,colour,0.06,3.4
39,19,1,2,12,29,579,996.9064067020081,998.0248721968383,"[87, 0, 167]",167,l,0.5950808566994965,1,colour,0.06,3.4
39,19,1,2,12,30,580,998.5313364001922,999.5370259075426,"[60, 0, 194]",194,a,0.48232180438935757,0,colour,0.06,3.4
39,19,1,2,12,31,581,1000.0469996770844,1000.9688534340821,"[58, 0, 196]",196,a,0.39863020181655884,0,colour,0.06,3.4
39,19,1,2,12,32,582,1001.4844855973497,1002.408865485806,"[59, 0, 195]",195,a,0.40118981059640646,0,colour,0.06,3.4
39,19,1,2,12,33,583,1002.9218990495428,1004.608834371902,"[68, 0, 186]",186,a,1.1634159884415567,0,colour,0.06,3.4
39,19,1,2,12,34,584,1005.1250880248845,1006.3367907810025,"[71, 0, 183]",183,a,0.6882255636155605,0,colour,0.06,3.4
39,19,1,2,12,35,585,1006.8438453599811,1007.9928099378012,"[62, 0, 192]",192,a,0.6256843083538115,0,colour,0.06,3.4
39,19,1,2,12,36,586,1008.5000488371588,1009.6653485936113,"[50, 0, 204]",204,a,0.6418233518488705,1,colour,0.06,3.4
39,19,1,2,12,37,587,1010.187618646305,1011.1208541747183,"[89, 0, 165]",165,l,0.4098690068349242,1,colour,0.06,3.4
39,19,1,2,12,38,588,1011.6406819848344,1012.4888505982235,"[13, 0, 241]",241,a,0.32466779043897986,1,colour,0.06,3.4
39,19,1,2,12,39,589,1013.0000492311083,1014.0248603816144,"[98, 0, 156]",156,l,0.5018995217978954,1,colour,0.06,3.4
39,19,1,2,12,40,590,1014.5314139877446,1015.704886848107,"[64, 0, 190]",190,a,0.6508345608599484,0,colour,0.06,3.4
39,19,1,2,12,41,591,1016.2188231078908,1017.1688353172503,"[99, 0, 155]",155,l,0.4265791280195117,1,colour,0.06,3.4
39,19,1,2,12,42,592,1017.6875674463809,1018.9528077319264,"[72, 0, 182]",182,a,0.7417812100611627,0,colour,0.06,3.4
39,19,1,2,12,43,593,1019.4688380742446,1020.4408221943304,"[66, 0, 188]",188,a,0.4485522201284766,0,colour,0.06,3.4
39,19,1,2,12,44,594,1020.9532472649589,1021.8168432414532,"[67, 0, 187]",187,a,0.340856458991766,0,colour,0.06,3.4
39,19,1,2,12,45,595,1022.3282490372658,1023.2968090553768,"[56, 0, 198]",198,a,0.4453900260850787,0,colour,0.06,3.4
39,19,1,2,12,46,596,1023.8125471631065,1024.8408485818654,"[53, 0, 201]",201,a,0.504844312556088,0,colour,0.06,3.4
39,19,1,2,12,47,597,1025.3593601570465,1026.2488255496137,"[12, 0, 242]",242,a,0.3659649631008506,1,colour,0.06,3.4
39,19,1,2,12,48,598,1026.7656959663145,1027.7368849101476,"[75, 0, 179]",179,a,0.44783305609598756,0,colour,0.06,3.4
39,19,1,2,12,49,599,1028.2501051570289,1029.1048801527359,"[86, 0, 168]",168,l,0.33131119422614574,1,colour,0.06,3.4
39,19,1,2,12,50,600,1029.6250348556787,1030.776837097481,"[74, 0, 180]",180,l,0.6284660468809307,1,colour,0.06,3.4
39,19,1,2,13,1,601,1048.4523394485004,1049.944869754836,"[60, 0, 194]",194,a,0.9688412244431674,0,colour,0.06,3.3
39,19,1,2,13,2,602,1050.453180310782,1051.456853323616,"[59, 0, 195]",195,a,0.4805561900138855,0,colour,0.06,3.3
39,19,1,2,13,3,603,1051.9688120801002,1052.9848924404941,"[55, 0, 199]",199,a,0.4926256174221635,0,colour,0.06,3.3
39,19,1,2,13,4,604,1053.5000874339603,1054.5208522053435,"[51, 0, 203]",203,a,0.49756405921652913,0,colour,0.06,3.3
39,19,1,2,13,5,605,1055.0312379384413,1056.0248639262281,"[93, 0, 161]",161,l,0.4699416318908334,1,colour,0.06,3.3
39,19,1,2,13,6,606,1056.5313360062428,1057.5528939845972,"[96, 0, 158]",158,l,0.49830764159560204,1,colour,0.06,3.3
39,19,1,2,13,7,607,1058.0624833600596,1059.1208600820974,"[84, 0, 170]",170,l,0.5352051546797156,1,colour,0.06,3.3
39,19,1,2,13,8,608,1059.6406236956827,1060.6249088244513,"[86, 0, 168]",168,l,0.46114467550069094,1,colour,0.06,3.3
39,19,1,2,13,9,609,1061.1405795845203,1062.0488862022758,"[91, 0, 163]",163,l,0.38504643458873034,1,colour,0.06,3.3
39,19,1,2,13,10,610,1062.5624022278935,1063.4249076428823,"[76, 0, 178]",178,a,0.33955361414700747,0,colour,0.06,3.3
39,19,1,2,13,11,611,1063.937427630648,1064.9369026334025,"[99, 0, 155]",155,l,0.47673312155529857,1,colour,0.06,3.3
39,19,1,2,13,12,612,1065.4529581815004,1066.3609115183353,"[58, 0, 196]",196,a,0.38530282862484455,0,colour,0.06,3.3
39,19,1,2,13,13,613,1066.874965144787,1067.968890061602,"[70, 0, 184]",184,a,0.5705426414497197,0,colour,0.06,3.3
39,19,1,2,13,14,614,1068.4844434554689,1069.4329200573266,"[66, 0, 188]",188,a,0.42548108380287886,0,colour,0.06,3.3
39,19,1,2,13,15,615,1069.9538407917134,1070.8731873212382,"[65, 0, 189]",189,a,0.39693390438333154,0,colour,0.06,3.3
39,19,1,2,13,16,616,1071.3904756093398,1072.5289288163185,"[68, 0, 186]",186,a,0.6153261442668736,0,colour,0.06,3.3
39,19,1,2,13,17,617,1073.0466975970194,1073.9768993249163,"[71, 0, 183]",183,a,0.4071298036724329,0,colour,0.06,3.3
39,19,1,2,13,18,618,1074.4841693383642,1075.4648881871253,"[57, 0, 197]",197,a,0.4575327089987695,0,colour,0.06,3.3
39,19,1,2,13,19,619,1075.9841929692775,1076.8168995613232,"[95, 0, 159]",159,l,0.3095657448284328,1,colour,0.06,3.3
39,19,1,2,13,20,620,1077.3279686183669,1078.3129110774025,"[89, 0, 165]",165,l,0.4620910887606442,1,colour,0.06,3.3
39,19,1,2,13,21,621,1078.8279780708253,1080.0169023182243,"[83, 0, 171]",171,a,0.6658105757087469,0,colour,0.06,3.3
39,19,1,2,13,22,622,1080.5311725600623,1081.5851098438725,"[53, 0, 201]",201,a,0.5307381469756365,0,colour,0.06,3.3
39,19,1,2,13,23,623,1082.09515135549,1083.4008719762787,"[50, 0, 204]",204,a,0.7829740140587091,1,colour,0.06,3.3
39,19,1,2,13,24,624,1083.907661890611,1084.9849152835086,"[67, 0, 187]",187,a,0.5539668221026659,0,colour,0.06,3.3
39,19,1,2,13,25,625,1085.5012681861408,1086.55290658772,"[75, 0, 179]",179,a,0.5286676958203316,0,colour,0.06,3.3
39,19,1,2,13,26,626,1087.0637160995975,1088.0809429474175,"[98, 0, 156]",156,l,0.49438256677240133,1,colour,0.06,3.3
39,19,1,2,13,27,627,1088.594951281324,1089.8969307541847,"[80, 0, 174]",174,a,0.7789815915748477,0,colour,0.06,3.3
39,19,1,2,13,28,628,1090.4076130539179,1091.5451871952973,"[11, 0, 243]",243,a,0.6137405182234943,1,colour,0.06,3.3
39,19,1,2,13,29,629,1092.063718068879,1093.0488818697631,"[78, 0, 176]",176,a,0.4612549524754286,0,colour,0.06,3.3
39,19,1,2,13,30,630,1093.5637901430018,1094.4730888595805,"[88, 0, 166]",166,l,0.3866497837007046,1,colour,0.06,3.3
39,19,1,2,13,31,631,1094.985729758162,1096.0009566531517,"[69, 0, 185]",185,a,0.49232077971100807,0,colour,0.06,3.3
39,19,1,2,13,32,632,1096.5168318198994,1097.6968681323342,"[92, 0, 162]",162,l,0.656811575870961,1,colour,0.06,3.3
39,19,1,2,13,33,633,1098.204325222876,1099.2249123691581,"[61, 0, 193]",193,a,0.4973880094476044,0,colour,0.06,3.3
39,19,1,2,13,34,634,1099.7356025460176,1100.8810158092529,"[64, 0, 190]",190,a,0.6225418071262538,0,colour,0.06,3.3
39,19,1,2,13,35,635,1101.3918394995853,1102.6809212858789,"[79, 0, 175]",175,a,0.7662997329607606,0,colour,0.06,3.3
39,19,1,2,13,36,636,1103.18887856137,1104.1289642625488,"[90, 0, 164]",164,l,0.41652776999399066,1,colour,0.06,3.3
39,19,1,2,13,37,637,1104.64195292769,1105.6410175422207,"[97, 0, 157]",157,l,0.4757142406888306,1,colour,0.06,3.3
39,19,1,2,13,38,638,1106.1576473182067,1107.0969539908692,"[94, 0, 160]",160,l,0.4158570491708815,1,colour,0.06,3.3
39,19,1,2,13,39,639,1107.6107492540032,1108.4329531402327,"[62, 0, 192]",192,a,0.29880900820717216,0,colour,0.06,3.3
39,19,1,2,13,40,640,1108.9388218475506,1109.7369471378624,"[72, 0, 182]",182,a,0.274683543946594,0,colour,0.06,3.3
39,19,1,2,13,41,641,1110.2513528629206,1111.7209408208728,"[82, 0, 172]",172,l,0.946369128767401,1,colour,0.06,3.3
39,19,1,2,13,42,642,1112.2356592598371,1113.1449544322677,"[81, 0, 173]",173,l,0.3862890205346048,1,colour,0.06,3.3
39,19,1,2,13,43,643,1113.6575681553222,1114.4729439243674,"[52, 0, 202]",202,a,0.29209471214562654,0,colour,0.06,3.3
39,19,1,2,13,44,644,1114.9857108537108,1115.9289544164203,"[7, 0, 247]",247,a,0.41994793340563774,1,colour,0.06,3.3
39,19,1,2,13,45,645,1116.438806487713,1117.0809638211504,"[54, 0, 200]",200,a,0.11919371737167239,0,colour,0.06,3.3
39,19,1,2,13,46,646,1117.5949351335876,1118.4089363780804,"[56, 0, 198]",198,a,0.29053586767986417,0,colour,0.06,3.3
39,19,1,2,13,47,647,1118.923232613597,1119.8569360314868,"[77, 0, 177]",177,a,0.4104696223512292,0,colour,0.06,3.3
39,19,1,2,13,48,648,1120.3763715708628,1121.3769371341914,"[74, 0, 180]",180,a,0.47717501735314727,0,colour,0.06,3.3
39,19,1,2,13,49,649,1121.891993493773,1122.680934282951,"[85, 0, 169]",169,l,0.266184336040169,1,colour,0.06,3.3
39,19,1,2,13,50,650,1123.1887879767455,1123.752888864372,"[2, 0, 252]",252,a,0.04068828606978059,1,colour,0.06,3.3
39,19,1,2,14,1,651,1133.3442801670171,1134.6649279654957,"[67, 0, 187]",187,a,0.7964998856186867,0,colour,0.06,3.2
39,19,1,2,14,2,652,1135.1732263122685,1136.7369455625303,"[76, 0, 178]",178,a,1.0410112403333187,0,colour,0.06,3.2
39,19,1,2,14,3,653,1137.2512095030397,1138.0969240586273,"[96, 0, 158]",158,l,0.3224614621140063,1,colour,0.06,3.2
39,19,1,2,14,4,654,1138.6105771427974,1139.5129528250545,"[28, 0, 226]",226,a,0.37922026263549924,1,colour,0.06,3.2
39,19,1,2,14,5,655,1140.0326431831345,1141.0009582289495,"[65, 0, 189]",189,a,0.44501665979623795,0,colour,0.06,3.2
39,19,1,2,14,6,656,1141.5168700227514,1142.4569805362262,"[68, 0, 186]",186,a,0.41663529025390744,0,colour,0.06,3.2
39,19,1,2,14,7,657,1142.9700263091363,1143.913000086788,"[55, 0, 199]",199,a,0.4196462472900748,0,colour,0.06,3.2
39,19,1,2,14,8,658,1144.4232231616043,1145.0409848527052,"[70, 0, 184]",184,a,0.09436760051175952,0,colour,0.06,3.2
39,19,1,2,14,9,659,1145.5481678261422,1146.225070301909,"[86, 0, 168]",168,l,0.15420785686001182,1,colour,0.06,3.2
39,19,1,2,14,10,660,1146.7356494138949,1147.2649563224986,"[84, 0, 170]",170,l,0.00622553238645196,1,colour,0.06,3.2
39,19,1,2,14,11,661,1147.7825462967157,1148.3930017407984,"[89, 0, 165]",165,l,0.08706095954403281,1,colour,0.06,3.2
39,19,1,2,14,12,662,1148.9082538420334,1150.5770186604932,"[72, 0, 182]",182,a,1.1462557008489966,0,colour,0.06,3.2
39,19,1,2,14,13,663,1151.0950509244576,1151.9529932336882,"[57, 0, 197]",197,a,0.33462186763063073,0,colour,0.06,3.2
39,19,1,2,14,14,664,1152.4699558103457,1153.3129457361065,"[75, 0, 179]",179,a,0.319809693377465,0,colour,0.06,3.2
39,19,1,2,14,15,665,1153.8294345154427,1154.616969665978,"[60, 0, 194]",194,a,0.2642596079967916,0,colour,0.06,3.2
39,19,1,2,14,16,666,1155.1263900813647,1155.9210077747703,"[99, 0, 155]",155,l,0.27139374427497387,1,colour,0.06,3.2
39,19,1,2,14,17,667,1156.4386863643304,1157.2169231921434,"[81, 0, 173]",173,a,0.25473049096763134,0,colour,0.06,3.2
39,19,1,2,14,18,668,1157.7356060906313,1158.3689440186135,"[85, 0, 169]",169,l,0.10983474180102348,1,colour,0.06,3.2
39,19,1,2,14,19,669,1158.8762412075885,1159.6170078692958,"[83, 0, 171]",171,l,0.2174064419232309,1,colour,0.06,3.2
39,19,1,2,14,20,670,1160.1261636195704,1160.9211341994815,"[97, 0, 157]",157,l,0.27167219389230013,1,colour,0.06,3.2
39,19,1,2,14,21,671,1161.4387828567997,1162.232949201949,"[53, 0, 201]",201,a,0.2709085252135992,0,colour,0.06,3.2
39,19,1,2,14,22,672,1162.7513048136607,1163.5049786143936,"[56, 0, 198]",198,a,0.23070939676836133,0,colour,0.06,3.2
39,19,1,2,14,23,673,1164.016840484459,1164.7290473640896,"[62, 0, 192]",192,a,0.1889459090307355,0,colour,0.06,3.2
39,19,1,2,14,24,674,1165.2356856474653,1165.9049817649648,"[95, 0, 159]",159,l,0.14605011278763413,1,colour,0.06,3.2
39,19,1,2,14,25,675,1166.423140059691,1167.1929556606337,"[61, 0, 193]",193,a,0.24653690727427602,0,colour,0.06,3.2
39,19,1,2,14,26,676,1167.7042941087857,1168.4731451799162,"[50, 0, 204]",204,a,0.24609895003959537,1,colour,0.06,3.2
39,19,1,2,14,27,677,1168.985666743014,1171.273065622896,"[66, 0, 188]",188,a,1.7640871033072472,0,colour,0.06,3.2
39,19,1,2,14,28,678,1171.7826160076074,1172.5696513671428,"[93, 0, 161]",161,l,0.26383740454912186,1,colour,0.06,3.2
39,19,1,2,14,29,679,1173.079432939645,1173.8969803787768,"[59, 0, 195]",195,a,0.2947894101962447,0,colour,0.06,3.2
39,19,1,2,14,30,680,1174.4075244381092,1175.6730352966115,"[77, 0, 177]",177,a,0.7422581585124135,0,colour,0.06,3.2
39,19,1,2,14,31,681,1176.1886587953195,1177.0489626084454,"[63, 0, 191]",191,a,0.33684237487614155,0,colour,0.06,3.2
39,19,1,2,14,32,682,1177.5636712014675,1178.544977275189,"[64, 0, 190]",190,a,0.45810890663415194,0,colour,0.06,3.2
39,19,1,2,14,33,683,1179.0635739210993,1179.9129878776148,"[51, 0, 203]",203,a,0.3258910779841244,0,colour,0.06,3.2
39,19,1,2,14,34,684,1180.42310106894,1181.1609587799758,"[91, 0, 163]",163,l,0.21451560780405998,1,colour,0.06,3.2
39,19,1,2,14,35,685,1181.6731239119545,1182.4170129890554,"[88, 0, 166]",166,l,0.2207891894504428,1,colour,0.06,3.2
39,19,1,2,14,36,686,1182.9230975243263,1183.7369502889924,"[69, 0, 185]",185,a,0.2908245571888983,0,colour,0.06,3.2
39,19,1,2,14,37,687,1184.2511925674044,1185.0010039149784,"[94, 0, 160]",160,l,0.22656613076105714,1,colour,0.06,3.2
39,19,1,2,14,38,688,1185.51689916756,1186.3210282544605,"[71, 0, 183]",183,a,0.2809051377698779,0,colour,0.06,3.2
39,19,1,2,14,39,689,1186.82936244132,1187.6250037415884,"[32, 0, 222]",222,a,0.27217395417392254,1,colour,0.06,3.2
39,19,1,2,14,40,690,1188.1418481646106,1189.3450087830424,"[80, 0, 174]",174,l,0.6802060608752072,1,colour,0.06,3.2
39,19,1,2,14,41,691,1189.8605231856927,1190.7211160822771,"[87, 0, 167]",167,l,0.3371094027534127,1,colour,0.06,3.2
39,19,1,2,14,42,692,1191.2354639121331,1192.00900057517,"[36, 0, 218]",218,a,0.2504021171480417,1,colour,0.06,3.2
39,19,1,2,14,43,693,1192.5167294195853,1193.360996983014,"[90, 0, 164]",164,l,0.32105936808511615,1,colour,0.06,3.2
39,19,1,2,14,44,694,1193.8762471149676,1194.569393791724,"[54, 0, 200]",200,a,0.16988570615649223,0,colour,0.06,3.2
39,19,1,2,14,45,695,1195.0793017889373,1195.8330456940457,"[58, 0, 196]",196,a,0.23043606663122773,0,colour,0.06,3.2
39,19,1,2,14,46,696,1196.3461158853024,1197.1209951713681,"[92, 0, 162]",162,l,0.2514623519964516,1,colour,0.06,3.2
39,19,1,2,14,47,697,1197.6274763103575,1198.3449674290605,"[78, 0, 176]",176,a,0.19412617292255163,0,colour,0.06,3.2
39,19,1,2,14,48,698,1198.861871322617,1199.5770737989806,"[74, 0, 180]",180,a,0.1919678933918476,0,colour,0.06,3.2
39,19,1,2,14,49,699,1200.0961017068475,1200.8410455053672,"[98, 0, 156]",156,l,0.22213811427354813,1,colour,0.06,3.2
39,19,1,2,14,50,700,1201.361850448884,1202.12902294565,"[79, 0, 175]",175,a,0.2438315753825009,0,colour,0.06,3.2
39,19,1,2,15,1,701,1207.1578001310118,1208.3450359581038,"[72, 0, 182]",182,a,0.6631044559180737,0,colour,0.06,3.2
39,19,1,2,15,2,702,1208.861854780931,1209.625019889325,"[95, 0, 159]",159,l,0.24005222413688898,1,colour,0.06,3.2
39,19,1,2,15,3,703,1210.14301513182,1210.9610505462624,"[68, 0, 186]",186,a,0.2946720439940691,0,colour,0.06,3.2
39,19,1,2,15,4,704,1211.4718620278873,1212.1850661267526,"[99, 0, 155]",155,l,0.1905268090777099,1,colour,0.06,3.2
39,19,1,2,15,5,705,1212.7056469717063,1213.441018723417,"[84, 0, 170]",170,a,0.21204303950071335,0,colour,0.06,3.2
39,19,1,2,15,6,706,1213.9555260608904,1214.9133655764163,"[88, 0, 166]",166,l,0.4344111601822078,1,colour,0.06,3.2
39,19,1,2,15,7,707,1215.4242298332974,1216.1611801218241,"[53, 0, 201]",201,a,0.21345104090869427,0,colour,0.06,3.2
39,19,1,2,15,8,708,1216.6742310146801,1217.424997834023,"[92, 0, 162]",162,l,0.22733137477189302,1,colour,0.06,3.2
39,19,1,2,15,9,709,1217.9398923222907,1218.6329803154804,"[63, 0, 191]",191,a,0.1696387636475265,0,colour,0.06,3.2
39,19,1,2,15,10,710,1219.1429662946612,1219.9610607861541,"[52, 0, 202]",202,a,0.2946673175320029,0,colour,0.06,3.2
39,19,1,2,15,11,711,1220.4711531042121,1221.1690267263912,"[98, 0, 156]",156,l,0.17473001824691892,1,colour,0.06,3.2
39,19,1,2,15,12,712,1221.6899494300596,1222.5053992425092,"[86, 0, 168]",168,l,0.2922522509470582,1,colour,0.06,3.2
39,19,1,2,15,13,713,1223.0181697164662,1223.7850267421454,"[64, 0, 190]",190,a,0.2435444612056017,0,colour,0.06,3.2
39,19,1,2,15,14,714,1224.2992316056043,1225.0490476791747,"[93, 0, 161]",161,l,0.22719549760222435,1,colour,0.06,3.2
39,19,1,2,15,15,715,1225.5648389561102,1226.321151922457,"[77, 0, 177]",177,a,0.2326392442919314,0,colour,0.06,3.2
39,19,1,2,15,16,716,1226.8305845470168,1227.4173142816871,"[59, 0, 195]",195,a,0.06402487540617585,0,colour,0.06,3.2
39,19,1,2,15,17,717,1227.9242381039076,1228.7450324138626,"[94, 0, 160]",160,l,0.29769481625407934,1,colour,0.06,3.2
39,19,1,2,15,18,718,1229.2524008885957,1229.8810457414947,"[54, 0, 200]",200,a,0.10524485446512699,0,colour,0.06,3.2
39,19,1,2,15,19,719,1230.392978897784,1231.2250344618224,"[48, 0, 206]",206,a,0.3090754058212042,1,colour,0.06,3.2
39,19,1,2,15,20,720,1231.7366856238805,1232.401087016333,"[58, 0, 196]",196,a,0.14164690859615803,0,colour,0.06,3.2
39,19,1,2,15,21,721,1232.9086740761995,1233.689018377103,"[61, 0, 193]",193,a,0.2577225430868566,0,colour,0.06,3.2
39,19,1,2,15,22,722,1234.205505581107,1234.9450402907096,"[90, 0, 164]",164,l,0.2160929637029767,1,colour,0.06,3.2
39,19,1,2,15,23,723,1235.4555268487893,1236.2091368460096,"[79, 0, 175]",175,a,0.23012374667450786,0,colour,0.06,3.2
39,19,1,2,15,24,724,1236.7211042670533,1237.6570250410587,"[78, 0, 176]",176,a,0.4130402593873441,0,colour,0.06,3.2
39,19,1,2,15,25,725,1238.1742321960628,1238.9930513654836,"[16, 0, 238]",238,a,0.29534985357895494,1,colour,0.06,3.2
39,19,1,2,15,26,726,1239.5023075467907,1240.2490748544224,"[75, 0, 179]",179,a,0.22353666322305799,0,colour,0.06,3.2
39,19,1,2,15,27,727,1240.7680007563904,1241.6890676077455,"[82, 0, 172]",172,l,0.397898041177541,1,colour,0.06,3.2
39,19,1,2,15,28,728,1242.2054768302478,1242.913093822077,"[65, 0, 189]",189,a,0.1847482924349606,0,colour,0.06,3.2
39,19,1,2,15,29,729,1243.4241038025357,1244.1130571942776,"[60, 0, 194]",194,a,0.16534229181706905,0,colour,0.06,3.2
39,19,1,2,15,30,730,1244.627439682372,1245.3370416611433,"[57, 0, 197]",197,a,0.18668719893321395,0,colour,0.06,3.2
39,19,1,2,15,31,731,1245.8461182485335,1246.8091077012941,"[76, 0, 178]",178,l,0.4397005192004144,1,colour,0.06,3.2
39,19,1,2,15,32,732,1247.330576670356,1248.0410707113333,"[69, 0, 185]",185,a,0.18707907665520906,0,colour,0.06,3.2
39,19,1,2,15,33,733,1248.5493737841025,1249.2810993045568,"[67, 0, 187]",187,a,0.20923255058005452,0,colour,0.06,3.2
39,19,1,2,15,34,734,1249.7992863501422,1250.4490602822043,"[55, 0, 199]",199,a,0.12668940471485257,0,colour,0.06,3.2
39,19,1,2,15,35,735,1250.9556568181142,1251.561074177269,"[91, 0, 163]",163,l,0.08247894886881113,1,colour,0.06,3.2
39,19,1,2,15,36,736,1252.0805235011503,1252.8571045980789,"[83, 0, 171]",171,l,0.25324962800368667,1,colour,0.06,3.2
39,19,1,2,15,37,737,1253.3772793868557,1254.1610753587447,"[96, 0, 158]",158,l,0.2609717771410942,1,colour,0.06,3.2
39,19,1,2,15,38,738,1254.674242829904,1255.3930320669897,"[80, 0, 174]",174,l,0.19532661698758602,1,colour,0.06,3.2
39,19,1,2,15,39,739,1255.9086118484847,1256.57713366393,"[97, 0, 157]",157,l,0.1450174474157393,1,colour,0.06,3.2
39,19,1,2,15,40,740,1257.096141091548,1257.7930576670915,"[51, 0, 203]",203,a,0.17355123534798622,0,colour,0.06,3.2
39,19,1,2,15,41,741,1258.2993769347668,1259.3290591794066,"[89, 0, 165]",165,l,0.5065039815381169,1,colour,0.06,3.2
39,19,1,2,15,42,742,1259.84609776875,1260.617135869339,"[87, 0, 167]",167,l,0.24757036054506898,1,colour,0.06,3.2
39,19,1,2,15,43,743,1261.1274270792492,1262.161056060344,"[71, 0, 183]",183,a,0.5102490684948862,0,colour,0.06,3.2
39,19,1,2,15,44,744,1262.6741636670195,1263.409084070474,"[70, 0, 184]",184,a,0.21143139572814107,0,colour,0.06,3.2
39,19,1,2,15,45,745,1263.9242164422758,1264.7210432207212,"[74, 0, 180]",180,a,0.273345647379756,0,colour,0.06,3.2
39,19,1,2,15,46,746,1265.2366777472198,1266.1850956655107,"[81, 0, 173]",173,l,0.4250194956548512,1,colour,0.06,3.2
39,19,1,2,15,47,747,1266.7054858887568,1267.5530995721929,"[73, 0, 181]",181,a,0.3242912730202079,0,colour,0.06,3.2
39,19,1,2,15,48,748,1268.0648413193412,1268.6330606602132,"[85, 0, 169]",169,l,0.04531677067279816,1,colour,0.06,3.2
39,19,1,2,15,49,749,1269.1430068607442,1269.769037754275,"[50, 0, 204]",204,a,0.10300504928454757,1,colour,0.06,3.2
39,19,1,2,15,50,750,1270.2836293745786,1271.0410919790156,"[4, 0, 250]",250,a,0.23430442763492465,1,colour,0.06,3.2
39,19,1,2,16,1,751,1275.7516309185885,1278.3771104267798,"[66, 0, 188]",188,a,2.101447386201471,0,colour,0.06,3.1
39,19,1,2,16,2,752,1278.8930462454446,1280.7130824006163,"[78, 0, 176]",176,a,1.2966790860518813,0,colour,0.06,3.1
39,19,1,2,16,3,753,1281.221164919436,1282.0891069923528,"[89, 0, 165]",165,l,0.3448614841327071,1,colour,0.06,3.1
39,19,1,2,16,4,754,1282.596024907194,1283.393096263986,"[86, 0, 168]",168,l,0.27399706980213523,1,colour,0.06,3.1
39,19,1,2,16,5,755,1283.9085752209648,1284.6010700813495,"[52, 0, 202]",202,a,0.16917008673772216,0,colour,0.06,3.1
39,19,1,2,16,6,756,1285.1118382392451,1285.7691141604446,"[96, 0, 158]",158,l,0.13397595938295126,1,colour,0.06,3.1
39,19,1,2,16,7,757,1286.2835242175497,1287.1131556560285,"[61, 0, 193]",193,a,0.30629799980670214,0,colour,0.06,3.1
39,19,1,2,16,8,758,1287.627326254733,1288.777134845499,"[82, 0, 172]",172,a,0.626597638707608,0,colour,0.06,3.1
39,19,1,2,16,9,759,1289.2835923531093,1290.1690763509832,"[68, 0, 186]",186,a,0.3621403193101287,0,colour,0.06,3.1
39,19,1,2,16,10,760,1290.6897812578827,1291.4810898522846,"[58, 0, 196]",196,a,0.2678310084156692,0,colour,0.06,3.1
39,19,1,2,16,11,761,1292.002317787148,1292.7531125694513,"[90, 0, 164]",164,l,0.2279260829091072,1,colour,0.06,3.1
39,19,1,2,16,12,762,1293.2679605837911,1293.9131359639578,"[55, 0, 199]",199,a,0.12228383729234338,0,colour,0.06,3.1
39,19,1,2,16,13,763,1294.424173119478,1295.265180027578,"[64, 0, 190]",190,a,0.317447402048856,0,colour,0.06,3.1
39,19,1,2,16,14,764,1295.7836470976472,1296.6490949406289,"[62, 0, 192]",192,a,0.34226721664890647,0,colour,0.06,3.1
39,19,1,2,16,15,765,1297.158670138102,1297.8810989107005,"[99, 0, 155]",155,l,0.19922018377110362,1,colour,0.06,3.1
39,19,1,2,16,16,766,1298.3929674760439,1299.2251128372736,"[74, 0, 180]",180,a,0.30918765207752585,0,colour,0.06,3.1
39,19,1,2,16,17,767,1299.7366805039346,1300.601042511873,"[71, 0, 183]",183,a,0.3409525570459664,0,colour,0.06,3.1
39,19,1,2,16,18,768,1301.1117622270249,1301.9134849119,"[81, 0, 173]",173,a,0.2783443480730057,0,colour,0.06,3.1
39,19,1,2,16,19,769,1302.4241459439509,1303.8811520799063,"[88, 0, 166]",166,l,0.9335041311569512,1,colour,0.06,3.1
39,19,1,2,16,20,770,1304.3929757471196,1305.1932089040056,"[87, 0, 167]",167,l,0.2773132575675845,1,colour,0.06,3.1
39,19,1,2,16,21,771,1305.7054752549157,1306.4330972880125,"[50, 0, 204]",204,a,0.20428229356184602,1,colour,0.06,3.1
39,19,1,2,16,22,772,1306.9399191038683,1307.7371180672199,"[69, 0, 185]",185,a,0.2738379556685686,0,colour,0.06,3.1
39,19,1,2,16,23,773,1308.2523878915235,1309.025096689351,"[83, 0, 171]",171,a,0.24944467609748244,0,colour,0.06,3.1
39,19,1,2,16,24,774,1309.5335805378854,1310.3051239438355,"[79, 0, 175]",175,l,0.24816034315153956,1,colour,0.06,3.1
39,19,1,2,16,25,775,1310.8150736889802,1311.7451159092598,"[80, 0, 174]",174,l,0.40670051146298647,1,colour,0.06,3.1
39,19,1,2,16,26,776,1312.2524209748954,1313.0011330964044,"[7, 0, 247]",247,a,0.22550668334588408,1,colour,0.06,3.1
39,19,1,2,16,27,777,1313.5179527071305,1314.2891168384813,"[98, 0, 156]",156,l,0.24813553038984537,1,colour,0.06,3.1
39,19,1,2,16,28,778,1314.7992540546693,1315.6171039678156,"[97, 0, 157]",157,l,0.29460272705182433,1,colour,0.06,3.1
39,19,1,2,16,29,779,1316.1274089626968,1317.1131477793679,"[91, 0, 163]",163,l,0.46276496024802327,1,colour,0.06,3.1
39,19,1,2,16,30,780,1317.62729395926,1318.4891908816062,"[93, 0, 161]",161,l,0.33846423448994756,1,colour,0.06,3.1
39,19,1,2,16,31,781,1319.0022610733286,1319.9451623829082,"[84, 0, 170]",170,a,0.41981087485328317,0,colour,0.06,3.1
39,19,1,2,16,32,782,1320.4554752549157,1321.6571510718204,"[73, 0, 181]",181,a,0.6783608896657825,0,colour,0.06,3.1
39,19,1,2,16,33,783,1322.1742077777162,1323.1851744349115,"[76, 0, 178]",178,a,0.48760919412598014,0,colour,0.06,3.1
39,19,1,2,16,34,784,1323.7053677346557,1324.721131048631,"[65, 0, 189]",189,a,0.492420029360801,0,colour,0.06,3.1
39,19,1,2,16,35,785,1325.2367317038588,1325.8411171850748,"[3, 0, 251]",251,a,0.08117649843916297,1,colour,0.06,3.1
39,19,1,2,16,36,786,1326.3616216238588,1328.7851795549504,"[32, 0, 222]",222,a,1.9004001482389867,1,colour,0.06,3.1
39,19,1,2,16,37,787,1329.2991382637993,1330.161160429474,"[92, 0, 162]",162,l,0.33865288738161325,1,colour,0.06,3.1
39,19,1,2,16,38,788,1330.6741357040592,1332.6252105110325,"[77, 0, 177]",177,a,1.427732310257852,0,colour,0.06,3.1
39,19,1,2,16,39,789,1333.1428776793182,1334.9691397603601,"[85, 0, 169]",169,a,1.302620654925704,0,colour,0.06,3.1
39,19,1,2,16,40,790,1335.4866013405845,1336.489191669505,"[72, 0, 182]",182,a,0.4792777644470334,0,colour,0.06,3.1
39,19,1,2,16,41,791,1337.0022594975308,1337.601126795169,"[94, 0, 160]",160,l,0.07565989019349217,1,colour,0.06,3.1
39,19,1,2,16,42,792,1338.111714177765,1339.0651481258683,"[54, 0, 200]",200,a,0.430252140853554,0,colour,0.06,3.1
39,19,1,2,16,43,793,1339.5807731994428,1340.4091266058385,"[67, 0, 187]",187,a,0.30645593255758286,0,colour,0.06,3.1
39,19,1,2,16,44,794,1340.9241750887595,1341.5931399809197,"[70, 0, 184]",184,a,0.14553653681650758,0,colour,0.06,3.1
39,19,1,2,16,45,795,1342.1116838515736,1342.9772045561112,"[53, 0, 201]",201,a,0.34215654619038105,0,colour,0.06,3.1
39,19,1,2,16,46,796,1343.4866210329346,1344.2731577828526,"[57, 0, 197]",197,a,0.26326317619532347,0,colour,0.06,3.1
39,19,1,2,16,47,797,1344.7835403652862,1345.5531121753156,"[56, 0, 198]",198,a,0.24628760246559978,0,colour,0.06,3.1
39,19,1,2,16,48,798,1346.06476294389,1346.8571317731403,"[75, 0, 179]",179,a,0.2692575203254819,0,colour,0.06,3.1
39,19,1,2,16,49,799,1347.3773372825235,1348.1692354651168,"[59, 0, 195]",195,a,0.26866793213412166,0,colour,0.06,3.1
39,19,1,2,16,50,800,1348.6897599902004,1349.3931966950186,"[60, 0, 194]",194,a,0.18002449721097946,0,colour,0.06,3.1
