id,age,condition,counterbalance,block,trialinblock,trial,tstart,tend,trialstim,trialintensity,response,RT,accuracy,trialtype,colourfreq,credits
50,25,1,1,Practice,1,NA,6.200047209858894e-06,1.4360796001274139,"[0, 0, 254]",254,a,0.7865828000940382,1,colour,0.5,4
50,25,1,1,Practice,2,NA,1.9540310001466423,2.6681015000212938,"[76, 0, 178]",178,l,0.19083189987577498,1,colour,0.5,4
50,25,1,1,Practice,3,NA,3.188232800224796,3.7481056000106037,"[77, 0, 177]",177,l,0.03649609978310764,1,colour,0.5,4
50,25,1,1,Practice,4,NA,4.2663709002081305,8.092091700062156,"[14, 0, 240]",240,a,3.3022789999376982,1,colour,0.5,4
50,25,1,1,Practice,5,NA,8.610552500002086,9.772156300023198,"[34, 0, 220]",220,a,0.6392951998859644,1,colour,0.5,4
50,25,1,1,Practice,6,NA,10.282029100228101,11.51611280022189,"[31, 0, 223]",223,a,0.7107951000798494,1,colour,0.5,4
50,25,1,1,Practice,7,NA,12.032022800063714,13.180109900189564,"[57, 0, 197]",197,a,0.624765699962154,0,colour,0.5,4
50,25,1,1,Practice,8,NA,13.6882721001748,14.788117500022054,"[47, 0, 207]",207,a,0.5765232997946441,1,colour,0.5,4
50,25,1,1,Practice,9,NA,15.297552100149915,16.404086500173435,"[89, 0, 165]",165,l,0.5831289000343531,1,colour,0.5,4
50,25,1,1,Practice,10,NA,16.92263720021583,17.964121400145814,"[98, 0, 156]",156,l,0.5181702000554651,1,colour,0.5,4
50,25,1,1,1,1,1,4.419689500005916,5.544039300177246,"[84, 0, 170]",170,l,0.6001953999511898,1,colour,0.5,4.0
50,25,1,1,1,2,2,6.061137600103393,7.280024900101125,"[60, 0, 194]",194,a,0.6955999999772757,0,colour,0.5,4.0
50,25,1,1,1,3,3,7.795515400124714,9.023950100177899,"[65, 0, 189]",189,a,0.7050063000060618,0,colour,0.5,4.0
50,25,1,1,1,4,4,9.529861200135201,10.936013600090519,"[69, 0, 185]",185,l,0.8827972998842597,1,colour,0.5,4.0
50,25,1,1,1,5,5,11.451694200048223,12.536030300194398,"[71, 0, 183]",183,l,0.561003000009805,1,colour,0.5,4.0
50,25,1,1,1,6,6,13.04546570009552,14.087963400175795,"[67, 0, 187]",187,l,0.5192778999917209,1,colour,0.5,4.0
50,25,1,1,1,7,7,14.6079536001198,15.69599450007081,"[66, 0, 188]",188,l,0.5646859998814762,1,colour,0.5,4.0
50,25,1,1,1,8,8,16.21741050016135,17.400012000231072,"[57, 0, 197]",197,a,0.6593026001937687,0,colour,0.5,4.0
50,25,1,1,1,9,9,17.920427300035954,19.088074900209904,"[18, 0, 236]",236,a,0.6442598002031446,1,colour,0.5,4.0
50,25,1,1,1,10,10,19.607972300145775,20.704003600170836,"[61, 0, 193]",193,l,0.5726875001564622,1,colour,0.5,4.0
50,25,1,1,1,11,11,21.217317800037563,22.35206240019761,"[26, 0, 228]",228,a,0.6118326999712735,1,colour,0.5,4.0
50,25,1,1,1,12,12,22.873460000148043,24.04801240004599,"[36, 0, 218]",218,a,0.6511349999345839,1,colour,0.5,4.0
50,25,1,1,1,13,13,24.56108590005897,25.639987000031397,"[99, 0, 155]",155,l,0.5555665998253971,1,colour,0.5,4.0
50,25,1,1,1,14,14,26.154896600171924,27.24797340016812,"[62, 0, 192]",192,l,0.569892100058496,1,colour,0.5,4.0
50,25,1,1,1,15,15,27.76413800008595,28.896018700208515,"[64, 0, 190]",190,l,0.6085014999844134,1,colour,0.5,4.0
50,25,1,1,1,16,16,29.40489140013233,30.464002100052312,"[98, 0, 156]",156,l,0.5359934999141842,1,colour,0.5,4.0
50,25,1,1,1,17,17,30.982938000001013,32.039937500143424,"[2, 0, 252]",252,a,0.5336009000893682,1,colour,0.5,4.0
50,25,1,1,1,18,18,32.56085790018551,33.62402180000208,"[13, 0, 241]",241,a,0.5396266998723149,1,colour,0.5,4.0
50,25,1,1,1,19,19,34.139153900090605,35.144000000087544,"[83, 0, 171]",171,l,0.48161219991743565,1,colour,0.5,4.0
50,25,1,1,1,20,20,35.65478080022149,36.74398900009692,"[16, 0, 238]",238,a,0.565969199873507,1,colour,0.5,4.0
50,25,1,1,1,21,21,37.26405300013721,38.24798410013318,"[43, 0, 211]",211,a,0.460517399944365,1,colour,0.5,4.0
50,25,1,1,1,22,22,38.76403110008687,39.79199760011397,"[74, 0, 180]",180,l,0.5044193000067025,1,colour,0.5,4.0
50,25,1,1,1,23,23,40.31107040005736,41.40798000013456,"[35, 0, 219]",219,a,0.5734816999174654,1,colour,0.5,4.0
50,25,1,1,1,24,24,41.92044180002995,42.95196150010452,"[55, 0, 199]",199,l,0.5082274999003857,1,colour,0.5,4.0
50,25,1,1,1,25,25,43.467373200226575,44.44805200002156,"[11, 0, 243]",243,a,0.45749169983901083,1,colour,0.5,4.0
50,25,1,1,1,26,26,44.96731950016692,45.9840780000668,"[40, 0, 214]",214,a,0.49411999993026257,1,colour,0.5,4.0
50,25,1,1,1,27,27,46.49860440008342,47.55203240015544,"[31, 0, 223]",223,a,0.5300680999644101,1,colour,0.5,4.0
50,25,1,1,1,28,28,48.06106150010601,48.98396680015139,"[58, 0, 196]",196,l,0.39990300009958446,1,colour,0.5,4.0
50,25,1,1,1,29,29,49.49851150019094,50.503958200104535,"[78, 0, 176]",176,l,0.4821413999889046,1,colour,0.5,4.0
50,25,1,1,1,30,30,51.014084900030866,52.0559527000878,"[9, 0, 245]",245,a,0.5184084000065923,1,colour,0.5,4.0
50,25,1,1,1,31,31,52.57660850021057,53.503965200157836,"[38, 0, 216]",216,a,0.40452750003896654,1,colour,0.5,4.0
50,25,1,1,1,32,32,54.01411660015583,54.98399280011654,"[97, 0, 157]",157,l,0.4465524998959154,1,colour,0.5,4.0
50,25,1,1,1,33,33,55.49846790009178,56.495972600067034,"[86, 0, 168]",168,l,0.4741203999146819,1,colour,0.5,4.0
50,25,1,1,1,34,34,57.01417260011658,58.0160087000113,"[5, 0, 249]",249,a,0.4785297999624163,1,colour,0.5,4.0
50,25,1,1,1,35,35,58.52978750015609,59.43999590002932,"[19, 0, 235]",235,a,0.3869158998131752,1,colour,0.5,4.0
50,25,1,1,1,36,36,59.95160300005227,60.967971000121906,"[41, 0, 213]",213,a,0.49307550000958145,1,colour,0.5,4.0
50,25,1,1,1,37,37,61.48276080004871,62.343971700174734,"[92, 0, 162]",162,l,0.33777860016562045,1,colour,0.5,4.0
50,25,1,1,1,38,38,62.8579114000313,63.83997740014456,"[23, 0, 231]",231,a,0.45886599994264543,1,colour,0.5,4.0
50,25,1,1,1,39,39,64.35782640008256,65.33598450012505,"[22, 0, 232]",232,a,0.4553736001253128,1,colour,0.5,4.0
50,25,1,1,1,40,40,65.84219280001707,66.6879407002125,"[90, 0, 164]",164,l,0.32244780007749796,1,colour,0.5,4.0
50,25,1,1,1,41,41,67.20156580000184,68.16001410013996,"[17, 0, 237]",237,a,0.43514989991672337,1,colour,0.5,4.0
50,25,1,1,1,42,42,68.67040710011497,69.63203540001996,"[48, 0, 206]",206,l,0.43857529992237687,0,colour,0.5,4.0
50,25,1,1,1,43,43,70.13907460006885,71.08799650007859,"[82, 0, 172]",172,l,0.425637099891901,1,colour,0.5,4.0
50,25,1,1,1,44,44,71.60783280013129,72.52802340011112,"[6, 0, 248]",248,a,0.39686609990894794,1,colour,0.5,4.0
50,25,1,1,1,45,45,73.04531900002621,74.00803240016103,"[59, 0, 195]",195,l,0.43942570011131465,1,colour,0.5,4.0
50,25,1,1,1,46,46,74.51410340005532,75.5040344002191,"[46, 0, 208]",208,a,0.46666710008867085,1,colour,0.5,4.0
50,25,1,1,1,47,47,76.01406880002469,77.05604110006243,"[20, 0, 234]",234,a,0.5186491999775171,1,colour,0.5,4.0
50,25,1,1,1,48,48,77.57652190001681,78.67201970005408,"[49, 0, 205]",205,l,0.5723462998867035,0,colour,0.5,4.0
50,25,1,1,1,49,49,79.18584100017324,80.04799800016917,"[24, 0, 230]",230,a,0.33924999996088445,1,colour,0.5,4.0
50,25,1,1,1,50,50,80.56094190012664,81.56002900004387,"[79, 0, 175]",175,l,0.4759571999311447,1,colour,0.5,4.0
50,25,1,1,2,1,51,88.79449860006571,89.8800298999995,"[67, 0, 187]",187,l,0.5613843998871744,1,colour,0.5,4.0
50,25,1,1,2,2,52,90.38905310002156,91.43206490017474,"[81, 0, 173]",173,l,0.5197350999806076,1,colour,0.5,4.0
50,25,1,1,2,3,53,91.95158580015413,92.95196580002084,"[91, 0, 163]",163,l,0.4770810999907553,1,colour,0.5,4.0
50,25,1,1,2,4,54,93.46707210014574,94.407950400142,"[28, 0, 226]",226,a,0.41756339999847114,1,colour,0.5,4.0
50,25,1,1,2,5,55,94.92023960012011,95.79995660018176,"[66, 0, 188]",188,l,0.35637579998001456,1,colour,0.5,4.0
50,25,1,1,2,6,56,96.31086090020835,97.24794850009494,"[0, 0, 254]",254,a,0.4138273000717163,1,colour,0.5,4.0
50,25,1,1,2,7,57,97.764147200156,98.66397340013646,"[65, 0, 189]",189,l,0.3767067000735551,1,colour,0.5,4.0
50,25,1,1,2,8,58,99.17021580017172,100.27997590019368,"[50, 0, 204]",204,l,0.5864811001811177,0,colour,0.5,4.0
50,25,1,1,2,9,59,100.79530210001394,101.7680312001612,"[86, 0, 168]",168,l,0.4494107000064105,1,colour,0.5,4.0
50,25,1,1,2,10,60,102.2795869000256,103.14399010012858,"[95, 0, 159]",159,l,0.3409647000953555,1,colour,0.5,4.0
50,25,1,1,2,11,61,103.6545295000542,104.54398630000651,"[57, 0, 197]",197,l,0.3661449998617172,1,colour,0.5,4.0
50,25,1,1,2,12,62,105.06085780006833,105.93600730015896,"[38, 0, 216]",216,a,0.35197159997187555,1,colour,0.5,4.0
50,25,1,1,2,13,63,106.45148040005006,107.39997990010306,"[7, 0, 247]",247,a,0.42527589993551373,1,colour,0.5,4.0
50,25,1,1,2,14,64,107.92022220022045,108.78401530021802,"[79, 0, 175]",175,l,0.340660999994725,1,colour,0.5,4.0
50,25,1,1,2,15,65,109.29518810007721,110.56796920020133,"[52, 0, 202]",202,l,0.7498900000937283,1,colour,0.5,4.0
50,25,1,1,2,16,66,111.07646660017781,112.04797310009599,"[25, 0, 229]",229,a,0.4484105999581516,1,colour,0.5,4.0
50,25,1,1,2,17,67,112.56085370015353,113.53599590016529,"[60, 0, 194]",194,l,0.4520368000958115,1,colour,0.5,4.0
50,25,1,1,2,18,68,114.04523220006377,115.0719614000991,"[9, 0, 245]",245,a,0.5033782999962568,1,colour,0.5,4.0
50,25,1,1,2,19,69,115.59207290015183,116.62401440017857,"[16, 0, 238]",238,a,0.5085434000939131,1,colour,0.5,4.0
50,25,1,1,2,20,70,117.13894710014574,118.0959546000231,"[53, 0, 201]",201,l,0.43371009989641607,1,colour,0.5,4.0
50,25,1,1,2,21,71,118.60769020020962,119.63199760019779,"[92, 0, 162]",162,l,0.5009985000360757,1,colour,0.5,4.0
50,25,1,1,2,22,72,120.1389601000119,121.05595600022934,"[73, 0, 181]",181,l,0.3936465000733733,1,colour,0.5,4.0
50,25,1,1,2,23,73,121.57621940015815,122.49603300006129,"[99, 0, 155]",155,l,0.39667599997483194,1,colour,0.5,4.0
50,25,1,1,2,24,74,123.01389220007695,123.9679710001219,"[35, 0, 219]",219,a,0.4307268001139164,1,colour,0.5,4.0
50,25,1,1,2,25,75,124.48266320000403,125.48808770021424,"[17, 0, 237]",237,a,0.4820670001208782,1,colour,0.5,4.0
50,25,1,1,2,26,76,125.99832570017315,126.88803810020909,"[90, 0, 164]",164,l,0.3663034001365304,1,colour,0.5,4.0
50,25,1,1,2,27,77,127.4045520001091,128.6400191001594,"[45, 0, 209]",209,l,0.7121620001271367,0,colour,0.5,4.0
50,25,1,1,2,28,78,129.1545740000438,130.20804340019822,"[21, 0, 233]",233,a,0.5306711001321673,1,colour,0.5,4.0
50,25,1,1,2,29,79,130.71698930021375,131.66394890006632,"[11, 0, 243]",243,a,0.4235694999806583,1,colour,0.5,4.0
50,25,1,1,2,30,80,132.17017050017603,133.07202900014818,"[47, 0, 207]",207,a,0.3785443000961095,1,colour,0.5,4.0
50,25,1,1,2,31,81,133.59208640013821,134.5119677002076,"[14, 0, 240]",240,a,0.39655750012025237,1,colour,0.5,4.0
50,25,1,1,2,32,82,135.0295158000663,135.90396740008146,"[41, 0, 213]",213,a,0.35134619986638427,1,colour,0.5,4.0
50,25,1,1,2,33,83,136.4201452000998,137.29606230021454,"[40, 0, 214]",214,a,0.35259989998303354,1,colour,0.5,4.0
50,25,1,1,2,34,84,137.81076110014692,138.63998340000398,"[63, 0, 191]",191,l,0.3060772998724133,1,colour,0.5,4.0
50,25,1,1,2,35,85,139.15451490017585,140.01596180000342,"[10, 0, 244]",244,a,0.33813930000178516,1,colour,0.5,4.0
50,25,1,1,2,36,86,140.5295813002158,141.3920103001874,"[72, 0, 182]",182,l,0.33918090001679957,1,colour,0.5,4.0
50,25,1,1,2,37,87,141.90455370000564,142.89621940022334,"[64, 0, 190]",190,l,0.4684107000939548,1,colour,0.5,4.0
50,25,1,1,2,38,88,143.4045098000206,144.40798600018024,"[89, 0, 165]",165,l,0.480661700014025,1,colour,0.5,4.0
50,25,1,1,2,39,89,144.920117800124,145.80797120020725,"[43, 0, 211]",211,a,0.3645069000776857,1,colour,0.5,4.0
50,25,1,1,2,40,90,146.3264100002125,147.16797310020775,"[36, 0, 218]",218,a,0.3183821002021432,1,colour,0.5,4.0
50,25,1,1,2,41,91,147.68576620006934,148.64798780018464,"[8, 0, 246]",246,a,0.4389166999608278,1,colour,0.5,4.0
50,25,1,1,2,42,92,149.1544809001498,150.12797340005636,"[48, 0, 206]",206,a,0.45013639982789755,1,colour,0.5,4.0
50,25,1,1,2,43,93,150.63884970010258,151.64803510019556,"[49, 0, 205]",205,a,0.4858525001909584,1,colour,0.5,4.0
50,25,1,1,2,44,94,152.1544679000508,153.09603140014224,"[24, 0, 230]",230,a,0.41822790005244315,1,colour,0.5,4.0
50,25,1,1,2,45,95,153.60763420001604,154.4079848001711,"[82, 0, 172]",172,l,0.27697210013866425,1,colour,0.5,4.0
50,25,1,1,2,46,96,154.92009670007974,155.68800580012612,"[69, 0, 185]",185,l,0.2445127998944372,1,colour,0.5,4.0
50,25,1,1,2,47,97,156.2013355002273,157.1360262001399,"[55, 0, 199]",199,l,0.41144139994867146,1,colour,0.5,4.0
50,25,1,1,2,48,98,157.6545740000438,158.4879869001452,"[74, 0, 180]",180,l,0.3101407000795007,1,colour,0.5,4.0
50,25,1,1,2,49,99,158.99818320013583,159.86397670023143,"[34, 0, 220]",220,a,0.3424288001842797,1,colour,0.5,4.0
50,25,1,1,2,50,100,160.3732169000432,161.25593570014462,"[13, 0, 241]",241,a,0.3593747999984771,1,colour,0.5,4.0
50,25,1,1,3,1,101,170.6692725000903,171.6320855000522,"[76, 0, 178]",178,l,0.43859819998033345,1,colour,0.5,4.0
50,25,1,1,3,2,102,172.1388522000052,173.0480623000767,"[62, 0, 192]",192,l,0.38593550003133714,1,colour,0.5,4.0
50,25,1,1,3,3,103,173.5606843000278,174.51199660007842,"[53, 0, 201]",201,l,0.4282239000312984,1,colour,0.5,4.0
50,25,1,1,3,4,104,175.02943700016476,175.95995160005987,"[74, 0, 180]",180,l,0.4071761998347938,1,colour,0.5,4.0
50,25,1,1,3,5,105,176.46687850006856,177.31998960021883,"[3, 0, 251]",251,a,0.32971590012311935,1,colour,0.5,4.0
50,25,1,1,3,6,106,177.82627340010367,178.69595360010862,"[14, 0, 240]",240,a,0.3465569999534637,1,colour,0.5,4.0
50,25,1,1,3,7,107,179.2168373002205,180.27210120018572,"[55, 0, 199]",199,l,0.5318748001009226,1,colour,0.5,4.0
50,25,1,1,3,8,108,180.7793934000656,181.87204690021463,"[47, 0, 207]",207,l,0.5693259001709521,0,colour,0.5,4.0
50,25,1,1,3,9,109,182.38877480011433,183.29602440004237,"[43, 0, 211]",211,a,0.38389059994369745,1,colour,0.5,4.0
50,25,1,1,3,10,110,183.81062960019335,184.76799740013666,"[42, 0, 212]",212,a,0.4342569001019001,1,colour,0.5,4.0
50,25,1,1,3,11,111,185.2794118002057,186.31197830010206,"[28, 0, 226]",226,a,0.5092339999973774,1,colour,0.5,4.0
50,25,1,1,3,12,112,186.826256000204,187.80795690021478,"[99, 0, 155]",155,l,0.45873340009711683,1,colour,0.5,4.0
50,25,1,1,3,13,113,188.32628380018286,189.28004340012558,"[25, 0, 229]",229,a,0.43063000007532537,1,colour,0.5,4.0
50,25,1,1,3,14,114,189.79501450015232,190.76796990004368,"[30, 0, 224]",224,a,0.45029429998248816,1,colour,0.5,4.0
50,25,1,1,3,15,115,191.2794346001465,192.13600530009717,"[59, 0, 195]",195,l,0.333369700005278,1,colour,0.5,4.0
50,25,1,1,3,16,116,192.6544063000474,193.4719937001355,"[29, 0, 225]",225,a,0.2945195999927819,1,colour,0.5,4.0
50,25,1,1,3,17,117,193.9825461001601,194.80799340014346,"[82, 0, 172]",172,l,0.3021341999992728,1,colour,0.5,4.0
50,25,1,1,3,18,118,195.32625180017203,196.2960026001092,"[73, 0, 181]",181,l,0.44655660004355013,1,colour,0.5,4.0
50,25,1,1,3,19,119,196.81061850022525,197.84804250020534,"[60, 0, 194]",194,l,0.5143062002025545,1,colour,0.5,4.0
50,25,1,1,3,20,120,198.35748550016433,199.3119813001249,"[78, 0, 176]",176,l,0.4311899999156594,1,colour,0.5,4.0
50,25,1,1,3,21,121,199.82624650001526,200.6799993000459,"[93, 0, 161]",161,l,0.33090409985743463,1,colour,0.5,4.0
50,25,1,1,3,22,122,201.20127650001086,202.11196530004963,"[40, 0, 214]",214,a,0.38747149985283613,1,colour,0.5,4.0
50,25,1,1,3,23,123,202.6230521001853,203.44001510017551,"[72, 0, 182]",182,l,0.29355950001627207,1,colour,0.5,4.0
50,25,1,1,3,24,124,203.95133330021054,204.82396360021085,"[20, 0, 234]",234,a,0.3495760001242161,1,colour,0.5,4.0
50,25,1,1,3,25,125,205.34185220021755,206.19998340005986,"[97, 0, 157]",157,l,0.33487999998033047,1,colour,0.5,4.0
50,25,1,1,3,26,126,206.71684060012922,207.58401480014436,"[81, 0, 173]",173,l,0.34386210003867745,1,colour,0.5,4.0
50,25,1,1,3,27,127,208.0918548000045,208.95197660010308,"[38, 0, 216]",216,a,0.3367258000653237,1,colour,0.5,4.0
50,25,1,1,3,28,128,209.46682460000739,210.46401050011627,"[54, 0, 200]",200,l,0.47392349992878735,1,colour,0.5,4.0
50,25,1,1,3,29,129,210.98234980017878,211.88803300005384,"[21, 0, 233]",233,a,0.3821780998259783,1,colour,0.5,4.0
50,25,1,1,3,30,130,212.40431980020367,213.3999752001837,"[24, 0, 230]",230,a,0.47233140002936125,1,colour,0.5,4.0
50,25,1,1,3,31,131,213.91992150014266,214.9199721000623,"[1, 0, 253]",253,a,0.4767513999249786,1,colour,0.5,4.0
50,25,1,1,3,32,132,215.4355640001595,216.44800840015523,"[36, 0, 218]",218,a,0.4891433999873698,1,colour,0.5,4.0
50,25,1,1,3,33,133,216.9667967001442,217.88799300021492,"[7, 0, 247]",247,a,0.39795660017989576,1,colour,0.5,4.0
50,25,1,1,3,34,134,218.40427830000408,219.39198690000921,"[92, 0, 162]",162,l,0.4650680997874588,1,colour,0.5,4.0
50,25,1,1,3,35,135,219.90443500014953,220.95999170001596,"[67, 0, 187]",187,l,0.5323623998556286,1,colour,0.5,4.0
50,25,1,1,3,36,136,221.46680010017008,222.4160079001449,"[8, 0, 246]",246,a,0.4258852999191731,1,colour,0.5,4.0
50,25,1,1,3,37,137,222.93560120020993,223.8160715000704,"[96, 0, 158]",158,l,0.35714920004829764,1,colour,0.5,4.0
50,25,1,1,3,38,138,224.3261905000545,225.3119565001689,"[44, 0, 210]",210,a,0.46257920004427433,1,colour,0.5,4.0
50,25,1,1,3,39,139,225.82621910003945,226.79197160014883,"[75, 0, 179]",179,l,0.4549040999263525,1,colour,0.5,4.0
50,25,1,1,3,40,140,227.2981428001076,228.28799720015377,"[91, 0, 163]",163,l,0.4665147999767214,1,colour,0.5,4.0
50,25,1,1,3,41,141,228.79807750019245,229.79201420000754,"[83, 0, 171]",171,l,0.47117039980366826,1,colour,0.5,4.0
50,25,1,1,3,42,142,230.29817660013214,231.27203460014425,"[22, 0, 232]",232,a,0.45091979997232556,1,colour,0.5,4.0
50,25,1,1,3,43,143,231.78239270020276,232.87196650006808,"[84, 0, 170]",170,l,0.5660218999255449,1,colour,0.5,4.0
50,25,1,1,3,44,144,233.3918201001361,234.4880358001683,"[52, 0, 202]",202,l,0.5729088000953197,1,colour,0.5,4.0
50,25,1,1,3,45,145,235.00127960019745,235.95999830006622,"[39, 0, 215]",215,a,0.4356182999908924,1,colour,0.5,4.0
50,25,1,1,3,46,146,236.46991360001266,237.4320096001029,"[46, 0, 208]",208,a,0.4387040000874549,1,colour,0.5,4.0
50,25,1,1,3,47,147,237.93870790000074,239.02397710015066,"[4, 0, 250]",250,a,0.5618847999721766,1,colour,0.5,4.0
50,25,1,1,3,48,148,239.53253500000574,240.48842840013094,"[15, 0, 239]",239,a,0.43269810010679066,1,colour,0.5,4.0
50,25,1,1,3,49,149,241.00117830000818,241.9599565002136,"[16, 0, 238]",238,a,0.435440800152719,1,colour,0.5,4.0
50,25,1,1,3,50,150,242.46991110011004,243.31207000021823,"[86, 0, 168]",168,l,0.3188455000054091,1,colour,0.5,4.0
50,25,1,1,4,1,151,251.60976070002653,252.79203600017354,"[73, 0, 181]",181,l,0.6584239001385868,1,colour,0.5,4.0
50,25,1,1,4,2,152,253.29813620005734,254.3200396001339,"[84, 0, 170]",170,l,0.4986680999863893,1,colour,0.5,4.0
50,25,1,1,4,3,153,254.82925290009007,256.00001180008985,"[42, 0, 212]",212,l,0.647563099861145,0,colour,0.5,4.0
50,25,1,1,4,4,154,256.5167054000776,257.94402600009926,"[33, 0, 221]",221,a,0.9039483999367803,1,colour,0.5,4.0
50,25,1,1,4,5,155,258.45432230015285,259.44800490001217,"[18, 0, 236]",236,a,0.47043939982540905,1,colour,0.5,4.0
50,25,1,1,4,6,156,259.95435050013475,260.90398010006174,"[96, 0, 158]",158,l,0.4262510999105871,1,colour,0.5,4.0
50,25,1,1,4,7,157,261.42305320012383,262.2960402001627,"[82, 0, 172]",172,l,0.3496991000138223,1,colour,0.5,4.0
50,25,1,1,4,8,158,262.8136193000246,263.72800300014205,"[58, 0, 196]",196,l,0.3910038999747485,1,colour,0.5,4.0
50,25,1,1,4,9,159,264.23555940017104,265.20002460014075,"[60, 0, 194]",194,l,0.4412583999801427,1,colour,0.5,4.0
50,25,1,1,4,10,160,265.7198800002225,266.71205750014633,"[36, 0, 218]",218,a,0.4688532000873238,1,colour,0.5,4.0
50,25,1,1,4,11,161,267.2198998001404,268.2242806002032,"[62, 0, 192]",192,l,0.481027300003916,1,colour,0.5,4.0
50,25,1,1,4,12,162,268.73549780016765,269.7199772000313,"[38, 0, 216]",216,a,0.46122379996813834,1,colour,0.5,4.0
50,25,1,1,4,13,163,270.23547220020555,271.2000170000829,"[25, 0, 229]",229,a,0.441684199962765,1,colour,0.5,4.0
50,25,1,1,4,14,164,271.71985030011274,272.69598020007834,"[39, 0, 215]",215,a,0.4527121998835355,1,colour,0.5,4.0
50,25,1,1,4,15,165,273.20425630011596,274.2560384001117,"[72, 0, 182]",182,l,0.5285493999253958,1,colour,0.5,4.0
50,25,1,1,4,16,166,274.7666830001399,275.8479981001001,"[0, 0, 254]",254,a,0.5579490000382066,1,colour,0.5,4.0
50,25,1,1,4,17,167,276.36047320021316,277.4400376002304,"[1, 0, 253]",253,a,0.5565023000817746,1,colour,0.5,4.0
50,25,1,1,4,18,168,277.9542595001403,278.9360064000357,"[27, 0, 227]",227,a,0.45844439999200404,1,colour,0.5,4.0
50,25,1,1,4,19,169,279.45424080011435,280.4720527001191,"[29, 0, 225]",225,a,0.4945135999005288,1,colour,0.5,4.0
50,25,1,1,4,20,170,280.9854506000411,282.0719625002239,"[51, 0, 203]",203,l,0.5630946001037955,1,colour,0.5,4.0
50,25,1,1,4,21,171,282.57922120019794,283.6880100001581,"[32, 0, 222]",222,a,0.5855616999324411,1,colour,0.5,4.0
50,25,1,1,4,22,172,284.2042583001312,285.31204320001416,"[3, 0, 251]",251,a,0.5844997998792678,1,colour,0.5,4.0
50,25,1,1,4,23,173,285.8291791002266,286.86401340016164,"[20, 0, 234]",234,a,0.5116590999532491,1,colour,0.5,4.0
50,25,1,1,4,24,174,287.3760142000392,288.40795940021053,"[92, 0, 162]",162,l,0.5086251001339406,1,colour,0.5,4.0
50,25,1,1,4,25,175,288.92291910015047,289.8959722002037,"[70, 0, 184]",184,l,0.4497268002014607,1,colour,0.5,4.0
50,25,1,1,4,26,176,290.4073411000427,291.4720731000416,"[5, 0, 249]",249,a,0.541337399976328,1,colour,0.5,4.0
50,25,1,1,4,27,177,291.9854198000394,293.1199727000203,"[63, 0, 191]",191,l,0.6112168999388814,1,colour,0.5,4.0
50,25,1,1,4,28,178,293.6260686002206,294.79201810015365,"[22, 0, 232]",232,a,0.6426230000797659,1,colour,0.5,4.0
50,25,1,1,4,29,179,295.29795140004717,296.2959785000421,"[68, 0, 186]",186,l,0.47474289988167584,1,colour,0.5,4.0
50,25,1,1,4,30,180,296.8135461001657,297.9200270001311,"[31, 0, 223]",223,a,0.5839064000174403,1,colour,0.5,4.0
50,25,1,1,4,31,181,298.43848460004665,299.55195320001803,"[83, 0, 171]",171,l,0.5901375999674201,1,colour,0.5,4.0
50,25,1,1,4,32,182,300.0635409001261,301.12799910013564,"[98, 0, 156]",156,l,0.5410865000449121,1,colour,0.5,4.0
50,25,1,1,4,33,183,301.6416475002188,302.6159928000998,"[94, 0, 160]",160,l,0.4510593998711556,1,colour,0.5,4.0
50,25,1,1,4,34,184,303.1259834000375,304.31198660004884,"[44, 0, 210]",210,a,0.6627151998691261,1,colour,0.5,4.0
50,25,1,1,4,35,185,304.8291279000696,305.7759894002229,"[66, 0, 188]",188,l,0.4236207001376897,1,colour,0.5,4.0
50,25,1,1,4,36,186,306.2824219001923,307.2800019001588,"[40, 0, 214]",214,a,0.47440199996344745,1,colour,0.5,4.0
50,25,1,1,4,37,187,307.79785240022466,308.79199789999984,"[24, 0, 230]",230,a,0.47081569978035986,1,colour,0.5,4.0
50,25,1,1,4,38,188,309.3135221002158,310.2320025002118,"[65, 0, 189]",189,l,0.3951950001064688,1,colour,0.5,4.0
50,25,1,1,4,39,189,310.75109090004116,311.75198720023036,"[71, 0, 183]",183,l,0.4783916000742465,1,colour,0.5,4.0
50,25,1,1,4,40,190,312.2665715001058,313.2480148000177,"[88, 0, 166]",166,l,0.45811049989424646,1,colour,0.5,4.0
50,25,1,1,4,41,191,313.7666056000162,314.80806200020015,"[13, 0, 241]",241,a,0.517960200086236,1,colour,0.5,4.0
50,25,1,1,4,42,192,315.3291180001106,316.3599663001951,"[35, 0, 219]",219,a,0.5074834001716226,1,colour,0.5,4.0
50,25,1,1,4,43,193,316.87601900007576,317.9600292001851,"[57, 0, 197]",197,l,0.5608420001808554,1,colour,0.5,4.0
50,25,1,1,4,44,194,318.469700000016,319.4559900001623,"[87, 0, 167]",167,l,0.4628987000323832,1,colour,0.5,4.0
50,25,1,1,4,45,195,319.96973850019276,320.8959727000911,"[79, 0, 175]",175,l,0.40291330008767545,1,colour,0.5,4.0
50,25,1,1,4,46,196,321.4072415002156,322.36002690019086,"[97, 0, 157]",157,l,0.4295547001529485,1,colour,0.5,4.0
50,25,1,1,4,47,197,322.8760125001427,323.91210930002853,"[10, 0, 244]",244,a,0.5128913999069482,1,colour,0.5,4.0
50,25,1,1,4,48,198,324.42287440015934,325.39204510021955,"[28, 0, 226]",226,a,0.44584050006233156,1,colour,0.5,4.0
50,25,1,1,4,49,199,325.9072567000985,326.8880365001969,"[89, 0, 165]",165,l,0.4575094999745488,1,colour,0.5,4.0
50,25,1,1,4,50,200,327.4071799002122,328.3919886001386,"[16, 0, 238]",238,a,0.46141039999201894,1,colour,0.5,4.0
50,25,1,1,5,1,201,335.7657774002291,336.78399600018747,"[77, 0, 177]",177,l,0.494050299981609,1,colour,0.4,4.0
50,25,1,1,5,2,202,337.2978209001012,338.32805090001784,"[3, 0, 251]",251,a,0.5068720998242497,1,colour,0.4,4.0
50,25,1,1,5,3,203,338.84468490001746,339.7920058001764,"[83, 0, 171]",171,l,0.4240457001142204,1,colour,0.4,4.0
50,25,1,1,5,4,204,340.31342300004326,341.1759515001904,"[73, 0, 181]",181,l,0.33920380007475615,1,colour,0.4,4.0
50,25,1,1,5,5,205,341.6885166000575,342.6159694001544,"[95, 0, 159]",159,l,0.40431850007735193,1,colour,0.4,4.0
50,25,1,1,5,6,206,343.1259610000998,344.0159807000309,"[97, 0, 157]",157,l,0.36674229986965656,1,colour,0.4,4.0
50,25,1,1,5,7,207,344.53228040016256,345.5200024000369,"[15, 0, 239]",239,a,0.46439989982172847,1,colour,0.4,4.0
50,25,1,1,5,8,208,346.03227240010165,347.06399770011194,"[67, 0, 187]",187,l,0.5085289000999182,1,colour,0.4,4.0
50,25,1,1,5,9,209,347.5790347000584,348.66401480021887,"[47, 0, 207]",207,l,0.5617024002131075,0,colour,0.4,4.0
50,25,1,1,5,10,210,349.1727798001375,350.09598040021956,"[76, 0, 178]",178,l,0.39994810009375215,1,colour,0.4,4.0
50,25,1,1,5,11,211,350.6102471000049,351.57603750005364,"[58, 0, 196]",196,l,0.4426019999664277,1,colour,0.4,4.0
50,25,1,1,5,12,212,352.09466110006906,353.0000368000474,"[84, 0, 170]",170,l,0.3821874000132084,1,colour,0.4,4.0
50,25,1,1,5,13,213,353.51651080022566,354.5759787000716,"[12, 0, 242]",242,a,0.5360558999236673,1,colour,0.4,4.0
50,25,1,1,5,14,214,355.09467220003717,356.05600280012004,"[99, 0, 155]",155,l,0.4382114000618458,1,colour,0.4,4.0
50,25,1,1,5,15,215,356.56338890013285,357.5840030000545,"[32, 0, 222]",222,a,0.49737889994867146,1,colour,0.4,4.0
50,25,1,1,5,16,216,358.0946558001451,359.1279800001066,"[7, 0, 247]",247,a,0.5103213998954743,1,colour,0.4,4.0
50,25,1,1,5,17,217,359.63095680018887,360.60802660021,"[71, 0, 183]",183,l,0.45363810006529093,1,colour,0.4,4.0
50,25,1,1,5,18,218,361.1154419002123,362.1680634000804,"[0, 0, 254]",254,a,0.5292940998915583,1,colour,0.4,4.0
50,25,1,1,5,19,219,362.67794130020775,363.78402210003696,"[36, 0, 218]",218,a,0.5829302999190986,1,colour,0.4,4.0
50,25,1,1,5,20,220,364.3029647001531,365.3280293000862,"[40, 0, 214]",214,a,0.5019390999805182,1,colour,0.4,4.0
50,25,1,1,5,21,221,365.83423220016994,366.81595490011387,"[24, 0, 230]",230,a,0.4584510999266058,1,colour,0.4,4.0
50,25,1,1,5,22,222,367.3341397000477,368.3119904000778,"[88, 0, 166]",166,l,0.45502109988592565,1,colour,0.4,4.0
50,25,1,1,5,23,223,368.8185255001299,369.7200007000938,"[60, 0, 194]",194,l,0.3782810000702739,1,colour,0.4,4.0
50,25,1,1,5,24,224,370.2404620000161,371.2161897001788,"[45, 0, 209]",209,a,0.45254490012302995,1,colour,0.4,4.0
50,25,1,1,5,25,225,371.7178474001121,372.71199330012314,"[5, 0, 249]",249,a,0.47089709993451834,1,colour,0.4,4.0
50,25,1,1,5,26,226,373.2334760001395,374.08803199999966,"[68, 0, 186]",186,l,0.33119279984384775,1,colour,0.4,4.0
50,25,1,1,5,27,227,374.6095091002062,375.5999768001493,"[18, 0, 236]",236,a,0.46729689999483526,1,colour,0.4,4.0
50,25,1,1,5,28,228,376.1095699002035,376.9279750001151,"[85, 0, 169]",169,l,0.2954506000969559,1,colour,0.4,4.0
50,25,1,1,5,29,229,377.43763270019554,378.39999830001034,"[29, 0, 225]",225,a,0.43901149998418987,1,colour,0.4,4.0
50,25,1,1,5,30,230,378.90643180022016,379.8560096002184,"[35, 0, 219]",219,a,0.4263452000450343,1,colour,0.4,4.0
50,25,1,1,5,31,231,380.3751781000756,381.471989300102,"[54, 0, 200]",200,l,0.5740698000881821,1,colour,0.4,4.0
50,25,1,1,5,32,232,381.9844824001193,383.1122581001837,"[57, 0, 197]",197,a,0.6045880999881774,0,colour,0.4,4.0
50,25,1,1,5,33,233,383.6250877000857,384.5680370000191,"[26, 0, 228]",228,a,0.41966089978814125,1,colour,0.4,4.0
50,25,1,1,5,34,234,385.07822190015577,386.0800001001917,"[79, 0, 175]",175,l,0.4783704001456499,1,colour,0.4,4.0
50,25,1,1,5,35,235,386.5938602001406,387.6400427001063,"[8, 0, 246]",246,a,0.5237688000779599,1,colour,0.4,4.0
50,25,1,1,5,36,236,388.1564489000011,389.0959490002133,"[93, 0, 161]",161,l,0.4162887001875788,1,colour,0.4,4.0
50,25,1,1,5,37,237,389.6094483002089,390.56801460008137,"[10, 0, 244]",244,a,0.43525739992037416,1,colour,0.4,4.0
50,25,1,1,5,38,238,391.0782071000431,392.08798270020634,"[87, 0, 167]",167,l,0.48641840019263327,1,colour,0.4,4.0
50,25,1,1,5,39,239,392.6094894001726,393.7199663000647,"[61, 0, 193]",193,l,0.5872004998382181,1,colour,0.4,4.0
50,25,1,1,5,40,240,394.23451000009663,395.2240195001941,"[75, 0, 179]",179,l,0.46627210010774434,1,colour,0.4,4.0
50,25,1,1,5,41,241,395.7344902001787,396.82395060011186,"[39, 0, 215]",215,a,0.5663067998830229,1,colour,0.4,4.0
50,25,1,1,5,42,242,397.3438118000049,398.3199470001273,"[81, 0, 173]",173,l,0.4529993999749422,1,colour,0.4,4.0
50,25,1,1,5,43,243,398.82822870020755,399.6639687002171,"[96, 0, 158]",158,l,0.3129160001408309,1,colour,0.4,4.0
50,25,1,1,5,44,244,400.17196550010704,401.12003750004806,"[64, 0, 190]",190,l,0.4248495998326689,1,colour,0.4,4.0
50,25,1,1,5,45,245,401.640728500206,402.6399906000588,"[98, 0, 156]",156,l,0.47596889990381896,1,colour,0.4,4.0
50,25,1,1,5,46,246,403.156389700016,404.271988700144,"[89, 0, 165]",165,l,0.5923753001261503,1,colour,0.4,4.0
50,25,1,1,5,47,247,404.7813488000538,405.87195290019736,"[23, 0, 231]",231,a,0.5676165001932532,1,colour,0.4,4.0
50,25,1,1,5,48,248,406.3907316001132,407.45603530015796,"[52, 0, 202]",202,l,0.5419414001516998,1,colour,0.4,4.0
50,25,1,1,5,49,249,407.9687943002209,409.0640278002247,"[78, 0, 176]",176,l,0.5719092001672834,1,colour,0.4,4.0
50,25,1,1,5,50,250,409.5781778001692,410.6799698001705,"[55, 0, 199]",199,l,0.5786022001411766,1,colour,0.4,4.0
50,25,1,1,6,1,251,416.2023325001355,417.15196540020406,"[78, 0, 176]",176,l,0.42543609999120235,1,colour,0.28,4.0
50,25,1,1,6,2,252,417.671952100005,418.5839917000849,"[81, 0, 173]",173,l,0.38877859991043806,1,colour,0.28,4.0
50,25,1,1,6,3,253,419.09376860014163,419.9119780000765,"[75, 0, 179]",179,l,0.2949597998522222,1,colour,0.28,4.0
50,25,1,1,6,4,254,420.42190240020864,421.37604120001197,"[42, 0, 212]",212,a,0.4308768999762833,1,colour,0.28,4.0
50,25,1,1,6,5,255,421.89062470011413,422.89614280010574,"[33, 0, 221]",221,a,0.4821192999370396,1,colour,0.28,4.0
50,25,1,1,6,6,256,423.4063170000445,424.38404570007697,"[98, 0, 156]",156,l,0.4553668999578804,1,colour,0.28,4.0
50,25,1,1,6,7,257,424.89068750012666,425.9199749000836,"[50, 0, 204]",204,a,0.5059592998586595,1,colour,0.28,4.0
50,25,1,1,6,8,258,426.43752760021016,427.46403310005553,"[99, 0, 155]",155,l,0.5032438000198454,1,colour,0.28,4.0
50,25,1,1,6,9,259,427.98439970007166,429.04000650020316,"[86, 0, 168]",168,l,0.5322487000375986,1,colour,0.28,4.0
50,25,1,1,6,10,260,429.5469455001876,430.6720383001957,"[80, 0, 174]",174,l,0.6018292000517249,1,colour,0.28,4.0
50,25,1,1,6,11,261,431.1883018000517,432.28004090022296,"[23, 0, 231]",231,a,0.5696628000587225,1,colour,0.28,4.0
50,25,1,1,6,12,262,432.7969203002285,433.8800493001472,"[51, 0, 203]",203,a,0.5598355999682099,0,colour,0.28,4.0
50,25,1,1,6,13,263,434.3907009002287,435.4160183002241,"[38, 0, 216]",216,a,0.5020732001867145,1,colour,0.28,4.0
50,25,1,1,6,14,264,435.93746160017326,436.7759607001208,"[79, 0, 175]",175,l,0.31514510000124574,1,colour,0.28,4.0
50,25,1,1,6,15,265,437.2969392000232,438.2479778002016,"[95, 0, 159]",159,l,0.42783610010519624,1,colour,0.28,4.0
50,25,1,1,6,16,266,438.7656559001189,439.9039776001591,"[55, 0, 199]",199,a,0.6157231000252068,0,colour,0.28,4.0
50,25,1,1,6,17,267,440.42199500021525,441.58401640015654,"[60, 0, 194]",194,a,0.6388737000524998,0,colour,0.28,4.0
50,25,1,1,6,18,268,442.09367349999957,443.10395170003176,"[87, 0, 167]",167,l,0.48704439983703196,1,colour,0.28,4.0
50,25,1,1,6,19,269,443.625056900084,444.59995050006546,"[59, 0, 195]",195,a,0.45186070003546774,0,colour,0.28,4.0
50,25,1,1,6,20,270,445.1093565002084,446.2480339000467,"[15, 0, 239]",239,a,0.6153780999593437,1,colour,0.28,4.0
50,25,1,1,6,21,271,446.76556620001793,447.68005410023034,"[97, 0, 157]",157,l,0.39175600023008883,1,colour,0.28,4.0
50,25,1,1,6,22,272,448.18741840007715,449.09603600017726,"[92, 0, 162]",162,l,0.38522449997253716,1,colour,0.28,4.0
50,25,1,1,6,23,273,449.609328500228,450.5040624001995,"[77, 0, 177]",177,l,0.37144090002402663,1,colour,0.28,4.0
50,25,1,1,6,24,274,451.01559000019915,452.0240424000658,"[93, 0, 161]",161,l,0.4850891998503357,1,colour,0.28,4.0
50,25,1,1,6,25,275,452.53120780014433,453.4559726000298,"[66, 0, 188]",188,l,0.40221689990721643,1,colour,0.28,4.0
50,25,1,1,6,26,276,453.9687578000594,454.99196000001393,"[28, 0, 226]",226,a,0.49990909988991916,1,colour,0.28,4.0
50,25,1,1,6,27,277,455.5000603001099,456.39204710000195,"[57, 0, 197]",197,a,0.3688307998236269,0,colour,0.28,4.0
50,25,1,1,6,28,278,456.9062100001611,457.81605740007944,"[82, 0, 172]",172,l,0.3864506999962032,1,colour,0.28,4.0
50,25,1,1,6,29,279,458.32812050008215,459.4799870001152,"[63, 0, 191]",191,l,0.6286687001120299,1,colour,0.28,4.0
50,25,1,1,6,30,280,460.0000389001798,461.00803960021585,"[13, 0, 241]",241,a,0.4848008002154529,1,colour,0.28,4.0
50,25,1,1,6,31,281,461.5156512001995,462.4559534001164,"[54, 0, 200]",200,a,0.41805680003017187,0,colour,0.28,4.0
50,25,1,1,6,32,282,462.9686911001336,464.08799820020795,"[70, 0, 184]",184,l,0.5960419999901205,1,colour,0.28,4.0
50,25,1,1,6,33,283,464.60936120012775,465.62398590007797,"[52, 0, 202]",202,a,0.49149509984999895,0,colour,0.28,4.0
50,25,1,1,6,34,284,466.1405386000406,467.03202770021744,"[67, 0, 187]",187,l,0.36796220019459724,1,colour,0.28,4.0
50,25,1,1,6,35,285,467.5468050001655,468.41601710021496,"[91, 0, 163]",163,l,0.3458386000711471,1,colour,0.28,4.0
50,25,1,1,6,36,286,468.93743340019137,469.8799556000158,"[14, 0, 240]",240,a,0.4192342997994274,1,colour,0.28,4.0
50,25,1,1,6,37,287,470.3905756000895,471.51203280012123,"[43, 0, 211]",211,a,0.5982160998973995,1,colour,0.28,4.0
50,25,1,1,6,38,288,472.0311734001152,472.91196700022556,"[3, 0, 251]",251,a,0.3573265001177788,1,colour,0.28,4.0
50,25,1,1,6,39,289,473.42179500008933,474.4880078001879,"[56, 0, 198]",198,l,0.5428774000611156,1,colour,0.28,4.0
50,25,1,1,6,40,290,475.0000143002253,475.9599873002153,"[65, 0, 189]",189,l,0.43673740001395345,1,colour,0.28,4.0
50,25,1,1,6,41,291,476.46868600021116,477.4640373000875,"[84, 0, 170]",170,l,0.4721156000159681,1,colour,0.28,4.0
50,25,1,1,6,42,292,477.98418010002933,479.0160049002152,"[76, 0, 178]",178,l,0.5094148002099246,1,colour,0.28,4.0
50,25,1,1,6,43,293,479.5311346000526,480.1599928000942,"[85, 0, 169]",169,l,0.10551170003600419,1,colour,0.28,4.0
50,25,1,1,6,44,294,480.6718054001685,482.22399120009504,"[1, 0, 253]",253,a,1.0296076000668108,1,colour,0.28,4.0
50,25,1,1,6,45,295,482.73420440009795,483.688019500114,"[25, 0, 229]",229,a,0.4303880000952631,1,colour,0.28,4.0
50,25,1,1,6,46,296,484.2030135001987,485.27200970007107,"[96, 0, 158]",158,l,0.5456931998487562,1,colour,0.28,4.0
50,25,1,1,6,47,297,485.7811525000725,486.84798350022174,"[26, 0, 228]",228,a,0.5435216000769287,1,colour,0.28,4.0
50,25,1,1,6,48,298,487.35928100021556,488.63202280015685,"[7, 0, 247]",247,a,0.7498433999717236,1,colour,0.28,4.0
50,25,1,1,6,49,299,489.1404704002198,490.151998200221,"[71, 0, 183]",183,l,0.4881922001950443,1,colour,0.28,4.0
50,25,1,1,6,50,300,490.6717741000466,491.6559712002054,"[74, 0, 180]",180,l,0.4608920000027865,1,colour,0.28,4.0
50,25,1,1,7,1,301,501.0771729000844,502.2079666000791,"[69, 0, 185]",185,l,0.6068797998595983,1,colour,0.14,4.0
50,25,1,1,7,2,302,502.7186338000465,503.7759873000905,"[53, 0, 201]",201,l,0.5341618000529706,1,colour,0.14,4.0
50,25,1,1,7,3,303,504.29671240015887,505.30403650016524,"[88, 0, 166]",166,l,0.48400250007398427,1,colour,0.14,4.0
50,25,1,1,7,4,304,505.8124163001776,506.8162414000835,"[90, 0, 164]",164,l,0.4805643998552114,1,colour,0.14,4.0
50,25,1,1,7,5,305,507.32791580003686,508.27999440021813,"[77, 0, 177]",177,l,0.42966640018858016,1,colour,0.14,4.0
50,25,1,1,7,6,306,508.7967092001345,509.78397010010667,"[37, 0, 217]",217,a,0.4639006000943482,1,colour,0.14,4.0
50,25,1,1,7,7,307,510.2967139000539,511.2959896000102,"[74, 0, 180]",180,l,0.47612219979055226,1,colour,0.14,4.0
50,25,1,1,7,8,308,511.8123099000659,512.9839560000692,"[21, 0, 233]",233,a,0.6493174999486655,1,colour,0.14,4.0
50,25,1,1,7,9,309,513.4998326001223,514.7359825000167,"[81, 0, 173]",173,l,0.7128864999394864,1,colour,0.14,4.0
50,25,1,1,7,10,310,515.2497872000095,516.5759928000625,"[83, 0, 171]",171,l,0.8029181999154389,1,colour,0.14,4.0
50,25,1,1,7,11,311,517.0935964002274,518.2160296000075,"[99, 0, 155]",155,l,0.5993427999783307,1,colour,0.14,4.0
50,25,1,1,7,12,312,518.7340844001155,519.9439836000092,"[16, 0, 238]",238,a,0.6867568998131901,1,colour,0.14,4.0
50,25,1,1,7,13,313,520.4529610001482,521.6799569001887,"[62, 0, 192]",192,l,0.7037472000811249,1,colour,0.14,4.0
50,25,1,1,7,14,314,522.187284800224,523.7040333000477,"[54, 0, 200]",200,a,0.9934505999553949,0,colour,0.14,4.0
50,25,1,1,7,15,315,524.2185814001132,525.3120293000247,"[82, 0, 172]",172,l,0.5701672998256981,1,colour,0.14,4.0
50,25,1,1,7,16,316,525.8279641000554,526.9920239001513,"[51, 0, 203]",203,a,0.6413833999540657,0,colour,0.14,4.0
50,25,1,1,7,17,317,527.4998203001451,528.703991800081,"[61, 0, 193]",193,l,0.6809809000696987,1,colour,0.14,4.0
50,25,1,1,7,18,318,529.2185248001479,530.280048100045,"[67, 0, 187]",187,l,0.5382326999679208,1,colour,0.14,4.0
50,25,1,1,7,19,319,530.7966723002028,532.0399869000539,"[71, 0, 183]",183,l,0.7200283999554813,1,colour,0.14,4.0
50,25,1,1,7,20,320,532.5467095000204,533.6719839000143,"[79, 0, 175]",175,l,0.6021952999290079,1,colour,0.14,4.0
50,25,1,1,7,21,321,534.1872462001629,535.4240237001795,"[94, 0, 160]",160,l,0.7134106000885367,1,colour,0.14,4.0
50,25,1,1,7,22,322,535.9373508000281,537.2239445000887,"[63, 0, 191]",191,l,0.7634515999816358,1,colour,0.14,4.0
50,25,1,1,7,23,323,537.7340236001182,538.9200432000216,"[93, 0, 161]",161,l,0.6626249998807907,1,colour,0.14,4.0
50,25,1,1,7,24,324,539.4372582000215,540.5680253000464,"[89, 0, 165]",165,l,0.6074788998812437,1,colour,0.14,4.0
50,25,1,1,7,25,325,541.0778275001794,542.1439911001362,"[76, 0, 178]",178,l,0.5429907999932766,1,colour,0.14,4.0
50,25,1,1,7,26,326,542.6560087001417,543.6239707001951,"[75, 0, 179]",179,l,0.4446841001044959,1,colour,0.14,4.0
50,25,1,1,7,27,327,544.1404436000157,545.447960200021,"[59, 0, 195]",195,l,0.7842790000140667,1,colour,0.14,4.0
50,25,1,1,7,28,328,545.9684554000851,547.1119671000633,"[80, 0, 174]",174,l,0.6202457000035793,1,colour,0.14,4.0
50,25,1,1,7,29,329,547.6247143000364,548.9839943000115,"[65, 0, 189]",189,l,0.8358892998658121,1,colour,0.14,4.0
50,25,1,1,7,30,330,549.4997360000852,550.7360153000336,"[55, 0, 199]",199,a,0.7136482999194413,0,colour,0.14,4.0
50,25,1,1,7,31,331,551.2497131000273,552.4400984002277,"[13, 0, 241]",241,a,0.6670891002286226,1,colour,0.14,4.0
50,25,1,1,7,32,332,552.9528500000015,554.0880345001351,"[73, 0, 181]",181,l,0.6119429999962449,1,colour,0.14,4.0
50,25,1,1,7,33,333,554.609111700207,555.4320420001168,"[97, 0, 157]",157,l,0.29956239997409284,1,colour,0.14,4.0
50,25,1,1,7,34,334,555.9528465000913,557.0800720001571,"[29, 0, 225]",225,a,0.6039235999342054,1,colour,0.14,4.0
50,25,1,1,7,35,335,557.5935266001616,558.7600216001738,"[98, 0, 156]",156,l,0.6434472999535501,1,colour,0.14,4.0
50,25,1,1,7,36,336,559.2810113001615,561.1279688000213,"[60, 0, 194]",194,a,1.3235821998678148,0,colour,0.14,4.0
50,25,1,1,7,37,337,561.6403246000409,562.7119681001641,"[78, 0, 176]",176,l,0.5483379999641329,1,colour,0.14,4.0
50,25,1,1,7,38,338,563.2184618001338,564.2559528001584,"[52, 0, 202]",202,a,0.5141644000541419,0,colour,0.14,4.0
50,25,1,1,7,39,339,564.7653390001506,565.8320060002152,"[2, 0, 252]",252,a,0.5440826001577079,1,colour,0.14,4.0
50,25,1,1,7,40,340,566.3434754000045,567.3919503001962,"[85, 0, 169]",169,l,0.5253374001476914,1,colour,0.14,4.0
50,25,1,1,7,41,341,567.90594470012,568.920055600116,"[96, 0, 158]",158,l,0.49080100003629923,1,colour,0.14,4.0
50,25,1,1,7,42,342,569.4371322002262,570.296024300158,"[95, 0, 159]",159,l,0.33547900011762977,1,colour,0.14,4.0
50,25,1,1,7,43,343,570.8121531000361,571.6239659001585,"[87, 0, 167]",167,l,0.28844440006650984,1,colour,0.14,4.0
50,25,1,1,7,44,344,572.1411618001293,573.3679991001263,"[68, 0, 186]",186,l,0.7043783001136035,1,colour,0.14,4.0
50,25,1,1,7,45,345,573.8746744000819,575.0160118001513,"[92, 0, 162]",162,l,0.6180984999518842,1,colour,0.14,4.0
50,25,1,1,7,46,346,575.530945800012,576.784030900104,"[57, 0, 197]",197,a,0.7297421998810023,0,colour,0.14,4.0
50,25,1,1,7,47,347,577.296680400148,578.4480222000275,"[86, 0, 168]",168,l,0.6281844999175519,1,colour,0.14,4.0
50,25,1,1,7,48,348,578.9684070001822,580.2719655002002,"[58, 0, 196]",196,a,0.7801188000012189,0,colour,0.14,4.0
50,25,1,1,7,49,349,580.7808667002246,581.9759656002279,"[64, 0, 190]",190,l,0.6716926000081003,1,colour,0.14,4.0
50,25,1,1,7,50,350,582.4840081001166,583.7600314000156,"[47, 0, 207]",207,a,0.752721400000155,1,colour,0.14,4.0
50,25,1,1,8,1,351,594.155067200074,595.2079838002101,"[51, 0, 203]",203,a,0.5288050000090152,0,colour,0.06,3.9
50,25,1,1,8,2,352,595.7184532000683,596.7199580001179,"[84, 0, 170]",170,l,0.47834959998726845,1,colour,0.06,3.9
50,25,1,1,8,3,353,597.2339103000704,598.3119892000686,"[95, 0, 159]",159,l,0.555142599856481,1,colour,0.06,3.9
50,25,1,1,8,4,354,598.8276951001026,599.9280429000501,"[91, 0, 163]",163,l,0.5774490998592228,1,colour,0.06,3.9
50,25,1,1,8,5,355,600.4370396002196,601.5040170000866,"[76, 0, 178]",178,l,0.5435750999022275,1,colour,0.06,3.9
50,25,1,1,8,6,356,602.015252900077,603.1280366000719,"[90, 0, 164]",164,l,0.5894277999177575,1,colour,0.06,3.9
50,25,1,1,8,7,357,603.6402051001787,604.8079968001693,"[87, 0, 167]",167,l,0.6444789001252502,1,colour,0.06,3.9
50,25,1,1,8,8,358,605.3277776001487,606.3199678000528,"[8, 0, 246]",246,a,0.46928329998627305,1,colour,0.06,3.9
50,25,1,1,8,9,359,606.827746400144,607.735984200146,"[99, 0, 155]",155,l,0.38528360007330775,1,colour,0.06,3.9
50,25,1,1,8,10,360,608.2495428000111,609.0800621001981,"[70, 0, 184]",184,l,0.3071306000929326,1,colour,0.06,3.9
50,25,1,1,8,11,361,609.5931320001837,610.5840087002143,"[69, 0, 185]",185,l,0.4674766000825912,1,colour,0.06,3.9
50,25,1,1,8,12,362,611.0933887001593,612.136061000172,"[18, 0, 236]",236,a,0.5195157001726329,1,colour,0.06,3.9
50,25,1,1,8,13,363,612.6557846001815,613.8720011000987,"[88, 0, 166]",166,l,0.6933854999952018,1,colour,0.06,3.9
50,25,1,1,8,14,364,614.3901855000295,615.7679959000088,"[55, 0, 199]",199,a,0.8545636998023838,0,colour,0.06,3.9
50,25,1,1,8,15,365,616.2809015000239,617.4879999000113,"[61, 0, 193]",193,a,0.683926799800247,0,colour,0.06,3.9
50,25,1,1,8,16,366,617.9996397001669,619.1680082001258,"[74, 0, 180]",180,l,0.6454203000757843,1,colour,0.06,3.9
50,25,1,1,8,17,367,619.6869400001597,621.1199960000813,"[86, 0, 168]",168,l,0.9097225000150502,1,colour,0.06,3.9
50,25,1,1,8,18,368,621.6401850001421,622.8240339001641,"[93, 0, 161]",161,l,0.66054129996337,1,colour,0.06,3.9
50,25,1,1,8,19,369,623.3434569002129,624.6000105000567,"[71, 0, 183]",183,l,0.73352269991301,1,colour,0.06,3.9
50,25,1,1,8,20,370,625.109008600004,626.2480618001428,"[50, 0, 204]",204,a,0.6158847000915557,1,colour,0.06,3.9
50,25,1,1,8,21,371,626.7651188001037,627.8720026002266,"[97, 0, 157]",157,l,0.584242100128904,1,colour,0.06,3.9
50,25,1,1,8,22,372,628.3901287000626,629.4080379002262,"[73, 0, 181]",181,l,0.4945879001170397,1,colour,0.06,3.9
50,25,1,1,8,23,373,629.9213297001552,630.9600047999993,"[54, 0, 200]",200,a,0.5154307999182492,0,colour,0.06,3.9
50,25,1,1,8,24,374,631.4682355001569,632.5520281000063,"[57, 0, 197]",197,a,0.5605054998304695,0,colour,0.06,3.9
50,25,1,1,8,25,375,633.0619616000913,634.2800024000462,"[63, 0, 191]",191,a,0.6949721998535097,0,colour,0.06,3.9
50,25,1,1,8,26,376,634.796365500195,635.9439939002041,"[64, 0, 190]",190,a,0.6243943001609296,0,colour,0.06,3.9
50,25,1,1,8,27,377,636.4525276001077,637.5519861001521,"[75, 0, 179]",179,l,0.5760793001390994,1,colour,0.06,3.9
50,25,1,1,8,28,378,638.0619659000076,639.2719828002155,"[82, 0, 172]",172,l,0.6866541001945734,1,colour,0.06,3.9
50,25,1,1,8,29,379,639.7807232001796,641.0239931000397,"[72, 0, 182]",182,l,0.7199571998789907,1,colour,0.06,3.9
50,25,1,1,8,30,380,641.5307784001343,642.7679548000451,"[79, 0, 175]",175,l,0.7139486998785287,1,colour,0.06,3.9
50,25,1,1,8,31,381,643.2807349001523,644.439981300151,"[58, 0, 196]",196,a,0.6359393999446183,0,colour,0.06,3.9
50,25,1,1,8,32,382,644.9525648001581,645.9920571001712,"[96, 0, 158]",158,l,0.5162256001494825,1,colour,0.06,3.9
50,25,1,1,8,33,383,646.4997170001734,647.5920068002306,"[67, 0, 187]",187,l,0.5691239000298083,1,colour,0.06,3.9
50,25,1,1,8,34,384,648.1096460002009,649.2159887000453,"[56, 0, 198]",198,a,0.5839161998592317,0,colour,0.06,3.9
50,25,1,1,8,35,385,649.7337539000437,650.9200442000292,"[59, 0, 195]",195,a,0.6629935000091791,0,colour,0.06,3.9
50,25,1,1,8,36,386,651.4369510000106,652.520013500005,"[53, 0, 201]",201,a,0.5597830999176949,0,colour,0.06,3.9
50,25,1,1,8,37,387,653.0307247000746,654.0960572001059,"[77, 0, 177]",177,l,0.5420329000335187,1,colour,0.06,3.9
50,25,1,1,8,38,388,654.6088980000932,655.7440195002127,"[83, 0, 171]",171,l,0.611932500032708,1,colour,0.06,3.9
50,25,1,1,8,39,389,656.2650738002267,657.512036500033,"[65, 0, 189]",189,l,0.723562799859792,1,colour,0.06,3.9
50,25,1,1,8,40,390,658.0307404000778,659.0399850001559,"[78, 0, 176]",176,l,0.48618789995089173,1,colour,0.06,3.9
50,25,1,1,8,41,391,659.5464462002274,660.6161025001202,"[9, 0, 245]",245,a,0.5465484000742435,1,colour,0.06,3.9
50,25,1,1,8,42,392,661.1244274000637,662.1440386001486,"[52, 0, 202]",202,a,0.49622490000911057,0,colour,0.06,3.9
50,25,1,1,8,43,393,662.6556459001731,663.6560220001265,"[66, 0, 188]",188,l,0.4770043999888003,1,colour,0.06,3.9
50,25,1,1,8,44,394,664.1714153001085,665.3279766000342,"[89, 0, 165]",165,l,0.6344810000155121,1,colour,0.06,3.9
50,25,1,1,8,45,395,665.843173700152,667.0880205000285,"[68, 0, 186]",186,l,0.7215893999673426,1,colour,0.06,3.9
50,25,1,1,8,46,396,667.6087860001717,668.6959964002017,"[94, 0, 160]",160,l,0.5639325000811368,1,colour,0.06,3.9
50,25,1,1,8,47,397,669.2025748000015,670.576002900023,"[80, 0, 174]",174,l,0.8501441997941583,1,colour,0.06,3.9
50,25,1,1,8,48,398,671.0931848001201,672.576046800008,"[62, 0, 192]",192,l,0.9596022998448461,1,colour,0.06,3.9
50,25,1,1,8,49,399,673.0931423001457,674.1760340000037,"[85, 0, 169]",169,l,0.5599802997894585,1,colour,0.06,3.9
50,25,1,1,8,50,400,674.6869224000257,675.7680238001049,"[60, 0, 194]",194,a,0.5577819000463933,0,colour,0.06,3.9
50,25,1,1,9,1,401,687.3579507002141,688.3839935001452,"[53, 0, 201]",201,a,0.5019255001097918,0,colour,0.06,3.9
50,25,1,1,9,2,402,688.8899580000434,689.7360444001388,"[94, 0, 160]",160,l,0.3235788999591023,1,colour,0.06,3.9
50,25,1,1,9,3,403,690.2493356000632,691.0480206001084,"[50, 0, 204]",204,a,0.27527930005453527,1,colour,0.06,3.9
50,25,1,1,9,4,404,691.5618183000479,692.4640008001588,"[67, 0, 187]",187,l,0.3790702000260353,1,colour,0.06,3.9
50,25,1,1,9,5,405,692.9838000000454,693.8399710000958,"[96, 0, 158]",158,l,0.33297830005176365,1,colour,0.06,3.9
50,25,1,1,9,6,406,694.3587007001042,695.3040125002153,"[86, 0, 168]",168,l,0.4219981001224369,1,colour,0.06,3.9
50,25,1,1,9,7,407,695.8118810001761,696.6000026001129,"[55, 0, 199]",199,a,0.2651261000428349,0,colour,0.06,3.9
50,25,1,1,9,8,408,697.1087503000163,698.0400309001561,"[71, 0, 183]",183,l,0.40803540009073913,1,colour,0.06,3.9
50,25,1,1,9,9,409,698.5462302002124,699.5680864001624,"[90, 0, 164]",164,l,0.4986652999650687,1,colour,0.06,3.9
50,25,1,1,9,10,410,700.0773576002102,701.1039852001704,"[75, 0, 179]",179,l,0.5034215000923723,1,colour,0.06,3.9
50,25,1,1,9,11,411,701.6251203001011,702.6320557000581,"[63, 0, 191]",191,l,0.4844114000443369,1,colour,0.06,3.9
50,25,1,1,9,12,412,703.139976200182,704.1439883999992,"[81, 0, 173]",173,l,0.481644099811092,1,colour,0.06,3.9
50,25,1,1,9,13,413,704.6555633000098,705.6560357001144,"[58, 0, 196]",196,a,0.4771207000594586,0,colour,0.06,3.9
50,25,1,1,9,14,414,706.1711988002062,707.255969800055,"[99, 0, 155]",155,l,0.5624154999386519,1,colour,0.06,3.9
50,25,1,1,9,15,415,707.7649574000388,708.7761876001023,"[54, 0, 200]",200,a,0.4886435999069363,0,colour,0.06,3.9
50,25,1,1,9,16,416,709.2961378002074,710.352003000211,"[97, 0, 157]",157,l,0.5324543002061546,1,colour,0.06,3.9
50,25,1,1,9,17,417,710.858641800005,711.9040067000315,"[92, 0, 162]",162,l,0.5220894999802113,1,colour,0.06,3.9
50,25,1,1,9,18,418,712.4211837002076,713.4399890000932,"[83, 0, 171]",171,l,0.49539679987356067,1,colour,0.06,3.9
50,25,1,1,9,19,419,713.9524894000497,715.1199792001862,"[87, 0, 167]",167,l,0.6441644001752138,1,colour,0.06,3.9
50,25,1,1,9,20,420,715.6398668000475,716.7759910000023,"[78, 0, 176]",176,l,0.6127811998594552,1,colour,0.06,3.9
50,25,1,1,9,21,421,717.2961366001982,718.4240074001718,"[60, 0, 194]",194,a,0.6044497000984848,0,colour,0.06,3.9
50,25,1,1,9,22,422,718.936764200218,720.0800219001248,"[62, 0, 192]",192,a,0.6198984000366181,0,colour,0.06,3.9
50,25,1,1,9,23,423,720.5930144002195,721.5120731000789,"[85, 0, 169]",169,l,0.39569239993579686,1,colour,0.06,3.9
50,25,1,1,9,24,424,722.030540100066,723.0719772002194,"[61, 0, 193]",193,a,0.5182214002124965,0,colour,0.06,3.9
50,25,1,1,9,25,425,723.592980600195,724.5680329001043,"[69, 0, 185]",185,l,0.45169520005583763,1,colour,0.06,3.9
50,25,1,1,9,26,426,725.0774462001864,726.0960719001014,"[93, 0, 161]",161,l,0.4955780999734998,1,colour,0.06,3.9
50,25,1,1,9,27,427,726.6086108000018,727.5840373001993,"[76, 0, 178]",178,l,0.4521037000231445,1,colour,0.06,3.9
50,25,1,1,9,28,428,728.0930434002075,729.2639962001704,"[66, 0, 188]",188,a,0.6476988999638706,0,colour,0.06,3.9
50,25,1,1,9,29,429,729.7804742001463,730.7360722001176,"[0, 0, 254]",254,a,0.4322389999870211,1,colour,0.06,3.9
50,25,1,1,9,30,430,731.2492224001326,732.104014800163,"[95, 0, 159]",159,l,0.33147590002045035,1,colour,0.06,3.9
50,25,1,1,9,31,431,732.6242230001371,733.479980400065,"[59, 0, 195]",195,a,0.3324885999318212,0,colour,0.06,3.9
50,25,1,1,9,32,432,733.9991909000091,735.231996800052,"[98, 0, 156]",156,l,0.7096718999091536,1,colour,0.06,3.9
50,25,1,1,9,33,433,735.7492156000808,736.6879648000468,"[74, 0, 180]",180,l,0.4153471998870373,1,colour,0.06,3.9
50,25,1,1,9,34,434,737.2023500001524,738.3520084000193,"[73, 0, 181]",181,l,0.6263607998844236,1,colour,0.06,3.9
50,25,1,1,9,35,435,738.8585925002117,739.8642496000975,"[88, 0, 166]",166,l,0.48232409986667335,1,colour,0.06,3.9
50,25,1,1,9,36,436,740.3742191002239,741.5600266000256,"[89, 0, 165]",165,l,0.6625177999958396,1,colour,0.06,3.9
50,25,1,1,9,37,437,742.0773400000762,743.2799978000112,"[65, 0, 189]",189,l,0.679410999873653,1,colour,0.06,3.9
50,25,1,1,9,38,438,743.796063600108,744.8720074000303,"[84, 0, 170]",170,l,0.5526624999474734,1,colour,0.06,3.9
50,25,1,1,9,39,439,745.3899004000705,746.5519521001261,"[79, 0, 175]",175,l,0.6388018999714404,1,colour,0.06,3.9
50,25,1,1,9,40,440,747.0616927000228,748.2160612000152,"[80, 0, 174]",174,l,0.6311877998523414,1,colour,0.06,3.9
50,25,1,1,9,41,441,748.7337413001806,749.7760269001592,"[4, 0, 250]",250,a,0.5190640999935567,1,colour,0.06,3.9
50,25,1,1,9,42,442,750.2962145002093,751.3999714001548,"[91, 0, 163]",163,l,0.5806398999411613,1,colour,0.06,3.9
50,25,1,1,9,43,443,751.9210647,752.9280542000197,"[82, 0, 172]",172,l,0.4837409998290241,1,colour,0.06,3.9
50,25,1,1,9,44,444,753.4366852000821,754.8800195001531,"[68, 0, 186]",186,l,0.920801900094375,1,colour,0.06,3.9
50,25,1,1,9,45,445,755.3898305001203,756.4640830000862,"[52, 0, 202]",202,a,0.5509258999954909,0,colour,0.06,3.9
50,25,1,1,9,46,446,756.9837472001091,757.9439965002239,"[56, 0, 198]",198,a,0.43707300000824034,0,colour,0.06,3.9
50,25,1,1,9,47,447,758.4523203000426,759.4640297000296,"[70, 0, 184]",184,l,0.48850899981334805,1,colour,0.06,3.9
50,25,1,1,9,48,448,759.9836344001815,761.0560069000348,"[77, 0, 177]",177,l,0.5490003998856992,1,colour,0.06,3.9
50,25,1,1,9,49,449,761.577294900082,762.6879990000743,"[32, 0, 222]",222,a,0.5875230999663472,1,colour,0.06,3.9
50,25,1,1,9,50,450,763.2022772000637,764.4160611000843,"[51, 0, 203]",203,a,0.6906081999186426,0,colour,0.06,3.9
50,25,1,1,10,1,451,771.3577284000348,772.4160063001327,"[91, 0, 163]",163,l,0.5321601000614464,1,colour,0.06,3.9
50,25,1,1,10,2,452,772.9233230000827,774.0160261001438,"[84, 0, 170]",170,l,0.5694751001428813,1,colour,0.06,3.9
50,25,1,1,10,3,453,774.5326720001176,775.4959843000397,"[72, 0, 182]",182,l,0.43985359999351203,1,colour,0.06,3.9
50,25,1,1,10,4,454,776.0170720000751,777.0159807000309,"[92, 0, 162]",162,l,0.475705899996683,1,colour,0.06,3.9
50,25,1,1,10,5,455,777.5326116001233,778.5759643001948,"[56, 0, 198]",198,a,0.5207562001887709,0,colour,0.06,3.9
50,25,1,1,10,6,456,779.0951788001694,780.1440715000499,"[68, 0, 186]",186,l,0.5258353999815881,1,colour,0.06,3.9
50,25,1,1,10,7,457,780.6576682000887,782.0319985002279,"[60, 0, 194]",194,a,0.8509238001424819,0,colour,0.06,3.9
50,25,1,1,10,8,458,782.548261700198,783.6079722000286,"[67, 0, 187]",187,l,0.5364420998375863,1,colour,0.06,3.9
50,25,1,1,10,9,459,784.1263941000216,785.1519969000947,"[81, 0, 173]",173,l,0.5023568000178784,1,colour,0.06,3.9
50,25,1,1,10,10,460,785.6733091000933,786.8640049002133,"[63, 0, 191]",191,a,0.667474300134927,0,colour,0.06,3.9
50,25,1,1,10,11,461,787.3764083001297,788.6240114001557,"[58, 0, 196]",196,a,0.7242902000434697,0,colour,0.06,3.9
50,25,1,1,10,12,462,789.1419682002161,790.2159864001442,"[82, 0, 172]",172,l,0.5507611001376063,1,colour,0.06,3.9
50,25,1,1,10,13,463,790.7357565001585,791.9680514000356,"[57, 0, 197]",197,a,0.7090925998054445,0,colour,0.06,3.9
50,25,1,1,10,14,464,792.485737600131,793.5040405001491,"[86, 0, 168]",168,l,0.49497799994423985,1,colour,0.06,3.9
50,25,1,1,10,15,465,794.0169950001873,795.0400161000434,"[76, 0, 178]",178,l,0.499646799871698,1,colour,0.06,3.9
50,25,1,1,10,16,466,795.5482601001859,796.6000195001252,"[97, 0, 157]",157,l,0.5285034999251366,1,colour,0.06,3.9
50,25,1,1,10,17,467,797.1106757000089,798.3520222001243,"[61, 0, 193]",193,a,0.7181333000771701,0,colour,0.06,3.9
50,25,1,1,10,18,468,798.8611369000282,799.8320043000858,"[53, 0, 201]",201,a,0.44786700000986457,0,colour,0.06,3.9
50,25,1,1,10,19,469,800.3454869000707,801.2879836000502,"[95, 0, 159]",159,l,0.41917889984324574,1,colour,0.06,3.9
50,25,1,1,10,20,470,801.798643300077,802.6079984002281,"[94, 0, 160]",160,l,0.28615570021793246,1,colour,0.06,3.9
50,25,1,1,10,21,471,803.1268250001594,804.1600705001038,"[83, 0, 171]",171,l,0.5101030000951141,1,colour,0.06,3.9
50,25,1,1,10,22,472,804.6735848002136,805.7840138000902,"[99, 0, 155]",155,l,0.5870316999498755,1,colour,0.06,3.9
50,25,1,1,10,23,473,806.2986561001744,807.3199803000316,"[80, 0, 174]",174,l,0.4980542999692261,1,colour,0.06,3.9
50,25,1,1,10,24,474,807.8298477001954,808.9839713000692,"[88, 0, 166]",166,l,0.6308033999521285,1,colour,0.06,3.9
50,25,1,1,10,25,475,809.5017413001042,810.8320553000085,"[77, 0, 177]",177,l,0.8071914999745786,1,colour,0.06,3.9
50,25,1,1,10,26,476,811.3454418000765,812.6160129001364,"[73, 0, 181]",181,l,0.7472111999522895,1,colour,0.06,3.9
50,25,1,1,10,27,477,813.1267261002213,814.4239656000864,"[90, 0, 164]",164,l,0.7740084999240935,1,colour,0.06,3.9
50,25,1,1,10,28,478,814.9391894000582,815.9759999001399,"[96, 0, 158]",158,l,0.5135834999382496,1,colour,0.06,3.9
50,25,1,1,10,29,479,816.4860375002027,817.7040200000629,"[59, 0, 195]",195,a,0.6947422998491675,0,colour,0.06,3.9
50,25,1,1,10,30,480,818.2204563000705,819.2319811000489,"[50, 0, 204]",204,a,0.4883760998491198,1,colour,0.06,3.9
50,25,1,1,10,31,481,819.7515657001641,820.7600836001802,"[55, 0, 199]",199,a,0.4851779001764953,0,colour,0.06,3.9
50,25,1,1,10,32,482,821.2672534000594,822.2800781000406,"[47, 0, 207]",207,a,0.49031769996508956,1,colour,0.06,3.9
50,25,1,1,10,33,483,822.7985908000264,823.8719622001518,"[98, 0, 156]",156,l,0.5501139999832958,1,colour,0.06,3.9
50,25,1,1,10,34,484,824.3923324001953,825.4160333001055,"[87, 0, 167]",167,l,0.5004139998927712,1,colour,0.06,3.9
50,25,1,1,10,35,485,825.9235915001482,827.1039899000898,"[74, 0, 180]",180,l,0.6571965999901295,1,colour,0.06,3.9
50,25,1,1,10,36,486,827.6111108001787,828.8160570000764,"[64, 0, 190]",190,l,0.6818132000043988,1,colour,0.06,3.9
50,25,1,1,10,37,487,829.3298168000765,830.5120377000421,"[69, 0, 185]",185,l,0.6590411998331547,1,colour,0.06,3.9
50,25,1,1,10,38,488,831.032962199999,832.2000068000052,"[54, 0, 200]",200,a,0.6436892999336123,0,colour,0.06,3.9
50,25,1,1,10,39,489,832.7205296000466,833.8719955000561,"[66, 0, 188]",188,l,0.6283442999701947,1,colour,0.06,3.9
50,25,1,1,10,40,490,834.3924193000421,835.6239506001584,"[65, 0, 189]",189,l,0.7083191000856459,1,colour,0.06,3.9
50,25,1,1,10,41,491,836.1422435001004,837.2560561001301,"[51, 0, 203]",203,a,0.5903934000525624,0,colour,0.06,3.9
50,25,1,1,10,42,492,837.767181100091,838.7920006001368,"[75, 0, 179]",179,l,0.5020842999219894,1,colour,0.06,3.9
50,25,1,1,10,43,493,839.2985209000763,840.3920487000141,"[11, 0, 243]",243,a,0.5702431998215616,1,colour,0.06,3.9
50,25,1,1,10,44,494,840.907956100069,842.0880064000376,"[62, 0, 192]",192,l,0.6570205998141319,1,colour,0.06,3.9
50,25,1,1,10,45,495,842.595441200072,843.69596250006,"[12, 0, 242]",242,a,0.5775094998534769,1,colour,0.06,3.9
50,25,1,1,10,46,496,844.2047454002313,845.1999810000416,"[89, 0, 165]",165,l,0.4719269999768585,1,colour,0.06,3.9
50,25,1,1,10,47,497,845.7204475000035,846.7440278001595,"[79, 0, 175]",175,l,0.5004521000664681,1,colour,0.06,3.9
50,25,1,1,10,48,498,847.251679800218,848.2400075001642,"[93, 0, 161]",161,l,0.46605119993910193,1,colour,0.06,3.9
50,25,1,1,10,49,499,848.7516902000643,849.8001626001205,"[85, 0, 169]",169,l,0.5253882999531925,1,colour,0.06,3.9
50,25,1,1,10,50,500,850.3141114001628,851.375976000214,"[78, 0, 176]",176,l,0.5386437000706792,1,colour,0.06,3.9
50,25,1,1,11,1,501,856.5477734000888,857.6000032001175,"[56, 0, 198]",198,l,0.5281990999355912,1,colour,0.06,3.8
50,25,1,1,11,2,502,858.1110287001356,858.7519979001954,"[65, 0, 189]",189,l,0.11780450004152954,1,colour,0.06,3.8
50,25,1,1,11,3,503,859.267283000052,860.263982700184,"[78, 0, 176]",176,l,0.4734206001739949,1,colour,0.06,3.8
50,25,1,1,11,4,504,860.7827761000954,861.8000257001258,"[62, 0, 192]",192,l,0.49386720010079443,1,colour,0.06,3.8
50,25,1,1,11,5,505,862.3141676001251,863.2560361002106,"[70, 0, 184]",184,l,0.4185118000023067,1,colour,0.06,3.8
50,25,1,1,11,6,506,863.7672438002191,864.6719891000539,"[51, 0, 203]",203,a,0.38226619991473854,0,colour,0.06,3.8
50,25,1,1,11,7,507,865.1890677001793,866.0720230001025,"[66, 0, 188]",188,l,0.35960930003784597,1,colour,0.06,3.8
50,25,1,1,11,8,508,866.5797761001159,867.5759497000836,"[96, 0, 158]",158,l,0.47290119994431734,1,colour,0.06,3.8
50,25,1,1,11,9,509,868.0953432000242,869.05594820017,"[89, 0, 165]",165,l,0.4382289999630302,1,colour,0.06,3.8
50,25,1,1,11,10,510,869.564118700102,870.5920580001548,"[84, 0, 170]",170,l,0.5048182001337409,1,colour,0.06,3.8
50,25,1,1,11,11,511,871.1109347001184,871.8560105001088,"[79, 0, 175]",175,l,0.2218226999975741,1,colour,0.06,3.8
50,25,1,1,11,12,512,872.3764859000221,873.3679940002039,"[93, 0, 161]",161,l,0.4682025001384318,1,colour,0.06,3.8
50,25,1,1,11,13,513,873.8765276002232,874.8800204000436,"[85, 0, 169]",169,l,0.48032019985839725,1,colour,0.06,3.8
50,25,1,1,11,14,514,875.3921367002185,876.4079750000965,"[57, 0, 197]",197,a,0.4925718999002129,0,colour,0.06,3.8
50,25,1,1,11,15,515,876.9233948001638,877.9439784002025,"[81, 0, 173]",173,l,0.4973638001829386,1,colour,0.06,3.8
50,25,1,1,11,16,516,878.4547054001596,879.7039757000748,"[7, 0, 247]",247,a,0.7260554998647422,1,colour,0.06,3.8
50,25,1,1,11,17,517,880.2202807001304,881.4479806001764,"[58, 0, 196]",196,a,0.7046326999552548,0,colour,0.06,3.8
50,25,1,1,11,18,518,881.9548453001771,883.0799789000303,"[94, 0, 160]",160,l,0.6019078998360783,1,colour,0.06,3.8
50,25,1,1,11,19,519,883.5955005001742,884.6960367001593,"[86, 0, 168]",168,l,0.5777928000316024,1,colour,0.06,3.8
50,25,1,1,11,20,520,885.2047853001859,886.2081404000055,"[3, 0, 251]",251,a,0.4800840998068452,1,colour,0.06,3.8
50,25,1,1,11,21,521,886.7204087001737,887.9120180001482,"[50, 0, 204]",204,a,0.6683360000606626,1,colour,0.06,3.8
50,25,1,1,11,22,522,888.4234471002128,889.5519815001171,"[68, 0, 186]",186,l,0.605176700046286,1,colour,0.06,3.8
50,25,1,1,11,23,523,890.0641298000701,891.232036100002,"[95, 0, 159]",159,l,0.6448170999065042,1,colour,0.06,3.8
50,25,1,1,11,24,524,891.7516708001494,892.768011600012,"[98, 0, 156]",156,l,0.49311959999613464,1,colour,0.06,3.8
50,25,1,1,11,25,525,893.2829279000871,894.2559902002104,"[90, 0, 164]",164,l,0.4502780002076179,1,colour,0.06,3.8
50,25,1,1,11,26,526,894.7671798001975,895.744029100053,"[83, 0, 171]",171,l,0.45416549989022315,1,colour,0.06,3.8
50,25,1,1,11,27,527,896.2516432001721,897.2480009000283,"[75, 0, 179]",179,l,0.47309229988604784,1,colour,0.06,3.8
50,25,1,1,11,28,528,897.7672346001491,898.8399957001675,"[69, 0, 185]",185,l,0.550249099964276,1,colour,0.06,3.8
50,25,1,1,11,29,529,899.3610055001918,900.4160768000875,"[55, 0, 199]",199,a,0.5318151998799294,0,colour,0.06,3.8
50,25,1,1,11,30,530,900.9234832001384,901.9360361001454,"[97, 0, 157]",157,l,0.48928950005210936,1,colour,0.06,3.8
50,25,1,1,11,31,531,902.4547396001872,903.5040260001551,"[63, 0, 191]",191,l,0.5260244000237435,1,colour,0.06,3.8
50,25,1,1,11,32,532,904.017325000139,904.9679452001583,"[74, 0, 180]",180,l,0.42720949999056756,1,colour,0.06,3.8
50,25,1,1,11,33,533,905.485974600073,906.9119864001404,"[61, 0, 193]",193,a,0.9027454000897706,0,colour,0.06,3.8
50,25,1,1,11,34,534,907.4234235000331,908.5759820002131,"[54, 0, 200]",200,a,0.6291604000143707,0,colour,0.06,3.8
50,25,1,1,11,35,535,909.0953275000211,910.151947400067,"[92, 0, 162]",162,l,0.5334121000487357,1,colour,0.06,3.8
50,25,1,1,11,36,536,910.6734558001626,911.7280849001836,"[67, 0, 187]",187,l,0.5313046001829207,1,colour,0.06,3.8
50,25,1,1,11,37,537,912.235935700126,913.2400095001794,"[88, 0, 166]",166,l,0.48074969998560846,1,colour,0.06,3.8
50,25,1,1,11,38,538,913.7516041002236,914.8239782000892,"[5, 0, 249]",249,a,0.5491062998771667,1,colour,0.06,3.8
50,25,1,1,11,39,539,915.3453704002313,916.4079730000813,"[82, 0, 172]",172,l,0.5394816999323666,1,colour,0.06,3.8
50,25,1,1,11,40,540,916.9234959001187,918.015976900002,"[52, 0, 202]",202,a,0.5692055998370051,0,colour,0.06,3.8
50,25,1,1,11,41,541,918.5327894000802,919.6640178000089,"[64, 0, 190]",190,l,0.607876299880445,1,colour,0.06,3.8
50,25,1,1,11,42,542,920.1734532001428,921.2719934000634,"[59, 0, 195]",195,l,0.5752071999013424,1,colour,0.06,3.8
50,25,1,1,11,43,543,921.7827654001303,922.8400496002287,"[77, 0, 177]",177,l,0.5337661001831293,1,colour,0.06,3.8
50,25,1,1,11,44,544,923.3610268000048,924.3840077000204,"[72, 0, 182]",182,l,0.49999099993146956,1,colour,0.06,3.8
50,25,1,1,11,45,545,924.8922060001642,926.0800106001552,"[80, 0, 174]",174,l,0.6645852001383901,1,colour,0.06,3.8
50,25,1,1,11,46,546,926.5953628001735,927.6640033000149,"[91, 0, 163]",163,l,0.54585270001553,1,colour,0.06,3.8
50,25,1,1,11,47,547,928.1733947000466,929.5599443002138,"[60, 0, 194]",194,a,0.8633282000664622,0,colour,0.06,3.8
50,25,1,1,11,48,548,930.0797003000043,931.0960770000238,"[73, 0, 181]",181,l,0.49374559987336397,1,colour,0.06,3.8
50,25,1,1,11,49,549,931.6109334002249,932.6480149000417,"[99, 0, 155]",155,l,0.5145548998843879,1,colour,0.06,3.8
50,25,1,1,11,50,550,933.1578180000652,934.2000099001452,"[76, 0, 178]",178,l,0.5188885000534356,1,colour,0.06,3.8
50,25,1,1,12,1,551,940.4851084002294,941.6639905001502,"[96, 0, 158]",158,l,0.6548544999677688,1,colour,0.06,3.8
50,25,1,1,12,2,552,942.1734929000959,943.1199679002166,"[59, 0, 195]",195,l,0.4236051000189036,1,colour,0.06,3.8
50,25,1,1,12,3,553,943.6265246002004,944.6719448000658,"[32, 0, 222]",222,a,0.5222346000373363,1,colour,0.06,3.8
50,25,1,1,12,4,554,945.1888975000475,946.4720098001417,"[57, 0, 197]",197,l,0.7595709001179785,1,colour,0.06,3.8
50,25,1,1,12,5,555,946.98588380008,948.2000289000571,"[55, 0, 199]",199,l,0.691682499833405,1,colour,0.06,3.8
50,25,1,1,12,6,556,948.7202314001042,949.8559547001496,"[86, 0, 168]",168,l,0.6124063001479954,1,colour,0.06,3.8
50,25,1,1,12,7,557,950.3764860001393,951.5200376000721,"[51, 0, 203]",203,a,0.6203103999141604,0,colour,0.06,3.8
50,25,1,1,12,8,558,952.0327024001162,953.183993200073,"[89, 0, 165]",165,l,0.6279182999860495,1,colour,0.06,3.8
50,25,1,1,12,9,559,953.7046537999995,954.839966900181,"[58, 0, 196]",196,l,0.6119916001334786,1,colour,0.06,3.8
50,25,1,1,12,10,560,955.3609050000086,956.3440326000564,"[82, 0, 172]",172,l,0.46002450003288686,1,colour,0.06,3.8
50,25,1,1,12,11,561,956.8608850000892,957.8640422001481,"[78, 0, 176]",176,l,0.48003570013679564,1,colour,0.06,3.8
50,25,1,1,12,12,562,958.3764455001801,959.4881103001535,"[76, 0, 178]",178,l,0.5886848999653012,1,colour,0.06,3.8
50,25,1,1,12,13,563,960.0014566001482,961.0479949000292,"[65, 0, 189]",189,l,0.5232667999807745,1,colour,0.06,3.8
50,25,1,1,12,14,564,961.5640109002125,962.6000373000279,"[80, 0, 174]",174,l,0.5128175998106599,1,colour,0.06,3.8
50,25,1,1,12,15,565,963.1108766000252,964.1361402000766,"[88, 0, 166]",166,l,0.5020922999829054,1,colour,0.06,3.8
50,25,1,1,12,16,566,964.6421077002306,965.7200228001457,"[43, 0, 211]",211,a,0.5554456999525428,1,colour,0.06,3.8
50,25,1,1,12,17,567,966.2358696002048,967.2481255000457,"[69, 0, 185]",185,l,0.4890618999488652,1,colour,0.06,3.8
50,25,1,1,12,18,568,967.7670850001741,968.7680228000972,"[26, 0, 228]",228,a,0.47826560004614294,1,colour,0.06,3.8
50,25,1,1,12,19,569,969.2825949001126,970.2720972001553,"[90, 0, 164]",164,l,0.4660352999344468,1,colour,0.06,3.8
50,25,1,1,12,20,570,970.7826451000292,971.7839401001111,"[52, 0, 202]",202,a,0.47891049995087087,0,colour,0.06,3.8
50,25,1,1,12,21,571,972.2983644001652,973.2559676000383,"[72, 0, 182]",182,l,0.43437939998693764,1,colour,0.06,3.8
50,25,1,1,12,22,572,973.7670583000872,974.679988300195,"[99, 0, 155]",155,l,0.39030249998904765,1,colour,0.06,3.8
50,25,1,1,12,23,573,975.1889756000601,976.3040183000267,"[77, 0, 177]",177,l,0.5916547998785973,1,colour,0.06,3.8
50,25,1,1,12,24,574,976.8138904001098,977.8479872001335,"[83, 0, 171]",171,l,0.5107162999920547,1,colour,0.06,3.8
50,25,1,1,12,25,575,978.3607789000962,979.3439782001078,"[95, 0, 159]",159,l,0.46011129999533296,1,colour,0.06,3.8
50,25,1,1,12,26,576,979.8607980001252,980.8880510001909,"[53, 0, 201]",201,a,0.5041632000356913,0,colour,0.06,3.8
50,25,1,1,12,27,577,981.4076670000795,982.359980400186,"[92, 0, 162]",162,l,0.4289816999807954,1,colour,0.06,3.8
50,25,1,1,12,28,578,982.8763755001128,983.848058800213,"[79, 0, 175]",175,l,0.44838940002955496,1,colour,0.06,3.8
50,25,1,1,12,29,579,984.3608185001649,985.4000167001504,"[73, 0, 181]",181,l,0.5172491001430899,1,colour,0.06,3.8
50,25,1,1,12,30,580,985.8969921001699,987.0159654000308,"[60, 0, 194]",194,a,0.5955856998916715,0,colour,0.06,3.8
50,25,1,1,12,31,581,987.5220121000893,988.4719768001232,"[67, 0, 187]",187,l,0.4266552999615669,1,colour,0.06,3.8
50,25,1,1,12,32,582,988.9908037001733,989.8639966000337,"[74, 0, 180]",180,l,0.34994530002586544,1,colour,0.06,3.8
50,25,1,1,12,33,583,990.3813798001502,991.3520085001364,"[50, 0, 204]",204,a,0.4473119000904262,1,colour,0.06,3.8
50,25,1,1,12,34,584,991.8663179001305,992.8800066001713,"[63, 0, 191]",191,l,0.4902767001185566,1,colour,0.06,3.8
50,25,1,1,12,35,585,993.3976025001612,994.448006800143,"[70, 0, 184]",184,l,0.527889700140804,1,colour,0.06,3.8
50,25,1,1,12,36,586,994.9504073001444,996.0079937002156,"[75, 0, 179]",179,l,0.5344407001975924,1,colour,0.06,3.8
50,25,1,1,12,37,587,996.5295921000652,997.6879755000118,"[62, 0, 192]",192,l,0.6326050998177379,1,colour,0.06,3.8
50,25,1,1,12,38,588,998.2060133002233,999.1439457000233,"[93, 0, 161]",161,l,0.4146491999272257,1,colour,0.06,3.8
50,25,1,1,12,39,589,999.6591048000846,1000.680056600133,"[64, 0, 190]",190,l,0.49771749996580184,1,colour,0.06,3.8
50,25,1,1,12,40,590,1001.1903789001517,1002.119926000014,"[81, 0, 173]",173,l,0.40633389982394874,1,colour,0.06,3.8
50,25,1,1,12,41,591,1002.6278221001849,1003.5919813001528,"[56, 0, 198]",198,a,0.44096029992215335,0,colour,0.06,3.8
50,25,1,1,12,42,592,1004.1121946000494,1005.0879887000192,"[71, 0, 183]",183,l,0.4526066998951137,1,colour,0.06,3.8
50,25,1,1,12,43,593,1005.5966584000271,1006.6319622001611,"[94, 0, 160]",160,l,0.5120920001063496,1,colour,0.06,3.8
50,25,1,1,12,44,594,1007.1434967000969,1008.1521393000148,"[84, 0, 170]",170,l,0.4861170998774469,1,colour,0.06,3.8
50,25,1,1,12,45,595,1008.6518188000191,1009.712050500093,"[97, 0, 157]",157,l,0.5380355999805033,1,colour,0.06,3.8
50,25,1,1,12,46,596,1010.2299914001487,1011.3439980000257,"[54, 0, 200]",200,a,0.590653499821201,0,colour,0.06,3.8
50,25,1,1,12,47,597,1011.8549455001485,1012.90397330001,"[91, 0, 163]",163,l,0.5226459999103099,1,colour,0.06,3.8
50,25,1,1,12,48,598,1013.4092675000429,1014.5439864001237,"[85, 0, 169]",169,l,0.6114101998973638,1,colour,0.06,3.8
50,25,1,1,12,49,599,1015.0498317000456,1015.9919621001463,"[87, 0, 167]",167,l,0.4188731999602169,1,colour,0.06,3.8
50,25,1,1,12,50,600,1016.5028922001366,1017.6080053001642,"[66, 0, 188]",188,l,0.5818374999798834,1,colour,0.06,3.8
50,25,1,1,13,1,601,1029.0478959002066,1029.9759569000453,"[86, 0, 168]",168,l,0.4038310998585075,1,colour,0.06,3.8
50,25,1,1,13,2,602,1030.486249100184,1031.392049800139,"[99, 0, 155]",155,l,0.3825513001065701,1,colour,0.06,3.8
50,25,1,1,13,3,603,1031.908119800035,1033.0639339000918,"[56, 0, 198]",198,a,0.632507500005886,0,colour,0.06,3.8
50,25,1,1,13,4,604,1033.5803840002045,1034.4160101001617,"[94, 0, 160]",160,l,0.31231410009786487,1,colour,0.06,3.8
50,25,1,1,13,5,605,1034.9240804000292,1035.9839864000678,"[95, 0, 159]",159,l,0.5369217998813838,1,colour,0.06,3.8
50,25,1,1,13,6,606,1036.5021030001808,1037.7759770001285,"[92, 0, 162]",162,l,0.7504889001138508,1,colour,0.06,3.8
50,25,1,1,13,7,607,1038.2853845001664,1039.3279522000812,"[54, 0, 200]",200,a,0.5192700999323279,0,colour,0.06,3.8
50,25,1,1,13,8,608,1039.8478556000628,1040.8480675001629,"[55, 0, 199]",199,a,0.47689980012364686,0,colour,0.06,3.8
50,25,1,1,13,9,609,1041.363487600116,1042.4959723001812,"[83, 0, 171]",171,l,0.6101716000121087,1,colour,0.06,3.8
50,25,1,1,13,10,610,1043.0041627001483,1044.2239701000508,"[50, 0, 204]",204,a,0.6966164000332355,1,colour,0.06,3.8
50,25,1,1,13,11,611,1044.7384510000702,1045.7439722002018,"[64, 0, 190]",190,l,0.48214410012587905,1,colour,0.06,3.8
50,25,1,1,13,12,612,1046.2540711001493,1047.2720175001305,"[77, 0, 177]",177,l,0.4947075000964105,1,colour,0.06,3.8
50,25,1,1,13,13,613,1047.785283600213,1049.424003600143,"[80, 0, 174]",174,l,1.116567000048235,1,colour,0.06,3.8
50,25,1,1,13,14,614,1049.9320614000317,1050.9200002001598,"[91, 0, 163]",163,l,0.4645263999700546,1,colour,0.06,3.8
50,25,1,1,13,15,615,1051.4340845001861,1052.3679435001686,"[88, 0, 166]",166,l,0.4109835000708699,1,colour,0.06,3.8
50,25,1,1,13,16,616,1052.8872226001695,1053.9119867000263,"[57, 0, 197]",197,a,0.5014924998395145,0,colour,0.06,3.8
50,25,1,1,13,17,617,1054.4184936000966,1055.4640816000756,"[73, 0, 181]",181,l,0.5223806998692453,1,colour,0.06,3.8
50,25,1,1,13,18,618,1055.9811047001276,1057.0479919000063,"[96, 0, 158]",158,l,0.5437235999852419,1,colour,0.06,3.8
50,25,1,1,13,19,619,1057.54886430013,1058.5520457001403,"[51, 0, 203]",203,a,0.4800021001137793,0,colour,0.06,3.8
50,25,1,1,13,20,620,1059.064427800011,1060.1440354001243,"[52, 0, 202]",202,a,0.5573468999937177,0,colour,0.06,3.8
50,25,1,1,13,21,621,1060.6582328001969,1061.6960720000789,"[53, 0, 201]",201,a,0.51463310001418,0,colour,0.06,3.8
50,25,1,1,13,22,622,1062.2050349002238,1063.280027500121,"[62, 0, 192]",192,l,0.5515634000767022,1,colour,0.06,3.8
50,25,1,1,13,23,623,1063.7988408000674,1064.8720389001537,"[98, 0, 156]",156,l,0.5498397001065314,1,colour,0.06,3.8
50,25,1,1,13,24,624,1065.3926119001117,1066.5200339001603,"[65, 0, 189]",189,l,0.6041880000848323,1,colour,0.06,3.8
50,25,1,1,13,25,625,1067.0331405000761,1068.1119608001318,"[71, 0, 183]",183,l,0.5553965999279171,1,colour,0.06,3.8
50,25,1,1,13,26,626,1068.626900000032,1069.7439453001134,"[61, 0, 193]",193,a,0.5937564999330789,0,colour,0.06,3.8
50,25,1,1,13,27,627,1070.254932400072,1071.49601800018,"[93, 0, 161]",161,l,0.7178669001441449,1,colour,0.06,3.8
50,25,1,1,13,28,628,1071.9944861000404,1073.183977900073,"[79, 0, 175]",175,l,0.6681774999015033,1,colour,0.06,3.8
50,25,1,1,13,29,629,1073.6956527000293,1074.9439668001141,"[72, 0, 182]",182,l,0.7343047999311239,1,colour,0.06,3.8
50,25,1,1,13,30,630,1075.452009800123,1076.5919614001177,"[59, 0, 195]",195,a,0.6167764998972416,0,colour,0.06,3.8
50,25,1,1,13,31,631,1077.1083122000564,1078.1679465000052,"[97, 0, 157]",157,l,0.5364345998968929,1,colour,0.06,3.8
50,25,1,1,13,32,632,1078.686383300228,1079.7919422001578,"[10, 0, 244]",244,a,0.5854454000946134,1,colour,0.06,3.8
50,25,1,1,13,33,633,1080.3082042001188,1081.504130500136,"[67, 0, 187]",187,l,0.6727241000626236,1,colour,0.06,3.8
50,25,1,1,13,34,634,1082.0113054001704,1082.9839657000266,"[27, 0, 227]",227,a,0.4498740998096764,1,colour,0.06,3.8
50,25,1,1,13,35,635,1083.4956714001019,1084.6080240001902,"[78, 0, 176]",176,l,0.6014163000509143,1,colour,0.06,3.8
50,25,1,1,13,36,636,1085.123816900188,1086.0959585001692,"[19, 0, 235]",235,a,0.44878700003027916,1,colour,0.06,3.8
50,25,1,1,13,37,637,1086.6083234001417,1087.6240201001056,"[74, 0, 180]",180,l,0.49248720007017255,1,colour,0.06,3.8
50,25,1,1,13,38,638,1088.1394965001382,1089.3439705001656,"[58, 0, 196]",196,a,0.6822677000891417,0,colour,0.06,3.8
50,25,1,1,13,39,639,1089.858206700068,1090.9119666002225,"[69, 0, 185]",185,l,0.5304554000031203,1,colour,0.06,3.8
50,25,1,1,13,40,640,1091.420691100182,1092.6159894000739,"[63, 0, 191]",191,l,0.6720274998806417,1,colour,0.06,3.8
50,25,1,1,13,41,641,1093.1238679001108,1094.4560019001365,"[68, 0, 186]",186,l,0.8088682000525296,1,colour,0.06,3.8
50,25,1,1,13,42,642,1094.9675446001347,1096.1520260001998,"[85, 0, 169]",169,l,0.6704758000560105,1,colour,0.06,3.8
50,25,1,1,13,43,643,1096.661350700073,1097.7360005001538,"[82, 0, 172]",172,l,0.5523411000613123,1,colour,0.06,3.8
50,25,1,1,13,44,644,1098.2552043001633,1099.4080030000769,"[84, 0, 170]",170,l,0.6295828998554498,1,colour,0.06,3.8
50,25,1,1,13,45,645,1099.9271294001956,1101.0159951001406,"[75, 0, 179]",179,l,0.5656375999096781,1,colour,0.06,3.8
50,25,1,1,13,46,646,1101.5375297002029,1102.7120139000472,"[89, 0, 165]",165,l,0.6499765999615192,1,colour,0.06,3.8
50,25,1,1,13,47,647,1103.2261552000418,1104.367956600152,"[70, 0, 184]",184,l,0.618444100022316,1,colour,0.06,3.8
50,25,1,1,13,48,648,1104.8824376000557,1106.0479783001356,"[66, 0, 188]",188,l,0.6423070000018924,1,colour,0.06,3.8
50,25,1,1,13,49,649,1106.544985000044,1107.719974800013,"[76, 0, 178]",178,l,0.6507462998852134,1,colour,0.06,3.8
50,25,1,1,13,50,650,1108.2343898001127,1109.4720119000413,"[90, 0, 164]",164,l,0.7142355998512357,1,colour,0.06,3.8
50,25,1,1,14,1,651,1115.0777871001046,1116.2719740001485,"[97, 0, 157]",157,l,0.6703556999564171,1,colour,0.06,3.8
50,25,1,1,14,2,652,1116.781754200114,1117.8240988000762,"[35, 0, 219]",219,a,0.519025000045076,1,colour,0.06,3.8
50,25,1,1,14,3,653,1118.3441923002247,1119.4959752000868,"[72, 0, 182]",182,l,0.6285452998708934,1,colour,0.06,3.8
50,25,1,1,14,4,654,1120.018050600076,1121.3120287000202,"[52, 0, 202]",202,a,0.775423499988392,0,colour,0.06,3.8
50,25,1,1,14,5,655,1121.8258004002273,1123.0400317001622,"[91, 0, 163]",163,l,0.6913519999943674,1,colour,0.06,3.8
50,25,1,1,14,6,656,1123.5602178000845,1124.5840334000532,"[85, 0, 169]",169,l,0.5006482000462711,1,colour,0.06,3.8
50,25,1,1,14,7,657,1125.091408100212,1126.3279944001697,"[55, 0, 199]",199,a,0.7132912999950349,0,colour,0.06,3.8
50,25,1,1,14,8,658,1126.8414582000114,1127.823938800022,"[80, 0, 174]",174,l,0.4690101998858154,1,colour,0.06,3.8
50,25,1,1,14,9,659,1128.3319169001188,1129.6001203001942,"[83, 0, 171]",171,l,0.7449173000641167,1,colour,0.06,3.8
50,25,1,1,14,10,660,1130.1145126000047,1131.2480563002173,"[4, 0, 250]",250,a,0.6106542001944035,1,colour,0.06,3.8
50,25,1,1,14,11,661,1131.75521260011,1133.0320125001017,"[65, 0, 189]",189,l,0.753596399910748,1,colour,0.06,3.8
50,25,1,1,14,12,662,1133.5427484000102,1134.744008500129,"[73, 0, 181]",181,l,0.6780449999496341,1,colour,0.06,3.8
50,25,1,1,14,13,663,1135.2615871001035,1136.3600229001604,"[89, 0, 165]",165,l,0.5757305000443012,1,colour,0.06,3.8
50,25,1,1,14,14,664,1136.870847400045,1137.920003300067,"[66, 0, 188]",188,l,0.5258506999816746,1,colour,0.06,3.8
50,25,1,1,14,15,665,1138.4333708002232,1139.43200050015,"[82, 0, 172]",172,l,0.47517869994044304,1,colour,0.06,3.8
50,25,1,1,14,16,666,1139.949019300053,1141.000022200169,"[75, 0, 179]",179,l,0.5277055001351982,1,colour,0.06,3.8
50,25,1,1,14,17,667,1141.5114847000223,1142.63201450021,"[76, 0, 178]",178,l,0.5973547000903636,1,colour,0.06,3.8
50,25,1,1,14,18,668,1143.1521326000802,1144.3199798001442,"[50, 0, 204]",204,a,0.6446515000425279,1,colour,0.06,3.8
50,25,1,1,14,19,669,1144.8395998000633,1145.7520224000327,"[71, 0, 183]",183,l,0.38913599983789027,1,colour,0.06,3.8
50,25,1,1,14,20,670,1146.2614513000008,1147.295988400001,"[67, 0, 187]",187,l,0.5113611998967826,1,colour,0.06,3.8
50,25,1,1,14,21,671,1147.8083199001849,1148.768062000163,"[86, 0, 168]",168,l,0.43381509999744594,1,colour,0.06,3.8
50,25,1,1,14,22,672,1149.2801784002222,1150.3519413000904,"[92, 0, 162]",162,l,0.5608943998813629,1,colour,0.06,3.8
50,25,1,1,14,23,673,1150.861486400012,1151.9920277001802,"[54, 0, 200]",200,a,0.6073791000526398,0,colour,0.06,3.8
50,25,1,1,14,24,674,1152.5021341000684,1153.608062400017,"[95, 0, 159]",159,l,0.5919034997932613,1,colour,0.06,3.8
50,25,1,1,14,25,675,1154.1178253002,1155.216024100082,"[15, 0, 239]",239,a,0.5748938999604434,1,colour,0.06,3.8
50,25,1,1,14,26,676,1155.7272718001623,1156.9920975000132,"[58, 0, 196]",196,l,0.741598199820146,1,colour,0.06,3.8
50,25,1,1,14,27,677,1157.5084731001407,1158.4640002001543,"[90, 0, 164]",164,l,0.4322365000844002,1,colour,0.06,3.8
50,25,1,1,14,28,678,1158.9772662001196,1159.976002600044,"[81, 0, 173]",173,l,0.47553219995461404,1,colour,0.06,3.8
50,25,1,1,14,29,679,1160.492908500135,1161.5680168000981,"[64, 0, 190]",190,l,0.5517973999958485,1,colour,0.06,3.8
50,25,1,1,14,30,680,1162.0866091002245,1163.1919932002202,"[79, 0, 175]",175,l,0.5819810000248253,1,colour,0.06,3.8
50,25,1,1,14,31,681,1163.7116014000494,1164.7519835000858,"[94, 0, 160]",160,l,0.5172224999405444,1,colour,0.06,3.8
50,25,1,1,14,32,682,1165.258498400217,1166.5120280000847,"[56, 0, 198]",198,a,0.7302119000814855,0,colour,0.06,3.8
50,25,1,1,14,33,683,1167.0241090001073,1168.1759890001267,"[62, 0, 192]",192,a,0.6285671000368893,0,colour,0.06,3.8
50,25,1,1,14,34,684,1168.6960744000971,1169.8879495,"[51, 0, 203]",203,a,0.6686468999832869,0,colour,0.06,3.8
50,25,1,1,14,35,685,1170.3991007001605,1171.50399080012,"[59, 0, 195]",195,a,0.581529000075534,0,colour,0.06,3.8
50,25,1,1,14,36,686,1172.0240783002228,1173.1119906001259,"[77, 0, 177]",177,l,0.5645530000329018,1,colour,0.06,3.8
50,25,1,1,14,37,687,1173.6335241000634,1174.8081830001902,"[63, 0, 191]",191,l,0.6513340000528842,1,colour,0.06,3.8
50,25,1,1,14,38,688,1175.308399300091,1176.3840464001987,"[53, 0, 201]",201,a,0.5522757000289857,0,colour,0.06,3.8
50,25,1,1,14,39,689,1176.9021525001153,1178.0319715000223,"[68, 0, 186]",186,l,0.6177472998388112,1,colour,0.06,3.8
50,25,1,1,14,40,690,1178.5475375000387,1179.664024000056,"[57, 0, 197]",197,a,0.593309799907729,0,colour,0.06,3.8
50,25,1,1,14,41,691,1180.1724897001404,1181.208003200125,"[93, 0, 161]",161,l,0.5122317001223564,1,colour,0.06,3.8
50,25,1,1,14,42,692,1181.7193303001113,1182.95194300008,"[99, 0, 155]",155,l,0.7082970000337809,1,colour,0.06,3.8
50,25,1,1,14,43,693,1183.4711602001917,1184.6079574001487,"[88, 0, 166]",166,l,0.6135406999383122,1,colour,0.06,3.8
50,25,1,1,14,44,694,1185.1273808002006,1186.2239691000432,"[70, 0, 184]",184,l,0.5733149999286979,1,colour,0.06,3.8
50,25,1,1,14,45,695,1186.7367741002236,1188.0159710000735,"[60, 0, 194]",194,a,0.7559332000091672,0,colour,0.06,3.8
50,25,1,1,14,46,696,1188.5337610000279,1189.6879925001413,"[87, 0, 167]",167,l,0.6313795999158174,1,colour,0.06,3.8
50,25,1,1,14,47,697,1190.205512400018,1191.2799915000796,"[78, 0, 176]",176,l,0.5512562999501824,1,colour,0.06,3.8
50,25,1,1,14,48,698,1191.7992764001247,1192.943975100061,"[69, 0, 185]",185,l,0.6213899999856949,1,colour,0.06,3.8
50,25,1,1,14,49,699,1193.4555008001626,1194.6080165000167,"[61, 0, 193]",193,a,0.62917590001598,0,colour,0.06,3.8
50,25,1,1,14,50,700,1195.1273533001076,1196.2239825001452,"[84, 0, 170]",170,l,0.5733447000384331,1,colour,0.06,3.8
50,25,1,1,15,1,701,1201.9859467002098,1202.9999296001624,"[63, 0, 191]",191,l,0.5023244000039995,1,colour,0.06,3.8
50,25,1,1,15,2,702,1203.5211800001562,1204.6160592001397,"[59, 0, 195]",195,a,0.5716127001214772,0,colour,0.06,3.8
50,25,1,1,15,3,703,1205.1305429001804,1206.136009000009,"[58, 0, 196]",196,a,0.4821414998732507,0,colour,0.06,3.8
50,25,1,1,15,4,704,1206.6461661001667,1207.6720478001516,"[33, 0, 221]",221,a,0.5030863001011312,1,colour,0.06,3.8
50,25,1,1,15,5,705,1208.1930867000483,1209.224030500045,"[57, 0, 197]",197,a,0.507630700012669,0,colour,0.06,3.8
50,25,1,1,15,6,706,1209.7398861001711,1210.7359656000044,"[97, 0, 157]",157,l,0.4727651998400688,1,colour,0.06,3.8
50,25,1,1,15,7,707,1211.255539600039,1212.2319645001553,"[86, 0, 168]",168,l,0.45427830005064607,1,colour,0.06,3.8
50,25,1,1,15,8,708,1212.739871900063,1214.1039646000136,"[77, 0, 177]",177,l,0.8407755999360234,1,colour,0.06,3.8
50,25,1,1,15,9,709,1214.616279200185,1215.9519942000043,"[65, 0, 189]",189,l,0.8124139998108149,1,colour,0.06,3.8
50,25,1,1,15,10,710,1216.4616026000585,1217.5921499000397,"[60, 0, 194]",194,a,0.6080171999055892,0,colour,0.06,3.8
50,25,1,1,15,11,711,1218.1022222000174,1219.200041500153,"[88, 0, 166]",166,l,0.574520300142467,1,colour,0.06,3.8
50,25,1,1,15,12,712,1219.7117057000287,1220.6719629000872,"[99, 0, 155]",155,l,0.4371755998581648,1,colour,0.06,3.8
50,25,1,1,15,13,713,1221.180438300129,1222.36803100002,"[75, 0, 179]",179,l,0.6643209999892861,1,colour,0.06,3.8
50,25,1,1,15,14,714,1222.8836589001585,1224.0640862002037,"[61, 0, 193]",193,a,0.6572180001530796,0,colour,0.06,3.8
50,25,1,1,15,15,715,1224.5710952000227,1225.6720114001073,"[90, 0, 164]",164,l,0.5780452999752015,1,colour,0.06,3.8
50,25,1,1,15,16,716,1226.1803850000724,1227.327996800188,"[52, 0, 202]",202,a,0.624637900153175,0,colour,0.06,3.8
50,25,1,1,15,17,717,1227.8367291002069,1229.016028400045,"[72, 0, 182]",182,l,0.6656813998706639,1,colour,0.06,3.8
50,25,1,1,15,18,718,1229.5304731000215,1230.695985400118,"[91, 0, 163]",163,l,0.6422522999346256,1,colour,0.06,3.8
50,25,1,1,15,19,719,1231.2023942000233,1232.320013700053,"[53, 0, 201]",201,a,0.6040996999945492,0,colour,0.06,3.8
50,25,1,1,15,20,720,1232.8336271001026,1234.0160194002092,"[51, 0, 203]",203,a,0.6591270000208169,0,colour,0.06,3.8
50,25,1,1,15,21,721,1234.5367559001315,1235.4799790000543,"[98, 0, 156]",156,l,0.4198723000008613,1,colour,0.06,3.8
50,25,1,1,15,22,722,1235.98982040002,1236.9679679002147,"[81, 0, 173]",173,l,0.4548501002136618,1,colour,0.06,3.8
50,25,1,1,15,23,723,1237.4742139000446,1238.4720096001402,"[68, 0, 186]",186,l,0.4745316000189632,1,colour,0.06,3.8
50,25,1,1,15,24,724,1238.9898052001372,1240.1199618000537,"[40, 0, 214]",214,a,0.6068481998518109,1,colour,0.06,3.8
50,25,1,1,15,25,725,1240.6304634001572,1241.8480350000318,"[64, 0, 190]",190,a,0.6943153999745846,0,colour,0.06,3.8
50,25,1,1,15,26,726,1242.364893300226,1243.3599834002089,"[80, 0, 174]",174,l,0.4718987999949604,1,colour,0.06,3.8
50,25,1,1,15,27,727,1243.880473600002,1245.0159646000247,"[69, 0, 185]",185,l,0.610324600012973,1,colour,0.06,3.8
50,25,1,1,15,28,728,1245.524950500112,1246.7999903000891,"[34, 0, 220]",220,a,0.7520514999050647,1,colour,0.06,3.8
50,25,1,1,15,29,729,1247.3061634001788,1248.3920077001676,"[93, 0, 161]",161,l,0.5624667000956833,1,colour,0.06,3.8
50,25,1,1,15,30,730,1248.9000064001884,1250.103977800114,"[50, 0, 204]",204,a,0.6807059000711888,1,colour,0.06,3.8
50,25,1,1,15,31,731,1250.618679100182,1251.7759992000647,"[94, 0, 160]",160,l,0.6339737998787314,1,colour,0.06,3.8
50,25,1,1,15,32,732,1252.2906162000727,1253.4240205001552,"[76, 0, 178]",178,l,0.6083693001419306,1,colour,0.06,3.8
50,25,1,1,15,33,733,1253.9330664000008,1255.0239706002176,"[71, 0, 183]",183,l,0.5675892001017928,1,colour,0.06,3.8
50,25,1,1,15,34,734,1255.5424677000847,1256.696043800097,"[56, 0, 198]",198,a,0.6303087999112904,0,colour,0.06,3.8
50,25,1,1,15,35,735,1257.2154304001015,1258.3359736001585,"[55, 0, 199]",199,a,0.5953697999939322,0,colour,0.06,3.8
50,25,1,1,15,36,736,1258.8340630000457,1259.8720182001125,"[79, 0, 175]",175,l,0.5155342998914421,1,colour,0.06,3.8
50,25,1,1,15,37,737,1260.3808871000074,1261.5039788000286,"[92, 0, 162]",162,l,0.5997936998028308,1,colour,0.06,3.8
50,25,1,1,15,38,738,1262.0213862000965,1263.3839846001938,"[82, 0, 172]",172,l,0.8376144000794739,1,colour,0.06,3.8
50,25,1,1,15,39,739,1263.8981674001552,1264.9599982001819,"[78, 0, 176]",176,l,0.5386441999580711,1,colour,0.06,3.8
50,25,1,1,15,40,740,1265.4762265000027,1266.5839749001898,"[67, 0, 187]",187,l,0.584423900116235,1,colour,0.06,3.8
50,25,1,1,15,41,741,1267.101192700211,1268.3919778000563,"[74, 0, 180]",180,l,0.767414900008589,1,colour,0.06,3.8
50,25,1,1,15,42,742,1268.898100900231,1269.92006400018,"[85, 0, 169]",169,l,0.4987584000919014,1,colour,0.06,3.8
50,25,1,1,15,43,743,1270.4302814002149,1271.607998400228,"[73, 0, 181]",181,l,0.6542385001666844,1,colour,0.06,3.8
50,25,1,1,15,44,744,1272.1179056002293,1273.2159754000604,"[87, 0, 167]",167,l,0.5747884998563677,1,colour,0.06,3.8
50,25,1,1,15,45,745,1273.730135800084,1274.8640773000661,"[89, 0, 165]",165,l,0.6106207000557333,1,colour,0.06,3.8
50,25,1,1,15,46,746,1275.3707308000885,1276.3999793000985,"[96, 0, 158]",158,l,0.5059108999557793,1,colour,0.06,3.8
50,25,1,1,15,47,747,1276.917655600002,1278.104115900118,"[84, 0, 170]",170,l,0.6632123000454158,1,colour,0.06,3.8
50,25,1,1,15,48,748,1278.6207427000627,1279.7040181001648,"[83, 0, 171]",171,l,0.5599934000056237,1,colour,0.06,3.8
50,25,1,1,15,49,749,1280.2144498000853,1281.3280390000436,"[54, 0, 200]",200,a,0.5903688999824226,0,colour,0.06,3.8
50,25,1,1,15,50,750,1281.8395125002135,1282.8479525002185,"[95, 0, 159]",159,l,0.48609440005384386,1,colour,0.06,3.8
50,25,1,1,16,1,751,1287.707730700029,1288.6479942000005,"[53, 0, 201]",201,a,0.4161712999921292,0,colour,0.06,3.7
50,25,1,1,16,2,752,1289.161648400128,1290.2479889001697,"[70, 0, 184]",184,l,0.5631027000490576,1,colour,0.06,3.7
50,25,1,1,16,3,753,1290.7554075000808,1292.007959900191,"[85, 0, 169]",169,l,0.7292667999863625,1,colour,0.06,3.7
50,25,1,1,16,4,754,1292.5209752002265,1293.5200171000324,"[86, 0, 168]",168,l,0.47577999997884035,1,colour,0.06,3.7
50,25,1,1,16,5,755,1294.0366423001979,1295.0799500001594,"[93, 0, 161]",161,l,0.52111029997468,1,colour,0.06,3.7
50,25,1,1,16,6,756,1295.5991622000001,1296.6319872001186,"[68, 0, 186]",186,l,0.5095611000433564,1,colour,0.06,3.7
50,25,1,1,16,7,757,1297.1459999000654,1298.1279379001353,"[90, 0, 164]",164,l,0.4588238000869751,1,colour,0.06,3.7
50,25,1,1,16,8,758,1298.646004400216,1299.7119498001412,"[73, 0, 181]",181,l,0.542822299990803,1,colour,0.06,3.7
50,25,1,1,16,9,759,1300.2241243000608,1301.2560308000538,"[98, 0, 156]",156,l,0.5086846998892725,1,colour,0.06,3.7
50,25,1,1,16,10,760,1301.7709831001703,1302.8559550000355,"[88, 0, 166]",166,l,0.5616160000208765,1,colour,0.06,3.7
50,25,1,1,16,11,761,1303.3647140001412,1304.4159792000428,"[59, 0, 195]",195,a,0.5279196000192314,0,colour,0.06,3.7
50,25,1,1,16,12,762,1304.9272199000698,1305.9519729001913,"[77, 0, 177]",177,l,0.501565300161019,1,colour,0.06,3.7
50,25,1,1,16,13,763,1306.4584397000726,1307.4719760001171,"[94, 0, 160]",160,l,0.48960640002042055,1,colour,0.06,3.7
50,25,1,1,16,14,764,1307.9912777000573,1309.079992200015,"[57, 0, 197]",197,a,0.5639601999428123,0,colour,0.06,3.7
50,25,1,1,16,15,765,1309.5866819000803,1310.9439563001506,"[55, 0, 199]",199,a,0.8339400999248028,0,colour,0.06,3.7
50,25,1,1,16,16,766,1311.4616690000985,1312.4880194000434,"[97, 0, 157]",157,l,0.5030741000082344,1,colour,0.06,3.7
50,25,1,1,16,17,767,1313.0085035001393,1313.9119734000415,"[92, 0, 162]",162,l,0.3804128998890519,1,colour,0.06,3.7
50,25,1,1,16,18,768,1314.4305568002164,1315.5359920000192,"[69, 0, 185]",185,l,0.5801662998273969,1,colour,0.06,3.7
50,25,1,1,16,19,769,1316.0574216002133,1317.2080198000185,"[58, 0, 196]",196,a,0.6260977999772877,0,colour,0.06,3.7
50,25,1,1,16,20,770,1317.714865700109,1318.8479670002125,"[99, 0, 155]",155,l,0.6098570001777261,1,colour,0.06,3.7
50,25,1,1,16,21,771,1319.3430559001863,1320.6480286000296,"[71, 0, 183]",183,l,0.7816989999264479,1,colour,0.06,3.7
50,25,1,1,16,22,772,1321.1555234000552,1322.3840044001117,"[89, 0, 165]",165,l,0.7052358000073582,1,colour,0.06,3.7
50,25,1,1,16,23,773,1322.8899139000569,1323.9999623000622,"[61, 0, 193]",193,a,0.5867383999284357,0,colour,0.06,3.7
50,25,1,1,16,24,774,1324.5148746001069,1325.775964600034,"[51, 0, 203]",203,a,0.7348397998139262,0,colour,0.06,3.7
50,25,1,1,16,25,775,1326.2743468000554,1327.63196290005,"[52, 0, 202]",202,a,0.8435760999564081,0,colour,0.06,3.7
50,25,1,1,16,26,776,1328.13995060022,1329.2399373000953,"[96, 0, 158]",158,l,0.5774614999536425,1,colour,0.06,3.7
50,25,1,1,16,27,777,1329.7493917001411,1330.8799846000038,"[66, 0, 188]",188,l,0.6072538997977972,1,colour,0.06,3.7
50,25,1,1,16,28,778,1331.3900023000315,1332.5279859001748,"[72, 0, 182]",182,l,0.6146764000877738,1,colour,0.06,3.7
50,25,1,1,16,29,779,1333.0463222002145,1333.9519973001443,"[14, 0, 240]",240,a,0.3823923000600189,1,colour,0.06,3.7
50,25,1,1,16,30,780,1334.4680594000965,1335.4799824000802,"[64, 0, 190]",190,l,0.48852150002494454,1,colour,0.06,3.7
50,25,1,1,16,31,781,1335.999385200208,1336.8639721001964,"[79, 0, 175]",175,l,0.34130950015969574,1,colour,0.06,3.7
50,25,1,1,16,32,782,1337.3743406001013,1338.3843185000587,"[65, 0, 189]",189,l,0.48666579998098314,1,colour,0.06,3.7
50,25,1,1,16,33,783,1338.9056133001577,1340.039992300095,"[84, 0, 170]",170,l,0.6121751999016851,1,colour,0.06,3.7
50,25,1,1,16,34,784,1340.5462997001596,1341.519988700049,"[50, 0, 204]",204,a,0.45037989993579686,1,colour,0.06,3.7
50,25,1,1,16,35,785,1342.0305930001196,1343.0559961001854,"[81, 0, 173]",173,l,0.5025727001484483,1,colour,0.06,3.7
50,25,1,1,16,36,786,1343.577509000199,1344.8239690000191,"[91, 0, 163]",163,l,0.7231603998225182,1,colour,0.06,3.7
50,25,1,1,16,37,787,1345.3450964000076,1346.6159756002016,"[83, 0, 171]",171,l,0.7481005000881851,1,colour,0.06,3.7
50,25,1,1,16,38,788,1347.1241602001246,1348.2320082001388,"[75, 0, 179]",179,l,0.5844966999720782,1,colour,0.06,3.7
50,25,1,1,16,39,789,1348.7491220000666,1350.279985100031,"[63, 0, 191]",191,l,1.007400200003758,1,colour,0.06,3.7
50,25,1,1,16,40,790,1350.7960604000837,1351.8960155001841,"[56, 0, 198]",198,a,0.5768640001770109,0,colour,0.06,3.7
50,25,1,1,16,41,791,1352.4073058001231,1353.512008300051,"[87, 0, 167]",167,l,0.5814041998237371,1,colour,0.06,3.7
50,25,1,1,16,42,792,1354.032280200161,1355.0479991000611,"[62, 0, 192]",192,l,0.49249719991348684,1,colour,0.06,3.7
50,25,1,1,16,43,793,1355.5633942000568,1357.0240247000474,"[60, 0, 194]",194,a,0.9371644998900592,0,colour,0.06,3.7
50,25,1,1,16,44,794,1357.532437800197,1358.6800225002225,"[33, 0, 221]",221,a,0.6243442001286894,1,colour,0.06,3.7
50,25,1,1,16,45,795,1359.1886637001298,1360.2400148001034,"[46, 0, 208]",208,a,0.5311799999326468,1,colour,0.06,3.7
50,25,1,1,16,46,796,1360.7481437001843,1361.6560070000123,"[76, 0, 178]",178,l,0.38473069993779063,1,colour,0.06,3.7
50,25,1,1,16,47,797,1362.1699125000741,1363.1680063002277,"[74, 0, 180]",180,l,0.4755280001554638,1,colour,0.06,3.7
50,25,1,1,16,48,798,1363.6855732002296,1364.895989100216,"[82, 0, 172]",172,l,0.6870329000521451,1,colour,0.06,3.7
50,25,1,1,16,49,799,1365.4042946000118,1366.66403240012,"[78, 0, 176]",176,l,0.7364350999705493,1,colour,0.06,3.7
50,25,1,1,16,50,800,1367.1855506000575,1368.815991200041,"[95, 0, 159]",159,l,1.1070890999399126,1,colour,0.06,3.7
