id,age,condition,counterbalance,block,trialinblock,trial,tstart,tend,trialstim,trialintensity,response,RT,accuracy,trialtype,colourfreq,credits
54,26,0,1,Practice,1,NA,6.09993003308773e-06,1.325926800025627,"[3, 0, 251]",251,a,0.8053735001012683,1,colour,0.5,4
54,26,0,1,Practice,2,NA,1.8396280999295413,3.3099014000035822,"[62, 0, 192]",192,a,0.950914999935776,0,colour,0.5,4
54,26,0,1,Practice,3,NA,3.817835699999705,5.173900299938396,"[95, 0, 159]",159,l,0.8369630998931825,1,colour,0.5,4
54,26,0,1,Practice,4,NA,5.685754799982533,7.045950700063258,"[35, 0, 219]",219,a,0.841003900161013,1,colour,0.5,4
54,26,0,1,Practice,5,NA,7.555011699907482,8.821931099984795,"[70, 0, 184]",184,l,0.7360382999759167,1,colour,0.5,4
54,26,0,1,Practice,6,NA,9.331095699919388,10.317935399943963,"[81, 0, 173]",173,l,0.4676365000195801,1,colour,0.5,4
54,26,0,1,Practice,7,NA,10.827039799885824,11.405945800011978,"[29, 0, 225]",225,a,0.05968210007995367,1,colour,0.5,4
54,26,0,1,Practice,8,NA,11.904713700059801,15.805961299920455,"[20, 0, 234]",234,a,3.3924563999753445,1,colour,0.5,4
54,26,0,1,Practice,9,NA,16.311871600104496,17.645931500010192,"[54, 0, 200]",200,a,0.8149929000064731,0,colour,0.5,4
54,26,0,1,Practice,10,NA,18.15926710003987,19.19799289992079,"[48, 0, 206]",206,a,0.5076558999717236,1,colour,0.5,4
54,26,0,1,1,1,1,4.048137299949303,5.247914399951696,"[24, 0, 230]",230,a,0.6678534999955446,1,colour,0.5,4.0
54,26,0,1,1,2,2,5.755752299912274,6.639966600108892,"[0, 0, 254]",254,a,0.3650110000744462,1,colour,0.5,4.0
54,26,0,1,1,3,3,7.151793299941346,8.071890400024131,"[17, 0, 237]",237,a,0.40070579992607236,1,colour,0.5,4.0
54,26,0,1,1,4,4,8.577966500073671,9.511899699922651,"[95, 0, 159]",159,l,0.41459459997713566,1,colour,0.5,4.0
54,26,0,1,1,5,5,10.023426299914718,10.927974600112066,"[94, 0, 160]",160,l,0.38526510004885495,1,colour,0.5,4.0
54,26,0,1,1,6,6,11.439530299976468,12.615923899924383,"[38, 0, 216]",216,a,0.6455335998907685,1,colour,0.5,4.0
54,26,0,1,1,7,7,13.126339100068435,14.255905499914661,"[31, 0, 223]",223,a,0.6101751998066902,1,colour,0.5,4.0
54,26,0,1,1,8,8,14.763901999918744,15.792010999983177,"[67, 0, 187]",187,l,0.49737969995476305,1,colour,0.5,4.0
54,26,0,1,1,9,9,16.300218699965626,17.223943500081077,"[57, 0, 197]",197,a,0.3930248999968171,0,colour,0.5,4.0
54,26,0,1,1,10,10,17.723986600060016,18.73594109993428,"[75, 0, 179]",179,l,0.49736419995315373,1,colour,0.5,4.0
54,26,0,1,1,11,11,19.24519139993936,20.27997269993648,"[91, 0, 163]",163,l,0.5156624999362975,1,colour,0.5,4.0
54,26,0,1,1,12,12,20.791882199933752,21.768015699926764,"[11, 0, 243]",243,a,0.44509749999269843,1,colour,0.5,4.0
54,26,0,1,1,13,13,22.27713740011677,23.17592990002595,"[7, 0, 247]",247,a,0.37945470004342496,1,colour,0.5,4.0
54,26,0,1,1,14,14,23.675782799953595,24.51991380006075,"[68, 0, 186]",186,l,0.3357347999699414,1,colour,0.5,4.0
54,26,0,1,1,15,15,25.025647999951616,25.944011900108308,"[35, 0, 219]",219,a,0.39900830015540123,1,colour,0.5,4.0
54,26,0,1,1,16,16,26.4508428000845,27.399881799938157,"[53, 0, 201]",201,a,0.41777529986575246,0,colour,0.5,4.0
54,26,0,1,1,17,17,27.906031199963763,28.92791870003566,"[16, 0, 238]",238,a,0.5027352999895811,1,colour,0.5,4.0
54,26,0,1,1,18,18,29.430840600049123,30.55201520002447,"[69, 0, 185]",185,l,0.6007330999709666,1,colour,0.5,4.0
54,26,0,1,1,19,19,31.0583538999781,32.13595069991425,"[99, 0, 155]",155,l,0.5472176999319345,1,colour,0.5,4.0
54,26,0,1,1,20,20,32.64403500012122,33.57589239999652,"[83, 0, 171]",171,l,0.4011534000746906,1,colour,0.5,4.0
54,26,0,1,1,21,21,34.08906719996594,35.10391760012135,"[55, 0, 199]",199,a,0.49546500016003847,0,colour,0.5,4.0
54,26,0,1,1,22,22,35.61513840011321,36.49592710006982,"[59, 0, 195]",195,a,0.3616224001161754,0,colour,0.5,4.0
54,26,0,1,1,23,23,37.0108101000078,37.85594979999587,"[61, 0, 193]",193,a,0.32581899990327656,0,colour,0.5,4.0
54,26,0,1,1,24,24,38.36598420003429,39.4319484999869,"[40, 0, 214]",214,a,0.5469233000185341,1,colour,0.5,4.0
54,26,0,1,1,25,25,39.9426192000974,40.991865599993616,"[19, 0, 235]",235,a,0.5185727998614311,1,colour,0.5,4.0
54,26,0,1,1,26,26,41.49872860009782,42.40788169996813,"[80, 0, 174]",174,l,0.37853999994695187,1,colour,0.5,4.0
54,26,0,1,1,27,27,42.923734799958766,43.82396579999477,"[86, 0, 168]",168,l,0.36921019991859794,1,colour,0.5,4.0
54,26,0,1,1,28,28,44.3282562000677,45.231940099969506,"[18, 0, 236]",236,a,0.37355359992943704,1,colour,0.5,4.0
54,26,0,1,1,29,29,45.739307600073516,46.543926200130954,"[47, 0, 207]",207,a,0.28512610006146133,1,colour,0.5,4.0
54,26,0,1,1,30,30,47.054341699928045,47.88792279991321,"[43, 0, 211]",211,a,0.31487779994495213,1,colour,0.5,4.0
54,26,0,1,1,31,31,48.39953769999556,49.207934099948034,"[13, 0, 241]",241,a,0.27664830000139773,1,colour,0.5,4.0
54,26,0,1,1,32,32,49.715706299990416,50.55188739998266,"[9, 0, 245]",245,a,0.30553909996524453,1,colour,0.5,4.0
54,26,0,1,1,33,33,51.060536599950865,52.19189039990306,"[77, 0, 177]",177,l,0.6007287998218089,1,colour,0.5,4.0
54,26,0,1,1,34,34,52.70656790002249,53.527909100055695,"[8, 0, 246]",246,a,0.2908588999416679,1,colour,0.5,4.0
54,26,0,1,1,35,35,54.04079609992914,54.92787820007652,"[23, 0, 231]",231,a,0.35772730014286935,1,colour,0.5,4.0
54,26,0,1,1,36,36,55.42794919991866,56.247938900021836,"[45, 0, 209]",209,a,0.3123010001145303,1,colour,0.5,4.0
54,26,0,1,1,37,37,56.769481000024825,58.72798949992284,"[33, 0, 221]",221,l,1.449621999869123,0,colour,0.5,4.0
54,26,0,1,1,38,38,59.238903200021014,60.3679782000836,"[63, 0, 191]",191,l,0.6097591000143439,1,colour,0.5,4.0
54,26,0,1,1,39,39,60.87649990012869,61.79192420002073,"[78, 0, 176]",176,l,0.38468799996189773,1,colour,0.5,4.0
54,26,0,1,1,40,40,62.302027500001714,63.33599380007945,"[76, 0, 178]",178,l,0.5146808000281453,1,colour,0.5,4.0
54,26,0,1,1,41,41,63.84853060008027,64.7199099001009,"[92, 0, 162]",162,l,0.35236570006236434,1,colour,0.5,4.0
54,26,0,1,1,42,42,65.23414129996672,66.14394240011461,"[79, 0, 175]",175,l,0.37891000020317733,1,colour,0.5,4.0
54,26,0,1,1,43,43,66.65948950010352,67.687915999908,"[64, 0, 190]",190,l,0.49765189993195236,1,colour,0.5,4.0
54,26,0,1,1,44,44,68.19552449998446,68.90393580007367,"[44, 0, 210]",210,a,0.1892353999428451,1,colour,0.5,4.0
54,26,0,1,1,45,45,69.410405700095,70.20792550011538,"[50, 0, 204]",204,a,0.27815900021232665,1,colour,0.5,4.0
54,26,0,1,1,46,46,70.71606500004418,71.66401199996471,"[70, 0, 184]",184,l,0.42888759984634817,1,colour,0.5,4.0
54,26,0,1,1,47,47,72.1714886999689,73.2159158999566,"[39, 0, 215]",215,a,0.5138337998650968,1,colour,0.5,4.0
54,26,0,1,1,48,48,73.72747240005992,74.85595300002024,"[28, 0, 226]",226,a,0.6092620000708848,1,colour,0.5,4.0
54,26,0,1,1,49,49,75.36431910004467,76.37613560003228,"[26, 0, 228]",228,a,0.4923918000422418,1,colour,0.5,4.0
54,26,0,1,1,50,50,76.88135019992478,77.7119807000272,"[32, 0, 222]",222,a,0.3113496000878513,1,colour,0.5,4.0
54,26,0,1,2,1,51,85.99009909993038,87.02401389996521,"[36, 0, 218]",218,a,0.5136658998671919,1,colour,0.5,4.0
54,26,0,1,2,2,52,87.54055989999324,88.44793580006808,"[23, 0, 231]",231,a,0.39038220001384616,1,colour,0.5,4.0
54,26,0,1,2,3,53,88.95454990002327,89.95992990001105,"[10, 0, 244]",244,a,0.4863140999805182,1,colour,0.5,4.0
54,26,0,1,2,4,54,90.47145260008983,91.3600089000538,"[86, 0, 168]",168,l,0.3572830001357943,1,colour,0.5,4.0
54,26,0,1,2,5,55,91.86773080006242,93.13592449994758,"[55, 0, 199]",199,a,0.7490856000222266,0,colour,0.5,4.0
54,26,0,1,2,6,56,93.64605559990741,94.51190180005506,"[25, 0, 229]",229,a,0.33483580010943115,1,colour,0.5,4.0
54,26,0,1,2,7,57,95.02163100009784,95.91195360012352,"[69, 0, 185]",185,l,0.3707915002014488,1,colour,0.5,4.0
54,26,0,1,2,8,58,96.4180755999405,97.43197820009664,"[31, 0, 223]",223,a,0.4945221000816673,1,colour,0.5,4.0
54,26,0,1,2,9,59,97.9441132999491,98.9759200999979,"[13, 0, 241]",241,a,0.5124439999926835,1,colour,0.5,4.0
54,26,0,1,2,10,60,99.47937779990025,100.43992940010503,"[3, 0, 251]",251,a,0.45170440012589097,1,colour,0.5,4.0
54,26,0,1,2,11,61,100.94628109992482,101.82393250009045,"[35, 0, 219]",219,a,0.34733400004915893,1,colour,0.5,4.0
54,26,0,1,2,12,62,102.31912790006027,103.22388270008378,"[27, 0, 227]",227,a,0.3725537999998778,1,colour,0.5,4.0
54,26,0,1,2,13,63,103.73580690007657,104.71194089995697,"[65, 0, 189]",189,l,0.4569214000366628,1,colour,0.5,4.0
54,26,0,1,2,14,64,105.22241510008462,106.07996160001494,"[67, 0, 187]",187,l,0.33859740011394024,1,colour,0.5,4.0
54,26,0,1,2,15,65,106.58763250010088,107.71194999990985,"[63, 0, 191]",191,l,0.5933635998517275,1,colour,0.5,4.0
54,26,0,1,2,16,66,108.22380300005898,109.04794350010343,"[17, 0, 237]",237,a,0.3047907000873238,1,colour,0.5,4.0
54,26,0,1,2,17,67,109.55694580008276,110.39201200008392,"[20, 0, 234]",234,a,0.32661290001124144,1,colour,0.5,4.0
54,26,0,1,2,18,68,110.89105740003288,111.71190389990807,"[51, 0, 203]",203,a,0.30043810000643134,0,colour,0.5,4.0
54,26,0,1,2,19,69,112.21777139999904,113.03193089994602,"[33, 0, 221]",221,a,0.2994067999534309,1,colour,0.5,4.0
54,26,0,1,2,20,70,113.53051989991218,114.08797560003586,"[2, 0, 252]",252,a,0.04958040011115372,1,colour,0.5,4.0
54,26,0,1,2,21,71,114.60231340001337,115.61591630009934,"[50, 0, 204]",204,a,0.4992702000308782,1,colour,0.5,4.0
54,26,0,1,2,22,72,116.13117800001055,117.01588739990257,"[97, 0, 157]",157,l,0.3661893999669701,1,colour,0.5,4.0
54,26,0,1,2,23,73,117.5144186001271,118.77594540012069,"[7, 0, 247]",247,l,0.7416955002117902,0,colour,0.5,4.0
54,26,0,1,2,24,74,119.28259350010194,119.98398269992322,"[64, 0, 190]",190,l,0.18195839994587004,1,colour,0.5,4.0
54,26,0,1,2,25,75,120.4974416999612,121.54397909995168,"[82, 0, 172]",172,l,0.5271969998721033,1,colour,0.5,4.0
54,26,0,1,2,26,76,122.05444879992865,123.17597740003839,"[61, 0, 193]",193,l,0.6030822999309748,1,colour,0.5,4.0
54,26,0,1,2,27,77,123.69065729994327,124.575953300111,"[1, 0, 253]",253,a,0.3542092000134289,1,colour,0.5,4.0
54,26,0,1,2,28,78,125.08061020006426,125.99995610001497,"[95, 0, 159]",159,l,0.4124332999344915,1,colour,0.5,4.0
54,26,0,1,2,29,79,126.50934370001778,127.59994990006089,"[54, 0, 200]",200,a,0.5595853000413626,0,colour,0.5,4.0
54,26,0,1,2,30,80,128.10531569994055,128.99994090013206,"[93, 0, 161]",161,l,0.3753475002013147,1,colour,0.5,4.0
54,26,0,1,2,31,81,129.51156660006382,130.39992289990187,"[39, 0, 215]",215,a,0.3571757997851819,1,colour,0.5,4.0
54,26,0,1,2,32,82,130.90708989999257,131.77590880007483,"[92, 0, 162]",162,l,0.3496477999724448,1,colour,0.5,4.0
54,26,0,1,2,33,83,132.2826135000214,133.73591380007565,"[58, 0, 196]",196,a,0.9344433001242578,0,colour,0.5,4.0
54,26,0,1,2,34,84,134.25205649994314,135.19193860003725,"[90, 0, 164]",164,l,0.4188049000222236,1,colour,0.5,4.0
54,26,0,1,2,35,85,135.69794830004685,136.52794910012744,"[12, 0, 242]",242,a,0.3107560002245009,1,colour,0.5,4.0
54,26,0,1,2,36,86,137.04387090005912,137.88001159997657,"[83, 0, 171]",171,l,0.31722810002975166,1,colour,0.5,4.0
54,26,0,1,2,37,87,138.3888340999838,139.3119002999738,"[77, 0, 177]",177,l,0.4036836000159383,1,colour,0.5,4.0
54,26,0,1,2,38,88,139.82460439996794,140.4000067000743,"[24, 0, 230]",230,a,0.04636240005493164,1,colour,0.5,4.0
54,26,0,1,2,39,89,140.90648419992067,141.6799437000882,"[79, 0, 175]",175,l,0.2429824999999255,1,colour,0.5,4.0
54,26,0,1,2,40,90,142.18998960009776,143.06391200004146,"[6, 0, 248]",248,a,0.34330549999140203,1,colour,0.5,4.0
54,26,0,1,2,41,91,143.57450470002368,144.239911200013,"[87, 0, 167]",167,l,0.13463789992965758,1,colour,0.5,4.0
54,26,0,1,2,42,92,144.74873379990458,145.50391050009057,"[47, 0, 207]",207,a,0.22409619996324182,1,colour,0.5,4.0
54,26,0,1,2,43,93,146.0134095000103,146.84793859999627,"[29, 0, 225]",225,a,0.3153202999383211,1,colour,0.5,4.0
54,26,0,1,2,44,94,147.3582291000057,148.35995279997587,"[68, 0, 186]",186,l,0.4823016000445932,1,colour,0.5,4.0
54,26,0,1,2,45,95,148.86833809991367,149.68796549993567,"[41, 0, 213]",213,a,0.3111309998203069,1,colour,0.5,4.0
54,26,0,1,2,46,96,150.19944020011462,151.2001032999251,"[45, 0, 209]",209,a,0.4699657999444753,1,colour,0.5,4.0
54,26,0,1,2,47,97,151.71435560006648,152.68795239995234,"[73, 0, 181]",181,l,0.45424190000630915,1,colour,0.5,4.0
54,26,0,1,2,48,98,153.20113760000095,153.85594110004604,"[44, 0, 210]",210,a,0.135760199977085,1,colour,0.5,4.0
54,26,0,1,2,49,99,154.36576359998435,155.1440155999735,"[8, 0, 246]",246,a,0.24723229999653995,1,colour,0.5,4.0
54,26,0,1,2,50,100,155.65006170002744,156.43191049993038,"[84, 0, 170]",170,l,0.26268659997731447,1,colour,0.5,4.0
54,26,0,1,3,1,101,167.57858290011063,168.39192750002258,"[79, 0, 175]",175,l,0.28157859994098544,1,colour,0.5,4.0
54,26,0,1,3,2,102,168.90426849992946,169.69590219995007,"[26, 0, 228]",228,a,0.2734016999602318,1,colour,0.5,4.0
54,26,0,1,3,3,103,170.22345070005395,171.03198199998587,"[95, 0, 159]",159,l,0.29142099991440773,1,colour,0.5,4.0
54,26,0,1,3,4,104,171.5486077000387,172.55195800005458,"[68, 0, 186]",186,l,0.47180410008877516,1,colour,0.5,4.0
54,26,0,1,3,5,105,173.06562109990045,173.94391170004383,"[89, 0, 165]",165,l,0.3598790999967605,1,colour,0.5,4.0
54,26,0,1,3,6,106,174.45032979990356,176.58395659993403,"[21, 0, 233]",233,a,1.6145798999350518,1,colour,0.5,4.0
54,26,0,1,3,7,107,177.08688120008446,178.24790859990753,"[24, 0, 230]",230,a,0.6524217999540269,1,colour,0.5,4.0
54,26,0,1,3,8,108,178.75453489995562,179.639925400028,"[64, 0, 190]",190,l,0.3723337999545038,1,colour,0.5,4.0
54,26,0,1,3,9,109,180.14924250007607,181.3359564000275,"[19, 0, 235]",235,a,0.6675017001107335,1,colour,0.5,4.0
54,26,0,1,3,10,110,181.84716120013036,182.83196310000494,"[23, 0, 231]",231,a,0.4633710999041796,1,colour,0.5,4.0
54,26,0,1,3,11,111,183.34565149992704,184.17590690008365,"[97, 0, 157]",157,l,0.30733990017324686,1,colour,0.5,4.0
54,26,0,1,3,12,112,184.6893869000487,185.54395830002613,"[60, 0, 194]",194,a,0.33168990002013743,0,colour,0.5,4.0
54,26,0,1,3,13,113,186.06437609996647,186.87993920012377,"[9, 0, 245]",245,a,0.2926281001418829,1,colour,0.5,4.0
54,26,0,1,3,14,114,187.39254619996063,188.18392840004526,"[5, 0, 249]",249,a,0.2686455000657588,1,colour,0.5,4.0
54,26,0,1,3,15,115,188.68940749997273,189.47997480002232,"[29, 0, 225]",225,a,0.26774349994957447,1,colour,0.5,4.0
54,26,0,1,3,16,116,189.98631959990598,190.6159244000446,"[35, 0, 219]",219,a,0.10676439991220832,1,colour,0.5,4.0
54,26,0,1,3,17,117,191.12691459991038,191.91195410001092,"[22, 0, 232]",232,a,0.26220880006439984,1,colour,0.5,4.0
54,26,0,1,3,18,118,192.42388159991242,193.19994479999878,"[20, 0, 234]",234,a,0.2533432999625802,1,colour,0.5,4.0
54,26,0,1,3,19,119,193.72065640008077,194.46390420012176,"[32, 0, 222]",222,a,0.22045120014809072,1,colour,0.5,4.0
54,26,0,1,3,20,120,194.9705727000255,196.14396729995497,"[0, 0, 254]",254,a,0.6504732000175864,1,colour,0.5,4.0
54,26,0,1,3,21,121,196.65815960010514,197.5199293999467,"[86, 0, 168]",168,l,0.3392009998206049,1,colour,0.5,4.0
54,26,0,1,3,22,122,198.0331417999696,198.95993020012975,"[52, 0, 202]",202,l,0.4039724001195282,1,colour,0.5,4.0
54,26,0,1,3,23,123,199.470665599918,200.2639115001075,"[57, 0, 197]",197,a,0.27051690011285245,0,colour,0.5,4.0
54,26,0,1,3,24,124,200.78309980011545,201.61599440011196,"[48, 0, 206]",206,a,0.31002099998295307,1,colour,0.5,4.0
54,26,0,1,3,25,125,202.1269336999394,202.87995969993062,"[25, 0, 229]",229,a,0.23023849981836975,1,colour,0.5,4.0
54,26,0,1,3,26,126,203.39244020008482,204.17597110010684,"[94, 0, 160]",160,l,0.26076450012624264,1,colour,0.5,4.0
54,26,0,1,3,27,127,204.68937440006994,205.66398499999195,"[37, 0, 217]",217,a,0.451727099949494,1,colour,0.5,4.0
54,26,0,1,3,28,128,206.17375280009583,206.9199282999616,"[80, 0, 174]",174,l,0.2241990000475198,1,colour,0.5,4.0
54,26,0,1,3,29,129,207.43938719993457,208.215973299928,"[82, 0, 172]",172,l,0.2541250998619944,1,colour,0.5,4.0
54,26,0,1,3,30,130,208.73620359995402,210.35991020011716,"[56, 0, 198]",198,l,1.1008508000522852,1,colour,0.5,4.0
54,26,0,1,3,31,131,210.8768257999327,211.74396170000546,"[72, 0, 182]",182,l,0.34501380007714033,1,colour,0.5,4.0
54,26,0,1,3,32,132,212.25196100003086,213.0159122000914,"[10, 0, 244]",244,a,0.24133400013670325,1,colour,0.5,4.0
54,26,0,1,3,33,133,213.53321960009634,214.32791540003382,"[92, 0, 162]",162,l,0.2719612999353558,1,colour,0.5,4.0
54,26,0,1,3,34,134,214.8455227999948,215.7919256000314,"[59, 0, 195]",195,l,0.42368300002999604,1,colour,0.5,4.0
54,26,0,1,3,35,135,216.29881850001402,217.0959691000171,"[31, 0, 223]",223,a,0.27486689994111657,1,colour,0.5,4.0
54,26,0,1,3,36,136,217.61121140001342,218.43188740010373,"[70, 0, 184]",184,l,0.2979102001991123,1,colour,0.5,4.0
54,26,0,1,3,37,137,218.93932959996164,219.75989799993113,"[85, 0, 169]",169,l,0.29763579997234046,1,colour,0.5,4.0
54,26,0,1,3,38,138,220.26745799998753,220.9600219000131,"[8, 0, 246]",246,a,0.16973560000769794,1,colour,0.5,4.0
54,26,0,1,3,39,139,221.47063530003652,222.1518755001016,"[78, 0, 176]",176,l,0.15843710000626743,1,colour,0.5,4.0
54,26,0,1,3,40,140,222.6581606999971,223.3919567000121,"[50, 0, 204]",204,a,0.2110802000388503,1,colour,0.5,4.0
54,26,0,1,3,41,141,223.90794289996848,224.591974100098,"[12, 0, 242]",242,a,0.16117910016328096,1,colour,0.5,4.0
54,26,0,1,3,42,142,225.11154680000618,226.32793370005675,"[2, 0, 252]",252,a,0.6939071000088006,1,colour,0.5,4.0
54,26,0,1,3,43,143,226.8455394001212,227.5759415999055,"[33, 0, 221]",221,a,0.20748569979332387,1,colour,0.5,4.0
54,26,0,1,3,44,144,228.0955320999492,228.88796099997126,"[30, 0, 224]",224,a,0.26952879992313683,1,colour,0.5,4.0
54,26,0,1,3,45,145,229.4080928999465,230.1439437000081,"[1, 0, 253]",253,a,0.21308910008519888,1,colour,0.5,4.0
54,26,0,1,3,46,146,230.65804599993862,231.4719511999283,"[74, 0, 180]",180,l,0.29113989998586476,1,colour,0.5,4.0
54,26,0,1,3,47,147,231.98620119993575,232.75995200010948,"[36, 0, 218]",218,l,0.2509107000660151,0,colour,0.5,4.0
54,26,0,1,3,48,148,233.26738350000232,233.97589050000533,"[84, 0, 170]",170,l,0.18615520000457764,1,colour,0.5,4.0
54,26,0,1,3,49,149,234.4861584000755,235.21590550011024,"[99, 0, 155]",155,l,0.20692180003970861,1,colour,0.5,4.0
54,26,0,1,3,50,150,235.73615960008465,236.5119107000064,"[75, 0, 179]",179,l,0.2529013999737799,1,colour,0.5,4.0
54,26,0,1,4,1,151,242.00151160010137,242.88007750012912,"[6, 0, 248]",248,a,0.35497920005582273,1,colour,0.5,4.0
54,26,0,1,4,2,152,243.39292369992472,244.15198460011743,"[74, 0, 180]",180,l,0.23632490006275475,1,colour,0.5,4.0
54,26,0,1,4,3,153,244.65844079991803,245.4399425999727,"[66, 0, 188]",188,l,0.258689499925822,1,colour,0.5,4.0
54,26,0,1,4,4,154,245.95537830004469,246.86407299991697,"[36, 0, 218]",218,a,0.3865698999725282,1,colour,0.5,4.0
54,26,0,1,4,5,155,247.37726119998842,248.16792650008574,"[81, 0, 173]",173,l,0.2677651001140475,1,colour,0.5,4.0
54,26,0,1,4,6,156,248.67415380012244,249.74392600008287,"[90, 0, 164]",164,l,0.546887299977243,1,colour,0.5,4.0
54,26,0,1,4,7,157,250.25224480009638,252.12798779993318,"[54, 0, 200]",200,l,1.3528703998308629,1,colour,0.5,4.0
54,26,0,1,4,8,158,252.64287029998377,253.34390900004655,"[26, 0, 228]",228,a,0.17854969995096326,1,colour,0.5,4.0
54,26,0,1,4,9,159,253.8615888999775,254.6799544999376,"[28, 0, 226]",226,a,0.2954376998823136,1,colour,0.5,4.0
54,26,0,1,4,10,160,255.1898302999325,256.84797540004365,"[55, 0, 199]",199,l,1.1353738000616431,1,colour,0.5,4.0
54,26,0,1,4,11,161,257.36158829997294,258.1999264000915,"[19, 0, 235]",235,a,0.3154269000515342,1,colour,0.5,4.0
54,26,0,1,4,12,162,258.7054119000677,259.4319692000281,"[65, 0, 189]",189,l,0.2037732999306172,1,colour,0.5,4.0
54,26,0,1,4,13,163,259.9398443000391,260.6559832999483,"[43, 0, 211]",211,l,0.1933315999340266,0,colour,0.5,4.0
54,26,0,1,4,14,164,261.17407490010373,261.92795810010284,"[87, 0, 167]",167,l,0.23101350013166666,1,colour,0.5,4.0
54,26,0,1,4,15,165,262.4397730999626,263.023881000001,"[80, 0, 174]",174,l,0.061571799917146564,1,colour,0.5,4.0
54,26,0,1,4,16,166,263.5335419999901,264.26396559993736,"[76, 0, 178]",178,l,0.20772569999098778,1,colour,0.5,4.0
54,26,0,1,4,17,167,264.7834612999577,265.64789850008674,"[41, 0, 213]",213,a,0.35426499997265637,1,colour,0.5,4.0
54,26,0,1,4,18,168,266.1626780999359,267.3999731000513,"[30, 0, 224]",224,a,0.7143284000921994,1,colour,0.5,4.0
54,26,0,1,4,19,169,267.9127386000473,268.7519040000625,"[88, 0, 166]",166,l,0.3162992000579834,1,colour,0.5,4.0
54,26,0,1,4,20,170,269.27202309994027,270.1359401999507,"[9, 0, 245]",245,a,0.3411260999273509,1,colour,0.5,4.0
54,26,0,1,4,21,171,270.6470393000636,271.3279311999213,"[23, 0, 231]",231,a,0.15797699987888336,1,colour,0.5,4.0
54,26,0,1,4,22,172,271.83465309999883,272.71207939996384,"[18, 0, 236]",236,a,0.3546344998758286,1,colour,0.5,4.0
54,26,0,1,4,23,173,273.22516270005144,274.0159740000963,"[84, 0, 170]",170,l,0.26799329998902977,1,colour,0.5,4.0
54,26,0,1,4,24,174,274.5220939000137,277.199917800026,"[1, 0, 253]",253,a,2.155007899971679,1,colour,0.5,4.0
54,26,0,1,4,25,175,277.7095311000012,278.49593239999376,"[63, 0, 191]",191,l,0.2635454998817295,1,colour,0.5,4.0
54,26,0,1,4,26,176,279.0064284999389,279.76793710002676,"[38, 0, 216]",216,a,0.23861730005592108,1,colour,0.5,4.0
54,26,0,1,4,27,177,280.2876879000105,280.9359496999532,"[73, 0, 181]",181,l,0.1254650999326259,1,colour,0.5,4.0
54,26,0,1,4,28,178,281.44386289990507,282.21587869990617,"[89, 0, 165]",165,l,0.24901339993812144,1,colour,0.5,4.0
54,26,0,1,4,29,179,282.7252181000076,283.7759336999152,"[2, 0, 252]",252,a,0.528058499796316,1,colour,0.5,4.0
54,26,0,1,4,30,180,284.28765520011075,285.15194240002893,"[99, 0, 155]",155,l,0.3413565999362618,1,colour,0.5,4.0
54,26,0,1,4,31,181,285.6626196000725,286.55200699996203,"[48, 0, 206]",206,l,0.3663983999285847,0,colour,0.5,4.0
54,26,0,1,4,32,182,287.068904499989,287.7919173000846,"[5, 0, 249]",249,a,0.20009830011986196,1,colour,0.5,4.0
54,26,0,1,4,33,183,288.3032404000405,289.1919162000995,"[51, 0, 203]",203,l,0.36577130015939474,1,colour,0.5,4.0
54,26,0,1,4,34,184,289.7094719999004,290.55995159992017,"[92, 0, 162]",162,l,0.3277286000084132,1,colour,0.5,4.0
54,26,0,1,4,35,185,291.0688658999279,291.8318714001216,"[83, 0, 171]",171,l,0.24006720003671944,1,colour,0.5,4.0
54,26,0,1,4,36,186,292.35013939999044,293.08787419996224,"[56, 0, 198]",198,l,0.2149731998797506,1,colour,0.5,4.0
54,26,0,1,4,37,187,293.59543389989994,294.3678888999857,"[29, 0, 225]",225,a,0.2502131999935955,1,colour,0.5,4.0
54,26,0,1,4,38,188,294.87670590006746,295.6559661999345,"[16, 0, 238]",238,a,0.2569130000192672,1,colour,0.5,4.0
54,26,0,1,4,39,189,296.1736167999916,296.9599081000779,"[10, 0, 244]",244,a,0.26327300001867115,1,colour,0.5,4.0
54,26,0,1,4,40,190,297.4705151999369,298.20792239997536,"[82, 0, 172]",172,l,0.21452310006134212,1,colour,0.5,4.0
54,26,0,1,4,41,191,298.7213363999035,299.27997609996237,"[8, 0, 246]",246,a,0.0365792999509722,1,colour,0.5,4.0
54,26,0,1,4,42,192,299.79867430008017,301.071946100099,"[67, 0, 187]",187,l,0.7504748001229018,1,colour,0.5,4.0
54,26,0,1,4,43,193,301.579905499937,302.3679573999252,"[3, 0, 251]",251,a,0.26503829983994365,1,colour,0.5,4.0
54,26,0,1,4,44,194,302.87676359992474,303.88792950008065,"[61, 0, 193]",193,l,0.4882443000096828,1,colour,0.5,4.0
54,26,0,1,4,45,195,304.40806769998744,305.19991689990275,"[58, 0, 196]",196,l,0.26908959983848035,1,colour,0.5,4.0
54,26,0,1,4,46,196,305.7205105999019,306.50394780002534,"[79, 0, 175]",175,l,0.2610929999500513,1,colour,0.5,4.0
54,26,0,1,4,47,197,307.01741779991426,307.7680351000745,"[7, 0, 247]",247,a,0.23735149996355176,1,colour,0.5,4.0
54,26,0,1,4,48,198,308.2734773999546,308.9279479999095,"[11, 0, 243]",243,a,0.1314757999498397,1,colour,0.5,4.0
54,26,0,1,4,49,199,309.4454141999595,310.1599306999706,"[21, 0, 233]",233,a,0.19158089999109507,1,colour,0.5,4.0
54,26,0,1,4,50,200,310.6798185999505,311.4878909001127,"[34, 0, 220]",220,a,0.2851271000690758,1,colour,0.5,4.0
54,26,0,1,5,1,201,318.17900050012395,319.2399265000131,"[39, 0, 215]",215,l,0.5371834000106901,0,colour,0.5,4.0
54,26,0,1,5,2,202,319.75704580009915,320.5359853999689,"[98, 0, 156]",156,l,0.2560659998562187,1,colour,0.5,4.0
54,26,0,1,5,3,203,321.05390190007165,321.7599295999389,"[7, 0, 247]",247,a,0.18311199988238513,1,colour,0.5,4.0
54,26,0,1,5,4,204,322.27263720007613,323.0799640000332,"[90, 0, 164]",164,l,0.2848817999474704,1,colour,0.5,4.0
54,26,0,1,5,5,205,323.60080170002766,324.3999477000907,"[13, 0, 241]",241,a,0.2762722000479698,1,colour,0.5,4.0
54,26,0,1,5,6,206,324.91323580010794,325.7120074001141,"[82, 0, 172]",172,l,0.2764822000171989,1,colour,0.5,4.0
54,26,0,1,5,7,207,326.22579300007783,326.9519511000253,"[8, 0, 246]",246,a,0.2034638999029994,1,colour,0.5,4.0
54,26,0,1,5,8,208,327.46023699990474,328.4239153000526,"[62, 0, 192]",192,l,0.44105860008858144,1,colour,0.5,4.0
54,26,0,1,5,9,209,328.9445567999501,329.76789600006305,"[64, 0, 190]",190,l,0.30039079999551177,1,colour,0.5,4.0
54,26,0,1,5,10,210,330.28833850007504,331.0558716999367,"[61, 0, 193]",193,l,0.24458299996331334,1,colour,0.5,4.0
54,26,0,1,5,11,211,331.5695237000473,332.5279731999617,"[10, 0, 244]",244,a,0.4356475998647511,1,colour,0.5,4.0
54,26,0,1,5,12,212,333.03825099999085,333.6799036001321,"[66, 0, 188]",188,l,0.11870630015619099,1,colour,0.5,4.0
54,26,0,1,5,13,213,334.1945549999364,335.27991509996355,"[45, 0, 209]",209,l,0.5625169000122696,0,colour,0.5,4.0
54,26,0,1,5,14,214,335.7882636000868,336.5678960001096,"[70, 0, 184]",184,l,0.2567381002008915,1,colour,0.5,4.0
54,26,0,1,5,15,215,337.08512530010194,338.42393620009534,"[99, 0, 155]",155,l,0.815873600076884,1,colour,0.5,4.0
54,26,0,1,5,16,216,338.9445442999713,339.77595090004615,"[81, 0, 173]",173,l,0.3085749000310898,1,colour,0.5,4.0
54,26,0,1,5,17,217,340.288237700006,341.31992399995215,"[73, 0, 181]",181,l,0.5088404000271112,1,colour,0.5,4.0
54,26,0,1,5,18,218,341.8350931000896,344.3839416000992,"[34, 0, 220]",220,a,2.0259271999821067,1,colour,0.5,4.0
54,26,0,1,5,19,219,344.8977274999488,346.032010700088,"[60, 0, 194]",194,l,0.6115057000424713,1,colour,0.5,4.0
54,26,0,1,5,20,220,346.53822609991767,347.48795869993046,"[4, 0, 250]",250,a,0.42685459996573627,1,colour,0.5,4.0
54,26,0,1,5,21,221,348.00704149995,348.8079687000718,"[0, 0, 254]",254,a,0.2780965999700129,1,colour,0.5,4.0
54,26,0,1,5,22,222,349.3194653999526,350.15992529992945,"[89, 0, 165]",165,l,0.31759479991160333,1,colour,0.5,4.0
54,26,0,1,5,23,223,350.6788723000791,352.4399761001114,"[44, 0, 210]",210,a,1.2381655001081526,1,colour,0.5,4.0
54,26,0,1,5,24,224,352.9601324000396,353.67194289993495,"[85, 0, 169]",169,l,0.18889079988002777,1,colour,0.5,4.0
54,26,0,1,5,25,225,354.17870680009946,354.9599037000444,"[12, 0, 242]",242,a,0.2588627999648452,1,colour,0.5,4.0
54,26,0,1,5,26,226,355.4757054001093,357.2639757001307,"[43, 0, 211]",211,a,1.2658202000893652,1,colour,0.5,4.0
54,26,0,1,5,27,227,357.77250079996884,358.5438957000151,"[53, 0, 201]",201,l,0.2484347999561578,1,colour,0.5,4.0
54,26,0,1,5,28,228,359.0539379999973,360.25592159992084,"[26, 0, 228]",228,a,0.6792138000018895,1,colour,0.5,4.0
54,26,0,1,5,29,229,360.7725682000164,361.53591699991375,"[36, 0, 218]",218,a,0.2405212998855859,1,colour,0.5,4.0
54,26,0,1,5,30,230,362.0538214999251,362.5839128999505,"[77, 0, 177]",177,l,0.007244799984619021,1,colour,0.5,4.0
54,26,0,1,5,31,231,363.10066589992493,363.65591660002246,"[79, 0, 175]",175,l,0.03229289990849793,1,colour,0.5,4.0
54,26,0,1,5,32,232,364.1633160999045,364.8799096001312,"[19, 0, 235]",235,a,0.1944565000012517,1,colour,0.5,4.0
54,26,0,1,5,33,233,365.3976195999421,366.2559023001231,"[21, 0, 233]",233,a,0.3354291000869125,1,colour,0.5,4.0
54,26,0,1,5,34,234,366.77253710012883,367.44792270008475,"[63, 0, 191]",191,l,0.15247690002433956,1,colour,0.5,4.0
54,26,0,1,5,35,235,367.96013140003197,368.59992230008356,"[76, 0, 178]",178,l,0.11709600011818111,1,colour,0.5,4.0
54,26,0,1,5,36,236,369.11630850005895,370.1680141000543,"[80, 0, 174]",174,l,0.5288059001322836,1,colour,0.5,4.0
54,26,0,1,5,37,237,370.6788536000531,371.4719251000788,"[71, 0, 183]",183,l,0.2702775001525879,1,colour,0.5,4.0
54,26,0,1,5,38,238,371.99134530010633,372.79196870001033,"[11, 0, 243]",243,a,0.27792149991728365,1,colour,0.5,4.0
54,26,0,1,5,39,239,373.3037616000511,374.03190660011023,"[68, 0, 186]",186,l,0.205205500125885,1,colour,0.5,4.0
54,26,0,1,5,40,240,374.5381700999569,375.42391550005414,"[48, 0, 206]",206,l,0.3628990000579506,0,colour,0.5,4.0
54,26,0,1,5,41,241,375.94437710009515,376.903919900069,"[87, 0, 167]",167,l,0.43655280000530183,1,colour,0.5,4.0
54,26,0,1,5,42,242,377.41310480004176,378.1679181000218,"[15, 0, 239]",239,a,0.231768999947235,1,colour,0.5,4.0
54,26,0,1,5,43,243,378.6788021000102,379.43994050007313,"[9, 0, 245]",245,a,0.23832210013642907,1,colour,0.5,4.0
54,26,0,1,5,44,244,379.96005399990827,380.6559252999723,"[24, 0, 230]",230,a,0.17298360005952418,1,colour,0.5,4.0
54,26,0,1,5,45,245,381.16309790010564,381.7919113000389,"[29, 0, 225]",225,a,0.1057544001378119,1,colour,0.5,4.0
54,26,0,1,5,46,246,382.3037503999658,383.11990920011885,"[6, 0, 248]",248,a,0.2932396000251174,1,colour,0.5,4.0
54,26,0,1,5,47,247,383.63185220002197,384.34392020013183,"[22, 0, 232]",232,a,0.18908950011245906,1,colour,0.5,4.0
54,26,0,1,5,48,248,384.850625900086,385.6639207000844,"[41, 0, 213]",213,a,0.2903342000208795,1,colour,0.5,4.0
54,26,0,1,5,49,249,386.1787404001225,387.03190309996717,"[91, 0, 163]",163,l,0.3301369999535382,1,colour,0.5,4.0
54,26,0,1,5,50,250,387.53818859998137,388.4479358000681,"[96, 0, 158]",158,l,0.38682200014591217,1,colour,0.5,4.0
54,26,0,1,6,1,251,394.8498251000419,395.85591210005805,"[33, 0, 221]",221,l,0.48221349995583296,0,colour,0.5,4.0
54,26,0,1,6,2,252,396.36627100012265,397.21592510002665,"[21, 0, 233]",233,a,0.3268897000234574,1,colour,0.5,4.0
54,26,0,1,6,3,253,397.7256366000511,398.3039160000626,"[95, 0, 159]",159,l,0.05574290012009442,1,colour,0.5,4.0
54,26,0,1,6,4,254,398.81934350007214,399.43993350001983,"[31, 0, 223]",223,a,0.09875259990803897,1,colour,0.5,4.0
54,26,0,1,6,5,255,399.9600655999966,400.5919063000474,"[0, 0, 254]",254,a,0.1089349000249058,1,colour,0.5,4.0
54,26,0,1,6,6,256,401.1006472001318,401.99991940008476,"[11, 0, 243]",243,a,0.37640170007944107,1,colour,0.5,4.0
54,26,0,1,6,7,257,402.50688540004194,403.6639324000571,"[81, 0, 173]",173,l,0.6342106000520289,1,colour,0.5,4.0
54,26,0,1,6,8,258,404.1787294000387,406.62391109997407,"[2, 0, 252]",252,a,1.9224350000731647,1,colour,0.5,4.0
54,26,0,1,6,9,259,407.1316883000545,408.53598739998415,"[10, 0, 244]",244,a,0.8813263999763876,1,colour,0.5,4.0
54,26,0,1,6,10,260,409.0538121999707,409.8638895000331,"[16, 0, 238]",238,a,0.28727339999750257,1,colour,0.5,4.0
54,26,0,1,6,11,261,410.3817700999789,411.4399510000367,"[45, 0, 209]",209,l,0.535137000028044,0,colour,0.5,4.0
54,26,0,1,6,12,262,411.96007220004685,412.95189490006305,"[25, 0, 229]",229,a,0.4695613000076264,1,colour,0.5,4.0
54,26,0,1,6,13,263,413.4599703999702,414.67996939993463,"[86, 0, 168]",168,l,0.6971346999052912,1,colour,0.5,4.0
54,26,0,1,6,14,264,415.1956533000339,416.07992930011824,"[62, 0, 192]",192,l,0.36121390014886856,1,colour,0.5,4.0
54,26,0,1,6,15,265,416.5864848999772,417.9919243999757,"[58, 0, 196]",196,l,0.882441199850291,1,colour,0.5,4.0
54,26,0,1,6,16,266,418.5081952000037,419.4479346999433,"[53, 0, 201]",201,l,0.41688289982266724,1,colour,0.5,4.0
54,26,0,1,6,17,267,419.9614262999967,420.90393169992603,"[96, 0, 158]",158,l,0.41963119991123676,1,colour,0.5,4.0
54,26,0,1,6,18,268,421.4144852999598,422.15992400003597,"[75, 0, 179]",179,l,0.2225136999040842,1,colour,0.5,4.0
54,26,0,1,6,19,269,422.6801859999541,423.42396520008333,"[43, 0, 211]",211,a,0.2208608000073582,1,colour,0.5,4.0
54,26,0,1,6,20,270,423.93018210004084,424.64793769991957,"[82, 0, 172]",172,l,0.19481179979629815,1,colour,0.5,4.0
54,26,0,1,6,21,271,425.1645794000942,426.97600720007904,"[52, 0, 202]",202,l,1.2886125999502838,1,colour,0.5,4.0
54,26,0,1,6,22,272,427.49274179991335,428.49605250009336,"[51, 0, 203]",203,l,0.48081100010313094,1,colour,0.5,4.0
54,26,0,1,6,23,273,429.00831199996173,429.7519088999834,"[17, 0, 237]",237,a,0.22153009986504912,1,colour,0.5,4.0
54,26,0,1,6,24,274,430.2582946999464,431.1919748999644,"[14, 0, 240]",240,a,0.41102939983829856,1,colour,0.5,4.0
54,26,0,1,6,25,275,431.71144079999067,432.59192949999124,"[30, 0, 224]",224,a,0.35771999997086823,1,colour,0.5,4.0
54,26,0,1,6,26,276,433.10215230006725,434.4639385000337,"[50, 0, 204]",204,l,0.8390401999931782,0,colour,0.5,4.0
54,26,0,1,6,27,277,434.9769641999155,435.79993640002795,"[89, 0, 165]",165,l,0.29999379999935627,1,colour,0.5,4.0
54,26,0,1,6,28,278,436.320776599925,436.9759366000071,"[83, 0, 171]",171,l,0.132313699927181,1,colour,0.5,4.0
54,26,0,1,6,29,279,437.49249470001087,438.3919323000591,"[5, 0, 249]",249,a,0.37719630007632077,1,colour,0.5,4.0
54,26,0,1,6,30,280,438.8989542000927,439.5839515000116,"[64, 0, 190]",190,l,0.1622252999804914,1,colour,0.5,4.0
54,26,0,1,6,31,281,440.1019586001057,441.44795989990234,"[27, 0, 227]",227,a,0.8230813997797668,1,colour,0.5,4.0
54,26,0,1,6,32,282,441.96137119992636,442.80794829991646,"[36, 0, 218]",218,a,0.3237012999597937,1,colour,0.5,4.0
54,26,0,1,6,33,283,443.3207318999339,444.4641786001157,"[24, 0, 230]",230,a,0.62056740000844,1,colour,0.5,4.0
54,26,0,1,6,34,284,444.97695609997027,446.0319425999187,"[70, 0, 184]",184,l,0.5321158999577165,1,colour,0.5,4.0
54,26,0,1,6,35,285,446.53952730004676,447.351927800104,"[94, 0, 160]",160,l,0.28959900001063943,1,colour,0.5,4.0
54,26,0,1,6,36,286,447.8676146999933,449.38395290006883,"[54, 0, 200]",200,l,0.9935441000852734,1,colour,0.5,4.0
54,26,0,1,6,37,287,449.8989266001154,450.8079437999986,"[29, 0, 225]",225,a,0.3862644999753684,1,colour,0.5,4.0
54,26,0,1,6,38,288,451.32071730005555,452.7999402000569,"[92, 0, 162]",162,l,0.9563254001550376,1,colour,0.5,4.0
54,26,0,1,6,39,289,453.32072660000995,454.1439267001115,"[88, 0, 166]",166,l,0.30034930002875626,1,colour,0.5,4.0
54,26,0,1,6,40,290,454.66460209991783,455.54392069997266,"[22, 0, 232]",232,a,0.3567208000458777,1,colour,0.5,4.0
54,26,0,1,6,41,291,456.0550764000509,457.64792410004884,"[37, 0, 217]",217,a,1.070124699966982,1,colour,0.5,4.0
54,26,0,1,6,42,292,458.1645243000239,459.1279084999114,"[48, 0, 206]",206,l,0.44067219994030893,0,colour,0.5,4.0
54,26,0,1,6,43,293,459.64890539995395,460.6239523999393,"[47, 0, 207]",207,l,0.45226729987189174,0,colour,0.5,4.0
54,26,0,1,6,44,294,461.1331770999823,461.89590699994005,"[79, 0, 175]",175,l,0.2398333998862654,1,colour,0.5,4.0
54,26,0,1,6,45,295,462.41447590012103,463.1839761999436,"[73, 0, 181]",181,l,0.24662470002658665,1,colour,0.5,4.0
54,26,0,1,6,46,296,463.6956458000932,464.5679210999515,"[65, 0, 189]",189,l,0.34933630004525185,1,colour,0.5,4.0
54,26,0,1,6,47,297,465.0864307000302,466.57594150002114,"[61, 0, 193]",193,l,0.9670629999600351,1,colour,0.5,4.0
54,26,0,1,6,48,298,467.08646979997866,469.2558838000987,"[67, 0, 187]",187,l,1.6470443001016974,1,colour,0.5,4.0
54,26,0,1,6,49,299,469.7738191001117,470.72792050009593,"[20, 0, 234]",234,a,0.4312301999889314,1,colour,0.5,4.0
54,26,0,1,6,50,300,471.2425959999673,472.4959937001113,"[44, 0, 210]",210,a,0.7308869999833405,1,colour,0.5,4.0
54,26,0,1,7,1,301,477.3511473000981,478.19190600002185,"[66, 0, 188]",188,l,0.3170996999833733,1,colour,0.5,3.9
54,26,0,1,7,2,302,478.71117589995265,479.6959462999366,"[47, 0, 207]",207,a,0.4617924999911338,1,colour,0.5,3.9
54,26,0,1,7,3,303,480.2112545000855,481.03989550005645,"[48, 0, 206]",206,a,0.30627780011855066,1,colour,0.5,3.9
54,26,0,1,7,4,304,481.55507680005394,482.5439472999424,"[53, 0, 201]",201,a,0.46617499995045364,0,colour,0.5,3.9
54,26,0,1,7,5,305,483.05505089997314,485.66396789997816,"[49, 0, 205]",205,a,2.0861184999812394,1,colour,0.5,3.9
54,26,0,1,7,6,306,486.18000399996527,486.8719178000465,"[0, 0, 254]",254,a,0.16894040000624955,1,colour,0.5,3.9
54,26,0,1,7,7,307,487.383222799981,487.9439272999298,"[16, 0, 238]",238,a,0.03791389986872673,1,colour,0.5,3.9
54,26,0,1,7,8,308,488.4612090000883,489.4399520000443,"[55, 0, 199]",199,l,0.45584610011428595,1,colour,0.5,3.9
54,26,0,1,7,9,309,489.94567020004615,490.83192920009606,"[31, 0, 223]",223,a,0.36343530006706715,1,colour,0.5,3.9
54,26,0,1,7,10,310,491.3518403999042,492.15186209999956,"[81, 0, 173]",173,l,0.27727749990299344,1,colour,0.5,3.9
54,26,0,1,7,11,311,492.6643946999684,493.9038583000656,"[40, 0, 214]",214,a,0.716560099972412,1,colour,0.5,3.9
54,26,0,1,7,12,312,494.41442929999903,495.41598160006106,"[50, 0, 204]",204,a,0.47873480012640357,1,colour,0.5,3.9
54,26,0,1,7,13,313,495.92993890005164,496.60795779991895,"[84, 0, 170]",170,l,0.1550915997941047,1,colour,0.5,3.9
54,26,0,1,7,14,314,497.1175397001207,497.823896399932,"[67, 0, 187]",187,l,0.18356519984081388,1,colour,0.5,3.9
54,26,0,1,7,15,315,498.33619790012017,499.13595769996755,"[89, 0, 165]",165,l,0.276797299971804,1,colour,0.5,3.9
54,26,0,1,7,16,316,499.6486504001077,500.8399837000761,"[64, 0, 190]",190,l,0.668334900168702,1,colour,0.5,3.9
54,26,0,1,7,17,317,501.35173409990966,502.0079646001104,"[79, 0, 175]",175,l,0.13349170004948974,1,colour,0.5,3.9
54,26,0,1,7,18,318,502.5237475000322,503.37592660007067,"[3, 0, 251]",251,a,0.3294013999402523,1,colour,0.5,3.9
54,26,0,1,7,19,319,503.8830848999787,504.6799258000683,"[2, 0, 252]",252,a,0.2739049999509007,1,colour,0.5,3.9
54,26,0,1,7,20,320,505.1956154999789,506.43195459991693,"[63, 0, 191]",191,l,0.7134269999805838,1,colour,0.5,3.9
54,26,0,1,7,21,321,506.9455603000242,507.96794290002435,"[22, 0, 232]",232,a,0.4995196000672877,1,colour,0.5,3.9
54,26,0,1,7,22,322,508.47684130002744,509.1999403000809,"[65, 0, 189]",189,l,0.20024430006742477,1,colour,0.5,3.9
54,26,0,1,7,23,323,509.71112810005434,510.74395449995063,"[96, 0, 158]",158,l,0.5098855998367071,1,colour,0.5,3.9
54,26,0,1,7,24,324,511.25810600002296,512.3758872000035,"[43, 0, 211]",211,a,0.5950641999952495,1,colour,0.5,3.9
54,26,0,1,7,25,325,512.8830864001065,513.8959552999586,"[61, 0, 193]",193,l,0.49011090002022684,1,colour,0.5,3.9
54,26,0,1,7,26,326,514.4143077000044,515.2639621999115,"[77, 0, 177]",177,l,0.32686729985289276,1,colour,0.5,3.9
54,26,0,1,7,27,327,515.7737269999925,516.5039264000952,"[23, 0, 231]",231,a,0.20742560015060008,1,colour,0.5,3.9
54,26,0,1,7,28,328,517.023654300021,517.7518917000853,"[82, 0, 172]",172,l,0.20531700015999377,1,colour,0.5,3.9
54,26,0,1,7,29,329,518.2580734000076,519.0959449000657,"[29, 0, 225]",225,a,0.31511720013804734,1,colour,0.5,3.9
54,26,0,1,7,30,330,519.6019009000156,521.0798879000358,"[69, 0, 185]",185,a,0.9551713999826461,0,colour,0.5,3.9
54,26,0,1,7,31,331,521.5862779999152,522.7279843001161,"[83, 0, 171]",171,l,0.6194831000175327,1,colour,0.5,3.9
54,26,0,1,7,32,332,523.242516099941,524.2959449999034,"[36, 0, 218]",218,a,0.5307173999026418,1,colour,0.5,3.9
54,26,0,1,7,33,333,524.8050981999841,525.7839170000516,"[93, 0, 161]",161,l,0.45599940000101924,1,colour,0.5,3.9
54,26,0,1,7,34,334,526.2894039000385,527.1519712998997,"[92, 0, 162]",162,l,0.33971669990569353,1,colour,0.5,3.9
54,26,0,1,7,35,335,527.6643614000641,530.5279637000058,"[70, 0, 184]",184,l,2.340671499958262,1,colour,0.5,3.9
54,26,0,1,7,36,336,531.0394353000447,532.039916299982,"[95, 0, 159]",159,l,0.4775801000650972,1,colour,0.5,3.9
54,26,0,1,7,37,337,532.5551619001199,533.4159689999651,"[46, 0, 208]",208,a,0.3380751998629421,1,colour,0.5,3.9
54,26,0,1,7,38,338,533.9302155000623,534.671946000075,"[9, 0, 245]",245,a,0.21896420000120997,1,colour,0.5,3.9
54,26,0,1,7,39,339,535.1801171000116,535.9199296999723,"[14, 0, 240]",240,a,0.21721170004457235,1,colour,0.5,3.9
54,26,0,1,7,40,340,536.4299749999773,537.2399275999051,"[44, 0, 210]",210,a,0.28707399987615645,1,colour,0.5,3.9
54,26,0,1,7,41,341,537.7582988999784,538.5439071001019,"[39, 0, 215]",215,a,0.2628992001991719,1,colour,0.5,3.9
54,26,0,1,7,42,342,539.0551926000044,539.807909599971,"[15, 0, 239]",239,a,0.2299697999842465,1,colour,0.5,3.9
54,26,0,1,7,43,343,540.3208091999404,541.1519136000425,"[19, 0, 235]",235,a,0.30835529998876154,1,colour,0.5,3.9
54,26,0,1,7,44,344,541.6644687000662,542.5359414999839,"[26, 0, 228]",228,a,0.34856979991309345,1,colour,0.5,3.9
54,26,0,1,7,45,345,543.0551026000176,543.9119367001113,"[99, 0, 155]",155,l,0.33403790020383894,1,colour,0.5,3.9
54,26,0,1,7,46,346,544.4301287999842,545.2959658999462,"[20, 0, 234]",234,a,0.3432781998999417,1,colour,0.5,3.9
54,26,0,1,7,47,347,545.8051710999571,546.6399026000872,"[21, 0, 233]",233,a,0.3125613001175225,1,colour,0.5,3.9
54,26,0,1,7,48,348,547.1487797000445,547.9279583001044,"[1, 0, 253]",253,a,0.2561129000969231,1,colour,0.5,3.9
54,26,0,1,7,49,349,548.4457614000421,549.344038200099,"[54, 0, 200]",200,l,0.375514900078997,1,colour,0.5,3.9
54,26,0,1,7,50,350,549.8520486000925,550.7439693999477,"[58, 0, 196]",196,l,0.36929219984449446,1,colour,0.5,3.9
54,26,0,1,8,1,351,556.5085799999069,557.53594229999,"[70, 0, 184]",184,l,0.503997900057584,1,colour,0.5,3.9
54,26,0,1,8,2,352,558.0562726999633,558.8079097999725,"[58, 0, 196]",196,l,0.22879409999586642,1,colour,0.5,3.9
54,26,0,1,8,3,353,559.321792300092,560.1359196000267,"[7, 0, 247]",247,a,0.2911950000561774,1,colour,0.5,3.9
54,26,0,1,8,4,354,560.6499904000666,561.4640554999933,"[53, 0, 201]",201,l,0.29122989997267723,1,colour,0.5,3.9
54,26,0,1,8,5,355,561.9780735999811,562.7839434999041,"[61, 0, 193]",193,l,0.2832260997965932,1,colour,0.5,3.9
54,26,0,1,8,6,356,563.2906243999023,564.2078949001152,"[86, 0, 168]",168,a,0.39441080018877983,0,colour,0.5,3.9
54,26,0,1,8,7,357,564.7288840999827,566.0158786999527,"[0, 0, 254]",254,a,0.7648773998953402,1,colour,0.5,3.9
54,26,0,1,8,8,358,566.5249831001274,567.2639500000514,"[17, 0, 237]",237,a,0.21617190004326403,1,colour,0.5,3.9
54,26,0,1,8,9,359,567.7748910000082,568.6399008000735,"[29, 0, 225]",225,a,0.34214480011723936,1,colour,0.5,3.9
54,26,0,1,8,10,360,569.1499529001303,570.0239128000103,"[25, 0, 229]",229,a,0.3510612000245601,1,colour,0.5,3.9
54,26,0,1,8,11,361,570.5406478999648,571.2399083999917,"[57, 0, 197]",197,l,0.17637100000865757,1,colour,0.5,3.9
54,26,0,1,8,12,362,571.7593477999326,572.6319276001304,"[71, 0, 183]",183,l,0.3499623001553118,1,colour,0.5,3.9
54,26,0,1,8,13,363,573.1500625999179,573.9278682000004,"[10, 0, 244]",244,a,0.2551122000440955,1,colour,0.5,3.9
54,26,0,1,8,14,364,574.4468473999295,575.8959268999752,"[15, 0, 239]",239,a,0.9261942999437451,1,colour,0.5,3.9
54,26,0,1,8,15,365,576.4155777001288,577.2238968999591,"[98, 0, 156]",156,l,0.2853816000279039,1,colour,0.5,3.9
54,26,0,1,8,16,366,577.7437092999462,578.4399135001004,"[93, 0, 161]",161,l,0.17333780019544065,1,colour,0.5,3.9
54,26,0,1,8,17,367,578.9468714001123,579.6799735999666,"[1, 0, 253]",253,a,0.2112958999350667,1,colour,0.5,3.9
54,26,0,1,8,18,368,580.1968330999371,581.1358992999885,"[26, 0, 228]",228,a,0.41622809995897114,1,colour,0.5,3.9
54,26,0,1,8,19,369,581.6499489999842,582.3519224000629,"[18, 0, 236]",236,a,0.1791838000062853,1,colour,0.5,3.9
54,26,0,1,8,20,370,582.8686428999063,583.67199599999,"[49, 0, 205]",205,l,0.2804004999343306,0,colour,0.5,3.9
54,26,0,1,8,21,371,584.181188199902,585.2799210001249,"[16, 0, 238]",238,a,0.5768110000062734,1,colour,0.5,3.9
54,26,0,1,8,22,372,585.7905449999962,587.3999620999675,"[45, 0, 209]",209,a,1.0864957000594586,1,colour,0.5,3.9
54,26,0,1,8,23,373,587.9155564999674,589.8399116001092,"[44, 0, 210]",210,a,1.4014681000262499,1,colour,0.5,3.9
54,26,0,1,8,24,374,590.3530699000694,591.1759087999817,"[66, 0, 188]",188,l,0.2999910998623818,1,colour,0.5,3.9
54,26,0,1,8,25,375,591.6967601000797,593.1039313999936,"[63, 0, 191]",191,l,0.8842275000642985,1,colour,0.5,3.9
54,26,0,1,8,26,376,593.6186611000448,594.6319399001077,"[24, 0, 230]",230,a,0.4903883000370115,1,colour,0.5,3.9
54,26,0,1,8,27,377,595.1498698000796,596.1118699000217,"[91, 0, 163]",163,l,0.43916009995155036,1,colour,0.5,3.9
54,26,0,1,8,28,378,596.6185167001095,597.9039161999244,"[84, 0, 170]",170,l,0.7623284999281168,1,colour,0.5,3.9
54,26,0,1,8,29,379,598.4154588999227,599.264177300036,"[38, 0, 216]",216,a,0.32558170007541776,1,colour,0.5,3.9
54,26,0,1,8,30,380,599.7747919000685,600.6399336999748,"[54, 0, 200]",200,a,0.34226499986834824,0,colour,0.5,3.9
54,26,0,1,8,31,381,601.1499061000068,601.7679075999185,"[36, 0, 218]",218,a,0.09523609979078174,1,colour,0.5,3.9
54,26,0,1,8,32,382,602.2749238999095,604.2879755999893,"[40, 0, 214]",214,a,1.4903040998615324,1,colour,0.5,3.9
54,26,0,1,8,33,383,604.8062060000375,605.695901799947,"[51, 0, 203]",203,a,0.3668817998841405,0,colour,0.5,3.9
54,26,0,1,8,34,384,606.2124515001196,606.8559443000704,"[79, 0, 175]",175,l,0.1207092001568526,1,colour,0.5,3.9
54,26,0,1,8,35,385,607.3685878999531,607.8959276000969,"[52, 0, 202]",202,l,0.004423800157383084,1,colour,0.5,3.9
54,26,0,1,8,36,386,608.4154374001082,609.0479135999922,"[28, 0, 226]",226,a,0.1096087999176234,1,colour,0.5,3.9
54,26,0,1,8,37,387,609.5561456999276,610.2078937999904,"[83, 0, 171]",171,l,0.12885099998675287,1,colour,0.5,3.9
54,26,0,1,8,38,388,610.7279330000747,611.4719225999434,"[46, 0, 208]",208,a,0.22102899989113212,1,colour,0.5,3.9
54,26,0,1,8,39,389,611.9779860000126,612.8079466999043,"[31, 0, 223]",223,a,0.30710599990561604,1,colour,0.5,3.9
54,26,0,1,8,40,390,613.3228670000099,614.0959499001037,"[19, 0, 235]",235,a,0.25025490019470453,1,colour,0.5,3.9
54,26,0,1,8,41,391,614.6040302000474,615.408005699981,"[78, 0, 176]",176,l,0.2811082999687642,1,colour,0.5,3.9
54,26,0,1,8,42,392,615.916535000084,616.8879497000016,"[64, 0, 190]",190,l,0.4486147998832166,1,colour,0.5,3.9
54,26,0,1,8,43,393,617.4009181000292,618.2239083999302,"[69, 0, 185]",185,l,0.30014969990588725,1,colour,0.5,3.9
54,26,0,1,8,44,394,618.7446155000944,619.5039131001104,"[12, 0, 242]",242,a,0.23634410020895302,1,colour,0.5,3.9
54,26,0,1,8,45,395,620.0103136000689,621.1919078000356,"[95, 0, 159]",159,a,0.6592016001231968,0,colour,0.5,3.9
54,26,0,1,8,46,396,621.6978138000704,622.351894200081,"[76, 0, 178]",178,l,0.13119290000759065,1,colour,0.5,3.9
54,26,0,1,8,47,397,622.8696554000489,623.4159514000639,"[22, 0, 232]",232,a,0.02337380009703338,1,colour,0.5,3.9
54,26,0,1,8,48,398,623.9321306000929,624.7439439999871,"[27, 0, 227]",227,a,0.289626199984923,1,colour,0.5,3.9
54,26,0,1,8,49,399,625.2602679999545,625.8399221999571,"[73, 0, 181]",181,l,0.056867499835789204,1,colour,0.5,3.9
54,26,0,1,8,50,400,626.3540896000341,627.7119303999934,"[97, 0, 157]",157,l,0.8349283998832107,1,colour,0.5,3.9
54,26,0,1,9,1,401,639.6970111001283,641.3519417999778,"[70, 0, 184]",184,l,1.1317350000608712,1,colour,0.5,3.9
54,26,0,1,9,2,402,641.8697397001088,643.1439622000325,"[42, 0, 212]",212,a,0.7513902001082897,1,colour,0.5,3.9
54,26,0,1,9,3,403,643.6509503999259,644.343950800132,"[53, 0, 201]",201,a,0.17018320015631616,0,colour,0.5,3.9
54,26,0,1,9,4,404,644.8540858000051,645.639896000037,"[54, 0, 200]",200,a,0.2628878001123667,0,colour,0.5,3.9
54,26,0,1,9,5,405,646.1509338999167,646.8958980999887,"[39, 0, 215]",215,a,0.22209009993821383,1,colour,0.5,3.9
54,26,0,1,9,6,406,647.4163921999279,648.1999975000508,"[8, 0, 246]",246,a,0.2607047001365572,1,colour,0.5,3.9
54,26,0,1,9,7,407,648.7134291999973,649.4399343999103,"[66, 0, 188]",188,l,0.20441229990683496,1,colour,0.5,3.9
54,26,0,1,9,8,408,649.9478339001071,650.9039028999396,"[19, 0, 235]",235,a,0.4332736998330802,1,colour,0.5,3.9
54,26,0,1,9,9,409,651.416542199906,652.2879592999816,"[11, 0, 243]",243,a,0.3486845998559147,1,colour,0.5,3.9
54,26,0,1,9,10,410,652.7949789999984,653.7199073000811,"[7, 0, 247]",247,a,0.40145660005509853,1,colour,0.5,3.9
54,26,0,1,9,11,411,654.2337456000969,655.0639448999427,"[18, 0, 236]",236,a,0.30753370001912117,1,colour,0.5,3.9
54,26,0,1,9,12,412,655.5804081999231,656.4559259999078,"[67, 0, 187]",187,l,0.3653773998375982,1,colour,0.5,3.9
54,26,0,1,9,13,413,656.9738833000883,658.1119071999565,"[78, 0, 176]",176,l,0.6150348999071866,1,colour,0.5,3.9
54,26,0,1,9,14,414,658.6302014999092,659.5119177999441,"[86, 0, 168]",168,l,0.3587887999601662,1,colour,0.5,3.9
54,26,0,1,9,15,415,660.0207533999346,660.7918924000114,"[74, 0, 180]",180,l,0.24817280005663633,1,colour,0.5,3.9
54,26,0,1,9,16,416,661.3021406999324,661.9758806999307,"[79, 0, 175]",175,l,0.15083619998767972,1,colour,0.5,3.9
54,26,0,1,9,17,417,662.4897078999784,663.351912900107,"[63, 0, 191]",191,l,0.3394220001064241,1,colour,0.5,3.9
54,26,0,1,9,18,418,663.8647942000534,665.0079566000495,"[57, 0, 197]",197,a,0.6204892001114786,0,colour,0.5,3.9
54,26,0,1,9,19,419,665.5209407999646,666.3119002000894,"[99, 0, 155]",155,l,0.2685373001731932,1,colour,0.5,3.9
54,26,0,1,9,20,420,666.8177390000783,667.6319011999294,"[26, 0, 228]",228,a,0.2913220999762416,1,colour,0.5,3.9
54,26,0,1,9,21,421,668.1459218999371,668.9999077001121,"[81, 0, 173]",173,l,0.3311369000002742,1,colour,0.5,3.9
54,26,0,1,9,22,422,669.5208213999867,670.7198860000353,"[27, 0, 227]",227,a,0.6761304999236017,1,colour,0.5,3.9
54,26,0,1,9,23,423,671.2396193000022,672.1758735000622,"[12, 0, 242]",242,a,0.4133464000187814,1,colour,0.5,3.9
54,26,0,1,9,24,424,672.6926957999822,673.6400091999676,"[45, 0, 209]",209,a,0.42470309999771416,1,colour,0.5,3.9
54,26,0,1,9,25,425,674.1458896000404,674.9358979000244,"[83, 0, 171]",171,l,0.2671266000252217,1,colour,0.5,3.9
54,26,0,1,9,26,426,675.442794200033,676.8959017000161,"[51, 0, 203]",203,a,0.9304541999008507,0,colour,0.5,3.9
54,26,0,1,9,27,427,677.4114713999443,678.407904899912,"[96, 0, 158]",158,l,0.4734877999871969,1,colour,0.5,3.9
54,26,0,1,9,28,428,678.927123399917,680.3199364000466,"[80, 0, 174]",174,l,0.8699219000991434,1,colour,0.5,3.9
54,26,0,1,9,29,429,680.8333099000156,681.6798797000665,"[47, 0, 207]",207,a,0.323712500045076,1,colour,0.5,3.9
54,26,0,1,9,30,430,682.1927074999548,683.5040090000257,"[52, 0, 202]",202,a,0.7887170000467449,0,colour,0.5,3.9
54,26,0,1,9,31,431,684.020813900046,684.8640042000916,"[98, 0, 156]",156,l,0.32027390017174184,1,colour,0.5,3.9
54,26,0,1,9,32,432,685.3802042999305,686.5679134000093,"[21, 0, 233]",233,a,0.6648033000528812,1,colour,0.5,3.9
54,26,0,1,9,33,433,687.0833324999548,687.9199040001258,"[34, 0, 220]",220,a,0.31375810015015304,1,colour,0.5,3.9
54,26,0,1,9,34,434,688.4271529999096,689.2559923001099,"[92, 0, 162]",162,l,0.30650340020656586,1,colour,0.5,3.9
54,26,0,1,9,35,435,689.7708173999563,690.6641798999626,"[20, 0, 234]",234,a,0.37050359998829663,1,colour,0.5,3.9
54,26,0,1,9,36,436,691.1770393000916,691.9519162999932,"[88, 0, 166]",166,l,0.251992299919948,1,colour,0.5,3.9
54,26,0,1,9,37,437,692.458371500019,693.5839660000056,"[40, 0, 214]",214,a,0.6028448001015931,1,colour,0.5,3.9
54,26,0,1,9,38,438,694.0988731000107,694.903988200007,"[65, 0, 189]",189,l,0.2823586999438703,1,colour,0.5,3.9
54,26,0,1,9,39,439,695.411300699925,696.2239435999654,"[25, 0, 229]",229,a,0.28973790002055466,1,colour,0.5,3.9
54,26,0,1,9,40,440,696.7395071999636,697.5838796000462,"[6, 0, 248]",248,a,0.3214235999621451,1,colour,0.5,3.9
54,26,0,1,9,41,441,698.0988988999743,698.8879321999848,"[0, 0, 254]",254,a,0.2659205000381917,1,colour,0.5,3.9
54,26,0,1,9,42,442,699.3957827000413,700.1519585000351,"[48, 0, 206]",206,a,0.23316540010273457,1,colour,0.5,3.9
54,26,0,1,9,43,443,700.6614812999032,701.5118788001128,"[94, 0, 160]",160,l,0.32750750007107854,1,colour,0.5,3.9
54,26,0,1,9,44,444,702.0209697000682,702.9039221000858,"[91, 0, 163]",163,l,0.36058720014989376,1,colour,0.5,3.9
54,26,0,1,9,45,445,703.4114934999961,704.1519696000032,"[93, 0, 161]",161,l,0.21763140009716153,1,colour,0.5,3.9
54,26,0,1,9,46,446,704.6615098000038,705.4239036999643,"[1, 0, 253]",253,a,0.2405586999375373,1,colour,0.5,3.9
54,26,0,1,9,47,447,705.9427726001013,707.2799106000457,"[4, 0, 250]",250,a,0.8145775001030415,1,colour,0.5,3.9
54,26,0,1,9,48,448,707.7864904999733,708.5759564999025,"[10, 0, 244]",244,a,0.26659029978327453,1,colour,0.5,3.9
54,26,0,1,9,49,449,709.0832521000411,709.9359504999593,"[24, 0, 230]",230,a,0.32974989991635084,1,colour,0.5,3.9
54,26,0,1,9,50,450,710.4425836000592,711.3759113000706,"[44, 0, 210]",210,a,0.4104915000498295,1,colour,0.5,3.9
54,26,0,1,10,1,451,716.2232002001256,717.14397189999,"[85, 0, 169]",169,l,0.3971017999574542,1,colour,0.5,3.9
54,26,0,1,10,2,452,717.6614812000189,718.6399205999915,"[97, 0, 157]",157,l,0.4555848999880254,1,colour,0.5,3.9
54,26,0,1,10,3,453,719.1458380001131,719.879900699947,"[27, 0, 227]",227,a,0.21114999987185,1,colour,0.5,3.9
54,26,0,1,10,4,454,720.3956385999918,721.5999886000063,"[59, 0, 195]",195,a,0.6813739999197423,0,colour,0.5,3.9
54,26,0,1,10,5,455,722.1145896001253,723.2559521000367,"[46, 0, 208]",208,a,0.6185232000425458,1,colour,0.5,3.9
54,26,0,1,10,6,456,723.7708262000233,724.3359121000394,"[54, 0, 200]",200,a,0.04219299997203052,0,colour,0.5,3.9
54,26,0,1,10,7,457,724.8488890998997,725.8079327999149,"[63, 0, 191]",191,l,0.4364632999058813,1,colour,0.5,3.9
54,26,0,1,10,8,458,726.3176869000308,727.1199515000917,"[11, 0, 243]",243,a,0.28025160008110106,1,colour,0.5,3.9
54,26,0,1,10,9,459,727.630135100102,728.4159027999267,"[87, 0, 167]",167,l,0.2627488998696208,1,colour,0.5,3.9
54,26,0,1,10,10,460,728.9270546000917,729.647919200128,"[9, 0, 245]",245,a,0.19796730019152164,1,colour,0.5,3.9
54,26,0,1,10,11,461,730.161490400089,731.039878099924,"[94, 0, 160]",160,l,0.3555385998915881,1,colour,0.5,3.9
54,26,0,1,10,12,462,731.5521033001132,732.5999418001156,"[35, 0, 219]",219,a,0.5250525001902133,1,colour,0.5,3.9
54,26,0,1,10,13,463,733.1146003999747,733.9998780000024,"[75, 0, 179]",179,l,0.36242219991981983,1,colour,0.5,3.9
54,26,0,1,10,14,464,734.5052346000448,735.5679290001281,"[93, 0, 161]",161,l,0.5399096000473946,1,colour,0.5,3.9
54,26,0,1,10,15,465,736.0833209000994,736.9278921999503,"[37, 0, 217]",217,a,0.3218568000011146,1,colour,0.5,3.9
54,26,0,1,10,16,466,737.4426772000734,738.2879222999327,"[56, 0, 198]",198,a,0.3224710999056697,0,colour,0.5,3.9
54,26,0,1,10,17,467,738.8020391999744,739.6959607000463,"[50, 0, 204]",204,a,0.3710153999272734,1,colour,0.5,3.9
54,26,0,1,10,18,468,740.2082732999697,740.9758969999384,"[21, 0, 233]",233,a,0.24480280000716448,1,colour,0.5,3.9
54,26,0,1,10,19,469,741.4895103001036,742.4478585999459,"[32, 0, 222]",222,a,0.4354959998745471,1,colour,0.5,3.9
54,26,0,1,10,20,470,742.9583048999775,743.7839166999329,"[67, 0, 187]",187,l,0.3033455000258982,1,colour,0.5,3.9
54,26,0,1,10,21,471,744.3020560001023,745.2719318999443,"[6, 0, 248]",248,a,0.4470499998424202,1,colour,0.5,3.9
54,26,0,1,10,22,472,745.7863875001203,746.5198999000713,"[17, 0, 237]",237,a,0.21062980010174215,1,colour,0.5,3.9
54,26,0,1,10,23,473,747.0363559999969,747.7679240999278,"[42, 0, 212]",212,a,0.20867289998568594,1,colour,0.5,3.9
54,26,0,1,10,24,474,748.2864187001251,749.0559060000814,"[70, 0, 184]",184,l,0.2466374000068754,1,colour,0.5,3.9
54,26,0,1,10,25,475,749.5676551999059,750.8559161999729,"[34, 0, 220]",220,a,0.7653713000472635,1,colour,0.5,3.9
54,26,0,1,10,26,476,751.3645168000367,752.1759415001143,"[44, 0, 210]",210,a,0.28854930005036294,1,colour,0.5,3.9
54,26,0,1,10,27,477,752.6926758000627,753.5039349000435,"[68, 0, 186]",186,l,0.28865030012093484,1,colour,0.5,3.9
54,26,0,1,10,28,478,754.0207386999391,754.8879267999437,"[29, 0, 225]",225,a,0.34440899989567697,1,colour,0.5,3.9
54,26,0,1,10,29,479,755.3957545999438,756.1998821999878,"[36, 0, 218]",218,a,0.281238199910149,1,colour,0.5,3.9
54,26,0,1,10,30,480,756.7082917001098,757.4719390999526,"[40, 0, 214]",214,a,0.24086429993622005,1,colour,0.5,3.9
54,26,0,1,10,31,481,757.9894065000117,758.7919366999995,"[45, 0, 209]",209,a,0.2794862000737339,1,colour,0.5,3.9
54,26,0,1,10,32,482,759.30202380009,760.1279017000925,"[72, 0, 182]",182,l,0.30296400003135204,1,colour,0.5,3.9
54,26,0,1,10,33,483,760.645949699916,761.4799297000282,"[88, 0, 166]",166,l,0.31133699999190867,1,colour,0.5,3.9
54,26,0,1,10,34,484,761.9896170999855,762.847921699984,"[58, 0, 196]",196,a,0.3354942000005394,0,colour,0.5,3.9
54,26,0,1,10,35,485,763.3645983999595,764.2479515001178,"[81, 0, 173]",173,l,0.36052400013431907,1,colour,0.5,3.9
54,26,0,1,10,36,486,764.755240400089,765.5599060000386,"[22, 0, 232]",232,a,0.2817967999726534,1,colour,0.5,3.9
54,26,0,1,10,37,487,766.0677575999871,767.1359586000908,"[62, 0, 192]",192,l,0.545379500137642,1,colour,0.5,3.9
54,26,0,1,10,38,488,767.6458282000385,768.3919071999844,"[18, 0, 236]",236,a,0.22327249986119568,1,colour,0.5,3.9
54,26,0,1,10,39,489,768.9113117000088,769.7439037000295,"[0, 0, 254]",254,a,0.3096122001297772,1,colour,0.5,3.9
54,26,0,1,10,40,490,770.2552430999931,771.0959379000124,"[8, 0, 246]",246,a,0.31788509991019964,1,colour,0.5,3.9
54,26,0,1,10,41,491,771.6146533000283,772.439891200047,"[25, 0, 229]",229,a,0.3024458000436425,1,colour,0.5,3.9
54,26,0,1,10,42,492,772.9583515999839,773.815917900065,"[39, 0, 215]",215,a,0.33554730005562305,1,colour,0.5,3.9
54,26,0,1,10,43,493,774.3332855000626,775.1279096000362,"[96, 0, 158]",158,l,0.2717802000697702,1,colour,0.5,3.9
54,26,0,1,10,44,494,775.6458389000036,776.4879083000124,"[99, 0, 155]",155,l,0.3192712999880314,1,colour,0.5,3.9
54,26,0,1,10,45,495,777.0051374000032,777.8238816999365,"[79, 0, 175]",175,l,0.29657879984006286,1,colour,0.5,3.9
54,26,0,1,10,46,496,778.3332245000638,779.1759150999133,"[24, 0, 230]",230,a,0.3198418999090791,1,colour,0.5,3.9
54,26,0,1,10,47,497,779.6927094999701,780.5359139000066,"[49, 0, 205]",205,a,0.32057529990561306,1,colour,0.5,3.9
54,26,0,1,10,48,498,781.0519175000954,782.0719717999455,"[66, 0, 188]",188,l,0.4970159998629242,1,colour,0.5,3.9
54,26,0,1,10,49,499,782.5833125000354,783.455928399926,"[61, 0, 193]",193,l,0.35028489981777966,1,colour,0.5,3.9
54,26,0,1,10,50,500,783.9739127000794,784.6719883000478,"[71, 0, 183]",183,l,0.17517550010234118,1,colour,0.5,3.9
54,26,0,1,11,1,501,790.2544021001086,790.8878868999891,"[74, 0, 180]",180,l,0.10988619993440807,1,colour,0.5,3.9
54,26,0,1,11,2,502,791.3958076999988,792.0879472999368,"[11, 0, 243]",243,a,0.16937709995545447,1,colour,0.5,3.9
54,26,0,1,11,3,503,792.5988404001109,793.4879183999728,"[45, 0, 209]",209,a,0.3661474999971688,1,colour,0.5,3.9
54,26,0,1,11,4,504,794.0051496999804,794.6558958000969,"[35, 0, 219]",219,a,0.12786280014552176,1,colour,0.5,3.9
54,26,0,1,11,5,505,795.1613656999543,796.4638984000776,"[54, 0, 200]",200,a,0.7800479000434279,0,colour,0.5,3.9
54,26,0,1,11,6,506,796.974030100042,798.1198792001233,"[81, 0, 173]",173,l,0.6230740000028163,1,colour,0.5,3.9
54,26,0,1,11,7,507,798.6302390999626,799.375900400104,"[22, 0, 232]",232,a,0.22290400019846857,1,colour,0.5,3.9
54,26,0,1,11,8,508,799.8957593999803,800.9360376999248,"[13, 0, 241]",241,a,0.5174384999554604,1,colour,0.5,3.9
54,26,0,1,11,9,509,801.4426303000655,802.711951199919,"[73, 0, 181]",181,l,0.7465110998600721,1,colour,0.5,3.9
54,26,0,1,11,10,510,803.2238169000484,804.9279000000097,"[71, 0, 183]",183,l,1.1811810000799596,1,colour,0.5,3.9
54,26,0,1,11,11,511,805.4425655999221,806.599922100082,"[53, 0, 201]",201,a,0.6346152999904007,0,colour,0.5,3.9
54,26,0,1,11,12,512,807.1145419001114,808.0318700999487,"[84, 0, 170]",170,l,0.39483550004661083,1,colour,0.5,3.9
54,26,0,1,11,13,513,808.5520415999927,809.4958774000406,"[20, 0, 234]",234,a,0.42133929999545217,1,colour,0.5,3.9
54,26,0,1,11,14,514,810.0050945000257,810.8719009999186,"[82, 0, 172]",172,l,0.34398879995569587,1,colour,0.5,3.9
54,26,0,1,11,15,515,811.3801055999938,812.3278956001159,"[75, 0, 179]",179,l,0.4249808001331985,1,colour,0.5,3.9
54,26,0,1,11,16,516,812.8495682999492,813.6079450000543,"[24, 0, 230]",230,a,0.2361687000375241,1,colour,0.5,3.9
54,26,0,1,11,17,517,814.1143734999932,815.247925600037,"[0, 0, 254]",254,a,0.6105676000006497,1,colour,0.5,3.9
54,26,0,1,11,18,518,815.7551243999042,816.8239241000265,"[68, 0, 186]",186,l,0.5459449999034405,1,colour,0.5,3.9
54,26,0,1,11,19,519,817.3331629999448,818.287909500068,"[31, 0, 223]",223,a,0.4318763001356274,1,colour,0.5,3.9
54,26,0,1,11,20,520,818.801952800015,819.671906700125,"[4, 0, 250]",250,a,0.34711710014380515,1,colour,0.5,3.9
54,26,0,1,11,21,521,820.1925900001079,820.9839534999337,"[43, 0, 211]",211,a,0.2686021998524666,1,colour,0.5,3.9
54,26,0,1,11,22,522,821.4894117999356,822.2959191999398,"[38, 0, 216]",216,a,0.28360729990527034,1,colour,0.5,3.9
54,26,0,1,11,23,523,822.8019966001157,823.5999193000607,"[18, 0, 236]",236,a,0.2750876001082361,1,colour,0.5,3.9
54,26,0,1,11,24,524,824.1144723999314,824.9759772000834,"[14, 0, 240]",240,a,0.3386293000075966,1,colour,0.5,3.9
54,26,0,1,11,25,525,825.4894846000243,826.0958626999054,"[90, 0, 164]",164,l,0.08436019998043776,1,colour,0.5,3.9
54,26,0,1,11,26,526,826.6145085999742,827.4078891999088,"[78, 0, 176]",176,l,0.27055269991979003,1,colour,0.5,3.9
54,26,0,1,11,27,527,827.9270027000457,828.9679221000988,"[58, 0, 196]",196,l,0.5181919999886304,1,colour,0.5,3.9
54,26,0,1,11,28,528,829.473779699998,830.279990100069,"[36, 0, 218]",218,a,0.2833535000681877,1,colour,0.5,3.9
54,26,0,1,11,29,529,830.7863690000959,831.4718867000192,"[44, 0, 210]",210,a,0.1626881998963654,1,colour,0.5,3.9
54,26,0,1,11,30,530,831.9894125999417,832.7359050000086,"[3, 0, 251]",251,a,0.22362380009144545,1,colour,0.5,3.9
54,26,0,1,11,31,531,833.2550119999796,834.0799072999507,"[70, 0, 184]",184,l,0.3020403999835253,1,colour,0.5,3.9
54,26,0,1,11,32,532,834.5987259999383,835.6799755999818,"[48, 0, 206]",206,l,0.5583653999492526,0,colour,0.5,3.9
54,26,0,1,11,33,533,836.1925188000314,836.9839063999243,"[62, 0, 192]",192,l,0.26856649992987514,1,colour,0.5,3.9
54,26,0,1,11,34,534,837.5049578000326,838.3119499001186,"[83, 0, 171]",171,l,0.2847321000881493,1,colour,0.5,3.9
54,26,0,1,11,35,535,838.8331850999966,839.719926699996,"[93, 0, 161]",161,l,0.3639805999118835,1,colour,0.5,3.9
54,26,0,1,11,36,536,840.239462699974,841.1919209999032,"[97, 0, 157]",157,l,0.4296315999235958,1,colour,0.5,3.9
54,26,0,1,11,37,537,841.7081971999723,842.4719927001279,"[91, 0, 163]",163,l,0.24101980007253587,1,colour,0.5,3.9
54,26,0,1,11,38,538,842.9894346999936,843.8079037999269,"[66, 0, 188]",188,l,0.2956900999415666,1,colour,0.5,3.9
54,26,0,1,11,39,539,844.317564399913,845.4879582000431,"[15, 0, 239]",239,a,0.6475366000086069,1,colour,0.5,3.9
54,26,0,1,11,40,540,846.0049997000024,847.1999516999349,"[51, 0, 203]",203,a,0.6722672998439521,0,colour,0.5,3.9
54,26,0,1,11,41,541,847.7082309001125,848.4638728999998,"[25, 0, 229]",229,a,0.23291560006327927,1,colour,0.5,3.9
54,26,0,1,11,42,542,848.9737154999748,849.7519167999271,"[55, 0, 199]",199,a,0.25528509984724224,0,colour,0.5,3.9
54,26,0,1,11,43,543,850.2706037000753,851.0159080000594,"[39, 0, 215]",215,a,0.2227138001471758,1,colour,0.5,3.9
54,26,0,1,11,44,544,851.5363113000058,852.3439537000377,"[50, 0, 204]",204,a,0.2848310999106616,1,colour,0.5,3.9
54,26,0,1,11,45,545,852.8644918999635,853.7119199000299,"[94, 0, 160]",160,l,0.3246361999772489,1,colour,0.5,3.9
54,26,0,1,11,46,546,854.2237317000981,855.0318726999685,"[19, 0, 235]",235,a,0.2852423000149429,1,colour,0.5,3.9
54,26,0,1,11,47,547,855.551833699923,856.3679674000014,"[95, 0, 159]",159,l,0.2932861000299454,1,colour,0.5,3.9
54,26,0,1,11,48,548,856.8799926000647,857.735875000013,"[9, 0, 245]",245,a,0.33300330000929534,1,colour,0.5,3.9
54,26,0,1,11,49,549,858.2551228001248,859.3039412000217,"[26, 0, 228]",228,a,0.5261834000702947,1,colour,0.5,3.9
54,26,0,1,11,50,550,859.8174598000478,860.8719160000328,"[34, 0, 220]",220,a,0.5314722000621259,1,colour,0.5,3.9
54,26,0,1,12,1,551,866.3478486000095,867.119876800105,"[85, 0, 169]",169,l,0.2482831000816077,1,colour,0.5,3.9
54,26,0,1,12,2,552,867.6299350999761,868.4159007000271,"[76, 0, 178]",178,l,0.2630330000538379,1,colour,0.5,3.9
54,26,0,1,12,3,553,868.9267674000002,869.5279630001169,"[15, 0, 239]",239,a,0.07835160009562969,1,colour,0.5,3.9
54,26,0,1,12,4,554,870.0361921999138,870.8318875001278,"[17, 0, 237]",237,a,0.2728245002217591,1,colour,0.5,3.9
54,26,0,1,12,5,555,871.3485566999298,872.5599164001178,"[12, 0, 242]",242,a,0.6883584000170231,1,colour,0.5,3.9
54,26,0,1,12,6,556,873.0674537001178,873.8079140000045,"[25, 0, 229]",229,a,0.21764079993590713,1,colour,0.5,3.9
54,26,0,1,12,7,557,874.3173410999589,874.9679175999481,"[72, 0, 182]",182,l,0.12788319983519614,1,colour,0.5,3.9
54,26,0,1,12,8,558,875.4736804000568,877.4879155000672,"[42, 0, 212]",212,a,1.491357099963352,1,colour,0.5,3.9
54,26,0,1,12,9,559,878.0049070999958,880.1359292000998,"[52, 0, 202]",202,a,1.6081412001512945,0,colour,0.5,3.9
54,26,0,1,12,10,560,880.6455190000124,881.3918840000406,"[2, 0, 252]",252,a,0.22406859998591244,1,colour,0.5,3.9
54,26,0,1,12,11,561,881.9110365000088,882.7599275999237,"[38, 0, 216]",216,a,0.3258353997953236,1,colour,0.5,3.9
54,26,0,1,12,12,562,883.2706220000982,884.1119880999904,"[23, 0, 231]",231,a,0.31853599986061454,1,colour,0.5,3.9
54,26,0,1,12,13,563,884.6299322000705,885.6319401001092,"[56, 0, 198]",198,a,0.47906550019979477,0,colour,0.5,3.9
54,26,0,1,12,14,564,886.1456381999888,886.9278969001025,"[55, 0, 199]",199,a,0.25932130008004606,0,colour,0.5,3.9
54,26,0,1,12,15,565,887.442452599993,888.3518771999516,"[29, 0, 225]",225,a,0.38663279986940324,1,colour,0.5,3.9
54,26,0,1,12,16,566,888.8643682000693,889.6639773000497,"[27, 0, 227]",227,a,0.27672620001249015,1,colour,0.5,3.9
54,26,0,1,12,17,567,890.1768446001224,891.1199505999684,"[46, 0, 208]",208,a,0.4205197000410408,1,colour,0.5,3.9
54,26,0,1,12,18,568,891.6299676001072,892.8159177999478,"[51, 0, 203]",203,l,0.6630365999881178,1,colour,0.5,3.9
54,26,0,1,12,19,569,893.3330697000492,894.6482891000342,"[48, 0, 206]",206,l,0.7923934999853373,0,colour,0.5,3.9
54,26,0,1,12,20,570,895.1612454999704,895.8879305999726,"[87, 0, 167]",167,l,0.20395909994840622,1,colour,0.5,3.9
54,26,0,1,12,21,571,896.3955159001052,897.3279538999777,"[43, 0, 211]",211,a,0.40953890001401305,1,colour,0.5,3.9
54,26,0,1,12,22,572,897.8486627000384,898.647912699962,"[67, 0, 187]",187,l,0.27696199994534254,1,colour,0.5,3.9
54,26,0,1,12,23,573,899.1611717001069,900.3839342999272,"[94, 0, 160]",160,l,0.6998581998050213,1,colour,0.5,3.9
54,26,0,1,12,24,574,900.8955743000843,901.7199621999171,"[89, 0, 165]",165,l,0.3021346000023186,1,colour,0.5,3.9
54,26,0,1,12,25,575,902.2393398000859,903.0639059999958,"[68, 0, 186]",186,l,0.3018050000537187,1,colour,0.5,3.9
54,26,0,1,12,26,576,903.5830854000524,904.3358843999449,"[74, 0, 180]",180,l,0.23002499993890524,1,colour,0.5,3.9
54,26,0,1,12,27,577,904.8486329000443,905.5918833999895,"[82, 0, 172]",172,l,0.22039370005950332,1,colour,0.5,3.9
54,26,0,1,12,28,578,906.0986584001221,907.0559143000282,"[45, 0, 209]",209,l,0.43437470006756485,0,colour,0.5,3.9
54,26,0,1,12,29,579,907.5674362999853,908.4079152001068,"[92, 0, 162]",162,l,0.31764929997734725,1,colour,0.5,3.9
54,26,0,1,12,30,580,908.926818799926,909.503914500121,"[30, 0, 224]",224,a,0.05450820014812052,1,colour,0.5,3.9
54,26,0,1,12,31,581,910.0205743000843,910.6559019999113,"[69, 0, 185]",185,l,0.11253419984132051,1,colour,0.5,3.9
54,26,0,1,12,32,582,911.1768334000371,912.9999277000315,"[3, 0, 251]",251,a,1.3004222000017762,1,colour,0.5,3.9
54,26,0,1,12,33,583,913.5205157999881,914.343953399919,"[98, 0, 156]",156,l,0.30062519991770387,1,colour,0.5,3.9
54,26,0,1,12,34,584,914.8643275001086,915.7119352999143,"[7, 0, 247]",247,a,0.3247233999427408,1,colour,0.5,3.9
54,26,0,1,12,35,585,916.2236379000824,917.0559791999403,"[93, 0, 161]",161,l,0.3095972998999059,1,colour,0.5,3.9
54,26,0,1,12,36,586,917.5674604000524,918.4078730000183,"[22, 0, 232]",232,a,0.31761089991778135,1,colour,0.5,3.9
54,26,0,1,12,37,587,918.9267019999679,919.8719635000452,"[33, 0, 221]",221,l,0.4224748001433909,0,colour,0.5,3.9
54,26,0,1,12,38,588,920.3799082001206,921.2719183000736,"[53, 0, 201]",201,a,0.36914960015565157,0,colour,0.5,3.9
54,26,0,1,12,39,589,921.786125899991,922.639915100066,"[99, 0, 155]",155,l,0.33080360013991594,1,colour,0.5,3.9
54,26,0,1,12,40,590,923.1462968999986,924.4079505999107,"[50, 0, 204]",204,a,0.739575799787417,1,colour,0.5,3.9
54,26,0,1,12,41,591,924.9266991999466,925.9199306000955,"[18, 0, 236]",236,a,0.4705411000177264,1,colour,0.5,3.9
54,26,0,1,12,42,592,926.426692100009,927.2558812999632,"[9, 0, 245]",245,a,0.3069710999261588,1,colour,0.5,3.9
54,26,0,1,12,43,593,927.7705357999075,928.5598943999503,"[26, 0, 228]",228,a,0.26653330004774034,1,colour,0.5,3.9
54,26,0,1,12,44,594,929.0673382000532,929.8479224001057,"[63, 0, 191]",191,l,0.25773110007867217,1,colour,0.5,3.9
54,26,0,1,12,45,595,930.3641721000895,931.1999598999973,"[49, 0, 205]",205,l,0.3128575999289751,0,colour,0.5,3.9
54,26,0,1,12,46,596,931.7078762999736,932.5919403999578,"[64, 0, 190]",190,l,0.36107779992744327,1,colour,0.5,3.9
54,26,0,1,12,47,597,933.09856640012,934.0078958000522,"[40, 0, 214]",214,a,0.38646039995364845,1,colour,0.5,3.9
54,26,0,1,12,48,598,934.5205860999413,935.1359077000525,"[65, 0, 189]",189,l,0.0926026999950409,1,colour,0.5,3.9
54,26,0,1,12,49,599,935.6455516000278,937.0719335000031,"[88, 0, 166]",166,l,0.9035493000410497,1,colour,0.5,3.9
54,26,0,1,12,50,600,937.5829676000867,938.4399306001142,"[13, 0, 241]",241,a,0.334199600154534,1,colour,0.5,3.9
54,26,0,1,13,1,601,943.2540208999999,943.9761427000631,"[57, 0, 197]",197,l,0.19846009998582304,1,colour,0.5,3.9
54,26,0,1,13,2,602,944.4892303999513,945.1918883000035,"[60, 0, 194]",194,l,0.1798513000831008,1,colour,0.5,3.9
54,26,0,1,13,3,603,945.7079451000318,946.4399361000396,"[8, 0, 246]",246,a,0.2091238999273628,1,colour,0.5,3.9
54,26,0,1,13,4,604,946.957926900126,947.8079423001036,"[11, 0, 243]",243,a,0.32788240001536906,1,colour,0.5,3.9
54,26,0,1,13,5,605,948.3172971000895,949.2879492999054,"[1, 0, 253]",253,a,0.44785070000216365,1,colour,0.5,3.9
54,26,0,1,13,6,606,949.801692500012,950.7199391999748,"[64, 0, 190]",190,l,0.39542159996926785,1,colour,0.5,3.9
54,26,0,1,13,7,607,951.2392035999801,954.4159703000914,"[85, 0, 169]",169,l,2.6539734001271427,1,colour,0.5,3.9
54,26,0,1,13,8,608,954.9266705999617,955.7919847001322,"[61, 0, 193]",193,l,0.34257960016839206,1,colour,0.5,3.9
54,26,0,1,13,9,609,956.3016902001109,957.0959123000503,"[65, 0, 189]",189,l,0.2713623000308871,1,colour,0.5,3.9
54,26,0,1,13,10,610,957.6142784999683,958.3279569000006,"[80, 0, 174]",174,l,0.19087009993381798,1,colour,0.5,3.9
54,26,0,1,13,11,611,958.8483363001142,959.591901600128,"[78, 0, 176]",176,l,0.22054520016536117,1,colour,0.5,3.9
54,26,0,1,13,12,612,960.0986071000807,961.023898200132,"[53, 0, 201]",201,l,0.40255800005979836,1,colour,0.5,3.9
54,26,0,1,13,13,613,961.5361417001113,962.4719221999403,"[7, 0, 247]",247,a,0.41382659994997084,1,colour,0.5,3.9
54,26,0,1,13,14,614,962.9892243000213,963.7519153999165,"[34, 0, 220]",220,a,0.24000939982943237,1,colour,0.5,3.9
54,26,0,1,13,15,615,964.2703772000968,965.0319038999733,"[56, 0, 198]",198,l,0.23868149984627962,1,colour,0.5,3.9
54,26,0,1,13,16,616,965.5516057000495,966.2959420999978,"[42, 0, 212]",212,l,0.22141649993136525,0,colour,0.5,3.9
54,26,0,1,13,17,617,966.8016353999265,968.1199261001311,"[38, 0, 216]",216,a,0.7964125000871718,1,colour,0.5,3.9
54,26,0,1,13,18,618,968.629786600126,969.2879097000696,"[83, 0, 171]",171,l,0.1353148000780493,1,colour,0.5,3.9
54,26,0,1,13,19,619,969.8016286999919,970.6079069999978,"[40, 0, 214]",214,a,0.2834075998980552,1,colour,0.5,3.9
54,26,0,1,13,20,620,971.1141530000605,971.8959041000344,"[62, 0, 192]",192,l,0.25886450009420514,1,colour,0.5,3.9
54,26,0,1,13,21,621,972.4110290999524,973.3519711000845,"[39, 0, 215]",215,a,0.41818789998069406,1,colour,0.5,3.9
54,26,0,1,13,22,622,973.8641480000224,974.6318930999842,"[41, 0, 213]",213,a,0.24489349988289177,1,colour,0.5,3.9
54,26,0,1,13,23,623,975.145369600039,976.0399035001174,"[90, 0, 164]",164,l,0.37173770018853247,1,colour,0.5,3.9
54,26,0,1,13,24,624,976.5516455001198,977.3039231000002,"[26, 0, 228]",228,a,0.2294260999187827,1,colour,0.5,3.9
54,26,0,1,13,25,625,977.8171059000306,978.5999336000532,"[6, 0, 248]",248,a,0.25989390001632273,1,colour,0.5,3.9
54,26,0,1,13,26,626,979.1141564000864,979.9199485999998,"[67, 0, 187]",187,l,0.2831129999831319,1,colour,0.5,3.9
54,26,0,1,13,27,627,980.4265862000175,981.1839042999782,"[27, 0, 227]",227,a,0.23491850006394088,1,colour,0.5,3.9
54,26,0,1,13,28,628,981.6922500000801,982.599899899913,"[45, 0, 209]",209,a,0.384871699847281,1,colour,0.5,3.9
54,26,0,1,13,29,629,983.1140731999185,983.9519605000969,"[98, 0, 156]",156,l,0.31488830014131963,1,colour,0.5,3.9
54,26,0,1,13,30,630,984.4578164999839,985.3039086000063,"[32, 0, 222]",222,a,0.32320400001481175,1,colour,0.5,3.9
54,26,0,1,13,31,631,985.8172411001287,986.5599501000252,"[66, 0, 188]",188,l,0.2199027999304235,1,colour,0.5,3.9
54,26,0,1,13,32,632,987.0672208000906,987.8879680999089,"[87, 0, 167]",167,l,0.29795149993151426,1,colour,0.5,3.9
54,26,0,1,13,33,633,988.3953807000071,989.9999647000805,"[49, 0, 205]",205,l,1.0820272001437843,0,colour,0.5,3.9
54,26,0,1,13,34,634,990.5203676999081,991.3678751001135,"[81, 0, 173]",173,l,0.3246721001341939,1,colour,0.5,3.9
54,26,0,1,13,35,635,991.8797238999978,992.8639223999344,"[46, 0, 208]",208,l,0.46137089980766177,0,colour,0.5,3.9
54,26,0,1,13,36,636,993.3797110999003,994.2239127000794,"[88, 0, 166]",166,l,0.32138910004869103,1,colour,0.5,3.9
54,26,0,1,13,37,637,994.7390797999687,995.3758737000171,"[79, 0, 175]",175,l,0.11388209997676313,1,colour,0.5,3.9
54,26,0,1,13,38,638,995.8953670000192,996.6639251001179,"[93, 0, 161]",161,l,0.24575280002318323,1,colour,0.5,3.9
54,26,0,1,13,39,639,997.1765801000874,998.2159188000951,"[51, 0, 203]",203,a,0.516838800162077,0,colour,0.5,3.9
54,26,0,1,13,40,640,998.7234740999993,999.3439521999098,"[43, 0, 211]",211,a,0.09762709983624518,1,colour,0.5,3.9
54,26,0,1,13,41,641,999.8640499000903,1000.5438773999922,"[13, 0, 241]",241,l,0.15684959990903735,0,colour,0.5,3.9
54,26,0,1,13,42,642,1001.0515461999457,1002.0159434000961,"[47, 0, 207]",207,a,0.44233320001512766,1,colour,0.5,3.9
54,26,0,1,13,43,643,1002.5359032000415,1003.4159095999785,"[3, 0, 251]",251,a,0.3571254999842495,1,colour,0.5,3.9
54,26,0,1,13,44,644,1003.9265694001224,1004.8399686999619,"[17, 0, 237]",237,a,0.390730399871245,1,colour,0.5,3.9
54,26,0,1,13,45,645,1005.3485038999934,1006.143878400093,"[95, 0, 159]",159,l,0.27262530010193586,1,colour,0.5,3.9
54,26,0,1,13,46,646,1006.6609519000631,1007.4720231001265,"[23, 0, 231]",231,a,0.2886216000188142,1,colour,0.5,3.9
54,26,0,1,13,47,647,1007.9890453000553,1009.0079590000678,"[48, 0, 206]",206,l,0.49611059995368123,0,colour,0.5,3.9
54,26,0,1,13,48,648,1009.5203023001086,1010.2159315000754,"[24, 0, 230]",230,a,0.17286460008472204,1,colour,0.5,3.9
54,26,0,1,13,49,649,1010.7233647000976,1011.479927400127,"[70, 0, 184]",184,l,0.2337643001228571,1,colour,0.5,3.9
54,26,0,1,13,50,650,1011.9890437000431,1012.8159097000025,"[97, 0, 157]",157,l,0.3040455000009388,1,colour,0.5,3.9
54,26,0,1,14,1,651,1020.722587000113,1021.8159348999616,"[38, 0, 216]",216,l,0.5697625000029802,0,colour,0.5,3.9
54,26,0,1,14,2,652,1022.3326449999586,1023.1519228001125,"[20, 0, 234]",234,a,0.2937231999821961,1,colour,0.5,3.9
54,26,0,1,14,3,653,1023.6634371001273,1024.9278788999654,"[8, 0, 246]",246,a,0.7415813999250531,1,colour,0.5,3.9
54,26,0,1,14,4,654,1025.4445954000112,1026.2639351999387,"[2, 0, 252]",252,a,0.2963799999561161,1,colour,0.5,3.9
54,26,0,1,14,5,655,1026.7727638999932,1027.6479942000005,"[27, 0, 227]",227,a,0.3523524000775069,1,colour,0.5,3.9
54,26,0,1,14,6,656,1028.163449499989,1028.9678702000529,"[57, 0, 197]",197,l,0.2815648000687361,1,colour,0.5,3.9
54,26,0,1,14,7,657,1029.475857200101,1031.3840058001224,"[58, 0, 196]",196,l,1.3857302002143115,1,colour,0.5,3.9
54,26,0,1,14,8,658,1031.8977459999733,1032.7919145000633,"[15, 0, 239]",239,a,0.371252000099048,1,colour,0.5,3.9
54,26,0,1,14,9,659,1033.3039591000415,1034.0719449000899,"[97, 0, 157]",157,l,0.24508040002547204,1,colour,0.5,3.9
54,26,0,1,14,10,660,1034.5852403999306,1035.375973599963,"[85, 0, 169]",169,l,0.26788149983622134,1,colour,0.5,3.9
54,26,0,1,14,11,661,1035.8820879000705,1036.6079698000103,"[71, 0, 183]",183,l,0.2031290999148041,1,colour,0.5,3.9
54,26,0,1,14,12,662,1037.1164375999942,1037.9279622000176,"[10, 0, 244]",244,a,0.2886020001024008,1,colour,0.5,3.9
54,26,0,1,14,13,663,1038.444445699919,1039.3599253001157,"[7, 0, 247]",247,a,0.39244540012441576,1,colour,0.5,3.9
54,26,0,1,14,14,664,1039.866489399923,1041.0719095999375,"[99, 0, 155]",155,l,0.6826315999496728,1,colour,0.5,3.9
54,26,0,1,14,15,665,1041.5852294000797,1042.7199711001012,"[88, 0, 166]",166,l,0.611884200014174,1,colour,0.5,3.9
54,26,0,1,14,16,666,1043.225796099985,1045.1839529999997,"[48, 0, 206]",206,l,1.4353110999800265,0,colour,0.5,3.9
54,26,0,1,14,17,667,1045.6946696999948,1047.191931300098,"[68, 0, 186]",186,l,0.9747790000401437,1,colour,0.5,3.9
54,26,0,1,14,18,668,1047.7101892000064,1049.135960200103,"[52, 0, 202]",202,l,0.9031058000400662,1,colour,0.5,3.9
54,26,0,1,14,19,669,1049.6477922999766,1050.295924700098,"[70, 0, 184]",184,l,0.1252051000483334,1,colour,0.5,3.9
54,26,0,1,14,20,670,1050.8039915999398,1052.3039289000444,"[41, 0, 213]",213,a,0.9771956999320537,1,colour,0.5,3.9
54,26,0,1,14,21,671,1052.8195651001297,1055.1279180999845,"[39, 0, 215]",215,a,1.7855398000683635,1,colour,0.5,3.9
54,26,0,1,14,22,672,1055.647678700043,1056.8480013001245,"[98, 0, 156]",156,l,0.6773797001224011,1,colour,0.5,3.9
54,26,0,1,14,23,673,1057.366429500049,1057.9519229000434,"[44, 0, 210]",210,l,0.06301979999989271,0,colour,0.5,3.9
54,26,0,1,14,24,674,1058.4601807000581,1059.4959456000943,"[66, 0, 188]",188,l,0.5131193001288921,1,colour,0.5,3.9
54,26,0,1,14,25,675,1060.0070420999546,1061.0879585999064,"[96, 0, 158]",158,l,0.5580679997801781,1,colour,0.5,3.9
54,26,0,1,14,26,676,1061.6007626999635,1062.3839475000277,"[69, 0, 185]",185,l,0.260279499925673,1,colour,0.5,3.9
54,26,0,1,14,27,677,1062.8976199999452,1063.6799141000956,"[61, 0, 193]",193,l,0.2594236000441015,1,colour,0.5,3.9
54,26,0,1,14,28,678,1064.194559799973,1065.4639395000413,"[4, 0, 250]",250,a,0.7464453000575304,1,colour,0.5,3.9
54,26,0,1,14,29,679,1065.9758383999579,1067.1039496001322,"[23, 0, 231]",231,a,0.6054466001223773,1,colour,0.5,3.9
54,26,0,1,14,30,680,1067.6164124000352,1068.6399058001116,"[76, 0, 178]",178,l,0.5006168000400066,1,colour,0.5,3.9
54,26,0,1,14,31,681,1069.147743199952,1070.071888500126,"[31, 0, 223]",223,a,0.4012335001025349,1,colour,0.5,3.9
54,26,0,1,14,32,682,1070.5851273001172,1071.647937899921,"[37, 0, 217]",217,a,0.5393949998542666,1,colour,0.5,3.9
54,26,0,1,14,33,683,1072.1657455000095,1073.3679285999388,"[56, 0, 198]",198,a,0.6746553999837488,0,colour,0.5,3.9
54,26,0,1,14,34,684,1073.876259099925,1074.6319424000103,"[19, 0, 235]",235,a,0.22667409991845489,1,colour,0.5,3.9
54,26,0,1,14,35,685,1075.1385097999591,1076.039921199903,"[81, 0, 173]",173,l,0.3826720998622477,1,colour,0.5,3.9
54,26,0,1,14,36,686,1076.5533356999513,1077.607931100065,"[77, 0, 177]",177,l,0.530146999983117,1,colour,0.5,3.9
54,26,0,1,14,37,687,1078.1115743000992,1079.0958650000393,"[12, 0, 242]",242,a,0.47592599992640316,1,colour,0.5,3.9
54,26,0,1,14,38,688,1079.613270800095,1080.6959547000006,"[47, 0, 207]",207,a,0.5742754000239074,1,colour,0.5,3.9
54,26,0,1,14,39,689,1081.2043767999858,1082.05591190001,"[1, 0, 253]",253,a,0.32043009996414185,1,colour,0.5,3.9
54,26,0,1,14,40,690,1082.5597157999873,1083.4319128000643,"[11, 0, 243]",243,a,0.34569970006123185,1,colour,0.5,3.9
54,26,0,1,14,41,691,1083.9491353000049,1086.1041067000479,"[22, 0, 232]",232,a,1.6324863000772893,1,colour,0.5,3.9
54,26,0,1,14,42,692,1086.6209603999741,1087.6879090000875,"[64, 0, 190]",190,l,0.5443886001594365,1,colour,0.5,3.9
54,26,0,1,14,43,693,1088.1991449999623,1089.11997530004,"[78, 0, 176]",176,l,0.398017100058496,1,colour,0.5,3.9
54,26,0,1,14,44,694,1089.6366095999256,1090.5679701999761,"[63, 0, 191]",191,l,0.40845620003528893,1,colour,0.5,3.9
54,26,0,1,14,45,695,1091.0740863999818,1091.791912100045,"[82, 0, 172]",172,l,0.1949116000905633,1,colour,0.5,3.9
54,26,0,1,14,46,696,1092.30843929993,1093.2559247000609,"[49, 0, 205]",205,a,0.4246080000884831,1,colour,0.5,3.9
54,26,0,1,14,47,697,1093.7615658000577,1094.6639302000403,"[24, 0, 230]",230,a,0.37937370012514293,1,colour,0.5,3.9
54,26,0,1,14,48,698,1095.1835294999182,1096.0958954999223,"[17, 0, 237]",237,a,0.3899970999918878,1,colour,0.5,3.9
54,26,0,1,14,49,699,1096.6053665999789,1097.4319231999107,"[92, 0, 162]",162,l,0.30368489981628954,1,colour,0.5,3.9
54,26,0,1,14,50,700,1097.949040000094,1098.687938200077,"[93, 0, 161]",161,l,0.2158665000461042,1,colour,0.5,3.9
54,26,0,1,15,1,701,1104.760797600029,1106.6561857999768,"[57, 0, 197]",197,l,1.371741099981591,1,colour,0.5,3.8
54,26,0,1,15,2,702,1107.1678627000656,1108.807994700037,"[7, 0, 247]",247,a,1.1179746999405324,1,colour,0.5,3.8
54,26,0,1,15,3,703,1109.3240338999312,1110.671960900072,"[68, 0, 186]",186,l,0.8249956001527607,1,colour,0.5,3.8
54,26,0,1,15,4,704,1111.1834448000882,1112.1678798000794,"[40, 0, 214]",214,a,0.46160820010118186,1,colour,0.5,3.8
54,26,0,1,15,5,705,1112.6834122000728,1113.967973999912,"[79, 0, 175]",175,l,0.7617118998896331,1,colour,0.5,3.8
54,26,0,1,15,6,706,1114.4802902000956,1115.648008899996,"[1, 0, 253]",253,a,0.6448540000710636,1,colour,0.5,3.8
54,26,0,1,15,7,707,1116.167778900126,1117.6959496999625,"[47, 0, 207]",207,l,1.0052964000497013,0,colour,0.5,3.8
54,26,0,1,15,8,708,1118.2147065999452,1119.3279613999184,"[42, 0, 212]",212,l,0.5903596999123693,0,colour,0.5,3.8
54,26,0,1,15,9,709,1119.839698099997,1120.783976299921,"[14, 0, 240]",240,a,0.42138700000941753,1,colour,0.5,3.8
54,26,0,1,15,10,710,1121.2927729999647,1121.9040433000773,"[20, 0, 234]",234,a,0.08838640013709664,1,colour,0.5,3.8
54,26,0,1,15,11,711,1122.417717000004,1122.97592170001,"[26, 0, 228]",228,a,0.035258099902421236,1,colour,0.5,3.8
54,26,0,1,15,12,712,1123.495984399924,1124.8479852001183,"[50, 0, 204]",204,l,0.8292326000519097,0,colour,0.5,3.8
54,26,0,1,15,13,713,1125.3553084000014,1126.5119477000553,"[35, 0, 219]",219,a,0.6337981000542641,1,colour,0.5,3.8
54,26,0,1,15,14,714,1127.027170599904,1127.903924500104,"[89, 0, 165]",165,l,0.3539404000621289,1,colour,0.5,3.8
54,26,0,1,15,15,715,1128.41776630003,1129.3279607000295,"[53, 0, 201]",201,l,0.38729500002227724,1,colour,0.5,3.8
54,26,0,1,15,16,716,1129.839646599954,1130.5599066000432,"[46, 0, 208]",208,l,0.19736859994009137,0,colour,0.5,3.8
54,26,0,1,15,17,717,1131.0739901000634,1131.919907500036,"[60, 0, 194]",194,l,0.3230057000182569,1,colour,0.5,3.8
54,26,0,1,15,18,718,1132.433462599991,1133.3039255999029,"[91, 0, 163]",163,l,0.34788699983619153,1,colour,0.5,3.8
54,26,0,1,15,19,719,1133.8239587000571,1134.887944899965,"[44, 0, 210]",210,a,0.5410535000264645,1,colour,0.5,3.8
54,26,0,1,15,20,720,1135.4021127999295,1136.4719420999754,"[78, 0, 176]",176,l,0.5473050000146031,1,colour,0.5,3.8
54,26,0,1,15,21,721,1136.9801847001072,1138.1199686999898,"[84, 0, 170]",170,l,0.6168351999949664,1,colour,0.5,3.8
54,26,0,1,15,22,722,1138.6364625999704,1139.3838859999087,"[74, 0, 180]",180,l,0.22451689979061484,1,colour,0.5,3.8
54,26,0,1,15,23,723,1139.9020543999504,1140.9919549999759,"[17, 0, 237]",237,a,0.5669406000524759,1,colour,0.5,3.8
54,26,0,1,15,24,724,1141.5115386999678,1142.3199573000893,"[76, 0, 178]",178,l,0.28560240007936954,1,colour,0.5,3.8
54,26,0,1,15,25,725,1142.839536299929,1143.8799340000842,"[10, 0, 244]",244,a,0.5181799000129104,1,colour,0.5,3.8
54,26,0,1,15,26,726,1144.3864941999782,1145.2159232001286,"[48, 0, 206]",206,l,0.30661510000936687,0,colour,0.5,3.8
54,26,0,1,15,27,727,1145.7301797000691,1147.5039463001303,"[77, 0, 177]",177,l,1.2507923000957817,1,colour,0.5,3.8
54,26,0,1,15,28,728,1148.0113683000673,1149.1439513999503,"[37, 0, 217]",217,a,0.6096240999177098,1,colour,0.5,3.8
54,26,0,1,15,29,729,1149.652156499913,1150.3839545999654,"[73, 0, 181]",181,l,0.20896039996296167,1,colour,0.5,3.8
54,26,0,1,15,30,730,1150.902034800034,1152.2959141999017,"[94, 0, 160]",160,l,0.8709815999027342,1,colour,0.5,3.8
54,26,0,1,15,31,731,1152.8083313000388,1154.3439736000728,"[19, 0, 235]",235,a,1.012776599964127,1,colour,0.5,3.8
54,26,0,1,15,32,732,1154.855253299931,1155.7999076000415,"[70, 0, 184]",184,l,0.4218055000528693,1,colour,0.5,3.8
54,26,0,1,15,33,733,1156.308338999981,1157.2799188999925,"[85, 0, 169]",169,l,0.44872680003754795,1,colour,0.5,3.8
54,26,0,1,15,34,734,1157.792634200072,1158.6959440999199,"[34, 0, 220]",220,a,0.38052110001444817,1,colour,0.5,3.8
54,26,0,1,15,35,735,1159.2146769999526,1160.191917499993,"[8, 0, 246]",246,a,0.4543397999368608,1,colour,0.5,3.8
54,26,0,1,15,36,736,1160.6989100999199,1161.551992099965,"[97, 0, 157]",157,l,0.330240499926731,1,colour,0.5,3.8
54,26,0,1,15,37,737,1162.0583341999445,1162.807912700111,"[96, 0, 158]",158,l,0.2267848001793027,1,colour,0.5,3.8
54,26,0,1,15,38,738,1163.3239426999353,1164.2799213000108,"[13, 0, 241]",241,a,0.4331672000698745,1,colour,0.5,3.8
54,26,0,1,15,39,739,1164.792683900101,1166.431933700107,"[30, 0, 224]",224,a,1.1165641001425683,1,colour,0.5,3.8
54,26,0,1,15,40,740,1166.948837700067,1167.7599393001292,"[80, 0, 174]",174,l,0.28814270021393895,1,colour,0.5,3.8
54,26,0,1,15,41,741,1168.276981800096,1169.5199331999756,"[51, 0, 203]",203,l,0.7201173999346793,1,colour,0.5,3.8
54,26,0,1,15,42,742,1170.0270456001163,1171.0879975999705,"[22, 0, 232]",232,a,0.5382795999757946,1,colour,0.5,3.8
54,26,0,1,15,43,743,1171.6051040999591,1172.7119074000511,"[83, 0, 171]",171,l,0.5845186000224203,1,colour,0.5,3.8
54,26,0,1,15,44,744,1173.2301433999091,1174.0879109001253,"[93, 0, 161]",161,l,0.33483500010333955,1,colour,0.5,3.8
54,26,0,1,15,45,745,1174.6051537999883,1175.6959279000293,"[41, 0, 213]",213,a,0.5679530999623239,1,colour,0.5,3.8
54,26,0,1,15,46,746,1176.2144663999788,1177.1919331999961,"[12, 0, 242]",242,a,0.4545261000748724,1,colour,0.5,3.8
54,26,0,1,15,47,747,1177.6989100000355,1178.687963000033,"[87, 0, 167]",167,l,0.4661695999093354,1,colour,0.5,3.8
54,26,0,1,15,48,748,1179.1988015999086,1184.943980799988,"[45, 0, 209]",209,a,5.222729200031608,1,colour,0.5,3.8
54,26,0,1,15,49,749,1185.464522199938,1186.4639244000427,"[88, 0, 166]",166,l,0.4764767999295145,1,colour,0.5,3.8
54,26,0,1,15,50,750,1186.9801115998998,1187.8480332999025,"[27, 0, 227]",227,a,0.34577799984253943,1,colour,0.5,3.8
54,26,0,1,16,1,751,1192.3074656000827,1194.5039665000513,"[65, 0, 189]",189,l,1.672949600033462,1,colour,0.5,3.8
54,26,0,1,16,2,752,1195.0113470000215,1195.8879084999207,"[92, 0, 162]",162,l,0.3536918999161571,1,colour,0.5,3.8
54,26,0,1,16,3,753,1196.4019830001052,1197.343903100118,"[55, 0, 199]",199,l,0.41905740019865334,1,colour,0.5,3.8
54,26,0,1,16,4,754,1197.8550843999255,1198.903930200031,"[68, 0, 186]",186,l,0.5259271999821067,1,colour,0.5,3.8
54,26,0,1,16,5,755,1199.4176525000948,1200.383950300049,"[15, 0, 239]",239,a,0.4435175000689924,1,colour,0.5,3.8
54,26,0,1,16,6,756,1200.9019416999072,1201.8558906000108,"[27, 0, 227]",227,a,0.43115380010567605,1,colour,0.5,3.8
54,26,0,1,16,7,757,1202.3707024999894,1204.1679299001116,"[53, 0, 201]",201,a,1.2743345000781119,0,colour,0.5,3.8
54,26,0,1,16,8,758,1204.6831773999147,1205.6559154000133,"[87, 0, 167]",167,l,0.44979549990966916,1,colour,0.5,3.8
54,26,0,1,16,9,759,1206.1675764000975,1207.0799179000314,"[24, 0, 230]",230,a,0.3894762999843806,1,colour,0.5,3.8
54,26,0,1,16,10,760,1207.5894887000322,1208.423924200004,"[32, 0, 222]",222,a,0.311667799949646,1,colour,0.5,3.8
54,26,0,1,16,11,761,1208.9332155999728,1211.0399048000108,"[4, 0, 250]",250,a,1.5838985000737011,1,colour,0.5,3.8
54,26,0,1,16,12,762,1211.5580851999111,1212.6318707999308,"[90, 0, 164]",164,l,0.5508166998624802,1,colour,0.5,3.8
54,26,0,1,16,13,763,1213.1519541000016,1213.8639412999619,"[26, 0, 228]",228,a,0.1891290999483317,1,colour,0.5,3.8
54,26,0,1,16,14,764,1214.3706477999222,1215.063969800016,"[5, 0, 249]",249,a,0.17048959992825985,1,colour,0.5,3.8
54,26,0,1,16,15,765,1215.5737922000699,1216.3919057000894,"[76, 0, 178]",178,l,0.29529230017215014,1,colour,0.5,3.8
54,26,0,1,16,16,766,1216.9019082000013,1217.4638976000715,"[82, 0, 172]",172,l,0.03919450007379055,1,colour,0.5,3.8
54,26,0,1,16,17,767,1217.9801308999304,1218.9039435999002,"[91, 0, 163]",163,l,0.4009363998193294,1,colour,0.5,3.8
54,26,0,1,16,18,768,1219.4176698999945,1220.7439500999171,"[71, 0, 183]",183,l,0.8045006999745965,1,colour,0.5,3.8
54,26,0,1,16,19,769,1221.2614067001268,1222.1919110999443,"[17, 0, 237]",237,a,0.4076505999546498,1,colour,0.5,3.8
54,26,0,1,16,20,770,1222.6987908999436,1223.5599402999505,"[20, 0, 234]",234,a,0.3381888000294566,1,colour,0.5,3.8
54,26,0,1,16,21,771,1224.0738540999591,1225.5679949999321,"[54, 0, 200]",200,l,0.9712628999259323,1,colour,0.5,3.8
54,26,0,1,16,22,772,1226.0738230000716,1227.8958990999963,"[85, 0, 169]",169,a,1.2991696998942643,0,colour,0.5,3.8
54,26,0,1,16,23,773,1228.4019802999683,1229.6239189999178,"[38, 0, 216]",216,a,0.6991070997901261,1,colour,0.5,3.8
54,26,0,1,16,24,774,1230.1363820000552,1231.2799343001097,"[57, 0, 197]",197,l,0.6206806001719087,1,colour,0.5,3.8
54,26,0,1,16,25,775,1231.79262130009,1232.8479411001317,"[6, 0, 248]",248,a,0.5326665001921356,1,colour,0.5,3.8
54,26,0,1,16,26,776,1233.355098000029,1234.2398979000282,"[10, 0, 244]",244,a,0.36183109995909035,1,colour,0.5,3.8
54,26,0,1,16,27,777,1234.7457389000338,1235.6079017999582,"[7, 0, 247]",247,a,0.3392996999900788,1,colour,0.5,3.8
54,26,0,1,16,28,778,1236.1207389000338,1237.311996600125,"[60, 0, 194]",194,l,0.6684889001771808,1,colour,0.5,3.8
54,26,0,1,16,29,779,1237.8238325000275,1238.9759555000346,"[18, 0, 236]",236,a,0.6292771000880748,1,colour,0.5,3.8
54,26,0,1,16,30,780,1239.495741700055,1240.5679301999044,"[39, 0, 215]",215,a,0.5499066999182105,1,colour,0.5,3.8
54,26,0,1,16,31,781,1241.0737689000089,1241.9599216000643,"[66, 0, 188]",188,l,0.364223700016737,1,colour,0.5,3.8
54,26,0,1,16,32,782,1242.4799548999872,1243.6959184000734,"[96, 0, 158]",158,l,0.6930166000965983,1,colour,0.5,3.8
54,26,0,1,16,33,783,1244.214341999963,1245.2719358999748,"[0, 0, 254]",254,a,0.5346909000072628,1,colour,0.5,3.8
54,26,0,1,16,34,784,1245.7925349001307,1246.8239128999412,"[83, 0, 171]",171,l,0.5085529999341816,1,colour,0.5,3.8
54,26,0,1,16,35,785,1247.3394273000304,1248.1439285001252,"[49, 0, 205]",205,l,0.2821618001908064,0,colour,0.5,3.8
54,26,0,1,16,36,786,1248.6523186999839,1249.3759562000632,"[48, 0, 206]",206,l,0.20069329999387264,0,colour,0.5,3.8
54,26,0,1,16,37,787,1249.8867357999552,1250.6719448999502,"[51, 0, 203]",203,l,0.26304590003564954,1,colour,0.5,3.8
54,26,0,1,16,38,788,1251.1834364000242,1254.1519353000913,"[52, 0, 202]",202,l,2.4456044000107795,1,colour,0.5,3.8
54,26,0,1,16,39,789,1254.6679420000874,1255.3199338000268,"[69, 0, 185]",185,l,0.12928940006531775,1,colour,0.5,3.8
54,26,0,1,16,40,790,1255.8397915000096,1256.7439594999887,"[1, 0, 253]",253,a,0.3813257000874728,1,colour,0.5,3.8
54,26,0,1,16,41,791,1257.2617516999599,1258.3919266001321,"[42, 0, 212]",212,l,0.6073148001451045,0,colour,0.5,3.8
54,26,0,1,16,42,792,1258.9023623999674,1259.7439164000098,"[22, 0, 232]",232,a,0.3187452999409288,1,colour,0.5,3.8
54,26,0,1,16,43,793,1260.2616487999912,1261.0159118000884,"[64, 0, 190]",190,l,0.2320710001513362,1,colour,0.5,3.8
54,26,0,1,16,44,794,1261.5280232001096,1262.4959553000517,"[31, 0, 223]",223,a,0.44600600004196167,1,colour,0.5,3.8
54,26,0,1,16,45,795,1263.0116511001252,1263.8320514999796,"[35, 0, 219]",219,a,0.2974807999562472,1,colour,0.5,3.8
54,26,0,1,16,46,796,1264.3397882999852,1265.0799481000286,"[94, 0, 160]",160,l,0.2173057000618428,1,colour,0.5,3.8
54,26,0,1,16,47,797,1265.5897790000308,1266.2319475999102,"[75, 0, 179]",179,l,0.11941459984518588,1,colour,0.5,3.8
54,26,0,1,16,48,798,1266.746074799914,1267.3838982000016,"[33, 0, 221]",221,a,0.11500789993442595,1,colour,0.5,3.8
54,26,0,1,16,49,799,1267.9021984001156,1268.7039423999377,"[50, 0, 204]",204,l,0.2792284998577088,0,colour,0.5,3.8
54,26,0,1,16,50,800,1269.2147977999412,1269.895917299902,"[29, 0, 225]",225,a,0.15820379997603595,1,colour,0.5,3.8
