id,age,condition,counterbalance,block,trialinblock,trial,tstart,tend,trialstim,trialintensity,response,RT,accuracy,trialtype,colourfreq,credits
52,19,0,1,Practice,1,NA,6.301532266661525e-06,0.7316527166694868,"[40, 0, 214]",214,a,0.2071894096734468,1,colour,0.5,4
52,19,0,1,Practice,2,NA,1.2508889088348951,2.3075971183134243,"[44, 0, 210]",210,a,0.5335241119901184,1,colour,0.5,4
52,19,0,1,Practice,3,NA,2.8289443213143386,3.6916411848796997,"[82, 0, 172]",172,l,0.3397872762870975,1,colour,0.5,4
52,19,0,1,Practice,4,NA,4.203916949045379,5.099603082693648,"[98, 0, 156]",156,l,0.37242326710838825,1,colour,0.5,4
52,19,0,1,Practice,5,NA,5.611328644998139,6.235623464977834,"[17, 0, 237]",237,a,0.10215204948326573,1,colour,0.5,4
52,19,0,1,Practice,6,NA,6.750844404334202,7.651582391641568,"[56, 0, 198]",198,a,0.3774467639159411,0,colour,0.5,4
52,19,0,1,Practice,7,NA,8.17269998282427,9.08360311735305,"[63, 0, 191]",191,a,0.3876394802937284,0,colour,0.5,4
52,19,0,1,Practice,8,NA,9.594544139807113,10.491599673579913,"[53, 0, 201]",201,a,0.3740372451720759,0,colour,0.5,4
52,19,0,1,Practice,9,NA,11.0007664229488,11.899573386763223,"[23, 0, 231]",231,a,0.37552401117864065,1,colour,0.5,4
52,19,0,1,Practice,10,NA,12.407003672211431,13.29159085144056,"[25, 0, 229]",229,a,0.361304620426381,1,colour,0.5,4
52,19,0,1,1,1,1,4.385642684646882,5.287917062494671,"[21, 0, 233]",233,a,0.3780981840682216,1,colour,0.5,4.0
52,19,0,1,1,2,2,5.808489965624176,6.759951289219316,"[5, 0, 249]",249,a,0.42828510302933864,1,colour,0.5,4.0
52,19,0,1,1,3,3,7.27715563349193,8.31997331304592,"[27, 0, 227]",227,a,0.5195630837697536,1,colour,0.5,4.0
52,19,0,1,1,4,4,8.839581689040642,9.75995601536124,"[73, 0, 181]",181,l,0.3974643451801967,1,colour,0.5,4.0
52,19,0,1,1,5,5,10.27710049515008,11.223911293433048,"[44, 0, 210]",210,a,0.4238803371845279,1,colour,0.5,4.0
52,19,0,1,1,6,6,11.730184067535447,12.591947123903083,"[57, 0, 197]",197,a,0.33851830670027994,0,colour,0.5,4.0
52,19,0,1,1,7,7,13.105166147579439,13.935952483356232,"[78, 0, 176]",176,l,0.30755615839734674,1,colour,0.5,4.0
52,19,0,1,1,8,8,14.448940319853136,15.303918603225611,"[52, 0, 202]",202,a,0.3316508262360003,0,colour,0.5,4.0
52,19,0,1,1,9,9,15.823922399868025,16.703984296618728,"[30, 0, 224]",224,a,0.3567974548204802,1,colour,0.5,4.0
52,19,0,1,1,10,10,17.214490513841156,18.144014654215425,"[35, 0, 219]",219,a,0.40638179049710743,1,colour,0.5,4.0
52,19,0,1,1,11,11,18.652055006008595,19.503858502430376,"[96, 0, 158]",158,l,0.32859852514229715,1,colour,0.5,4.0
52,19,0,1,1,12,12,20.011376615351764,20.887923442787724,"[74, 0, 180]",180,l,0.35336548686609603,1,colour,0.5,4.0
52,19,0,1,1,13,13,21.40205736909411,22.22395028412575,"[72, 0, 182]",182,l,0.29855127944028936,1,colour,0.5,4.0
52,19,0,1,1,14,14,22.730180916783866,23.599952029646374,"[83, 0, 171]",171,l,0.3465566892991774,1,colour,0.5,4.0
52,19,0,1,1,15,15,24.120664354006294,24.93589931423776,"[79, 0, 175]",175,l,0.29191971226828173,1,colour,0.5,4.0
52,19,0,1,1,16,16,25.448886756872525,26.303913877054583,"[71, 0, 183]",183,l,0.33180285047274083,1,colour,0.5,4.0
52,19,0,1,1,17,17,26.823784947860986,27.63990527234273,"[75, 0, 179]",179,l,0.2928732117579784,1,colour,0.5,4.0
52,19,0,1,1,18,18,28.1519648154499,28.97598095049034,"[68, 0, 186]",186,l,0.3006477179878857,1,colour,0.5,4.0
52,19,0,1,1,19,19,29.49571063084295,30.351910622324795,"[93, 0, 161]",161,l,0.3327929775696248,1,colour,0.5,4.0
52,19,0,1,1,20,20,30.870671049371595,31.759893000125885,"[2, 0, 252]",252,a,0.3658629859564826,1,colour,0.5,4.0
52,19,0,1,1,21,21,32.27694532010355,33.12786857225001,"[19, 0, 235]",235,a,0.32761273032519966,1,colour,0.5,4.0
52,19,0,1,1,22,22,33.636283470958006,34.487925490771886,"[24, 0, 230]",230,a,0.32836418715305626,1,colour,0.5,4.0
52,19,0,1,1,23,23,34.99574213847518,35.839895977580454,"[63, 0, 191]",191,a,0.320939415571047,0,colour,0.5,4.0
52,19,0,1,1,24,24,36.35504996322561,37.23990732032689,"[17, 0, 237]",237,a,0.3614787000406068,1,colour,0.5,4.0
52,19,0,1,1,25,25,37.76132541548577,38.623863559390884,"[51, 0, 203]",203,a,0.3393252957321238,0,colour,0.5,4.0
52,19,0,1,1,26,26,39.1364248614118,39.98385155497817,"[48, 0, 206]",206,a,0.32417643009102903,1,colour,0.5,4.0
52,19,0,1,1,27,27,40.495655886334134,41.375867050432134,"[66, 0, 188]",188,l,0.35695066064363346,1,colour,0.5,4.0
52,19,0,1,1,28,28,41.886248812574195,42.719879105250584,"[64, 0, 190]",190,l,0.31020594958681613,1,colour,0.5,4.0
52,19,0,1,1,29,29,43.229995415662415,44.06385216937633,"[20, 0, 234]",234,a,0.3105997948732693,1,colour,0.5,4.0
52,19,0,1,1,30,30,44.57377234482556,45.3998293862096,"[6, 0, 248]",248,a,0.30277290722006,1,colour,0.5,4.0
52,19,0,1,1,31,31,45.91754021553788,46.75983668022673,"[0, 0, 254]",254,a,0.31900169668369927,1,colour,0.5,4.0
52,19,0,1,1,32,32,47.276818501908565,48.135837638081284,"[29, 0, 225]",225,a,0.3356597775418777,1,colour,0.5,4.0
52,19,0,1,1,33,33,48.65199632308213,49.50388843467226,"[50, 0, 204]",204,a,0.32866075268248096,1,colour,0.5,4.0
52,19,0,1,1,34,34,50.011208837269805,50.85591721057426,"[87, 0, 167]",167,l,0.3213100239809137,1,colour,0.5,4.0
52,19,0,1,1,35,35,51.37058440342662,52.29583729148726,"[40, 0, 214]",214,a,0.4019159786112141,1,colour,0.5,4.0
52,19,0,1,1,36,36,52.80819852009881,53.647886153514264,"[62, 0, 192]",192,l,0.3164101946167648,1,colour,0.5,4.0
52,19,0,1,1,37,37,54.16748822797672,54.99987987719942,"[16, 0, 238]",238,a,0.30910081969341263,1,colour,0.5,4.0
52,19,0,1,1,38,38,55.51124231412541,56.35982179289567,"[97, 0, 157]",157,l,0.3252602923603263,1,colour,0.5,4.0
52,19,0,1,1,39,39,56.87054226198234,58.39987979840953,"[41, 0, 213]",213,a,1.0060396176704671,1,colour,0.5,4.0
52,19,0,1,1,40,40,58.91738188973977,59.79980607057223,"[49, 0, 205]",205,a,0.35902504381374456,1,colour,0.5,4.0
52,19,0,1,1,41,41,60.30805279733613,61.15983738916111,"[99, 0, 155]",155,l,0.3283488271990791,1,colour,0.5,4.0
52,19,0,1,1,42,42,61.66747483724612,62.51987067697337,"[81, 0, 173]",173,l,0.32915739162126556,1,colour,0.5,4.0
52,19,0,1,1,43,43,63.02677202815539,63.87999415534432,"[4, 0, 250]",250,a,0.33023455849615857,1,colour,0.5,4.0
52,19,0,1,1,44,44,64.38616413582349,65.23181734399986,"[95, 0, 159]",159,l,0.3223214187019039,1,colour,0.5,4.0
52,19,0,1,1,45,45,65.74554954809719,66.59191679782816,"[3, 0, 251]",251,a,0.32312840776285157,1,colour,0.5,4.0
52,19,0,1,1,46,46,67.10485343442997,67.99983812958817,"[55, 0, 199]",199,a,0.3715288444363978,0,colour,0.5,4.0
52,19,0,1,1,47,47,68.51115724354167,69.4078677688085,"[33, 0, 221]",221,a,0.37341969573753886,1,colour,0.5,4.0
52,19,0,1,1,48,48,69.91739921894623,70.76783843521844,"[13, 0, 241]",241,a,0.32711215296876617,1,colour,0.5,4.0
52,19,0,1,1,49,49,71.27670783139183,72.12782879389124,"[32, 0, 222]",222,a,0.327746637747623,1,colour,0.5,4.0
52,19,0,1,1,50,50,72.63610899748164,73.51184135282529,"[28, 0, 226]",226,a,0.35300905688200146,1,colour,0.5,4.0
52,19,0,1,2,1,51,80.13531382381916,80.99976329898345,"[91, 0, 163]",163,l,0.34029730592737906,1,colour,0.5,4.0
52,19,0,1,2,2,52,81.5110449976346,82.32779232380562,"[88, 0, 166]",166,l,0.2936813822889235,1,colour,0.5,4.0
52,19,0,1,2,3,53,82.83924967746134,83.69578719435958,"[32, 0, 222]",222,a,0.33383548608981073,1,colour,0.5,4.0
52,19,0,1,2,4,54,84.2142057637102,85.02378904385841,"[99, 0, 155]",155,l,0.28638027812121436,1,colour,0.5,4.0
52,19,0,1,2,5,55,85.54239193280227,86.38379200556665,"[8, 0, 246]",246,a,0.3180946709471755,1,colour,0.5,4.0
52,19,0,1,2,6,56,86.90172653904301,87.76777148150722,"[11, 0, 243]",243,a,0.3427903466799762,1,colour,0.5,4.0
52,19,0,1,2,7,57,88.27673500671517,89.12777208015905,"[25, 0, 229]",229,a,0.3277170993387699,1,colour,0.5,4.0
52,19,0,1,2,8,58,89.63611805593246,90.54379402205814,"[56, 0, 198]",198,a,0.38440285963588394,0,colour,0.5,4.0
52,19,0,1,2,9,59,91.05800317283138,91.9517838829197,"[54, 0, 200]",200,a,0.37055053270887583,0,colour,0.5,4.0
52,19,0,1,2,10,60,92.4641344776901,93.32779704994755,"[97, 0, 157]",157,l,0.34038867804338224,1,colour,0.5,4.0
52,19,0,1,2,11,61,93.83915357920341,94.74375440122094,"[64, 0, 190]",190,a,0.38214061222970486,0,colour,0.5,4.0
52,19,0,1,2,12,62,95.26111155748367,96.14371651332476,"[87, 0, 167]",167,l,0.3593779292423278,1,colour,0.5,4.0
52,19,0,1,2,13,63,96.65170133294305,97.55980895351968,"[20, 0, 234]",234,a,0.3848727170552593,1,colour,0.5,4.0
52,19,0,1,2,14,64,98.07347932390985,99.01576759663294,"[63, 0, 191]",191,a,0.4188859849527944,0,colour,0.5,4.0
52,19,0,1,2,15,65,99.52668144376366,100.39181384665426,"[39, 0, 215]",215,a,0.34185535795404576,1,colour,0.5,4.0
52,19,0,1,2,16,66,100.90173008365673,101.83173235220602,"[28, 0, 226]",226,a,0.4067850880965125,1,colour,0.5,4.0
52,19,0,1,2,17,67,102.33908465626882,103.19975479191635,"[67, 0, 187]",187,l,0.33729305397719145,1,colour,0.5,4.0
52,19,0,1,2,18,68,103.71411242237082,104.58375199089642,"[45, 0, 209]",209,a,0.34635267744306475,1,colour,0.5,4.0
52,19,0,1,2,19,69,105.10464705948834,105.94373053419986,"[80, 0, 174]",174,l,0.3157024545944296,1,colour,0.5,4.0
52,19,0,1,2,20,70,106.4640887916321,107.33573066969984,"[7, 0, 247]",247,a,0.34843139295117,1,colour,0.5,4.0
52,19,0,1,2,21,71,107.85461673338432,108.73568726793746,"[61, 0, 193]",193,a,0.35747014259686694,0,colour,0.5,4.0
52,19,0,1,2,22,72,109.24541367148049,110.11174297027173,"[50, 0, 204]",204,a,0.34329958868329413,1,colour,0.5,4.0
52,19,0,1,2,23,73,110.62029020098271,111.4637134570803,"[75, 0, 179]",179,l,0.3199878853338305,1,colour,0.5,4.0
52,19,0,1,2,24,74,111.9797323269886,112.83969787339447,"[4, 0, 250]",250,a,0.3370240576332435,1,colour,0.5,4.0
52,19,0,1,2,25,75,113.35462461030693,114.18371662357822,"[85, 0, 169]",169,l,0.3056345871591475,1,colour,0.5,4.0
52,19,0,1,2,26,76,114.69843344093533,115.58374805244966,"[15, 0, 239]",239,a,0.3621033387025818,1,colour,0.5,4.0
52,19,0,1,2,27,77,116.10456829040777,116.99170679951203,"[10, 0, 244]",244,a,0.3637086521484889,1,colour,0.5,4.0
52,19,0,1,2,28,78,117.51091778557748,118.4636878571182,"[23, 0, 231]",231,a,0.4294280420872383,1,colour,0.5,4.0
52,19,0,1,2,29,79,118.97967246250482,120.0237020040513,"[86, 0, 168]",168,l,0.5207603735034354,1,colour,0.5,4.0
52,19,0,1,2,30,80,120.54219028400257,121.51172162385774,"[89, 0, 165]",165,l,0.44659024494467303,1,colour,0.5,4.0
52,19,0,1,2,31,81,122.02649515491794,122.911712092784,"[19, 0, 235]",235,a,0.36183394852560014,1,colour,0.5,4.0
52,19,0,1,2,32,82,123.43275997336605,124.30369056676864,"[76, 0, 178]",178,l,0.34763109928462654,1,colour,0.5,4.0
52,19,0,1,2,33,83,124.82336983492132,125.7436669675808,"[37, 0, 217]",217,a,0.39698582314304076,1,colour,0.5,4.0
52,19,0,1,2,34,84,126.2608433488349,127.20764863328077,"[0, 0, 254]",254,a,0.42343647353118286,1,colour,0.5,4.0
52,19,0,1,2,35,85,127.7139785149484,128.58368740027072,"[53, 0, 201]",201,a,0.3463530712760985,0,colour,0.5,4.0
52,19,0,1,2,36,86,129.104554111982,129.98373418909614,"[38, 0, 216]",216,a,0.35573131559067406,1,colour,0.5,4.0
52,19,0,1,2,37,87,130.49523959186627,131.37572211536462,"[22, 0, 232]",232,a,0.35715979247470386,1,colour,0.5,4.0
52,19,0,1,2,38,88,131.88583527499577,132.76765687254374,"[49, 0, 205]",205,a,0.3583881960075814,1,colour,0.5,4.0
52,19,0,1,2,39,89,133.27654871786945,134.12766377269872,"[90, 0, 164]",164,l,0.32782146835234016,1,colour,0.5,4.0
52,19,0,1,2,40,90,134.63577186589828,135.52775506605394,"[2, 0, 252]",252,a,0.36918940336909145,1,colour,0.5,4.0
52,19,0,1,2,41,91,136.04206897964468,136.92762383678928,"[29, 0, 225]",225,a,0.3622088892443571,1,colour,0.5,4.0
52,19,0,1,2,42,92,137.44827235821867,138.2877169890853,"[26, 0, 228]",228,a,0.31623414577916265,1,colour,0.5,4.0
52,19,0,1,2,43,93,138.8077070011641,139.66372858072282,"[66, 0, 188]",188,l,0.33269372856011614,1,colour,0.5,4.0
52,19,0,1,2,44,94,140.18270010885317,141.10370931381476,"[98, 0, 156]",156,l,0.3979499564447906,1,colour,0.5,4.0
52,19,0,1,2,45,95,141.62016889662482,142.4556695606443,"[47, 0, 207]",207,a,0.31219250528374687,1,colour,0.5,4.0
52,19,0,1,2,46,96,142.9639249519969,143.79164835286792,"[79, 0, 175]",175,l,0.3044585651077796,1,colour,0.5,4.0
52,19,0,1,2,47,97,144.30761720443843,145.15162453311495,"[96, 0, 158]",158,l,0.3205392687523272,1,colour,0.5,4.0
52,19,0,1,2,48,98,145.6671581856208,146.5436522377713,"[27, 0, 227]",227,a,0.35330798546783626,1,colour,0.5,4.0
52,19,0,1,2,49,99,147.0575790014409,147.90375129773747,"[42, 0, 212]",212,a,0.32280506077222526,1,colour,0.5,4.0
52,19,0,1,2,50,100,148.41707232734188,149.25561032630503,"[52, 0, 202]",202,a,0.31525268327095546,0,colour,0.5,4.0
52,19,0,1,3,1,101,155.5099434123258,156.4076818738249,"[58, 0, 196]",196,a,0.37359180612838827,0,colour,0.5,4.0
52,19,0,1,3,2,102,156.9170691765612,157.74366617988562,"[85, 0, 169]",169,l,0.3033884874312207,1,colour,0.5,4.0
52,19,0,1,3,3,103,158.26077127514873,159.16758905237657,"[51, 0, 203]",203,a,0.38345211709383875,0,colour,0.5,4.0
52,19,0,1,3,4,104,159.682576835301,160.56763505350682,"[83, 0, 171]",171,l,0.3617453333281446,1,colour,0.5,4.0
52,19,0,1,3,5,105,161.08891097048763,161.95163658476667,"[49, 0, 205]",205,a,0.33956042138743214,1,colour,0.5,4.0
52,19,0,1,3,6,106,162.46387808441068,163.39170987150283,"[2, 0, 252]",252,a,0.40466659420053475,1,colour,0.5,4.0
52,19,0,1,3,7,107,163.90135908138473,164.7275724793726,"[16, 0, 238]",238,a,0.30287648853845894,1,colour,0.5,4.0
52,19,0,1,3,8,108,165.245050546102,166.07160501412,"[76, 0, 178]",178,l,0.3036047084897291,1,colour,0.5,4.0
52,19,0,1,3,9,109,166.58880345072248,167.41559383206186,"[52, 0, 202]",202,a,0.30348694874555804,0,colour,0.5,4.0
52,19,0,1,3,10,110,167.93254532766878,168.74358189699706,"[63, 0, 191]",191,a,0.28769690296030603,0,colour,0.5,4.0
52,19,0,1,3,11,111,169.2606361861981,170.08774518838618,"[26, 0, 228]",228,a,0.3037776065757498,1,colour,0.5,4.0
52,19,0,1,3,12,112,170.60438948465162,171.44760006427532,"[38, 0, 216]",216,a,0.31983940562349744,1,colour,0.5,4.0
52,19,0,1,3,13,113,171.96376544464147,172.82355966835166,"[65, 0, 189]",189,l,0.33658688934519887,1,colour,0.5,4.0
52,19,0,1,3,14,114,173.33878060770803,174.1835669623688,"[93, 0, 161]",161,l,0.3215254573733546,1,colour,0.5,4.0
52,19,0,1,3,15,115,174.69812269700924,175.5995936304389,"[71, 0, 183]",183,l,0.378266749845352,1,colour,0.5,4.0
52,19,0,1,3,16,116,176.12009327832493,176.96761607014923,"[11, 0, 243]",243,a,0.32432057746336795,1,colour,0.5,4.0
52,19,0,1,3,17,117,177.47936329393997,178.30356453629793,"[34, 0, 220]",220,a,0.30085763754323125,1,colour,0.5,4.0
52,19,0,1,3,18,118,178.8231110785564,179.6795757341024,"[53, 0, 201]",201,a,0.33311356767080724,0,colour,0.5,4.0
52,19,0,1,3,19,119,180.19813254312612,181.0236976717424,"[7, 0, 247]",247,a,0.3024578309850767,1,colour,0.5,4.0
52,19,0,1,3,20,120,181.54200517671416,182.399627737439,"[13, 0, 241]",241,a,0.3344041987147648,1,colour,0.5,4.0
52,19,0,1,3,21,121,182.9168754046841,183.79154319615918,"[25, 0, 229]",229,a,0.3512895282765385,1,colour,0.5,4.0
52,19,0,1,3,22,122,184.30747502628947,185.16753312633955,"[47, 0, 207]",207,a,0.336790113535244,1,colour,0.5,4.0
52,19,0,1,3,23,123,185.6824476540205,186.55956555713783,"[20, 0, 234]",234,a,0.3537577567913104,1,colour,0.5,4.0
52,19,0,1,3,24,124,187.07312525698217,187.94353755001794,"[79, 0, 175]",175,l,0.3473006630956661,1,colour,0.5,4.0
52,19,0,1,3,25,125,188.46369730940205,189.2795604529092,"[57, 0, 197]",197,a,0.29254041248350404,0,colour,0.5,4.0
52,19,0,1,3,26,126,189.79183897399344,190.66358837179723,"[10, 0, 244]",244,a,0.3484581744123716,1,colour,0.5,4.0
52,19,0,1,3,27,127,191.18243623251328,192.06354457620182,"[48, 0, 206]",206,a,0.3583432976156473,1,colour,0.5,4.0
52,19,0,1,3,28,128,192.5730409740936,193.4715557046875,"[45, 0, 209]",209,a,0.3750817228865344,1,colour,0.5,4.0
52,19,0,1,3,29,129,193.97928058644175,194.807528983074,"[74, 0, 180]",180,l,0.30491148721193895,1,colour,0.5,4.0
52,19,0,1,3,30,130,195.32307720786775,196.20754702118575,"[59, 0, 195]",195,a,0.36117268225643784,0,colour,0.5,4.0
52,19,0,1,3,31,131,196.71366501410375,197.535545719933,"[99, 0, 155]",155,l,0.29861075009102933,1,colour,0.5,4.0
52,19,0,1,3,32,132,198.04184803244425,198.8955317462969,"[92, 0, 162]",162,l,0.33036216438631527,1,colour,0.5,4.0
52,19,0,1,3,33,133,199.41679348485195,200.26357072754763,"[91, 0, 163]",163,l,0.32344663474941626,1,colour,0.5,4.0
52,19,0,1,3,34,134,200.77618913713377,201.6475100312382,"[77, 0, 177]",177,l,0.3479879231308587,1,colour,0.5,4.0
52,19,0,1,3,35,135,202.16676197724883,202.99951005645562,"[78, 0, 176]",176,l,0.3098211627220735,1,colour,0.5,4.0
52,19,0,1,3,36,136,203.51055347869988,204.3436249048973,"[33, 0, 221]",221,a,0.3098286457825452,1,colour,0.5,4.0
52,19,0,1,3,37,137,204.8542020142777,205.67152120385435,"[98, 0, 156]",156,l,0.29382119738147594,1,colour,0.5,4.0
52,19,0,1,3,38,138,206.18239763568272,207.0234948414145,"[6, 0, 248]",248,a,0.31818249844945967,1,colour,0.5,4.0
52,19,0,1,3,39,139,207.54182322017732,208.3835631814727,"[40, 0, 214]",214,a,0.31839753800886683,1,colour,0.5,4.0
52,19,0,1,3,40,140,208.90107196813915,209.75950821326114,"[81, 0, 173]",173,l,0.33491777296876535,1,colour,0.5,4.0
52,19,0,1,3,41,141,210.27612966648303,211.14352116602822,"[23, 0, 231]",231,a,0.3440368670562748,1,colour,0.5,4.0
52,19,0,1,3,42,142,211.6510400666739,212.4794873552164,"[36, 0, 218]",218,a,0.30497135169571266,1,colour,0.5,4.0
52,19,0,1,3,43,143,212.9948611065338,213.90354177201516,"[54, 0, 200]",200,a,0.38528783002402633,0,colour,0.5,4.0
52,19,0,1,3,44,144,214.41672180502792,215.29553875673446,"[68, 0, 186]",186,l,0.35547255919664167,1,colour,0.5,4.0
52,19,0,1,3,45,145,215.80731236818247,216.64747419132618,"[56, 0, 198]",198,a,0.3168044337653555,0,colour,0.5,4.0
52,19,0,1,3,46,146,217.16670211276505,218.0314863564272,"[17, 0, 237]",237,a,0.34151074331020936,1,colour,0.5,4.0
52,19,0,1,3,47,147,218.54175075265812,219.4715525539359,"[30, 0, 224]",224,a,0.40647276875097305,1,colour,0.5,4.0
52,19,0,1,3,48,148,219.97915258671856,220.88748745602788,"[27, 0, 227]",227,a,0.3850759412453044,1,colour,0.5,4.0
52,19,0,1,3,49,149,221.40102746363846,222.3354628548841,"[41, 0, 213]",213,a,0.4110287711955607,1,colour,0.5,4.0
52,19,0,1,3,50,150,222.85476560692769,223.73558329278603,"[9, 0, 245]",245,a,0.3580022275855299,1,colour,0.5,4.0
52,19,0,1,4,1,151,231.40023740995093,232.2394918135251,"[39, 0, 215]",215,a,0.3151112927880604,1,colour,0.5,3.9
52,19,0,1,4,2,152,232.76040578668471,233.54345570894657,"[69, 0, 185]",185,l,0.2596980466914829,1,colour,0.5,3.9
52,19,0,1,4,3,153,234.05720327302697,234.83942612013198,"[74, 0, 180]",180,l,0.25891035606036894,1,colour,0.5,3.9
52,19,0,1,4,4,154,235.354040537728,236.11944934126223,"[57, 0, 197]",197,l,0.2420541710453108,1,colour,0.5,3.9
52,19,0,1,4,5,155,236.63537368830293,237.43947818648303,"[40, 0, 214]",214,a,0.28088337925146334,1,colour,0.5,3.9
52,19,0,1,4,6,156,237.94789859902812,238.7515560828033,"[37, 0, 217]",217,a,0.28058641991810873,1,colour,0.5,3.9
52,19,0,1,4,7,157,239.26035576834693,240.05546050757403,"[98, 0, 156]",156,l,0.2717438052059151,1,colour,0.5,3.9
52,19,0,1,4,8,158,240.57283105453826,241.42345380273764,"[26, 0, 228]",228,a,0.3272555126459338,1,colour,0.5,3.9
52,19,0,1,4,9,159,241.93224521755474,242.7834335275984,"[22, 0, 232]",232,a,0.3278100468451157,1,colour,0.5,3.9
52,19,0,1,4,10,160,243.29165426053805,244.1434853261162,"[93, 0, 161]",161,l,0.32858631591079757,1,colour,0.5,3.9
52,19,0,1,4,11,161,244.6509723252966,245.54346201047883,"[36, 0, 218]",218,a,0.3692075202416163,1,colour,0.5,3.9
52,19,0,1,4,12,162,246.05717609770363,246.93546175211668,"[55, 0, 199]",199,a,0.35491644966532476,0,colour,0.5,3.9
52,19,0,1,4,13,163,247.44776075315895,248.31942468654597,"[47, 0, 207]",207,a,0.34842548525193706,1,colour,0.5,3.9
52,19,0,1,4,14,164,248.83845686685527,249.75945228722412,"[62, 0, 192]",192,a,0.3983823985909112,0,colour,0.5,3.9
52,19,0,1,4,15,165,250.27592250384623,251.11945052279043,"[88, 0, 166]",166,l,0.32024821705999784,1,colour,0.5,3.9
52,19,0,1,4,16,166,251.63529176847078,252.51139276303002,"[29, 0, 225]",225,a,0.3527888973476365,1,colour,0.5,3.9
52,19,0,1,4,17,167,253.02586224552942,253.8793691228493,"[58, 0, 196]",196,a,0.3301305833447259,0,colour,0.5,3.9
52,19,0,1,4,18,168,254.40092388232006,255.28745468810666,"[63, 0, 191]",191,a,0.3632147701573558,0,colour,0.5,3.9
52,19,0,1,4,19,169,255.80715364852222,256.6794886942953,"[75, 0, 179]",179,l,0.3490627269784454,1,colour,0.5,3.9
52,19,0,1,4,20,170,257.19775523932185,258.0634665948455,"[48, 0, 206]",206,a,0.3426410793326795,1,colour,0.5,3.9
52,19,0,1,4,21,171,258.57275189165375,259.4554230134818,"[1, 0, 253]",253,a,0.3592975847714115,1,colour,0.5,3.9
52,19,0,1,4,22,172,259.96329401183175,260.91946375599946,"[23, 0, 231]",231,a,0.4327564287232235,1,colour,0.5,3.9
52,19,0,1,4,23,173,261.43216644847416,262.3114166300511,"[53, 0, 201]",201,a,0.35595186895807274,0,colour,0.5,3.9
52,19,0,1,4,24,174,262.8227290486102,263.62335864972556,"[70, 0, 184]",184,l,0.2773308946634643,1,colour,0.5,3.9
52,19,0,1,4,25,175,264.13522914706846,264.9913909355819,"[15, 0, 239]",239,a,0.33277131608338095,1,colour,0.5,3.9
52,19,0,1,4,26,176,265.5103652206308,266.35143091875943,"[14, 0, 240]",240,a,0.3177921977767255,1,colour,0.5,3.9
52,19,0,1,4,27,177,266.8696186947345,267.7513678247342,"[59, 0, 195]",195,l,0.3584330943413079,1,colour,0.5,3.9
52,19,0,1,4,28,178,268.2602025625238,269.08736512769246,"[16, 0, 238]",238,a,0.30389576018205844,1,colour,0.5,3.9
52,19,0,1,4,29,179,269.6039672824845,270.43134843179723,"[35, 0, 219]",219,a,0.3040615690406412,1,colour,0.5,3.9
52,19,0,1,4,30,180,270.9477158547961,271.87135555251734,"[17, 0, 237]",237,a,0.40045402487157844,1,colour,0.5,3.9
52,19,0,1,4,31,181,272.3851897625427,273.34337048084126,"[91, 0, 163]",163,l,0.4348197842773516,1,colour,0.5,3.9
52,19,0,1,4,32,182,273.853929079487,274.7913498181442,"[24, 0, 230]",230,a,0.4140956445480697,1,colour,0.5,3.9
52,19,0,1,4,33,183,275.3070295872458,276.17536001399276,"[18, 0, 236]",236,a,0.34499666807823814,1,colour,0.5,3.9
52,19,0,1,4,34,184,276.68199827653007,277.5113868553308,"[72, 0, 182]",182,l,0.30620684439782053,1,colour,0.5,3.9
52,19,0,1,4,35,185,278.02577244880376,278.8393406557152,"[0, 0, 254]",254,a,0.29018009756691754,1,colour,0.5,3.9
52,19,0,1,4,36,186,279.3538570058008,280.20739224000135,"[46, 0, 208]",208,a,0.3302140785672236,1,colour,0.5,3.9
52,19,0,1,4,37,187,280.7289304579608,281.591382743587,"[60, 0, 194]",194,l,0.3392043852072675,1,colour,0.5,3.9
52,19,0,1,4,38,188,282.10382510433556,282.9833407376427,"[43, 0, 211]",211,a,0.35611413323204033,1,colour,0.5,3.9
52,19,0,1,4,39,189,283.4944956180989,284.35941613223986,"[3, 0, 251]",251,a,0.341628896916518,1,colour,0.5,3.9
52,19,0,1,4,40,190,284.86955213488545,285.73537534245406,"[8, 0, 246]",246,a,0.3425111103861127,1,colour,0.5,3.9
52,19,0,1,4,41,191,286.2444680489134,287.0633090567135,"[76, 0, 178]",178,l,0.29541272623464465,1,colour,0.5,3.9
52,19,0,1,4,42,192,287.5726487041684,288.35937832307536,"[5, 0, 249]",249,a,0.26345848161145113,1,colour,0.5,3.9
52,19,0,1,4,43,193,288.86952180881053,289.51139276303,"[80, 0, 174]",174,l,0.11856122012250125,1,colour,0.5,3.9
52,19,0,1,4,44,194,290.02574999962235,290.9273765019316,"[68, 0, 186]",186,l,0.37826044831308536,1,colour,0.5,3.9
52,19,0,1,4,45,195,291.4474941199005,292.3033656444168,"[99, 0, 155]",155,l,0.33267797477310523,1,colour,0.5,3.9
52,19,0,1,4,46,196,292.8226018365822,293.6873289726791,"[34, 0, 220]",220,a,0.3414335496199783,1,colour,0.5,3.9
52,19,0,1,4,47,197,294.19758706737775,295.0633283551433,"[61, 0, 193]",193,l,0.3425855471577961,1,colour,0.5,3.9
52,19,0,1,4,48,198,295.5726187719265,296.4073427730182,"[71, 0, 183]",183,l,0.3114008762058802,1,colour,0.5,3.9
52,19,0,1,4,49,199,296.9163673442381,297.8072926758905,"[67, 0, 187]",187,l,0.36759236064972356,1,colour,0.5,3.9
52,19,0,1,4,50,200,298.3225506366871,299.1753316571412,"[65, 0, 189]",189,l,0.32946971093770117,1,colour,0.5,3.9
52,19,0,1,5,1,201,304.41547686001286,305.25536771761836,"[9, 0, 245]",245,a,0.3157536544895265,1,colour,0.5,3.9
52,19,0,1,5,2,202,305.77564405521844,306.623279880645,"[74, 0, 180]",180,l,0.32418627620791085,1,colour,0.5,3.9
52,19,0,1,5,3,203,307.1350042614213,307.9753452841833,"[36, 0, 218]",218,a,0.31695409497478977,1,colour,0.5,3.9
52,19,0,1,5,4,204,308.4943955813651,309.4153079003736,"[3, 0, 251]",251,a,0.3975458711502142,1,colour,0.5,3.9
52,19,0,1,5,5,205,309.93185452301987,310.8313101500389,"[4, 0, 250]",250,a,0.3762455357646104,1,colour,0.5,3.9
52,19,0,1,5,6,206,311.3380874399736,312.1753036941227,"[61, 0, 193]",193,l,0.313817904854659,1,colour,0.5,3.9
52,19,0,1,5,7,207,312.6818950890738,313.51924997675815,"[80, 0, 174]",174,l,0.3141176211065613,1,colour,0.5,3.9
52,19,0,1,5,8,208,314.02559955071774,314.87129883878515,"[70, 0, 184]",184,l,0.3227184147690423,1,colour,0.5,3.9
52,19,0,1,5,9,209,315.3850267106027,316.2472639566986,"[69, 0, 185]",185,l,0.33883259526919574,1,colour,0.5,3.9
52,19,0,1,5,10,210,316.7599174185307,317.7032596212521,"[55, 0, 199]",199,a,0.41989934889716096,0,colour,0.5,3.9
52,19,0,1,5,11,211,318.2131333229481,319.17526627882035,"[34, 0, 220]",220,a,0.4388673324137926,1,colour,0.5,3.9
52,19,0,1,5,12,212,319.6818513722392,320.58327661961084,"[73, 0, 181]",181,l,0.3781950699922163,1,colour,0.5,3.9
52,19,0,1,5,13,213,321.1037506675639,322.0073133133992,"[37, 0, 217]",217,a,0.3802655147446785,1,colour,0.5,3.9
52,19,0,1,5,14,214,322.52563617832493,323.39130775546073,"[58, 0, 196]",196,l,0.34232639693072997,1,colour,0.5,3.9
52,19,0,1,5,15,215,323.90051585857873,324.8313365376671,"[16, 0, 238]",238,a,0.40734159148996696,1,colour,0.5,3.9
52,19,0,1,5,16,216,325.33812603680417,326.25525980399107,"[2, 0, 252]",252,a,0.39383033459307626,1,colour,0.5,3.9
52,19,0,1,5,17,217,326.77555189543637,327.7352686103841,"[78, 0, 176]",176,l,0.43638531933538616,1,colour,0.5,3.9
52,19,0,1,5,18,218,328.244257735525,329.3512781067693,"[72, 0, 182]",182,l,0.5836692833690904,1,colour,0.5,3.9
52,19,0,1,5,19,219,329.86925714474637,331.0392498349829,"[82, 0, 172]",172,l,0.6465699225082062,1,colour,0.5,3.9
52,19,0,1,5,20,220,331.5568582645501,332.6792815316585,"[66, 0, 188]",188,l,0.5992080558789894,1,colour,0.5,3.9
52,19,0,1,5,21,221,333.19739093241515,334.2632237498183,"[5, 0, 249]",249,a,0.5426246953429654,1,colour,0.5,3.9
52,19,0,1,5,22,222,334.7763947243802,335.87925136310514,"[31, 0, 223]",223,a,0.5804688964562956,1,colour,0.5,3.9
52,19,0,1,5,23,223,336.3848939847376,337.54321585717844,"[45, 0, 209]",209,a,0.6349345507915132,1,colour,0.5,3.9
52,19,0,1,5,24,224,338.0567231755995,339.11121167294914,"[30, 0, 224]",224,a,0.5310972372535616,1,colour,0.5,3.9
52,19,0,1,5,25,225,339.61918782797875,340.6232251361653,"[17, 0, 237]",237,a,0.48062990041216835,1,colour,0.5,3.9
52,19,0,1,5,26,226,341.13485814479645,342.1512259616575,"[48, 0, 206]",206,a,0.4933318052208051,1,colour,0.5,3.9
52,19,0,1,5,27,227,342.6660955909756,343.59921987124835,"[68, 0, 186]",186,l,0.40977949390071444,1,colour,0.5,3.9
52,19,0,1,5,28,228,344.1191496249812,345.0152626869385,"[98, 0, 156]",156,l,0.3729904043429997,1,colour,0.5,3.9
52,19,0,1,5,29,229,345.52546367407194,346.4872212953924,"[26, 0, 228]",228,a,0.4385112962918356,1,colour,0.5,3.9
52,19,0,1,5,30,230,346.99413524963893,347.94320593227167,"[88, 0, 166]",166,l,0.4256739086995367,1,colour,0.5,3.9
52,19,0,1,5,31,231,348.46291198188555,349.8071867315157,"[52, 0, 202]",202,a,0.820924055587966,0,colour,0.5,3.9
52,19,0,1,5,32,232,350.3222465881263,351.3992098675517,"[56, 0, 198]",198,a,0.553646456100978,0,colour,0.5,3.9
52,19,0,1,5,33,233,351.9160613264539,352.92721935766167,"[21, 0, 233]",233,a,0.4878230909816921,1,colour,0.5,3.9
52,19,0,1,5,34,234,353.44729050187743,354.43116923217895,"[42, 0, 212]",212,a,0.46065406675916165,1,colour,0.5,3.9
52,19,0,1,5,35,235,354.9472357573686,356.007220759755,"[41, 0, 213]",213,a,0.536648486769991,1,colour,0.5,3.9
52,19,0,1,5,36,236,356.52541680648574,357.5112052926561,"[86, 0, 168]",168,l,0.4624629982281476,1,colour,0.5,3.9
52,19,0,1,5,37,237,358.02540696036885,358.9431787569483,"[99, 0, 155]",155,l,0.3944998716178816,1,colour,0.5,3.9
52,19,0,1,5,38,238,359.46282376055024,360.4151901406294,"[22, 0, 232]",232,a,0.4290444367507007,1,colour,0.5,3.9
52,19,0,1,5,39,239,360.9317099817854,361.8551980490447,"[25, 0, 229]",229,a,0.40030515132821165,1,colour,0.5,3.9
52,19,0,1,5,40,240,362.3691760126094,363.39121795873507,"[49, 0, 205]",205,l,0.49860460610943846,0,colour,0.5,3.9
52,19,0,1,5,41,241,363.90039928036276,364.7431758424791,"[54, 0, 200]",200,a,0.31941562809515744,0,colour,0.5,3.9
52,19,0,1,5,42,242,365.25970789283747,366.15913713222835,"[75, 0, 179]",179,l,0.37608957302290946,1,colour,0.5,3.9
52,19,0,1,5,43,243,366.6660353326588,367.55125345205306,"[29, 0, 225]",225,a,0.3619465882657096,1,colour,0.5,3.9
52,19,0,1,5,44,244,368.07225170810125,369.2071389974735,"[44, 0, 210]",210,a,0.6115980352042243,1,colour,0.5,3.9
52,19,0,1,5,45,245,369.72849762198166,370.74313448873,"[19, 0, 235]",235,a,0.49133264645934105,1,colour,0.5,3.9
52,19,0,1,5,46,246,371.2596535421617,372.34321530579473,"[89, 0, 165]",165,l,0.5605044843396172,1,colour,0.5,3.9
52,19,0,1,5,47,247,372.85339620680315,373.8072469898616,"[51, 0, 203]",203,a,0.4312901427038014,0,colour,0.5,3.9
52,19,0,1,5,48,248,374.3222119297425,375.2391668911732,"[84, 0, 170]",170,l,0.3937066671787761,1,colour,0.5,3.9
52,19,0,1,5,49,249,375.7596480283537,376.94312873858144,"[63, 0, 191]",191,l,0.6601280469913036,1,colour,0.5,3.9
52,19,0,1,5,50,250,377.46285605584853,378.3591400466685,"[47, 0, 207]",207,a,0.3730163981381338,1,colour,0.5,3.9
52,19,0,1,6,1,251,383.39951588536496,384.0151319302968,"[0, 0, 254]",254,a,0.09152492173598148,1,colour,0.5,3.9
52,19,0,1,6,2,252,384.5252982590464,385.29517996369395,"[5, 0, 249]",249,a,0.24657669666339643,1,colour,0.5,3.9
52,19,0,1,6,3,253,385.8065739082231,386.6151115291286,"[65, 0, 189]",189,l,0.285273966670502,1,colour,0.5,3.9
52,19,0,1,6,4,254,387.13460056998883,387.9190978737024,"[44, 0, 210]",210,a,0.2611828434455674,1,colour,0.5,3.9
52,19,0,1,6,5,255,388.43158710203716,389.2232086734148,"[67, 0, 187]",187,l,0.2684642553795129,1,colour,0.5,3.9
52,19,0,1,6,6,256,389.74400173607864,390.55915792725864,"[49, 0, 205]",205,a,0.29187678315793164,1,colour,0.5,3.9
52,19,0,1,6,7,257,391.0721205576265,391.84708641123143,"[91, 0, 163]",163,l,0.2517057439836208,1,colour,0.5,3.9
52,19,0,1,6,8,258,392.3533654868661,393.3911368265981,"[61, 0, 193]",193,l,0.5144927193759941,1,colour,0.5,3.9
52,19,0,1,6,9,259,393.9003004252154,394.75911397411255,"[25, 0, 229]",229,a,0.3355636792839505,1,colour,0.5,3.9
52,19,0,1,6,10,260,395.2752068869304,396.15117988176644,"[80, 0, 174]",174,l,0.3525770085689146,1,colour,0.5,3.9
52,19,0,1,6,11,261,396.6658269884938,397.58311632458935,"[22, 0, 232]",232,a,0.3939457312808372,1,colour,0.5,3.9
52,19,0,1,6,12,262,398.10333397923387,398.9990728881676,"[9, 0, 245]",245,a,0.37239806100842543,1,colour,0.5,3.9
52,19,0,1,6,13,263,399.5096736282867,400.4471242991567,"[8, 0, 246]",246,a,0.4142000135325361,1,colour,0.5,3.9
52,19,0,1,6,14,264,400.96268473315286,402.03909308454604,"[2, 0, 252]",252,a,0.5530560819897801,1,colour,0.5,3.9
52,19,0,1,6,15,265,402.5565018345369,403.5031649408338,"[83, 0, 171]",171,l,0.42332501531927846,1,colour,0.5,3.9
52,19,0,1,6,16,266,404.00954523473047,404.9511458535271,"[7, 0, 247]",247,a,0.4181723372603301,1,colour,0.5,3.9
52,19,0,1,6,17,267,405.46262920094887,406.4310920385178,"[50, 0, 204]",204,a,0.4450916635687463,1,colour,0.5,3.9
52,19,0,1,6,18,268,406.94701205324964,407.83910277314135,"[19, 0, 235]",235,a,0.3689125301025342,1,colour,0.5,3.9
52,19,0,1,6,19,269,408.3532855362864,409.3030919219309,"[18, 0, 236]",236,a,0.4265502144990023,1,colour,0.5,3.9
52,19,0,1,6,20,270,409.8219996471307,410.759085617261,"[6, 0, 248]",248,a,0.4137908082921058,1,colour,0.5,3.9
52,19,0,1,6,21,271,411.27516632087645,412.1830671726784,"[30, 0, 224]",224,a,0.38460529610165395,1,colour,0.5,3.9
52,19,0,1,6,22,272,412.6969805456174,413.6230774441792,"[82, 0, 172]",172,l,0.40283678894047625,1,colour,0.5,3.9
52,19,0,1,6,23,273,414.13449501944706,415.223092882894,"[57, 0, 197]",197,a,0.5652420494297985,0,colour,0.5,3.9
52,19,0,1,6,24,274,415.743937539286,416.7431053441833,"[60, 0, 194]",194,a,0.47592502445331775,0,colour,0.5,3.9
52,19,0,1,6,25,275,417.2594644964265,418.1190661297878,"[96, 0, 158]",158,l,0.33626393621671014,1,colour,0.5,3.9
52,19,0,1,6,26,276,418.6345257393841,419.5430551682948,"[55, 0, 199]",199,a,0.3851968517701607,0,colour,0.5,3.9
52,19,0,1,6,27,277,420.05638407479273,421.00706873546005,"[41, 0, 213]",213,a,0.42736232350580394,1,colour,0.5,3.9
52,19,0,1,6,28,278,421.52514623478055,422.3591416220588,"[94, 0, 160]",160,l,0.3106801393441856,1,colour,0.5,3.9
52,19,0,1,6,29,279,422.8687994965294,423.77508361337823,"[27, 0, 227]",227,a,0.3828936444479041,1,colour,0.5,3.9
52,19,0,1,6,30,280,424.29070942566614,425.18301951739704,"[62, 0, 192]",192,l,0.3689523084904067,1,colour,0.5,3.9
52,19,0,1,6,31,281,425.6970215055335,426.5670876085351,"[29, 0, 225]",225,a,0.3469265100429766,1,colour,0.5,3.9
52,19,0,1,6,32,282,427.08757544108084,427.9591294916172,"[69, 0, 185]",185,l,0.3482336825982202,1,colour,0.5,3.9
52,19,0,1,6,33,283,428.47820105645224,429.5190388757037,"[68, 0, 186]",186,l,0.5175083928625099,1,colour,0.5,3.9
52,19,0,1,6,34,284,430.0407271487056,430.9830150275666,"[87, 0, 167]",167,l,0.41893836634699255,1,colour,0.5,3.9
52,19,0,1,6,35,285,431.49383592722006,432.42307059126324,"[33, 0, 221]",221,a,0.4059048438211903,1,colour,0.5,3.9
52,19,0,1,6,36,286,432.9313070780481,433.88716844134615,"[64, 0, 190]",190,l,0.4327658810361754,1,colour,0.5,3.9
52,19,0,1,6,37,287,434.40010389639065,435.3430124754377,"[38, 0, 216]",216,a,0.4195858480234165,1,colour,0.5,3.9
52,19,0,1,6,38,288,435.8532217333268,436.81502110222937,"[42, 0, 212]",212,a,0.4386140898859594,1,colour,0.5,3.9
52,19,0,1,6,39,289,437.32189842886874,438.3590344961267,"[45, 0, 209]",209,a,0.5138101854536217,1,colour,0.5,3.9
52,19,0,1,6,40,290,438.8688109180366,439.7430100336205,"[88, 0, 166]",166,l,0.35080431087408215,1,colour,0.5,3.9
52,19,0,1,6,41,291,440.2593762750912,441.1189869668742,"[76, 0, 178]",178,l,0.3363108038029168,1,colour,0.5,3.9
52,19,0,1,6,42,292,441.63446272411966,442.5590106291056,"[99, 0, 155]",155,l,0.4013070937944576,1,colour,0.5,3.9
52,19,0,1,6,43,293,443.0718598320382,443.9270192842523,"[34, 0, 220]",220,a,0.3318701980460901,1,colour,0.5,3.9
52,19,0,1,6,44,294,444.4469057150127,445.5589996014314,"[93, 0, 161]",161,l,0.588872767490102,1,colour,0.5,3.9
52,19,0,1,6,45,295,446.0718677089608,446.97499870031606,"[15, 0, 239]",239,a,0.3798129865026567,1,colour,0.5,3.9
52,19,0,1,6,46,296,447.49372013669927,448.37501595073263,"[98, 0, 156]",156,l,0.35795299691380933,1,colour,0.5,3.9
52,19,0,1,6,47,297,448.8843504782126,449.7509901270969,"[28, 0, 226]",226,a,0.3436375079327263,1,colour,0.5,3.9
52,19,0,1,6,48,298,450.2593038075429,451.1190192622016,"[36, 0, 218]",218,a,0.33631631764001213,1,colour,0.5,3.9
52,19,0,1,6,49,299,451.63431542599574,452.47897299323813,"[85, 0, 169]",169,l,0.321363193099387,1,colour,0.5,3.9
52,19,0,1,6,50,300,452.99373667818145,453.87897960984265,"[90, 0, 164]",164,l,0.36190641604480334,1,colour,0.5,3.9
52,19,0,1,7,1,301,458.6335273415316,459.51898058658116,"[57, 0, 197]",197,a,0.36131801118608564,0,colour,0.5,3.9
52,19,0,1,7,2,302,460.04058497055667,460.8629721614416,"[47, 0, 207]",207,a,0.2990097153815441,1,colour,0.5,3.9
52,19,0,1,7,3,303,461.38423074924503,462.2469878711563,"[30, 0, 224]",224,a,0.3393650741199963,1,colour,0.5,3.9
52,19,0,1,7,4,304,462.75926087840344,463.58297257105005,"[73, 0, 181]",181,l,0.30035784785286523,1,colour,0.5,3.9
52,19,0,1,7,5,305,464.1030200845562,464.9909766103374,"[54, 0, 200]",200,a,0.36467199778417125,0,colour,0.5,3.9
52,19,0,1,7,6,306,465.5093439797638,466.3829483889567,"[75, 0, 179]",179,l,0.35028837353456765,1,colour,0.5,3.9
52,19,0,1,7,7,307,466.89992351524415,467.92695745054516,"[3, 0, 251]",251,a,0.5037702810659539,1,colour,0.5,3.9
52,19,0,1,7,8,308,468.4467233646428,469.4149361104355,"[7, 0, 247]",247,a,0.44491482703597285,1,colour,0.5,3.9
52,19,0,1,7,9,309,469.9310951892694,470.8790024528862,"[49, 0, 205]",205,a,0.42472355999052525,1,colour,0.5,3.9
52,19,0,1,7,10,310,471.39987310304423,472.3509090737207,"[38, 0, 216]",216,a,0.42805273429257795,1,colour,0.5,3.9
52,19,0,1,7,11,311,472.86854861705797,473.91898680935265,"[22, 0, 232]",232,a,0.5270229076268151,1,colour,0.5,3.9
52,19,0,1,7,12,312,474.43115269066766,475.34292937410646,"[94, 0, 160]",160,l,0.388767847121926,1,colour,0.5,3.9
52,19,0,1,7,13,313,475.85305434907787,476.7429340214585,"[90, 0, 164]",164,l,0.3665955381875392,1,colour,0.5,3.9
52,19,0,1,7,14,314,477.2592368538317,478.1749449010531,"[21, 0, 233]",233,a,0.3924097346025519,1,colour,0.5,3.9
52,19,0,1,7,15,315,478.6811073984718,479.7189114273642,"[92, 0, 162]",162,l,0.5147097281587776,1,colour,0.5,3.9
52,19,0,1,7,16,316,480.2278989771148,481.25494984776014,"[33, 0, 221]",221,a,0.5037112042773515,1,colour,0.5,3.9
52,19,0,1,7,17,317,481.77479216785287,482.7748914168624,"[45, 0, 209]",209,a,0.47668081359006464,1,colour,0.5,3.9
52,19,0,1,7,18,318,483.29040892171906,484.30297416218673,"[24, 0, 230]",230,a,0.4891901280498132,1,colour,0.5,3.9
52,19,0,1,7,19,319,484.82166566629894,485.7829053810274,"[11, 0, 243]",243,a,0.4379209221515339,1,colour,0.5,3.9
52,19,0,1,7,20,320,486.2904258570634,487.2228900525661,"[41, 0, 213]",213,a,0.40914619065006264,1,colour,0.5,3.9
52,19,0,1,7,21,321,487.7435543278116,488.638905692962,"[8, 0, 246]",246,a,0.3720924370572902,1,colour,0.5,3.9
52,19,0,1,7,22,322,489.1497927586024,490.0709335079009,"[64, 0, 190]",190,l,0.3977679999079555,1,colour,0.5,3.9
52,19,0,1,7,23,323,490.5872654848208,491.49488828185713,"[68, 0, 186]",186,l,0.38423508155392483,1,colour,0.5,3.9
52,19,0,1,7,24,324,492.009156903252,492.87887917930493,"[86, 0, 168]",168,l,0.3463656743406318,1,colour,0.5,3.9
52,19,0,1,7,25,325,493.3997758232581,494.2869017292978,"[88, 0, 166]",166,l,0.36371692290413193,1,colour,0.5,3.9
52,19,0,1,7,26,326,494.80597565721837,495.6309240240953,"[96, 0, 158]",158,l,0.30162090971134603,1,colour,0.5,3.9
52,19,0,1,7,27,327,496.14975298024365,497.0309050407668,"[87, 0, 167]",167,l,0.3578994339914061,1,colour,0.5,3.9
52,19,0,1,7,28,328,497.54039316790295,498.4229051762377,"[9, 0, 245]",245,a,0.3592333880078513,1,colour,0.5,3.9
52,19,0,1,7,29,329,498.9309817618341,499.8388514998369,"[10, 0, 244]",244,a,0.38471399739501067,1,colour,0.5,3.9
52,19,0,1,7,30,330,500.35291256476194,501.2309374936158,"[76, 0, 178]",178,l,0.3547419761889614,1,colour,0.5,3.9
52,19,0,1,7,31,331,501.7434987956367,502.5668792643701,"[83, 0, 171]",171,l,0.3000904268701561,1,colour,0.5,3.9
52,19,0,1,7,32,332,503.0872643032926,503.96686225026497,"[13, 0, 241]",241,a,0.35630081591079943,1,colour,0.5,3.9
52,19,0,1,7,33,333,504.4778611679503,505.3188504600839,"[48, 0, 206]",206,a,0.317639385786606,1,colour,0.5,3.9
52,19,0,1,7,34,334,505.8372320079652,506.7668719388312,"[1, 0, 253]",253,a,0.40700130912591703,1,colour,0.5,3.9
52,19,0,1,7,35,335,507.27470709726913,508.166869890847,"[80, 0, 174]",174,l,0.3688589671510272,1,colour,0.5,3.9
52,19,0,1,7,36,336,508.6809683710744,509.54285155027173,"[77, 0, 177]",177,l,0.3388136907014996,1,colour,0.5,3.9
52,19,0,1,7,37,337,510.0559673864627,510.92695075517986,"[56, 0, 198]",198,a,0.34765236693783663,0,colour,0.5,3.9
52,19,0,1,7,38,338,511.4466138756543,512.3269199564529,"[28, 0, 226]",226,a,0.3571085925796069,1,colour,0.5,3.9
52,19,0,1,7,39,339,512.837139060488,513.6948817440134,"[82, 0, 172]",172,l,0.33497409283882007,1,colour,0.5,3.9
52,19,0,1,7,40,340,514.2122113310907,515.0308550223999,"[67, 0, 187]",187,l,0.29536704017664306,1,colour,0.5,3.9
52,19,0,1,7,41,341,515.5403151865175,516.2868603755487,"[44, 0, 210]",210,a,0.2231492027931381,1,colour,0.5,3.9
52,19,0,1,7,42,342,516.8059362726926,517.5748585701513,"[85, 0, 169]",169,l,0.24561138180433773,1,colour,0.5,3.9
52,19,0,1,7,43,343,518.0871303958993,518.9828921478475,"[32, 0, 222]",222,a,0.3727001403749455,1,colour,0.5,3.9
52,19,0,1,7,44,344,519.493399152765,520.3988786436676,"[62, 0, 192]",192,a,0.38216778755304404,0,colour,0.5,3.9
52,19,0,1,7,45,345,520.9153271988034,521.7188318705885,"[2, 0, 252]",252,a,0.28022723298636265,1,colour,0.5,3.9
52,19,0,1,7,46,346,522.2277835804271,523.1588385974756,"[50, 0, 204]",204,a,0.40766493848059326,1,colour,0.5,3.9
52,19,0,1,7,47,347,523.665330349555,524.6708823867666,"[14, 0, 240]",240,a,0.4824711272085551,1,colour,0.5,3.9
52,19,0,1,7,48,348,525.180900235835,526.0788175031194,"[95, 0, 159]",159,l,0.3750447014463134,1,colour,0.5,3.9
52,19,0,1,7,49,349,526.5870602914074,527.5348478260566,"[34, 0, 220]",220,a,0.4242509456234984,1,colour,0.5,3.9
52,19,0,1,7,50,350,528.0559295773273,529.0067867422185,"[52, 0, 202]",202,a,0.42759508604649454,0,colour,0.5,3.9
52,19,0,1,8,1,351,537.2425740468607,538.1427945214673,"[88, 0, 166]",166,l,0.37623056964366697,1,colour,0.5,3.9
52,19,0,1,8,2,352,538.6497025680437,539.4947815497871,"[9, 0, 245]",245,a,0.3219291488057934,1,colour,0.5,3.9
52,19,0,1,8,3,353,540.0089343806612,540.7827651721018,"[77, 0, 177]",177,l,0.25053799265879206,1,colour,0.5,3.9
52,19,0,1,8,4,354,541.2901860052662,542.1668785554357,"[12, 0, 242]",242,a,0.35333909920882434,1,colour,0.5,3.9
52,19,0,1,8,5,355,542.6807860207045,543.4308403713512,"[75, 0, 179]",179,l,0.2269277545856312,1,colour,0.5,3.9
52,19,0,1,8,6,356,543.9463960792054,544.7508392843301,"[24, 0, 230]",230,a,0.2812094831606373,1,colour,0.5,3.9
52,19,0,1,8,7,357,545.2589686451829,546.1747932706203,"[30, 0, 224]",224,a,0.39263816489255987,1,colour,0.5,3.9
52,19,0,1,8,8,358,546.6807907468465,547.48676719176,"[85, 0, 169]",169,l,0.28293295021285303,1,colour,0.5,3.9
52,19,0,1,8,9,359,547.9932195593137,548.8707868398924,"[13, 0, 241]",241,a,0.3541638112801593,1,colour,0.5,3.9
52,19,0,1,8,10,360,549.3839519067842,550.1988312246976,"[92, 0, 162]",162,l,0.2916294483002275,1,colour,0.5,3.9
52,19,0,1,8,11,361,550.7120616698812,551.5827697407221,"[5, 0, 249]",249,a,0.3474046382470988,1,colour,0.5,3.9
52,19,0,1,8,12,362,552.102709734434,553.0067469638598,"[1, 0, 253]",253,a,0.3807022891996894,1,colour,0.5,3.9
52,19,0,1,8,13,363,553.5245550729742,554.3987884530798,"[8, 0, 246]",246,a,0.3509559413068928,1,colour,0.5,3.9
52,19,0,1,8,14,364,554.9151389407634,555.8227558301005,"[91, 0, 163]",163,l,0.38485302482149564,1,colour,0.5,3.9
52,19,0,1,8,15,365,556.3369582854793,557.3027922056499,"[63, 0, 191]",191,a,0.44245329388650134,0,colour,0.5,3.9
52,19,0,1,8,16,366,557.8213371993334,558.6948667778925,"[10, 0, 244]",244,a,0.35026710588135757,1,colour,0.5,3.9
52,19,0,1,8,17,367,559.2120411899232,560.0627301041386,"[87, 0, 167]",167,l,0.3273984785191715,1,colour,0.5,3.9
52,19,0,1,8,18,368,560.5713588608196,561.518750974763,"[49, 0, 205]",205,a,0.42402999839396216,1,colour,0.5,3.9
52,19,0,1,8,19,369,562.0401462268783,562.9588018123177,"[16, 0, 238]",238,a,0.39543958648573607,1,colour,0.5,3.9
52,19,0,1,8,20,370,563.4776425838354,564.3667688301357,"[97, 0, 157]",157,l,0.3658314783242531,1,colour,0.5,3.9
52,19,0,1,8,21,371,564.8838026394078,565.7827427229204,"[47, 0, 207]",207,a,0.3755181034794077,1,colour,0.5,3.9
52,19,0,1,8,22,372,566.3408242709702,567.2227376344381,"[17, 0, 237]",237,a,0.3624782794213388,1,colour,0.5,3.9
52,19,0,1,8,23,373,567.7431927778234,568.6227371618443,"[3, 0, 251]",251,a,0.35614761008764617,1,colour,0.5,3.9
52,19,0,1,8,24,374,569.1339471806132,570.0227295999939,"[25, 0, 229]",229,a,0.3656534602341708,1,colour,0.5,3.9
52,19,0,1,8,25,375,570.5400828178099,571.5587132759101,"[71, 0, 183]",183,l,0.49536719772731885,1,colour,0.5,3.9
52,19,0,1,8,26,376,572.0713501962309,572.9347512552049,"[65, 0, 189]",189,l,0.3402295645500999,1,colour,0.5,3.9
52,19,0,1,8,27,377,573.44631809782,574.2627625569876,"[80, 0, 174]",174,l,0.2931934079970233,1,colour,0.5,3.9
52,19,0,1,8,28,378,574.7744278609462,575.6227391310676,"[29, 0, 225]",225,a,0.3250035052187741,1,colour,0.5,3.9
52,19,0,1,8,29,379,576.1338215439755,576.9107069995953,"[84, 0, 170]",170,l,0.25364070598152466,1,colour,0.5,3.9
52,19,0,1,8,30,380,577.4306836209144,578.3747091452533,"[42, 0, 212]",212,a,0.4209611558180768,1,colour,0.5,3.9
52,19,0,1,8,31,381,578.8837321410829,579.910817276279,"[62, 0, 192]",192,l,0.5037328657635953,1,colour,0.5,3.9
52,19,0,1,8,32,382,580.4307151285466,581.4146978340286,"[19, 0, 235]",235,a,0.46093645386281423,1,colour,0.5,3.9
52,19,0,1,8,33,383,581.9306836209144,582.8306985082745,"[7, 0, 247]",247,a,0.37692294968292117,1,colour,0.5,3.9
52,19,0,1,8,34,384,583.3368940887158,584.2227002191357,"[41, 0, 213]",213,a,0.36244401487056166,1,colour,0.5,3.9
52,19,0,1,8,35,385,584.7431656025001,585.5507205793692,"[70, 0, 184]",184,l,0.2842763565131463,1,colour,0.5,3.9
52,19,0,1,8,36,386,586.0712741840689,586.9586848402687,"[58, 0, 196]",196,l,0.3641796911251731,1,colour,0.5,3.9
52,19,0,1,8,37,387,587.477498436434,588.3587481706054,"[83, 0, 171]",171,l,0.3578639878833201,1,colour,0.5,3.9
52,19,0,1,8,38,388,588.8680834857514,589.7107135374099,"[68, 0, 186]",186,l,0.32000166989746504,1,colour,0.5,3.9
52,19,0,1,8,39,389,590.2274996179913,591.0306494351535,"[39, 0, 215]",215,a,0.27984047689824365,1,colour,0.5,3.9
52,19,0,1,8,40,390,591.5400375255849,592.3988699790789,"[11, 0, 243]",243,a,0.33565071909106337,1,colour,0.5,3.9
52,19,0,1,8,41,391,592.9149664365104,593.8147150844452,"[50, 0, 204]",204,a,0.3765629750851076,1,colour,0.5,3.9
52,19,0,1,8,42,392,594.3212399195472,595.2146890118893,"[56, 0, 198]",198,a,0.37013935821596533,0,colour,0.5,3.9
52,19,0,1,8,43,393,595.727472836501,596.63071410454,"[60, 0, 194]",194,a,0.37996107232174836,0,colour,0.5,3.9
52,19,0,1,8,44,394,597.1493047842814,598.0546570631559,"[21, 0, 233]",233,a,0.3820508155040443,1,colour,0.5,3.9
52,19,0,1,8,45,395,598.5711871442618,599.3746512499929,"[99, 0, 155]",155,l,0.28015200851950794,1,colour,0.5,3.9
52,19,0,1,8,46,396,599.8836549474217,600.7346829624148,"[40, 0, 214]",214,a,0.3276785025082063,1,colour,0.5,3.9
52,19,0,1,8,47,397,601.2430659596575,602.1988012924558,"[64, 0, 190]",190,l,0.43249609699705616,1,colour,0.5,3.9
52,19,0,1,8,48,398,602.7117946427607,603.7986391069426,"[14, 0, 240]",240,a,0.5635433946445119,1,colour,0.5,3.9
52,19,0,1,8,49,399,604.3054920151772,605.2227529944212,"[72, 0, 182]",182,l,0.39390477136475965,1,colour,0.5,3.9
52,19,0,1,8,50,400,605.7430758057744,607.070654271578,"[52, 0, 202]",202,a,0.8043664053257089,0,colour,0.5,3.9
52,19,0,1,9,1,401,616.2265795953572,616.9826333914825,"[52, 0, 202]",202,l,0.23203671583905816,1,colour,0.5,3.9
52,19,0,1,9,2,402,617.4930324828019,618.3266883754404,"[84, 0, 170]",170,l,0.3104351675719954,1,colour,0.5,3.9
52,19,0,1,9,3,403,618.8367672705208,619.7266181921877,"[95, 0, 159]",159,l,0.3668826514331158,1,colour,0.5,3.9
52,19,0,1,9,4,404,620.2429399291577,621.1026727129938,"[61, 0, 193]",193,a,0.3364454988914076,0,colour,0.5,3.9
52,19,0,1,9,5,405,621.6187400258787,622.5268452833989,"[22, 0, 232]",232,a,0.3855828201631084,1,colour,0.5,3.9
52,19,0,1,9,6,406,623.0398677782505,623.9506271592691,"[45, 0, 209]",209,a,0.38752014518831857,1,colour,0.5,3.9
52,19,0,1,9,7,407,624.4617107537051,625.3265914894873,"[37, 0, 217]",217,a,0.34153437401982956,1,colour,0.5,3.9
52,19,0,1,9,8,408,625.8367467905628,626.6466329377727,"[85, 0, 169]",169,l,0.28740703282528557,1,colour,0.5,3.9
52,19,0,1,9,9,409,627.1648053537938,628.1027215498034,"[58, 0, 196]",196,l,0.41474115700111724,1,colour,0.5,3.9
52,19,0,1,9,10,410,628.6179046799953,629.446627660247,"[91, 0, 163]",163,l,0.305517221277114,1,colour,0.5,3.9
52,19,0,1,9,11,411,629.9616166246997,631.0626363689371,"[65, 0, 189]",189,l,0.5777174931718037,1,colour,0.5,3.9
52,19,0,1,9,12,412,631.571020547708,632.5186233689019,"[86, 0, 168]",168,l,0.42420644109370187,1,colour,0.5,3.9
52,19,0,1,9,13,413,633.0398630521086,633.9585627482156,"[98, 0, 156]",156,l,0.3954695187276229,1,colour,0.5,3.9
52,19,0,1,9,14,414,634.4772562215803,635.3345912752266,"[26, 0, 228]",228,a,0.33400523342425004,1,colour,0.5,3.9
52,19,0,1,9,15,415,635.8522587815823,636.7346097072004,"[68, 0, 186]",186,l,0.3589872347074561,1,colour,0.5,3.9
52,19,0,1,9,16,416,637.2429844336584,639.9026875215641,"[15, 0, 239]",239,a,2.136565464170417,1,colour,0.5,3.9
52,19,0,1,9,17,417,640.4147801476938,641.3745472748415,"[3, 0, 251]",251,a,0.4366712510236539,1,colour,0.5,3.9
52,19,0,1,9,18,418,641.8834804739454,642.9106124766986,"[2, 0, 252]",252,a,0.5037490134127438,1,colour,0.5,3.9
52,19,0,1,9,19,419,643.4304638552421,644.3586008724524,"[70, 0, 184]",184,l,0.4050604394869879,1,colour,0.5,3.9
52,19,0,1,9,20,420,644.8679105876654,645.8548967574025,"[27, 0, 227]",227,a,0.4637516600487288,1,colour,0.5,3.9
52,19,0,1,9,21,421,646.3678782923671,647.3426024825021,"[11, 0, 243]",243,a,0.4514152437041048,1,colour,0.5,3.9
52,19,0,1,9,22,422,647.8521721356083,648.9026048140659,"[41, 0, 213]",213,a,0.5271091597387567,1,colour,0.5,3.9
52,19,0,1,9,23,423,649.4146206403384,651.286602406879,"[71, 0, 183]",183,l,1.348644463258097,1,colour,0.5,3.9
52,19,0,1,9,24,424,651.8052844587073,652.9585907112341,"[28, 0, 226]",226,a,0.6300429921539035,1,colour,0.5,3.9
52,19,0,1,9,25,425,653.4771727263869,654.582540522737,"[80, 0, 174]",174,l,0.5820434899651445,1,colour,0.5,3.9
52,19,0,1,9,26,426,655.1022158524429,656.1745270311949,"[50, 0, 204]",204,a,0.5490250753646251,1,colour,0.5,3.9
52,19,0,1,9,27,427,656.6959218894481,657.5985152820067,"[69, 0, 185]",185,l,0.37936597209773026,1,colour,0.5,3.9
52,19,0,1,9,28,428,658.1177432034165,659.126598027302,"[38, 0, 216]",216,a,0.48551318829413503,1,colour,0.5,3.9
52,19,0,1,9,29,429,659.6334150956245,660.6625320787134,"[13, 0, 241]",241,a,0.5058970456884708,1,colour,0.5,3.9
52,19,0,1,9,30,430,661.180234243453,662.1665225192846,"[36, 0, 218]",218,a,0.4633523009251803,1,colour,0.5,3.9
52,19,0,1,9,31,431,662.6802842617908,663.6545799482265,"[4, 0, 250]",250,a,0.4511844503285829,1,colour,0.5,3.9
52,19,0,1,9,32,432,664.1645741665852,665.0945346875524,"[90, 0, 164]",164,l,0.4067350697296206,1,colour,0.5,3.9
52,19,0,1,9,33,433,665.6021457479801,666.5185583844141,"[74, 0, 180]",180,l,0.39311865612398833,1,colour,0.5,3.9
52,19,0,1,9,34,434,667.0396968494169,667.9105081077141,"[0, 0, 254]",254,a,0.3477295606280677,1,colour,0.5,3.9
52,19,0,1,9,35,435,668.4302196711651,669.4785161326872,"[1, 0, 253]",253,a,0.5249725489702541,1,colour,0.5,3.9
52,19,0,1,9,36,436,669.9926638435863,671.0545286695706,"[89, 0, 165]",165,l,0.5385263411444612,1,colour,0.5,3.9
52,19,0,1,9,37,437,671.5707491882786,672.5106180693256,"[79, 0, 175]",175,l,0.416450445598457,1,colour,0.5,3.9
52,19,0,1,9,38,438,673.0239863603492,674.0545011004142,"[82, 0, 172]",172,l,0.5079351951135322,1,colour,0.5,3.9
52,19,0,1,9,39,439,674.5707586405915,675.5905143147102,"[33, 0, 221]",221,a,0.49636874633142725,1,colour,0.5,3.9
52,19,0,1,9,40,440,676.1020598897012,676.9424958291929,"[12, 0, 242]",242,a,0.31705452551250346,1,colour,0.5,3.9
52,19,0,1,9,41,441,677.4622255095164,678.2464821737958,"[75, 0, 179]",179,l,0.26180590674630366,1,colour,0.5,3.9
52,19,0,1,9,42,442,678.7584212002403,679.6464919411519,"[18, 0, 236]",236,a,0.36485946812899783,1,colour,0.5,3.9
52,19,0,1,9,43,443,680.1645442343433,680.9664751003147,"[20, 0, 234]",234,a,0.278858226723969,1,colour,0.5,3.9
52,19,0,1,9,44,444,681.4770120375033,682.6305026096234,"[62, 0, 192]",192,a,0.6302450347866397,0,colour,0.5,3.9
52,19,0,1,9,45,445,683.1489203912788,683.9664829772373,"[64, 0, 190]",190,l,0.2943182301532943,1,colour,0.5,3.9
52,19,0,1,9,46,446,684.4770344866847,685.3504593023972,"[9, 0, 245]",245,a,0.35013556154444814,1,colour,0.5,3.9
52,19,0,1,9,47,447,685.8676782189577,686.798529224121,"[53, 0, 201]",201,a,0.40760428630164824,0,colour,0.5,3.9
52,19,0,1,9,48,448,687.3051674866583,688.2064769435092,"[23, 0, 231]",231,a,0.3781308731995523,1,colour,0.5,3.9
52,19,0,1,9,49,449,688.7270715081249,689.4944979811553,"[21, 0, 233]",233,a,0.24406750823254697,1,colour,0.5,3.9
52,19,0,1,9,50,450,690.008262874413,691.0384790797252,"[39, 0, 215]",215,a,0.5069056834909134,1,colour,0.5,3.9
52,19,0,1,10,1,451,697.2418147131102,698.1744896158925,"[52, 0, 202]",202,a,0.40892169883591123,0,colour,0.5,3.9
52,19,0,1,10,2,452,698.6957966466434,699.6225335438212,"[73, 0, 181]",181,l,0.4035835196264088,1,colour,0.5,3.9
52,19,0,1,10,3,453,700.133168154629,700.9424729861494,"[65, 0, 189]",189,l,0.28601557735237293,1,colour,0.5,3.9
52,19,0,1,10,4,454,701.4612865823146,702.3105233889073,"[51, 0, 203]",203,a,0.32590383558999747,0,colour,0.5,3.9
52,19,0,1,10,5,455,702.8206475762127,703.6304431389726,"[97, 0, 157]",157,l,0.2863956380751915,1,colour,0.5,3.9
52,19,0,1,10,6,456,704.1487916038604,704.894459699397,"[57, 0, 197]",197,a,0.222406804386992,0,colour,0.5,3.9
52,19,0,1,10,7,457,705.414415053092,706.3744677180948,"[43, 0, 211]",211,a,0.43693118894589134,1,colour,0.5,3.9
52,19,0,1,10,8,458,706.8831468869757,707.7984220981889,"[14, 0, 240]",240,a,0.3919552371080499,1,colour,0.5,3.9
52,19,0,1,10,9,459,708.3050264900376,709.174466772849,"[84, 0, 170]",170,l,0.34624633920611814,1,colour,0.5,3.9
52,19,0,1,10,10,460,709.6958179142966,710.5824270953017,"[44, 0, 210]",210,a,0.36345580345368944,1,colour,0.5,3.9
52,19,0,1,10,11,461,711.1018728131894,712.0464702008758,"[31, 0, 223]",223,a,0.42134594268281944,1,colour,0.5,3.9
52,19,0,1,10,12,462,712.5550859606883,713.5425250525004,"[12, 0, 242]",242,a,0.46451650763629004,1,colour,0.5,3.9
52,19,0,1,10,13,463,714.0550020716328,715.0784370485635,"[39, 0, 215]",215,a,0.5002918393583968,1,colour,0.5,3.9
52,19,0,1,10,14,464,715.5863805144327,716.5503999892971,"[48, 0, 206]",206,a,0.440799537464045,1,colour,0.5,3.9
52,19,0,1,10,15,465,717.0705530533451,718.0784516208514,"[37, 0, 217]",217,a,0.48455141807789914,1,colour,0.5,3.9
52,19,0,1,10,16,466,718.5862414870353,719.6064110925945,"[16, 0, 238]",238,a,0.4967972500307951,1,colour,0.5,3.9
52,19,0,1,10,17,467,720.1174891731935,721.0703986659646,"[63, 0, 191]",191,l,0.42964544470305555,1,colour,0.5,3.9
52,19,0,1,10,18,468,721.5862611792982,722.4544403694745,"[8, 0, 246]",246,a,0.34486079146154225,1,colour,0.5,3.9
52,19,0,1,10,19,469,722.9612227793841,723.7903923802078,"[82, 0, 172]",172,l,0.3058890112442896,1,colour,0.5,3.9
52,19,0,1,10,20,470,724.3050146746973,725.158414032252,"[45, 0, 209]",209,a,0.3302471615606919,1,colour,0.5,3.9
52,19,0,1,10,21,471,725.6799179856607,726.542400597391,"[53, 0, 201]",201,a,0.3392744896991644,0,colour,0.5,3.9
52,19,0,1,10,22,472,727.0550308223465,727.9823829058732,"[55, 0, 199]",199,a,0.4042057952028699,0,colour,0.5,3.9
52,19,0,1,10,23,473,728.4925460838422,729.326355969999,"[85, 0, 169]",169,l,0.3106183056079317,1,colour,0.5,3.9
52,19,0,1,10,24,474,729.8361733517959,730.6943602928368,"[47, 0, 207]",207,a,0.33547506408649497,1,colour,0.5,3.9
52,19,0,1,10,25,475,731.21116133951,732.0385263411736,"[70, 0, 184]",184,l,0.30401470145443454,1,colour,0.5,3.9
52,19,0,1,10,26,476,732.5549662317208,733.4703832272498,"[18, 0, 236]",236,a,0.39220926736015826,1,colour,0.5,3.9
52,19,0,1,10,27,477,733.9768710408825,734.8863866584143,"[61, 0, 193]",193,l,0.3862448740983382,1,colour,0.5,3.9
52,19,0,1,10,28,478,735.3986813271767,736.246417189308,"[58, 0, 196]",196,a,0.3244706325349398,0,colour,0.5,3.9
52,19,0,1,10,29,479,736.7580190841691,737.6144033952733,"[34, 0, 220]",220,a,0.3331076599715743,1,colour,0.5,3.9
52,19,0,1,10,30,480,738.13300077038,738.9664140543027,"[0, 0, 254]",254,a,0.3100594391289633,1,colour,0.5,3.9
52,19,0,1,10,31,481,739.4767918779689,740.5823770769639,"[19, 0, 235]",235,a,0.5823821969388518,1,colour,0.5,3.9
52,19,0,1,10,32,482,741.101789711829,741.9823624259152,"[86, 0, 168]",168,l,0.3573768012574874,1,colour,0.5,3.9
52,19,0,1,10,33,483,742.4924003610795,743.4863512911252,"[32, 0, 222]",222,a,0.47074714029440656,1,colour,0.5,3.9
52,19,0,1,10,34,484,744.0080017549917,744.8704327729647,"[93, 0, 161]",161,l,0.3391433391952887,1,colour,0.5,3.9
52,19,0,1,10,35,485,745.383036216459,746.2863625550817,"[90, 0, 164]",164,l,0.3800374783168081,1,colour,0.5,3.9
52,19,0,1,10,36,486,746.8048496535048,747.7264189064736,"[54, 0, 200]",200,a,0.3983477402071003,0,colour,0.5,3.9
52,19,0,1,10,37,487,748.2423373458441,749.1423656239349,"[40, 0, 214]",214,a,0.37668152252445,1,colour,0.5,3.9
52,19,0,1,10,38,488,749.6485903488938,750.566304644075,"[49, 0, 205]",205,a,0.3944081056397408,1,colour,0.5,3.9
52,19,0,1,10,39,489,751.0861532657,751.9903082548408,"[94, 0, 160]",160,l,0.38090196874691173,1,colour,0.5,3.9
52,19,0,1,10,40,490,752.5079544935434,753.4703300581314,"[72, 0, 182]",182,l,0.43906898121349514,1,colour,0.5,3.9
52,19,0,1,10,41,491,753.976670179778,754.7823874744645,"[87, 0, 167]",167,l,0.2823622683645226,1,colour,0.5,3.9
52,19,0,1,10,42,492,755.2892986717925,756.1582943032845,"[29, 0, 225]",225,a,0.3458497370011173,1,colour,0.5,3.9
52,19,0,1,10,43,493,756.6797994382214,759.4383226443897,"[56, 0, 198]",198,l,2.2353064195194747,1,colour,0.5,3.9
52,19,0,1,10,44,494,759.9453996505763,760.8302707922703,"[92, 0, 162]",162,l,0.36162087818956934,1,colour,0.5,3.9
52,19,0,1,10,45,495,761.351687705901,762.3343254296633,"[20, 0, 234]",234,a,0.4593279896362219,1,colour,0.5,3.9
52,19,0,1,10,46,496,762.8516408382857,763.8383548609272,"[5, 0, 249]",249,a,0.46340350082027726,1,colour,0.5,3.9
52,19,0,1,10,47,497,764.3516239029414,765.270310996013,"[21, 0, 233]",233,a,0.3951993408554699,1,colour,0.5,3.9
52,19,0,1,10,48,498,765.789138770604,766.6703333664336,"[22, 0, 232]",232,a,0.357813969545532,1,colour,0.5,3.9
52,19,0,1,10,49,499,767.179782109044,768.0462921828148,"[24, 0, 230]",230,a,0.3435154159087688,1,colour,0.5,3.9
52,19,0,1,10,50,500,768.5547169276397,769.4703670795716,"[98, 0, 156]",156,l,0.3923640485445503,1,colour,0.5,3.9
52,19,0,1,11,1,501,776.4601991754607,778.3502990073466,"[64, 0, 190]",190,l,1.3660532132198568,1,colour,0.5,3.9
52,19,0,1,11,2,502,778.8672524721769,779.6862415658252,"[44, 0, 210]",210,a,0.29577782086562365,1,colour,0.5,3.9
52,19,0,1,11,3,503,780.1954035890521,781.1822846020805,"[53, 0, 201]",201,l,0.46366304488037713,1,colour,0.5,3.9
52,19,0,1,11,4,504,781.6953464814869,782.5422903207073,"[11, 0, 243]",243,a,0.3237191757070832,1,colour,0.5,3.9
52,19,0,1,11,5,505,783.0547192906961,784.7742533874698,"[52, 0, 202]",202,l,1.1962503564427607,1,colour,0.5,3.9
52,19,0,1,11,6,506,785.2891214414267,786.214291228127,"[77, 0, 177]",177,l,0.401861234131502,1,colour,0.5,3.9
52,19,0,1,11,7,507,786.726588653808,787.6462985631078,"[54, 0, 200]",200,a,0.396485639619641,0,colour,0.5,3.9
52,19,0,1,11,8,508,788.1641121860594,789.0863348283747,"[63, 0, 191]",191,l,0.3992012029630132,1,colour,0.5,3.9
52,19,0,1,11,9,509,789.6016305983358,790.4943140553951,"[28, 0, 226]",226,a,0.3694379197258968,1,colour,0.5,3.9
52,19,0,1,11,10,510,791.0077729308687,791.8382843626023,"[76, 0, 178]",178,l,0.3075663983763661,1,colour,0.5,3.9
52,19,0,1,11,11,511,792.3515187462617,793.2302573227789,"[32, 0, 222]",222,a,0.35539024556055665,1,colour,0.5,3.9
52,19,0,1,11,12,512,793.7421683862049,794.902270439401,"[27, 0, 227]",227,a,0.6367970452120062,1,colour,0.5,3.9
52,19,0,1,11,13,513,795.4140578354127,796.3422492032696,"[95, 0, 159]",159,l,0.4052006484416779,1,colour,0.5,3.9
52,19,0,1,11,14,514,796.8515262293222,797.7662618724862,"[6, 0, 248]",248,a,0.3914440259395633,1,colour,0.5,3.9
52,19,0,1,11,15,515,798.2734015000751,799.2862546414835,"[38, 0, 216]",216,a,0.4895634933782276,1,colour,0.5,3.9
52,19,0,1,11,16,516,799.8046283124422,800.7502217349247,"[67, 0, 187]",187,l,0.42239829734899104,1,colour,0.5,3.9
52,19,0,1,11,17,517,801.2577382724849,802.1902733601455,"[26, 0, 228]",228,a,0.4092470150499139,1,colour,0.5,3.9
52,19,0,1,11,18,518,802.710835629463,803.6942539545998,"[1, 0, 253]",253,a,0.4600932310568169,1,colour,0.5,3.9
52,19,0,1,11,19,519,804.2108628047863,805.2382890099834,"[18, 0, 236]",236,a,0.5041786986403167,1,colour,0.5,3.9
52,19,0,1,11,20,520,805.7577193678881,806.6703262772062,"[85, 0, 169]",169,l,0.3893562519806437,1,colour,0.5,3.9
52,19,0,1,11,21,521,807.1795938509749,808.0302106915042,"[86, 0, 168]",168,l,0.3275122998165898,1,colour,0.5,3.9
52,19,0,1,11,22,522,808.5390832384292,809.3901852963318,"[0, 0, 254]",254,a,0.3279022066271864,1,colour,0.5,3.9
52,19,0,1,11,23,523,809.8983237156353,810.8141837871226,"[24, 0, 230]",230,a,0.39251252822577953,1,colour,0.5,3.9
52,19,0,1,11,24,524,811.3201068266062,812.2141730745498,"[17, 0, 237]",237,a,0.3706982247240376,1,colour,0.5,3.9
52,19,0,1,11,25,525,812.7264468694921,813.5742240853724,"[96, 0, 158]",158,l,0.3245041093614418,1,colour,0.5,3.9
52,19,0,1,11,26,526,814.0858188910352,815.062193686812,"[57, 0, 197]",197,a,0.45309144927887246,0,colour,0.5,3.9
52,19,0,1,11,27,527,815.570192291023,816.4222112208081,"[90, 0, 164]",164,l,0.3287099833250977,1,colour,0.5,3.9
52,19,0,1,11,28,528,816.9295363495767,817.8622140092484,"[91, 0, 163]",163,l,0.40934626405942254,1,colour,0.5,3.9
52,19,0,1,11,29,529,818.3826187404338,819.2942229195905,"[30, 0, 224]",224,a,0.3882586051186081,1,colour,0.5,3.9
52,19,0,1,11,30,530,819.8045038573327,820.7101712124422,"[19, 0, 235]",235,a,0.3824482054042164,1,colour,0.5,3.9
52,19,0,1,11,31,531,821.2265181554831,822.1262140281615,"[21, 0, 233]",233,a,0.37658621196169406,1,colour,0.5,3.9
52,19,0,1,11,32,532,822.632644734229,823.5982005996048,"[37, 0, 217]",217,a,0.44225912814727053,1,colour,0.5,3.9
52,19,0,1,11,33,533,824.1169842635281,825.038213627995,"[7, 0, 247]",247,a,0.3979523195012007,1,colour,0.5,3.9
52,19,0,1,11,34,534,825.5544881035166,826.4941722710792,"[47, 0, 207]",207,a,0.4164461132895667,1,colour,0.5,3.9
52,19,0,1,11,35,535,827.0076177558221,827.9342175947968,"[72, 0, 182]",182,l,0.4032270896132104,1,colour,0.5,3.9
52,19,0,1,11,36,536,828.4451298665663,829.3262275764137,"[35, 0, 219]",219,a,0.35823577785049565,1,colour,0.5,3.9
52,19,0,1,11,37,537,829.8357661157497,830.6621342949511,"[66, 0, 188]",188,l,0.30363936687354,1,colour,0.5,3.9
52,19,0,1,11,38,538,831.1794603374146,832.1342016046983,"[56, 0, 198]",198,a,0.4317832369997632,0,colour,0.5,3.9
52,19,0,1,11,39,539,832.648204774363,833.5345398390491,"[89, 0, 165]",165,l,0.3632663638854865,1,colour,0.5,3.9
52,19,0,1,11,40,540,834.0544707743102,834.9262020552414,"[98, 0, 156]",156,l,0.3484723528381437,1,colour,0.5,3.9
52,19,0,1,11,41,541,835.445174371067,836.3341584392474,"[8, 0, 246]",246,a,0.3660366717376746,1,colour,0.5,3.9
52,19,0,1,11,42,542,836.8513710542757,837.774158076907,"[99, 0, 155]",155,l,0.3999164260167163,1,colour,0.5,3.9
52,19,0,1,11,43,543,838.2887894298183,839.2301277476654,"[97, 0, 157]",157,l,0.4180329160008114,1,colour,0.5,3.9
52,19,0,1,11,44,544,839.7419167190674,840.7021607928618,"[61, 0, 193]",193,a,0.43696702882880345,0,colour,0.5,3.9
52,19,0,1,11,45,545,841.2106237406842,842.182129820867,"[34, 0, 220]",220,a,0.4481223031471018,1,colour,0.5,3.9
52,19,0,1,11,46,546,842.6950810297276,843.7661224512267,"[46, 0, 208]",208,a,0.5479995021596551,1,colour,0.5,3.9
52,19,0,1,11,47,547,844.2731435314054,845.2141325084667,"[74, 0, 180]",180,l,0.417711932095699,1,colour,0.5,3.9
52,19,0,1,11,48,548,845.7262928759737,846.6861163229914,"[5, 0, 249]",249,a,0.4365865742729511,1,colour,0.5,3.9
52,19,0,1,11,49,549,847.195031799085,848.0781538737938,"[81, 0, 173]",173,l,0.3598001313803252,1,colour,0.5,3.9
52,19,0,1,11,50,550,848.5855940053589,849.5021692999289,"[33, 0, 221]",221,a,0.39317261293763295,1,colour,0.5,3.9
52,19,0,1,12,1,551,855.975445320888,856.8941005124652,"[99, 0, 155]",155,l,0.3944742716557812,1,colour,0.5,3.9
52,19,0,1,12,2,552,857.413810894388,858.3500934201002,"[85, 0, 169]",169,l,0.4132343048695475,1,colour,0.5,3.9
52,19,0,1,12,3,553,858.8668090023566,859.8140955657873,"[58, 0, 196]",196,a,0.42401424460695125,0,colour,0.5,3.9
52,19,0,1,12,4,554,860.3354155934358,861.1661113447917,"[95, 0, 159]",159,l,0.3071808238164522,1,colour,0.5,3.9
52,19,0,1,12,5,555,861.6793335192488,862.5581154187385,"[52, 0, 202]",202,a,0.35550327916280366,0,colour,0.5,3.9
52,19,0,1,12,6,556,863.0700828020344,863.9821198171994,"[39, 0, 215]",215,a,0.3889427144022193,1,colour,0.5,3.9
52,19,0,1,12,7,557,864.4918076239119,865.3820768092992,"[86, 0, 168]",168,l,0.3669984419539105,1,colour,0.5,3.9
52,19,0,1,12,8,558,865.8980330578052,866.8221099238144,"[67, 0, 187]",187,l,0.4009097038942855,1,colour,0.5,3.9
52,19,0,1,12,9,559,867.3355046024953,868.2780890468566,"[83, 0, 171]",171,l,0.41921642114175484,1,colour,0.5,3.9
52,19,0,1,12,10,560,868.7886110178952,869.6941310748807,"[2, 0, 252]",252,a,0.38215085220872425,1,colour,0.5,3.9
52,19,0,1,12,11,561,870.2105422147142,871.0380883851903,"[82, 0, 172]",172,l,0.30433056538458914,1,colour,0.5,3.9
52,19,0,1,12,12,562,871.5543092977605,872.4381091802206,"[5, 0, 249]",249,a,0.3611104546871502,1,colour,0.5,3.9
52,19,0,1,12,13,563,872.944930580823,873.8781237840012,"[35, 0, 219]",219,a,0.4099653888551984,1,colour,0.5,3.9
52,19,0,1,12,14,564,874.3980346331955,875.3980606269906,"[18, 0, 236]",236,a,0.47683283788501285,1,colour,0.5,3.9
52,19,0,1,12,15,565,875.913586796436,876.894104057079,"[84, 0, 170]",170,l,0.4573367077973671,1,colour,0.5,3.9
52,19,0,1,12,16,566,877.4135997933045,878.3421105697053,"[96, 0, 158]",158,l,0.4053573988494463,1,colour,0.5,3.9
52,19,0,1,12,17,567,878.8510969379277,879.758018690336,"[8, 0, 246]",246,a,0.3836206828709692,1,colour,0.5,3.9
52,19,0,1,12,18,568,880.2729670887056,881.18207389483,"[48, 0, 206]",206,a,0.385782105877297,1,colour,0.5,3.9
52,19,0,1,12,19,569,881.6949392454408,882.6781074788014,"[43, 0, 211]",211,a,0.46002155120368116,1,colour,0.5,3.9
52,19,0,1,12,20,570,883.1948250302812,884.2060346552462,"[37, 0, 217]",217,a,0.48789516469696537,1,colour,0.5,3.9
52,19,0,1,12,21,571,884.726105799462,885.7500783752184,"[69, 0, 185]",185,l,0.5007640598923899,1,colour,0.5,3.9
52,19,0,1,12,22,572,886.2573211902927,887.1181256271957,"[64, 0, 190]",190,l,0.33749667200027034,1,colour,0.5,3.9
52,19,0,1,12,23,573,887.6323875532253,888.4700071049738,"[97, 0, 157]",157,l,0.31437874052789994,1,colour,0.5,3.9
52,19,0,1,12,24,574,888.9760798056668,889.8460356319847,"[73, 0, 181]",181,l,0.3466535752522759,1,colour,0.5,3.9
52,19,0,1,12,25,575,890.366668793431,891.3100688914419,"[79, 0, 175]",175,l,0.42012068995973095,1,colour,0.5,3.9
52,19,0,1,12,26,576,891.8199181747041,892.8620521388366,"[1, 0, 253]",253,a,0.5189002421393525,1,colour,0.5,3.9
52,19,0,1,12,27,577,893.3823296579649,894.3020375980414,"[45, 0, 209]",209,a,0.3966416023322381,1,colour,0.5,3.9
52,19,0,1,12,28,578,894.8198145933857,895.8860278653447,"[56, 0, 198]",198,a,0.5429504054191057,0,colour,0.5,3.9
52,19,0,1,12,29,579,896.3979542887537,897.430021173117,"[14, 0, 240]",240,a,0.5090580480464268,1,colour,0.5,3.9
52,19,0,1,12,30,580,897.9447565012088,898.9900455600291,"[41, 0, 213]",213,a,0.5220781798707321,1,colour,0.5,3.9
52,19,0,1,12,31,581,899.5072530550533,900.6300103029935,"[16, 0, 238]",238,a,0.5993785908794962,1,colour,0.5,3.9
52,19,0,1,12,32,582,901.1478381043707,902.1739965215675,"[20, 0, 234]",234,a,0.5027797601360362,1,colour,0.5,3.9
52,19,0,1,12,33,583,902.6948348764272,903.5740141658462,"[71, 0, 183]",183,l,0.35597628736286424,1,colour,0.5,3.9
52,19,0,1,12,34,584,904.0853112244513,905.08604653363,"[22, 0, 232]",232,a,0.4773227814293932,1,colour,0.5,3.9
52,19,0,1,12,35,585,905.6010035966174,906.6140375129762,"[42, 0, 212]",212,a,0.4903149502060842,1,colour,0.5,3.9
52,19,0,1,12,36,586,907.1322327720409,908.1100029617373,"[6, 0, 248]",248,a,0.45451126163243316,1,colour,0.5,3.9
52,19,0,1,12,37,587,908.6166203504545,909.4619852638862,"[88, 0, 166]",166,l,0.32214615755947307,1,colour,0.5,3.9
52,19,0,1,12,38,588,909.9759813443525,910.8620111789205,"[66, 0, 188]",188,l,0.3627378234814387,1,colour,0.5,3.9
52,19,0,1,12,39,589,911.3822024459369,912.4140101801313,"[28, 0, 226]",226,a,0.5084755508869421,1,colour,0.5,3.9
52,19,0,1,12,40,590,912.9290629475145,913.7900103502616,"[94, 0, 160]",160,l,0.33766129933064803,1,colour,0.5,3.9
52,19,0,1,12,41,591,914.3040107630077,915.2380759396765,"[19, 0, 235]",235,a,0.41064477202598937,1,colour,0.5,3.9
52,19,0,1,12,42,592,915.7571805875341,916.6859898986586,"[57, 0, 197]",197,l,0.40555904764914885,1,colour,0.5,3.9
52,19,0,1,12,43,593,917.1946722183202,918.0939722764597,"[47, 0, 207]",207,a,0.37603916082298383,1,colour,0.5,3.9
52,19,0,1,12,44,594,918.6009346736828,919.5740311011905,"[31, 0, 223]",223,a,0.4498150502622593,1,colour,0.5,3.9
52,19,0,1,12,45,595,920.0853399751359,920.9339938906778,"[72, 0, 182]",182,l,0.3254438242584001,1,colour,0.5,3.9
52,19,0,1,12,46,596,921.4445792708138,922.4059824313445,"[7, 0, 247]",247,a,0.43808515564887784,1,colour,0.5,3.9
52,19,0,1,12,47,597,922.9133827845508,923.8539621625096,"[92, 0, 162]",162,l,0.4174023696978111,1,colour,0.5,3.9
52,19,0,1,12,48,598,924.3665021968773,925.5419783952239,"[15, 0, 239]",239,a,0.652160162688233,1,colour,0.5,3.9
52,19,0,1,12,49,599,926.054012338398,927.0141150217387,"[80, 0, 174]",174,l,0.4366933063720353,1,colour,0.5,3.9
52,19,0,1,12,50,600,927.5227575630124,928.6299764323048,"[11, 0, 243]",243,a,0.5839213443687186,1,colour,0.5,3.9
52,19,0,1,13,1,601,938.5062814387202,939.4619506055024,"[37, 0, 217]",217,a,0.4315902527887374,1,colour,0.5,3.8
52,19,0,1,13,2,602,939.9758753999486,940.8379346279835,"[84, 0, 170]",170,l,0.33876839847653173,1,colour,0.5,3.8
52,19,0,1,13,3,603,941.3508472400135,942.3739368146053,"[4, 0, 250]",250,a,0.4996994960238226,1,colour,0.5,3.8
52,19,0,1,13,4,604,942.8820393939968,943.869986546255,"[95, 0, 159]",159,l,0.4645787352055777,1,colour,0.5,3.8
52,19,0,1,13,5,605,944.3821059538459,945.3179300436168,"[72, 0, 182]",182,l,0.4125486201955937,1,colour,0.5,3.8
52,19,0,1,13,6,606,945.8351414771168,946.8059346973023,"[41, 0, 213]",213,a,0.4482349428872112,1,colour,0.5,3.8
52,19,0,1,13,7,607,947.3195904954046,948.2779228441359,"[80, 0, 174]",174,l,0.4351707004243508,1,colour,0.5,3.8
52,19,0,1,13,8,608,948.7882719171175,949.757947404345,"[51, 0, 203]",203,a,0.4464157714683097,0,colour,0.5,3.8
52,19,0,1,13,9,609,950.272618141782,951.3018741522683,"[49, 0, 205]",205,a,0.5058777472877409,1,colour,0.5,3.8
52,19,0,1,13,10,610,951.8195282678644,952.8619351667585,"[59, 0, 195]",195,a,0.519147183134919,0,colour,0.5,3.8
52,19,0,1,13,11,611,953.3820263970993,954.3981764174823,"[56, 0, 198]",198,a,0.49279696328449063,0,colour,0.5,3.8
52,19,0,1,13,12,612,954.9132461202389,955.7898740797827,"[79, 0, 175]",175,l,0.3534899419755675,1,colour,0.5,3.8
52,19,0,1,13,13,613,956.3037795758282,957.2618968850002,"[13, 0, 241]",241,a,0.4346579138364177,1,colour,0.5,3.8
52,19,0,1,13,14,614,957.7726102648885,958.6138925779087,"[65, 0, 189]",189,l,0.31796903430949897,1,colour,0.5,3.8
52,19,0,1,13,15,615,959.1319775602897,960.0298700153071,"[99, 0, 155]",155,l,0.3745772070833482,1,colour,0.5,3.8
52,19,0,1,13,16,616,960.5382345018152,961.4378594823065,"[30, 0, 224]",224,a,0.376355418615276,1,colour,0.5,3.8
52,19,0,1,13,17,617,961.9444540280092,962.8222304404771,"[40, 0, 214]",214,a,0.3544324137910735,1,colour,0.5,3.8
52,19,0,1,13,18,618,963.3350796434097,964.1978714237048,"[93, 0, 161]",161,l,0.3402524075936526,1,colour,0.5,3.8
52,19,0,1,13,19,619,964.7100203696755,965.6378316768387,"[91, 0, 163]",163,l,0.4044751853798516,1,colour,0.5,3.8
52,19,0,1,13,20,620,966.1475895879848,967.1738945156394,"[89, 0, 165]",165,l,0.503191722324118,1,colour,0.5,3.8
52,19,0,1,13,21,621,967.6944536341762,968.7019209410646,"[14, 0, 240]",240,a,0.48415678506717086,1,colour,0.5,3.8
52,19,0,1,13,22,622,969.2100467573327,970.2139186504646,"[9, 0, 245]",245,a,0.480563734396128,1,colour,0.5,3.8
52,19,0,1,13,23,623,970.72568438499,971.677861719334,"[87, 0, 167]",167,l,0.42913029502960853,1,colour,0.5,3.8
52,19,0,1,13,24,624,972.1944008589198,973.1258083674766,"[26, 0, 228]",228,a,0.4081324328435585,1,colour,0.5,3.8
52,19,0,1,13,25,625,973.6319645633921,974.589888100687,"[17, 0, 237]",237,a,0.4346268000663258,1,colour,0.5,3.8
52,19,0,1,13,26,626,975.1006782803743,975.9898852650076,"[77, 0, 177]",177,l,0.3658039091678802,1,colour,0.5,3.8
52,19,0,1,13,27,627,976.5068942619837,977.437851999246,"[22, 0, 232]",232,a,0.40757711097830907,1,colour,0.5,3.8
52,19,0,1,13,28,628,977.944381954323,978.9338367464079,"[54, 0, 200]",200,a,0.4661273349192925,0,colour,0.5,3.8
52,19,0,1,13,29,629,979.444345720578,980.4779793215566,"[1, 0, 253]",253,a,0.5102797561849002,1,colour,0.5,3.8
52,19,0,1,13,30,630,980.9910163886962,982.0618313491577,"[6, 0, 248]",248,a,0.5475032571121119,1,colour,0.5,3.8
52,19,0,1,13,31,631,982.5694963663991,983.5178683674603,"[63, 0, 191]",191,l,0.42519066052045673,1,colour,0.5,3.8
52,19,0,1,13,32,632,984.0381387973903,985.1738500111096,"[18, 0, 236]",236,a,0.612516088585835,1,colour,0.5,3.8
52,19,0,1,13,33,633,985.6943579297804,986.7098490469798,"[12, 0, 242]",242,a,0.4922199799329974,1,colour,0.5,3.8
52,19,0,1,13,34,634,987.225720224902,988.1978485806612,"[50, 0, 204]",204,a,0.4489340182917658,1,colour,0.5,3.8
52,19,0,1,13,35,635,988.7099534159934,989.7098187209049,"[0, 0, 254]",254,a,0.4765283954620827,1,colour,0.5,3.8
52,19,0,1,13,36,636,990.2255949820974,991.1418847388122,"[71, 0, 183]",183,l,0.39299262562417425,1,colour,0.5,3.8
52,19,0,1,13,37,637,991.6631547481229,992.7258356215898,"[32, 0, 222]",222,a,0.5395290713058785,1,colour,0.5,3.8
52,19,0,1,13,38,638,993.2412101605732,994.1658959114284,"[70, 0, 184]",184,l,0.4014504534716252,1,colour,0.5,3.8
52,19,0,1,13,39,639,994.678694702161,995.6778530547454,"[92, 0, 162]",162,l,0.4759061198856216,1,colour,0.5,3.8
52,19,0,1,13,40,640,996.1943622620602,997.205805043428,"[10, 0, 244]",244,a,0.4882070901512634,1,colour,0.5,3.8
52,19,0,1,13,41,641,997.7255567790999,998.8218039060012,"[31, 0, 223]",223,a,0.5729047036147676,1,colour,0.5,3.8
52,19,0,1,13,42,642,999.3349425852357,1000.1818312861433,"[88, 0, 166]",166,l,0.32361913900240324,1,colour,0.5,3.8
52,19,0,1,13,43,643,1000.6943697451206,1001.6458188595134,"[60, 0, 194]",194,a,0.4282287831592839,0,colour,0.5,3.8
52,19,0,1,13,44,644,1002.1630401391594,1003.2618110267213,"[48, 0, 206]",206,a,0.5755580393888522,1,colour,0.5,3.8
52,19,0,1,13,45,645,1003.772384591517,1004.7898268183635,"[24, 0, 230]",230,a,0.49415297267842107,1,colour,0.5,3.8
52,19,0,1,13,46,646,1005.3035657178261,1006.2778247766546,"[8, 0, 246]",246,a,0.4509000940597616,1,colour,0.5,3.8
52,19,0,1,13,47,647,1006.788081295992,1007.8138017571764,"[16, 0, 238]",238,a,0.5025761421129573,1,colour,0.5,3.8
52,19,0,1,13,48,648,1008.3348433362262,1009.2057664465974,"[28, 0, 226]",226,a,0.3475893516733777,1,colour,0.5,3.8
52,19,0,1,13,49,649,1009.7254780100484,1010.6057565216906,"[58, 0, 196]",196,l,0.35690930686541833,1,colour,0.5,3.8
52,19,0,1,13,50,650,1011.1161252869351,1011.9817677194951,"[96, 0, 158]",158,l,0.3423512091685552,1,colour,0.5,3.8
52,19,0,1,14,1,651,1024.5527031966194,1025.2457322923292,"[59, 0, 195]",195,l,0.16890331413014792,1,colour,0.5,3.8
52,19,0,1,14,2,652,1025.7566607117478,1026.6217722408473,"[86, 0, 168]",168,l,0.34185141950729303,1,colour,0.5,3.8
52,19,0,1,14,3,653,1027.131608133379,1027.957720313134,"[64, 0, 190]",190,l,0.3027268273290247,1,colour,0.5,3.8
52,19,0,1,14,4,654,1028.4754642254557,1029.3337212709594,"[36, 0, 218]",218,a,0.3349445544590708,1,colour,0.5,3.8
52,19,0,1,14,5,655,1029.8504210993997,1030.7497522713093,"[2, 0, 252]",252,a,0.37602970853913575,1,colour,0.5,3.8
52,19,0,1,14,6,656,1031.2566142379947,1032.1017400873243,"[18, 0, 236]",236,a,0.32183226288179867,1,colour,0.5,3.8
52,19,0,1,14,7,657,1032.6160658162844,1033.509711043589,"[39, 0, 215]",215,a,0.37045364678488113,1,colour,0.5,3.8
52,19,0,1,14,8,658,1034.022242019535,1034.8937763778085,"[23, 0, 231]",231,a,0.34823643951676786,1,colour,0.5,3.8
52,19,0,1,14,9,659,1035.4129708223627,1036.2777467952983,"[88, 0, 166]",166,l,0.34165882915840484,1,colour,0.5,3.8
52,19,0,1,14,10,660,1036.7879588100768,1037.629692863702,"[20, 0, 234]",234,a,0.31865235592704266,1,colour,0.5,3.8
52,19,0,1,14,11,661,1038.1472508810402,1039.1497636140557,"[43, 0, 211]",211,a,0.47947238906635903,1,colour,0.5,3.8
52,19,0,1,14,12,662,1039.6628826010274,1040.46172493216,"[91, 0, 163]",163,l,0.27569289205712266,1,colour,0.5,3.8
52,19,0,1,14,13,663,1040.9752889643132,1041.877762234013,"[17, 0, 237]",237,a,0.3790548342803959,1,colour,0.5,3.8
52,19,0,1,14,14,664,1042.397229219554,1043.2296866409306,"[76, 0, 178]",178,l,0.3093327945389319,1,colour,0.5,3.8
52,19,0,1,14,15,665,1043.7410482901614,1044.581681940006,"[79, 0, 175]",175,l,0.3174763338465709,1,colour,0.5,3.8
52,19,0,1,14,16,666,1045.1004010133038,1045.9897848344408,"[12, 0, 242]",242,a,0.36608944699401036,1,colour,0.5,3.8
52,19,0,1,14,17,667,1046.5065472842834,1047.333698427945,"[60, 0, 194]",194,l,0.3038047819281928,1,colour,0.5,3.8
52,19,0,1,14,18,668,1047.8502864043112,1048.8296969596704,"[32, 0, 222]",222,a,0.4564529189374298,1,colour,0.5,3.8
52,19,0,1,14,19,669,1049.3503576903022,1050.3497196609096,"[80, 0, 174]",174,l,0.47611564557882957,1,colour,0.5,3.8
52,19,0,1,14,20,670,1050.865855896729,1051.7577272448107,"[22, 0, 232]",232,a,0.3685017494717613,1,colour,0.5,3.8
52,19,0,1,14,21,671,1052.2722258718568,1053.2056754683435,"[61, 0, 193]",193,l,0.4102040591533296,1,colour,0.5,3.8
52,19,0,1,14,22,672,1053.7253047181293,1054.7976564629353,"[0, 0, 254]",254,a,0.5491408658563159,1,colour,0.5,3.8
52,19,0,1,14,23,673,1055.3190832226828,1056.3416800968116,"[97, 0, 157]",157,l,0.49925484470441006,1,colour,0.5,3.8
52,19,0,1,14,24,674,1056.8503446934046,1057.885689552233,"[40, 0, 214]",214,a,0.5121351614070591,1,colour,0.5,3.8
52,19,0,1,14,25,675,1058.397133121296,1059.3497279316653,"[94, 0, 160]",160,l,0.42951626345166005,1,colour,0.5,3.8
52,19,0,1,14,26,676,1059.8659153673798,1060.8136887235742,"[87, 0, 167]",167,l,0.4245049758173991,1,colour,0.5,3.8
52,19,0,1,14,27,677,1061.3346759519773,1062.2376750051626,"[99, 0, 155]",155,l,0.3798039280518424,1,colour,0.5,3.8
52,19,0,1,14,28,678,1062.7565106566763,1063.7017055077013,"[78, 0, 176]",176,l,0.42185676004737616,1,colour,0.5,3.8
52,19,0,1,14,29,679,1064.209585564473,1065.125673278555,"[3, 0, 251]",251,a,0.39281145681161433,1,colour,0.5,3.8
52,19,0,1,14,30,680,1065.6471008259687,1066.5176348171954,"[85, 0, 169]",169,l,0.34748498268891126,1,colour,0.5,3.8
52,19,0,1,14,31,681,1067.0377575551393,1067.9896564408846,"[16, 0, 238]",238,a,0.4287805604399182,1,colour,0.5,3.8
52,19,0,1,14,32,682,1068.5064137707232,1069.429674983112,"[38, 0, 216]",216,a,0.39992863521911204,1,colour,0.5,3.8
52,19,0,1,14,33,683,1069.9439735367487,1070.8776523511915,"[13, 0, 241]",241,a,0.4103785326005891,1,colour,0.5,3.8
52,19,0,1,14,34,684,1071.3971465120267,1072.28565796584,"[73, 0, 181]",181,l,0.36553058051504195,1,colour,0.5,3.8
52,19,0,1,14,35,685,1072.8032470969774,1073.6136263384833,"[44, 0, 210]",210,a,0.2870088552008383,1,colour,0.5,3.8
52,19,0,1,14,36,686,1074.1314769829041,1075.1416669423634,"[63, 0, 191]",191,l,0.4869448159588501,1,colour,0.5,3.8
52,19,0,1,14,37,687,1075.6627144290833,1076.5816449185368,"[90, 0, 164]",164,l,0.39571252127643675,1,colour,0.5,3.8
52,19,0,1,14,38,688,1077.1001442261622,1077.981649959751,"[45, 0, 209]",209,a,0.35822159942472354,1,colour,0.5,3.8
52,19,0,1,14,39,689,1078.4908111952827,1079.6056493957585,"[67, 0, 187]",187,l,0.591529254015768,1,colour,0.5,3.8
52,19,0,1,14,40,690,1080.1157625553897,1081.1895971277845,"[68, 0, 186]",186,l,0.5505338966904674,1,colour,0.5,3.8
52,19,0,1,14,41,691,1081.7094953739143,1082.6776360459917,"[75, 0, 179]",179,l,0.44482109183445573,1,colour,0.5,3.8
52,19,0,1,14,42,692,1083.1939317891665,1084.2136606817949,"[29, 0, 225]",225,a,0.4965176198456902,1,colour,0.5,3.8
52,19,0,1,14,43,693,1084.7251582076715,1085.7896180803364,"[89, 0, 165]",165,l,0.5412092153565027,1,colour,0.5,3.8
52,19,0,1,14,44,694,1086.3031884140219,1087.3816353087022,"[83, 0, 171]",171,l,0.5551032898656558,1,colour,0.5,3.8
52,19,0,1,14,45,695,1087.8970397799567,1088.7895846034808,"[7, 0, 247]",247,a,0.3693292184325401,1,colour,0.5,3.8
52,19,0,1,14,46,696,1089.3031513925525,1090.3176236319996,"[21, 0, 233]",233,a,0.49105931783560663,1,colour,0.5,3.8
52,19,0,1,14,47,697,1090.8344975400541,1091.7175751102332,"[65, 0, 189]",189,l,0.36038223473588005,1,colour,0.5,3.8
52,19,0,1,14,48,698,1092.2251070077764,1093.1415897486731,"[26, 0, 228]",228,a,0.3930434316571336,1,colour,0.5,3.8
52,19,0,1,14,49,699,1093.662641173869,1094.5816110478481,"[30, 0, 224]",224,a,0.3957578135014046,1,colour,0.5,3.8
52,19,0,1,14,50,700,1095.1000930262671,1096.0376067124016,"[47, 0, 207]",207,a,0.4142441242292989,1,colour,0.5,3.8
52,19,0,1,15,1,701,1101.2243397971324,1102.0935504681256,"[6, 0, 248]",248,a,0.34518571381340735,1,colour,0.5,3.8
52,19,0,1,15,2,702,1102.6001044477744,1103.4616071724158,"[63, 0, 191]",191,l,0.33823552579269744,1,colour,0.5,3.8
52,19,0,1,15,3,703,1103.9750396602321,1104.837657754746,"[85, 0, 169]",169,l,0.34014291857602075,1,colour,0.5,3.8
52,19,0,1,15,4,704,1105.3500776663132,1106.2456617940334,"[13, 0, 241]",241,a,0.37229093510541134,1,colour,0.5,3.8
52,19,0,1,15,5,705,1106.756301130983,1107.6135775016737,"[89, 0, 165]",165,l,0.33392646434367634,1,colour,0.5,3.8
52,19,0,1,15,6,706,1108.1312387064972,1109.0455237906135,"[44, 0, 210]",210,a,0.390978106908733,1,colour,0.5,3.8
52,19,0,1,15,7,707,1109.5530745927244,1110.4616414369375,"[1, 0, 253]",253,a,0.38519330715644173,1,colour,0.5,3.8
52,19,0,1,15,8,708,1110.9749585280952,1111.8776066651335,"[80, 0, 174]",174,l,0.37926947997766547,1,colour,0.5,3.8
52,19,0,1,15,9,709,1112.396833405015,1113.293615216302,"[15, 0, 239]",239,a,0.3735862922912929,1,colour,0.5,3.8
52,19,0,1,15,10,710,1113.8030883773172,1114.709535152273,"[29, 0, 225]",225,a,0.38313349621603265,1,colour,0.5,3.8
52,19,0,1,15,11,711,1115.2250467494596,1116.101565220015,"[31, 0, 223]",223,a,0.35324063792359084,1,colour,0.5,3.8
52,19,0,1,15,12,712,1116.6156333741383,1117.6615218655206,"[55, 0, 199]",199,a,0.522611446416704,0,colour,0.5,3.8
52,19,0,1,15,13,713,1118.1780712450563,1119.0375129772,"[95, 0, 159]",159,l,0.3364340773841832,1,colour,0.5,3.8
52,19,0,1,15,14,714,1119.5531033434381,1120.5815370049386,"[45, 0, 209]",209,a,0.5051550411444623,1,colour,0.5,3.8
52,19,0,1,15,15,715,1121.1000603371067,1122.0455675074481,"[9, 0, 245]",245,a,0.4223191344062798,1,colour,0.5,3.8
52,19,0,1,15,16,716,1122.5530958603777,1123.5415435900213,"[25, 0, 229]",229,a,0.46516832162160426,1,colour,0.5,3.8
52,19,0,1,15,17,717,1124.0530438727874,1125.0215271902853,"[54, 0, 200]",200,l,0.4450570051558316,1,colour,0.5,3.8
52,19,0,1,15,18,718,1125.5374676850042,1126.4054948508856,"[99, 0, 155]",155,l,0.34473988093668595,1,colour,0.5,3.8
52,19,0,1,15,19,719,1126.9124867864884,1128.1335222215566,"[20, 0, 234]",234,a,0.698105367802782,1,colour,0.5,3.8
52,19,0,1,15,20,720,1128.6468113496958,1129.7735302874935,"[48, 0, 206]",206,a,0.6037211291550193,1,colour,0.5,3.8
52,19,0,1,15,21,721,1130.287420817418,1131.1975201136956,"[69, 0, 185]",185,l,0.3867521468491759,1,colour,0.5,3.8
52,19,0,1,15,22,722,1131.7092972697283,1132.7335790140496,"[98, 0, 156]",156,l,0.5010188778105658,1,colour,0.5,3.8
52,19,0,1,15,23,723,1133.2405016328848,1134.221476935636,"[3, 0, 251]",251,a,0.4576765962992795,1,colour,0.5,3.8
52,19,0,1,15,24,724,1134.7405390481872,1135.6615147762932,"[70, 0, 184]",184,l,0.3979338087665383,1,colour,0.5,3.8
52,19,0,1,15,25,725,1136.1779979898129,1137.157529455697,"[78, 0, 176]",176,l,0.45657225407194346,1,colour,0.5,3.8
52,19,0,1,15,26,726,1137.6779806606355,1138.733510484948,"[11, 0, 243]",243,a,0.5322614439646713,1,colour,0.5,3.8
52,19,0,1,15,27,727,1139.2404984821333,1140.6855176781537,"[23, 0, 231]",231,a,0.9216685019782744,1,colour,0.5,3.8
52,19,0,1,15,28,728,1141.193634435942,1142.2295086228696,"[90, 0, 164]",164,l,0.512573117390275,1,colour,0.5,3.8
52,19,0,1,15,29,729,1142.740487848292,1143.7974945925234,"[37, 0, 217]",217,a,0.5337438776914496,1,colour,0.5,3.8
52,19,0,1,15,30,730,1144.3186125775392,1145.4054594048066,"[47, 0, 207]",207,a,0.5634744717390276,1,colour,0.5,3.8
52,19,0,1,15,31,731,1145.9123276729952,1146.9654999393679,"[52, 0, 202]",202,a,0.5298782860627398,0,colour,0.5,3.8
52,19,0,1,15,32,732,1147.4748899990227,1148.565486233536,"[0, 0, 254]",254,a,0.5673152511008084,1,colour,0.5,3.8
52,19,0,1,15,33,733,1149.0842352390755,1150.133483624697,"[22, 0, 232]",232,a,0.5258752423978876,1,colour,0.5,3.8
52,19,0,1,15,34,734,1150.6467636944144,1151.7654718187987,"[17, 0, 237]",237,a,0.5955449007160496,1,colour,0.5,3.8
52,19,0,1,15,35,735,1152.2716792145802,1153.277531755768,"[7, 0, 247]",247,a,0.4824423764948733,1,colour,0.5,3.8
52,19,0,1,15,36,736,1153.7873156607093,1154.7654399173334,"[66, 0, 188]",188,l,0.45481688555446453,1,colour,0.5,3.8
52,19,0,1,15,37,737,1155.2716697622964,1156.245441240666,"[46, 0, 208]",208,a,0.4505515409691725,1,colour,0.5,3.8
52,19,0,1,15,38,738,1156.7560585222673,1157.7815119563602,"[41, 0, 213]",213,a,0.5021417307434604,1,colour,0.5,3.8
52,19,0,1,15,39,739,1158.3030328451423,1159.3574630533694,"[58, 0, 196]",196,l,0.5313036121951882,1,colour,0.5,3.8
52,19,0,1,15,40,740,1159.8654514176014,1160.8454503778776,"[72, 0, 182]",182,l,0.457233126508072,1,colour,0.5,3.8
52,19,0,1,15,41,741,1161.3654226669169,1162.349462479935,"[87, 0, 167]",167,l,0.46077812803559937,1,colour,0.5,3.8
52,19,0,1,15,42,742,1162.8653446855315,1163.9014378504362,"[93, 0, 161]",161,l,0.5131292269506957,1,colour,0.5,3.8
52,19,0,1,15,43,743,1164.4122548116138,1165.4134784889757,"[34, 0, 220]",220,a,0.47787652793340385,1,colour,0.5,3.8
52,19,0,1,15,44,744,1165.9278739285655,1166.9814396463626,"[51, 0, 203]",203,a,0.5302874913031701,0,colour,0.5,3.8
52,19,0,1,15,45,745,1167.4904271961423,1168.493459804944,"[68, 0, 186]",186,l,0.47969688090961426,1,colour,0.5,3.8
52,19,0,1,15,46,746,1169.006031740777,1169.9094171562174,"[83, 0, 171]",171,l,0.38008867821190506,1,colour,0.5,3.8
52,19,0,1,15,47,747,1170.4279668760428,1171.373401578865,"[33, 0, 221]",221,a,0.42258970614057034,1,colour,0.5,3.8
52,19,0,1,15,48,748,1171.8809799501323,1172.7974158234429,"[57, 0, 197]",197,a,0.3932864342350513,0,colour,0.5,3.8
52,19,0,1,15,49,749,1173.3184310148645,1174.205428921181,"[71, 0, 183]",183,l,0.36362712617847137,1,colour,0.5,3.8
52,19,0,1,15,50,750,1174.724688350223,1175.6533956554194,"[56, 0, 198]",198,a,0.40542238333728164,0,colour,0.5,3.8
52,19,0,1,16,1,751,1184.8332714996359,1186.5253305543738,"[23, 0, 231]",231,a,1.1686559792724438,1,colour,0.5,3.8
52,19,0,1,16,2,752,1187.0371124365483,1187.9813530003885,"[19, 0, 235]",235,a,0.42081110074650496,1,colour,0.5,3.8
52,19,0,1,16,3,753,1188.4903736331617,1189.3893609781226,"[76, 0, 178]",178,l,0.37582175820716657,1,colour,0.5,3.8
52,19,0,1,16,4,754,1189.8965774055687,1190.8933963170857,"[59, 0, 195]",195,l,0.4737951090792194,1,colour,0.5,3.8
52,19,0,1,16,5,755,1191.4121027873189,1192.3094403143332,"[77, 0, 177]",177,l,0.37405457434942946,1,colour,0.5,3.8
52,19,0,1,16,6,756,1192.8183794211072,1193.7013628622808,"[11, 0, 243]",243,a,0.3596666178200394,1,colour,0.5,3.8
52,19,0,1,16,7,757,1194.2090077934263,1195.1413723460864,"[49, 0, 205]",205,a,0.4091099568759091,1,colour,0.5,3.8
52,19,0,1,16,8,758,1195.6621126334649,1196.5413423350838,"[84, 0, 170]",170,l,0.35587900757673196,1,colour,0.5,3.8
52,19,0,1,16,9,759,1197.0527335226943,1197.917413397372,"[25, 0, 229]",229,a,0.34135950671043247,1,colour,0.5,3.8
52,19,0,1,16,10,760,1198.4277352950012,1199.325364661374,"[44, 0, 210]",210,a,0.3743243583885487,1,colour,0.5,3.8
52,19,0,1,16,11,761,1199.83388747368,1200.7414208678238,"[13, 0, 241]",241,a,0.38486720324726775,1,colour,0.5,3.8
52,19,0,1,16,12,762,1201.2558269412257,1202.1734411997022,"[22, 0, 232]",232,a,0.394345878099557,1,colour,0.5,3.8
52,19,0,1,16,13,763,1202.693304393586,1203.6213157741295,"[45, 0, 209]",209,a,0.4046606865013018,1,colour,0.5,3.8
52,19,0,1,16,14,764,1204.1308452550438,1205.0453272618179,"[93, 0, 161]",161,l,0.39137392144766636,1,colour,0.5,3.8
52,19,0,1,16,15,765,1205.5527185565734,1206.4694273647037,"[7, 0, 247]",247,a,0.3934097078163177,1,colour,0.5,3.8
52,19,0,1,16,16,766,1206.9902054612176,1208.0293792840675,"[60, 0, 194]",194,l,0.5159152886189986,1,colour,0.5,3.8
52,19,0,1,16,17,767,1208.537014369067,1209.5174315930053,"[61, 0, 193]",193,l,0.45710867136949673,1,colour,0.5,3.8
52,19,0,1,16,18,768,1210.0369698645372,1210.9813309450692,"[39, 0, 215]",215,a,0.4209064113383647,1,colour,0.5,3.8
52,19,0,1,16,19,769,1211.4901637136354,1212.3893554642855,"[97, 0, 157]",157,l,0.3758847734716255,1,colour,0.5,3.8
52,19,0,1,16,20,770,1212.8964332581963,1213.7972925498616,"[10, 0, 244]",244,a,0.37769370491150767,1,colour,0.5,3.8
52,19,0,1,16,21,771,1214.3182880490203,1215.2213320005685,"[40, 0, 214]",214,a,0.3797109805746004,1,colour,0.5,3.8
52,19,0,1,16,22,772,1215.7401322060032,1216.653337760159,"[6, 0, 248]",248,a,0.3898717954871245,1,colour,0.5,3.8
52,19,0,1,16,23,773,1217.162052375119,1218.0453883078299,"[55, 0, 199]",199,l,0.3600718846428208,1,colour,0.5,3.8
52,19,0,1,16,24,774,1218.5527024089242,1219.469291488058,"[50, 0, 204]",204,a,0.3933411787147634,1,colour,0.5,3.8
52,19,0,1,16,25,775,1219.9901704090007,1220.829328714317,"[95, 0, 159]",159,l,0.31609551221481524,1,colour,0.5,3.8
52,19,0,1,16,26,776,1221.349614898063,1222.1893147406809,"[88, 0, 166]",166,l,0.31635387471760623,1,colour,0.5,3.8
52,19,0,1,16,27,777,1222.7090408764197,1223.5173323439958,"[90, 0, 164]",164,l,0.2849959118757397,1,colour,0.5,3.8
52,19,0,1,16,28,778,1224.0370470582275,1224.8773262472823,"[94, 0, 160]",160,l,0.3169017135514878,1,colour,0.5,3.8
52,19,0,1,16,29,779,1225.3964655535237,1226.269309841271,"[89, 0, 165]",165,l,0.3496932732814457,1,colour,0.5,3.8
52,19,0,1,16,30,780,1226.7869773475977,1227.5892878804298,"[42, 0, 212]",212,a,0.2788653159223031,1,colour,0.5,3.8
52,19,0,1,16,31,781,1228.0995310090366,1228.9492971436703,"[91, 0, 163]",163,l,0.32632525003282353,1,colour,0.5,3.8
52,19,0,1,16,32,782,1229.4590385133633,1230.2052906814788,"[57, 0, 197]",197,a,0.2229203786700964,0,colour,0.5,3.8
52,19,0,1,16,33,783,1230.7246288795723,1231.5653267261805,"[75, 0, 179]",179,l,0.31736881405231543,1,colour,0.5,3.8
52,19,0,1,16,34,784,1232.0839867226896,1232.909323814878,"[81, 0, 173]",173,l,0.3020805271808058,1,colour,0.5,3.8
52,19,0,1,16,35,785,1233.427775467222,1234.1973204341193,"[56, 0, 198]",198,a,0.2462880080274772,0,colour,0.5,3.8
52,19,0,1,16,36,786,1234.7089778611844,1235.5972983000102,"[63, 0, 191]",191,a,0.3649634432804305,0,colour,0.5,3.8
52,19,0,1,16,37,787,1236.1152170796704,1237.0052503517072,"[43, 0, 211]",211,a,0.3667223563825246,1,colour,0.5,3.8
52,19,0,1,16,38,788,1237.5213798921613,1238.365270642622,"[87, 0, 167]",167,l,0.3206200070271734,1,colour,0.5,3.8
52,19,0,1,16,39,789,1238.8807983874576,1239.75725108583,"[21, 0, 233]",233,a,0.3531732903502416,1,colour,0.5,3.8
52,19,0,1,16,40,790,1240.2713452337775,1241.3492982464377,"[0, 0, 254]",254,a,0.5545999555615708,1,colour,0.5,3.8
52,19,0,1,16,41,791,1241.8651060152915,1242.853247333289,"[32, 0, 222]",222,a,0.46479495626408607,1,colour,0.5,3.8
52,19,0,1,16,42,792,1243.3651221629407,1244.2852440344286,"[62, 0, 192]",192,l,0.3968578234198503,1,colour,0.5,3.8
52,19,0,1,16,43,793,1244.8026472705824,1245.6452718084038,"[24, 0, 230]",230,a,0.31933528365334496,1,colour,0.5,3.8
52,19,0,1,16,44,794,1246.1619676983973,1247.0452796065365,"[82, 0, 172]",172,l,0.35990765114547685,1,colour,0.5,3.8
52,19,0,1,16,45,795,1247.5526681443735,1248.4293276115495,"[92, 0, 162]",162,l,0.3533394930709619,1,colour,0.5,3.8
52,19,0,1,16,46,796,1248.9431567016,1249.8532103118196,"[36, 0, 218]",218,a,0.3870097216858994,1,colour,0.5,3.8
52,19,0,1,16,47,797,1250.3651564274915,1251.261311237031,"[47, 0, 207]",207,a,0.37279387554735877,1,colour,0.5,3.8
52,19,0,1,16,48,798,1251.7713637445122,1252.6452316361829,"[28, 0, 226]",226,a,0.35059636054211296,1,colour,0.5,3.8
52,19,0,1,16,49,799,1253.1618960185442,1254.0212436216825,"[41, 0, 213]",213,a,0.33589805391966365,1,colour,0.5,3.8
52,19,0,1,16,50,800,1254.536902910826,1255.469296608062,"[30, 0, 224]",224,a,0.40897447409224696,1,colour,0.5,3.8
