id,age,condition,counterbalance,block,trialinblock,trial,tstart,tend,trialstim,trialintensity,response,RT,accuracy,trialtype,colourfreq,credits
64,21,0,1,Practice,1,NA,5.907611921429634e-06,1.0116822393611073,"[81, 0, 173]",173,a,0.37388207018375397,0,colour,0.5,4
64,21,0,1,Practice,2,NA,1.5209746253676713,2.2917373618111014,"[67, 0, 187]",187,a,0.25355287827551365,0,colour,0.5,4
64,21,0,1,Practice,3,NA,2.80087732989341,3.36374764284119,"[79, 0, 175]",175,a,0.04588730982504785,0,colour,0.5,4
64,21,0,1,Practice,4,NA,3.873251129873097,4.739671013085172,"[12, 0, 242]",242,a,0.34815648873336613,1,colour,0.5,4
64,21,0,1,Practice,5,NA,5.249050045153126,6.859727269969881,"[94, 0, 160]",160,l,1.0928734480403364,1,colour,0.5,4
64,21,0,1,Practice,6,NA,7.3686021799221635,8.043703437549993,"[30, 0, 224]",224,a,0.1572525822557509,1,colour,0.5,4
64,21,0,1,Practice,7,NA,8.552634667605162,10.131895640399307,"[44, 0, 210]",210,a,1.062130277743563,1,colour,0.5,4
64,21,0,1,Practice,8,NA,10.641069085104391,11.323739655781537,"[38, 0, 216]",216,a,0.16520589450374246,1,colour,0.5,4
64,21,0,1,Practice,9,NA,11.833373899338767,12.395699130604044,"[52, 0, 202]",202,a,0.04458840796723962,0,colour,0.5,4
64,21,0,1,Practice,10,NA,12.905611429130659,13.52369058248587,"[13, 0, 241]",241,a,0.10029703797772527,1,colour,0.5,4
64,21,0,1,1,1,1,5.300022291718051,6.144007564987987,"[27, 0, 227]",227,a,0.32650720654055476,1,colour,0.5,4.0
64,21,0,1,1,2,2,6.653975395718589,7.551963948877528,"[26, 0, 228]",228,a,0.38078027055598795,1,colour,0.5,4.0
64,21,0,1,1,3,3,8.06181283830665,8.999948012409732,"[14, 0, 240]",240,a,0.4199162842705846,1,colour,0.5,4.0
64,21,0,1,1,4,4,9.51002336293459,10.27195490617305,"[11, 0, 243]",243,a,0.2447106575127691,1,colour,0.5,4.0
64,21,0,1,1,5,5,10.781009803526103,11.663981823250651,"[34, 0, 220]",220,a,0.36422380176372826,1,colour,0.5,4.0
64,21,0,1,1,6,6,12.172823256347328,12.983984280843288,"[39, 0, 215]",215,a,0.2937172222882509,1,colour,0.5,4.0
64,21,0,1,1,7,7,13.493185294792056,14.232031989609823,"[23, 0, 231]",231,a,0.2213154591154307,1,colour,0.5,4.0
64,21,0,1,1,8,8,14.741007330128923,15.319964254507795,"[24, 0, 230]",230,a,0.06171989091672003,1,colour,0.5,4.0
64,21,0,1,1,9,9,15.82935943431221,16.91194131062366,"[99, 0, 155]",155,l,0.5650120438076556,1,colour,0.5,4.0
64,21,0,1,1,10,10,17.421448736218736,40.50391048984602,"[57, 0, 197]",197,a,22.565760349854827,0,colour,0.5,4.0
64,21,0,1,1,11,11,41.013357657240704,42.08810870745219,"[30, 0, 224]",224,a,0.5575549767818302,1,colour,0.5,4.0
64,21,0,1,1,12,12,42.597208503168076,43.359879688126966,"[43, 0, 211]",211,a,0.24427742790430784,1,colour,0.5,4.0
64,21,0,1,1,13,13,43.86826189770363,44.99190214672126,"[88, 0, 166]",166,l,0.6065556337125599,1,colour,0.5,4.0
64,21,0,1,1,14,14,45.50105117307976,50.71186750405468,"[58, 0, 196]",196,l,4.69348595617339,1,colour,0.5,4.0
64,21,0,1,1,15,15,51.221153194783255,53.40788864251226,"[29, 0, 225]",225,a,1.6690328891854733,1,colour,0.5,4.0
64,21,0,1,1,16,16,53.91701246285811,54.70389213669114,"[59, 0, 195]",195,a,0.2696489419322461,0,colour,0.5,4.0
64,21,0,1,1,17,17,55.2132132735569,56.05637659179047,"[17, 0, 237]",237,a,0.32557891332544386,1,colour,0.5,4.0
64,21,0,1,1,18,18,56.56549017201178,57.31186049361713,"[55, 0, 199]",199,a,0.22917424817569554,0,colour,0.5,4.0
64,21,0,1,1,19,19,57.820831501856446,58.575890050968155,"[13, 0, 241]",241,a,0.23823111481033266,1,colour,0.5,4.0
64,21,0,1,1,20,20,59.085675137350336,59.73587631364353,"[9, 0, 245]",245,a,0.13293775520287454,1,colour,0.5,4.0
64,21,0,1,1,21,21,60.24518366577104,60.79196657985449,"[85, 0, 169]",169,l,0.029925547540187836,1,colour,0.5,4.0
64,21,0,1,1,22,22,61.301203433657065,61.98384170886129,"[86, 0, 168]",168,l,0.16565921041183174,1,colour,0.5,4.0
64,21,0,1,1,23,23,62.493423177395016,63.05590003891848,"[1, 0, 253]",253,a,0.04472270933911204,1,colour,0.5,4.0
64,21,0,1,1,24,24,63.565083329798654,64.4478529128246,"[70, 0, 184]",184,l,0.36515918420627713,1,colour,0.5,4.0
64,21,0,1,1,25,25,64.9570562900044,67.43982713343576,"[64, 0, 190]",190,l,1.9657362466678023,1,colour,0.5,4.0
64,21,0,1,1,26,26,67.94895489211194,68.90383873134851,"[78, 0, 176]",176,l,0.4369473366532475,1,colour,0.5,4.0
64,21,0,1,1,27,27,69.41333119082265,69.94380772789009,"[83, 0, 171]",171,l,0.013244229834526777,1,colour,0.5,4.0
64,21,0,1,1,28,28,70.45279803453013,71.05579448840581,"[8, 0, 246]",246,a,0.08563023922033608,1,colour,0.5,4.0
64,21,0,1,1,29,29,71.56560871936381,72.27190843247809,"[94, 0, 160]",160,l,0.18907449510879815,1,colour,0.5,4.0
64,21,0,1,1,30,30,72.78096017916687,73.39183865883388,"[5, 0, 249]",249,a,0.09195066848769784,1,colour,0.5,4.0
64,21,0,1,1,31,31,73.90108496509492,74.5278168998193,"[12, 0, 242]",242,l,0.10897423792630434,0,colour,0.5,4.0
64,21,0,1,1,32,32,75.03689109534025,75.93584378203377,"[89, 0, 165]",165,l,0.3821516400203109,1,colour,0.5,4.0
64,21,0,1,1,33,33,76.4452027278021,76.98383973957971,"[95, 0, 159]",159,l,0.021138858748599887,1,colour,0.5,4.0
64,21,0,1,1,34,34,77.49336606962606,78.20783334667794,"[96, 0, 158]",158,l,0.19648469449020922,1,colour,0.5,4.0
64,21,0,1,1,35,35,78.71723443409428,79.31186955212615,"[92, 0, 162]",162,l,0.07798294490203261,1,colour,0.5,4.0
64,21,0,1,1,36,36,79.82109852903523,80.431807261426,"[38, 0, 216]",216,a,0.0929053493309766,1,colour,0.5,4.0
64,21,0,1,1,37,37,80.94123119185679,81.63182632368989,"[49, 0, 205]",205,a,0.1732037109322846,1,colour,0.5,4.0
64,21,0,1,1,38,38,82.14132035849616,82.73579360614531,"[54, 0, 200]",200,a,0.07749063824303448,0,colour,0.5,4.0
64,21,0,1,1,39,39,83.24522068724036,83.88795219338499,"[98, 0, 156]",156,l,0.125290066935122,1,colour,0.5,4.0
64,21,0,1,1,40,40,84.39703190303408,85.12780634476803,"[20, 0, 234]",234,a,0.2122822233941406,1,colour,0.5,4.0
64,21,0,1,1,41,41,85.63653041189536,86.44777532550506,"[66, 0, 188]",188,l,0.29319774033501744,1,colour,0.5,4.0
64,21,0,1,1,42,42,86.95705944066867,87.6398402878549,"[25, 0, 229]",229,a,0.16572261950932443,1,colour,0.5,4.0
64,21,0,1,1,43,43,88.1490050680004,88.86392290401272,"[44, 0, 210]",210,a,0.19700220716185868,1,colour,0.5,4.0
64,21,0,1,1,44,44,89.37288288446143,89.99984679417685,"[76, 0, 178]",178,l,0.10957170114852488,1,colour,0.5,4.0
64,21,0,1,1,45,45,90.50899030664004,91.23979664966464,"[65, 0, 189]",189,l,0.21364414016716182,1,colour,0.5,4.0
64,21,0,1,1,46,46,91.74885824252851,92.4557798372116,"[61, 0, 193]",193,l,0.18925881455652416,1,colour,0.5,4.0
64,21,0,1,1,47,47,92.96479219920002,93.6557914162986,"[36, 0, 218]",218,a,0.17315093567594886,1,colour,0.5,4.0
64,21,0,1,1,48,48,94.16469625849277,94.79176414338872,"[2, 0, 252]",252,l,0.10915107442997396,0,colour,0.5,4.0
64,21,0,1,1,49,49,95.30090489890426,95.91177116963081,"[97, 0, 157]",157,a,0.09380410448648036,0,colour,0.5,4.0
64,21,0,1,1,50,50,96.42093791882508,102.0397787692491,"[72, 0, 182]",182,l,5.1016085429582745,1,colour,0.5,4.0
64,21,0,1,2,1,51,114.23603818402626,114.9197815891821,"[27, 0, 227]",227,a,0.16603218205273151,1,colour,0.5,4.0
64,21,0,1,2,2,52,115.42914801812731,116.0077233063057,"[10, 0, 244]",244,a,0.06136464234441519,1,colour,0.5,4.0
64,21,0,1,2,3,53,116.51754423277453,117.08792438800447,"[99, 0, 155]",155,l,0.05264608911238611,1,colour,0.5,4.0
64,21,0,1,2,4,54,117.5971317035146,121.05577991600148,"[42, 0, 212]",212,l,2.9396499029826373,0,colour,0.5,4.0
64,21,0,1,2,5,55,121.56483441940509,122.85572107555345,"[65, 0, 189]",189,l,0.7730919376481324,1,colour,0.5,4.0
64,21,0,1,2,6,56,123.36474288976751,123.95170905231498,"[13, 0, 241]",241,a,0.06849836255423725,1,colour,0.5,4.0
64,21,0,1,2,7,57,124.46093842294067,125.29573371005245,"[28, 0, 226]",226,a,0.31677962141111493,1,colour,0.5,4.0
64,21,0,1,2,8,58,125.80554360896349,126.35175426560454,"[54, 0, 200]",200,a,0.029179210541769862,0,colour,0.5,4.0
64,21,0,1,2,9,59,126.86119079915807,127.43977357051335,"[97, 0, 157]",157,l,0.06095543736591935,1,colour,0.5,4.0
64,21,0,1,2,10,60,127.9488631261047,128.4878900446929,"[44, 0, 210]",210,a,0.021812728140503168,1,colour,0.5,4.0
64,21,0,1,2,11,61,128.9970713662915,129.53573319036514,"[2, 0, 252]",252,a,0.020470109535381198,1,colour,0.5,4.0
64,21,0,1,2,12,62,130.0462055366952,130.5757266052533,"[40, 0, 214]",214,a,0.011795273050665855,1,colour,0.5,4.0
64,21,0,1,2,13,63,131.08475629636087,131.76775651541539,"[35, 0, 219]",219,a,0.16566945053637028,1,colour,0.5,4.0
64,21,0,1,2,14,64,132.27698785532266,132.91972684464417,"[72, 0, 182]",182,l,0.12552676815539598,1,colour,0.5,4.0
64,21,0,1,2,15,65,133.42912320583127,134.00770479557104,"[25, 0, 229]",229,a,0.061002698726952076,1,colour,0.5,4.0
64,21,0,1,2,16,66,134.5167931697797,135.23969306843355,"[91, 0, 163]",163,l,0.20567192370072007,1,colour,0.5,4.0
64,21,0,1,2,17,67,135.74895591614768,136.42369286669418,"[15, 0, 239]",239,a,0.15743414498865604,1,colour,0.5,4.0
64,21,0,1,2,18,68,136.93272413336672,137.9436931188684,"[90, 0, 164]",164,l,0.4928221693262458,1,colour,0.5,4.0
64,21,0,1,2,19,69,138.45304970163852,140.9198119151406,"[32, 0, 222]",222,a,1.9495590508449823,1,colour,0.5,4.0
64,21,0,1,2,20,70,141.42883215402253,142.47967403777875,"[87, 0, 167]",167,l,0.5333307338878512,1,colour,0.5,4.0
64,21,0,1,2,21,71,142.98959303181618,143.92769512278028,"[41, 0, 213]",213,a,0.42092058970592916,1,colour,0.5,4.0
64,21,0,1,2,22,72,144.43685202603228,145.38370496570133,"[93, 0, 161]",161,l,0.42973563517443836,1,colour,0.5,4.0
64,21,0,1,2,23,73,145.89287289674394,147.36765931430273,"[67, 0, 187]",187,l,0.9571346652228385,1,colour,0.5,4.0
64,21,0,1,2,24,74,147.87696233415045,148.51171847293153,"[18, 0, 236]",236,a,0.11720087821595371,1,colour,0.5,4.0
64,21,0,1,2,25,75,149.020956114633,149.85568011575378,"[69, 0, 185]",185,l,0.31689816899597645,1,colour,0.5,4.0
64,21,0,1,2,26,76,150.3645329703577,151.0156683474779,"[47, 0, 207]",207,a,0.13244899292476475,1,colour,0.5,4.0
64,21,0,1,2,27,77,151.52491583512165,154.91169712669216,"[75, 0, 179]",179,l,2.869738423731178,1,colour,0.5,4.0
64,21,0,1,2,28,78,155.42104228795506,156.0956591158174,"[70, 0, 184]",184,l,0.15758144319988787,1,colour,0.5,4.0
64,21,0,1,2,29,79,156.6049652863294,158.19969020131975,"[64, 0, 190]",190,a,1.0778230438008904,0,colour,0.5,4.0
64,21,0,1,2,30,80,158.7087108339183,159.64761124947108,"[51, 0, 203]",203,a,0.42129671201109886,0,colour,0.5,4.0
64,21,0,1,2,31,81,160.15699028153904,160.80763295828365,"[52, 0, 202]",202,a,0.1334162773564458,0,colour,0.5,4.0
64,21,0,1,2,32,82,161.31681467359886,162.00766501715407,"[17, 0, 237]",237,a,0.1723648204933852,1,colour,0.5,4.0
64,21,0,1,2,33,83,162.51691211108118,163.2716744884383,"[19, 0, 235]",235,a,0.236723868874833,1,colour,0.5,4.0
64,21,0,1,2,34,84,163.78011892549694,164.35967095009983,"[78, 0, 176]",176,l,0.06186758284457028,1,colour,0.5,4.0
64,21,0,1,2,35,85,164.8680791533552,165.71166191692464,"[24, 0, 230]",230,a,0.3258624819573015,1,colour,0.5,4.0
64,21,0,1,2,36,86,166.22193694696762,167.00763941719197,"[37, 0, 217]",217,a,0.2689573497045785,1,colour,0.5,4.0
64,21,0,1,2,37,87,167.51713030133396,169.5356394550763,"[43, 0, 211]",211,l,1.5005868296138942,0,colour,0.5,4.0
64,21,0,1,2,38,88,170.04507205006666,171.59963143942878,"[53, 0, 201]",201,l,1.0370313043240458,1,colour,0.5,4.0
64,21,0,1,2,39,89,172.10893052094616,172.75963503145613,"[55, 0, 199]",199,a,0.13365967362187803,0,colour,0.5,4.0
64,21,0,1,2,40,90,173.26959419762716,174.20758640556596,"[66, 0, 188]",188,a,0.42051847348921,0,colour,0.5,4.0
64,21,0,1,2,41,91,174.71603202424012,175.79162984201685,"[92, 0, 162]",162,l,0.5575285891536623,1,colour,0.5,4.0
64,21,0,1,2,42,92,176.30139956856146,176.96768302377313,"[94, 0, 160]",160,l,0.1490472094155848,1,colour,0.5,4.0
64,21,0,1,2,43,93,177.47704945271835,178.21563660353422,"[63, 0, 191]",191,a,0.22117918846197426,0,colour,0.5,4.0
64,21,0,1,2,44,94,178.72493607876822,180.9036595316138,"[9, 0, 245]",245,a,1.6613883518148214,1,colour,0.5,4.0
64,21,0,1,2,45,95,181.4131248157937,182.3196078245528,"[48, 0, 206]",206,a,0.38848230917938054,1,colour,0.5,4.0
64,21,0,1,2,46,96,182.82899827812798,183.47164313821122,"[49, 0, 205]",205,a,0.1248879509512335,1,colour,0.5,4.0
64,21,0,1,2,47,97,183.97983787744306,184.70358690666035,"[26, 0, 228]",228,a,0.20574911730363965,1,colour,0.5,4.0
64,21,0,1,2,48,98,185.21400017640553,185.871687958017,"[86, 0, 168]",168,l,0.13849294325336814,1,colour,0.5,4.0
64,21,0,1,2,49,99,186.38008119515143,187.30361731140874,"[83, 0, 171]",171,l,0.40547870309092104,1,colour,0.5,4.0
64,21,0,1,2,50,100,187.813144429354,188.49556136340834,"[29, 0, 225]",225,a,0.16443159454502165,1,colour,0.5,4.0
64,21,0,1,3,1,101,195.13166327169165,197.70361802051775,"[74, 0, 180]",180,l,2.0544739251490682,1,colour,0.5,4.0
64,21,0,1,3,2,102,198.21388005348854,199.48775771260262,"[28, 0, 226]",226,a,0.754413430346176,1,colour,0.5,4.0
64,21,0,1,3,3,103,199.9968476621434,201.67159603442997,"[49, 0, 205]",205,l,1.1560005482751876,0,colour,0.5,4.0
64,21,0,1,3,4,104,202.18057570722885,203.3275603489019,"[46, 0, 208]",208,a,0.6277326955460012,1,colour,0.5,4.0
64,21,0,1,3,5,105,203.8374950964935,206.68765468266793,"[79, 0, 175]",175,l,2.3330273155588657,1,colour,0.5,4.0
64,21,0,1,3,6,106,207.19693840411492,207.73555454192683,"[4, 0, 250]",250,a,0.018890002043917775,1,colour,0.5,4.0
64,21,0,1,3,7,107,208.24488710029982,211.1755585120991,"[59, 0, 195]",195,a,2.412930256454274,0,colour,0.5,4.0
64,21,0,1,3,8,108,211.68462719395757,213.15952979587018,"[57, 0, 197]",197,l,0.9576167317572981,1,colour,0.5,4.0
64,21,0,1,3,9,109,213.6687213575933,214.30356374848634,"[7, 0, 247]",247,a,0.11674204864539206,1,colour,0.5,4.0
64,21,0,1,3,10,110,214.81304596806876,215.43951757089235,"[80, 0, 174]",174,l,0.10840985737740993,1,colour,0.5,4.0
64,21,0,1,3,11,111,215.9486992864404,216.4955440342892,"[30, 0, 224]",224,a,0.02899410342797637,1,colour,0.5,4.0
64,21,0,1,3,12,112,217.00408968958072,217.7915235038381,"[37, 0, 217]",217,a,0.2696946281939745,1,colour,0.5,4.0
64,21,0,1,3,13,113,218.30040550301783,218.91952755884267,"[91, 0, 163]",163,l,0.10201814211905003,1,colour,0.5,4.0
64,21,0,1,3,14,114,219.428808523342,220.27955651446246,"[18, 0, 236]",236,a,0.3332648042123765,1,colour,0.5,4.0
64,21,0,1,3,15,115,220.78816754813306,221.35151402000338,"[38, 0, 216]",216,a,0.045552541268989444,1,colour,0.5,4.0
64,21,0,1,3,16,116,221.86079262150452,222.49551449576393,"[77, 0, 177]",177,l,0.11659711343236268,1,colour,0.5,4.0
64,21,0,1,3,17,117,223.00478403875604,224.3035389361903,"[67, 0, 187]",187,l,0.7820594012737274,1,colour,0.5,4.0
64,21,0,1,3,18,118,224.81299358652905,225.3995399097912,"[17, 0, 237]",237,a,0.06944044027477503,1,colour,0.5,4.0
64,21,0,1,3,19,119,225.90855542267673,226.4634984175209,"[21, 0, 233]",233,a,0.03791194246150553,1,colour,0.5,4.0
64,21,0,1,3,20,120,226.97190898377448,228.17553921346553,"[47, 0, 207]",207,a,0.6868874719366431,1,colour,0.5,4.0
64,21,0,1,3,21,121,228.68460631999187,232.33551602391526,"[26, 0, 228]",228,l,3.133738048840314,0,colour,0.5,4.0
64,21,0,1,3,22,122,232.84512033546343,233.78347803209908,"[31, 0, 223]",223,a,0.420870965346694,1,colour,0.5,4.0
64,21,0,1,3,23,123,234.29278459656052,235.0235440719407,"[15, 0, 239]",239,a,0.21326407953165472,1,colour,0.5,4.0
64,21,0,1,3,24,124,235.5326013325248,236.25552171096206,"[2, 0, 252]",252,a,0.20532691502012312,1,colour,0.5,4.0
64,21,0,1,3,25,125,236.76456164219417,237.40754993562587,"[86, 0, 168]",168,l,0.12517624581232667,1,colour,0.5,4.0
64,21,0,1,3,26,126,237.91691793990321,239.61548922676593,"[89, 0, 165]",165,l,1.1807005563750863,1,colour,0.5,4.0
64,21,0,1,3,27,127,240.12550431885757,241.167470111046,"[60, 0, 194]",194,l,0.5252998343203217,1,colour,0.5,4.0
64,21,0,1,3,28,128,241.6773446004372,243.05548138124868,"[94, 0, 160]",160,l,0.8610541347879916,1,colour,0.5,4.0
64,21,0,1,3,29,129,243.56463040760718,245.55146100837737,"[83, 0, 171]",171,l,1.4693698631599545,1,colour,0.5,4.0
64,21,0,1,3,30,130,246.06062893941998,246.77544280025177,"[55, 0, 199]",199,a,0.1967603862285614,0,colour,0.5,4.0
64,21,0,1,3,31,131,247.28450281755067,249.30345937958919,"[70, 0, 184]",184,l,1.5020944692660123,1,colour,0.5,4.0
64,21,0,1,3,32,132,249.81299004191533,251.06343114865012,"[82, 0, 172]",172,l,0.7326333913952112,1,colour,0.5,4.0
64,21,0,1,3,33,133,251.57283893134445,252.2474979008548,"[43, 0, 211]",211,a,0.1571777518838644,1,colour,0.5,4.0
64,21,0,1,3,34,134,252.75614280509762,253.52745692501776,"[69, 0, 185]",185,a,0.2541050494182855,0,colour,0.5,4.0
64,21,0,1,3,35,135,254.03651261003688,254.58345818216912,"[29, 0, 225]",225,l,0.02913431217893958,0,colour,0.5,4.0
64,21,0,1,3,36,136,255.09270724537782,255.9195590664167,"[96, 0, 158]",158,l,0.3094844250008464,1,colour,0.5,4.0
64,21,0,1,3,37,137,256.4290467998944,257.53545040939935,"[40, 0, 214]",214,a,0.5885624175425619,1,colour,0.5,4.0
64,21,0,1,3,38,138,258.04468332463875,260.9914614339359,"[62, 0, 192]",192,a,2.429195673437789,0,colour,0.5,4.0
64,21,0,1,3,39,139,261.50055098952726,262.2794174870942,"[73, 0, 181]",181,l,0.2617531316354871,1,colour,0.5,4.0
64,21,0,1,3,40,140,262.78922226582654,263.77543177246116,"[61, 0, 193]",193,a,0.4686373108997941,0,colour,0.5,4.0
64,21,0,1,3,41,141,264.2854811293073,265.07150103896856,"[35, 0, 219]",219,a,0.2686887471936643,1,colour,0.5,4.0
64,21,0,1,3,42,142,265.58062919136137,266.22344025433995,"[78, 0, 176]",176,l,0.12349098175764084,1,colour,0.5,4.0
64,21,0,1,3,43,143,266.73249121336266,267.79143922100775,"[33, 0, 221]",221,a,0.5407062750309706,1,colour,0.5,4.0
64,21,0,1,3,44,144,268.30001323320903,269.3194506803993,"[9, 0, 245]",245,a,0.5011992589570582,1,colour,0.5,4.0
64,21,0,1,3,45,145,269.8288368014619,280.6394235994667,"[41, 0, 213]",213,l,10.29336079210043,0,colour,0.5,4.0
64,21,0,1,3,46,146,281.14846313674934,282.8393985510338,"[44, 0, 210]",210,a,1.173462073551491,1,colour,0.5,4.0
64,21,0,1,3,47,147,283.3485196141992,285.0873942722101,"[85, 0, 169]",169,l,1.221060247393325,1,colour,0.5,4.0
64,21,0,1,3,48,148,285.59671816579066,290.0953617626801,"[64, 0, 190]",190,l,3.9809571858495474,1,colour,0.5,4.0
64,21,0,1,3,49,149,290.60469392710365,291.8393595602829,"[48, 0, 206]",206,a,0.7167866320814937,1,colour,0.5,4.0
64,21,0,1,3,50,150,292.3484274544753,293.3753708053846,"[90, 0, 164]",164,a,0.5094377149362117,0,colour,0.5,4.0
64,21,0,1,4,1,151,304.29940986214206,305.5593446099665,"[75, 0, 179]",179,l,0.7426536036655307,1,colour,0.5,3.9
64,21,0,1,4,2,152,306.06814587069675,308.00733733782545,"[48, 0, 206]",206,a,1.4217504216358066,1,colour,0.5,3.9
64,21,0,1,4,3,153,308.51647730590776,309.99134249263443,"[87, 0, 167]",167,l,0.9574950337409973,1,colour,0.5,3.9
64,21,0,1,4,4,154,310.5004233836662,311.1593828916084,"[34, 0, 220]",220,a,0.14094659918919206,1,colour,0.5,3.9
64,21,0,1,4,5,155,311.66932591004297,312.6314446874894,"[27, 0, 227]",227,a,0.44476162106730044,1,colour,0.5,3.9
64,21,0,1,4,6,156,313.14168466534466,314.14331676019356,"[24, 0, 230]",230,a,0.48430683999322355,1,colour,0.5,3.9
64,21,0,1,4,7,157,314.65332594467327,315.61532499315217,"[5, 0, 249]",249,a,0.44416849012486637,1,colour,0.5,3.9
64,21,0,1,4,8,158,316.124433059711,317.7753238589503,"[51, 0, 203]",203,l,1.1337994886562228,1,colour,0.5,3.9
64,21,0,1,4,9,159,318.28448351914994,319.3113185625989,"[81, 0, 173]",173,l,0.5090241774450988,1,colour,0.5,3.9
64,21,0,1,4,10,160,319.81981459329836,320.8632986592129,"[59, 0, 195]",195,l,0.5261812603566796,1,colour,0.5,3.9
64,21,0,1,4,11,161,321.3718801543582,322.3992803657893,"[67, 0, 187]",187,l,0.5101178856566548,1,colour,0.5,3.9
64,21,0,1,4,12,162,322.9079823778011,323.63129108794965,"[13, 0, 241]",241,a,0.2057621143758297,1,colour,0.5,3.9
64,21,0,1,4,13,163,324.14116557734087,325.20733985863626,"[6, 0, 248]",248,a,0.5485044119413942,1,colour,0.5,3.9
64,21,0,1,4,14,164,325.7164014512673,326.4713552372996,"[88, 0, 166]",166,l,0.23734456882812083,1,colour,0.5,3.9
64,21,0,1,4,15,165,326.9804566083476,327.7034017993137,"[66, 0, 188]",188,l,0.20391852431930602,1,colour,0.5,3.9
64,21,0,1,4,16,166,328.21330858394504,329.2952953602653,"[17, 0, 237]",237,a,0.5631180417258292,1,colour,0.5,3.9
64,21,0,1,4,17,167,329.80491188098677,330.80725762364455,"[19, 0, 235]",235,a,0.48534856108017266,1,colour,0.5,3.9
64,21,0,1,4,18,168,331.31613725982606,331.9753220472485,"[50, 0, 204]",204,a,0.1418465357273817,1,colour,0.5,3.9
64,21,0,1,4,19,169,332.4844757998362,333.58329906873405,"[53, 0, 201]",201,a,0.5806378561537713,0,colour,0.5,3.9
64,21,0,1,4,20,170,334.11133770341985,334.87131222942844,"[36, 0, 218]",218,a,0.24234207184053957,1,colour,0.5,3.9
64,21,0,1,4,21,171,335.3804998525884,336.1512582569849,"[20, 0, 234]",234,a,0.25079871830530465,1,colour,0.5,3.9
64,21,0,1,4,22,172,336.6605612768326,337.8952509346418,"[52, 0, 202]",202,l,0.7164695865940303,1,colour,0.5,3.9
64,21,0,1,4,23,173,338.40447321604006,339.08730250620283,"[54, 0, 200]",200,a,0.16521810367703438,0,colour,0.5,3.9
64,21,0,1,4,24,174,339.5968489225488,340.2713428705465,"[61, 0, 193]",193,a,0.15706944419071078,0,colour,0.5,3.9
64,21,0,1,4,25,175,340.7804245494772,342.1992762698792,"[78, 0, 176]",176,l,0.8994784702081233,1,colour,0.5,3.9
64,21,0,1,4,26,176,342.7083303795662,343.3672761027701,"[95, 0, 159]",159,a,0.14140188437886536,0,colour,0.5,3.9
64,21,0,1,4,27,177,343.8765125628561,345.23931340151466,"[57, 0, 197]",197,a,0.8455000023823231,0,colour,0.5,3.9
64,21,0,1,4,28,178,345.74841359118,346.8632395823952,"[82, 0, 172]",172,l,0.5972983001265675,1,colour,0.5,3.9
64,21,0,1,4,29,179,347.37237718724646,348.48720554145984,"[47, 0, 207]",207,a,0.597770914202556,1,colour,0.5,3.9
64,21,0,1,4,30,180,348.99651840748265,349.67134318570606,"[0, 0, 254]",254,a,0.15579377952963114,1,colour,0.5,3.9
64,21,0,1,4,31,181,350.1813633979764,350.81527710170485,"[26, 0, 228]",228,a,0.11585038295015693,1,colour,0.5,3.9
64,21,0,1,4,32,182,351.3249290683307,351.9432331074495,"[1, 0, 253]",253,a,0.10077162156812847,1,colour,0.5,3.9
64,21,0,1,4,33,183,352.45257787499577,353.1832597630564,"[30, 0, 224]",224,a,0.21338814101181924,1,colour,0.5,3.9
64,21,0,1,4,34,184,353.6932110521011,354.34320349036716,"[70, 0, 184]",184,l,0.13291806285269558,1,colour,0.5,3.9
64,21,0,1,4,35,185,354.85169440112077,355.59125277469866,"[11, 0, 243]",243,a,0.22202241141349077,1,colour,0.5,3.9
64,21,0,1,4,36,186,356.10032933345065,356.6792326949071,"[79, 0, 175]",175,l,0.061680900398641825,1,colour,0.5,3.9
64,21,0,1,4,37,187,357.18840810866095,357.783261023229,"[86, 0, 168]",168,l,0.07791047729551792,1,colour,0.5,3.9
64,21,0,1,4,38,188,358.29295867611654,358.8712783588562,"[38, 0, 216]",216,a,0.06117126438766718,1,colour,0.5,3.9
64,21,0,1,4,39,189,359.38028638856485,362.2152329122182,"[62, 0, 192]",192,a,2.316458637593314,0,colour,0.5,3.9
64,21,0,1,4,40,190,362.7253913639579,363.99122709594667,"[46, 0, 208]",208,l,0.7485278062522411,0,colour,0.5,3.9
64,21,0,1,4,41,191,364.50029026390985,365.1272305427119,"[41, 0, 213]",213,a,0.10886593023315072,1,colour,0.5,3.9
64,21,0,1,4,42,192,365.63633979088627,366.47123668994755,"[23, 0, 231]",231,a,0.3175554967019707,1,colour,0.5,3.9
64,21,0,1,4,43,193,366.981225394411,367.7191721529234,"[43, 0, 211]",211,a,0.220341085921973,1,colour,0.5,3.9
64,21,0,1,4,44,194,368.2285492157098,368.75921794911847,"[89, 0, 165]",165,l,0.012795245973393321,1,colour,0.5,3.9
64,21,0,1,4,45,195,369.268217708217,369.9351781834848,"[45, 0, 209]",209,a,0.14972068485803902,1,colour,0.5,3.9
64,21,0,1,4,46,196,370.4444548157044,371.03119097230956,"[3, 0, 251]",251,l,0.0692049206700176,0,colour,0.5,3.9
64,21,0,1,4,47,197,371.54040537704714,372.33521394454874,"[9, 0, 245]",245,a,0.2775845308788121,1,colour,0.5,3.9
64,21,0,1,4,48,198,372.8450600770302,374.8552078951616,"[83, 0, 171]",171,l,1.4926465144380927,1,colour,0.5,3.9
64,21,0,1,4,49,199,375.3643592845183,376.3993162056431,"[80, 0, 174]",174,l,0.5166675329674035,1,colour,0.5,3.9
64,21,0,1,4,50,200,376.9083403830882,378.1111498391256,"[85, 0, 169]",169,l,0.6855042872484773,1,colour,0.5,3.9
64,21,0,1,5,1,201,385.04355417029,385.991183772916,"[19, 0, 235]",235,a,0.4302574803587049,1,colour,0.5,3.9
64,21,0,1,5,2,202,386.5002839623485,387.5591854962986,"[34, 0, 220]",220,a,0.5408957144245505,1,colour,0.5,3.9
64,21,0,1,5,3,203,388.06880753091536,389.64718195796013,"[48, 0, 206]",206,a,1.0602386386599392,1,colour,0.5,3.9
64,21,0,1,5,4,204,390.156488916371,390.71916703297757,"[16, 0, 238]",238,a,0.04491569357924163,1,colour,0.5,3.9
64,21,0,1,5,5,205,391.22870793542825,392.8632766038645,"[57, 0, 197]",197,a,1.117100841831416,0,colour,0.5,3.9
64,21,0,1,5,6,206,393.3732554621529,393.92715909937397,"[86, 0, 168]",168,l,0.03639169968664646,1,colour,0.5,3.9
64,21,0,1,5,7,207,394.4372541420162,395.1591887259856,"[88, 0, 166]",166,l,0.20399689977057278,1,colour,0.5,3.9
64,21,0,1,5,8,208,395.66820620791987,400.0232565649785,"[65, 0, 189]",189,l,3.837022088468075,1,colour,0.5,3.9
64,21,0,1,5,9,209,400.53238826221786,402.5831115983892,"[80, 0, 174]",174,l,1.5334276198409498,1,colour,0.5,3.9
64,21,0,1,5,10,210,403.09230670472607,404.31913245329633,"[12, 0, 242]",242,a,0.7091665130574256,1,colour,0.5,3.9
64,21,0,1,5,11,211,404.82851896830834,405.7670928859152,"[36, 0, 218]",218,a,0.4210820661392063,1,colour,0.5,3.9
64,21,0,1,5,12,212,406.27630965365097,406.94310235092416,"[42, 0, 212]",212,a,0.149337473558262,1,colour,0.5,3.9
64,21,0,1,5,13,213,407.45218639285304,408.0311129910406,"[21, 0, 233]",233,a,0.06186758284457028,1,colour,0.5,3.9
64,21,0,1,5,14,214,408.53996427031234,409.0717712168116,"[10, 0, 244]",244,a,0.014604177558794618,1,colour,0.5,3.9
64,21,0,1,5,15,215,409.5824794766959,410.11915120040067,"[7, 0, 247]",247,a,0.019494161009788513,1,colour,0.5,3.9
64,21,0,1,5,16,216,410.6291588093154,411.2310981824994,"[35, 0, 219]",219,a,0.08429195289500058,1,colour,0.5,3.9
64,21,0,1,5,17,217,411.74100221018307,412.2714129751548,"[2, 0, 252]",252,a,0.012388403993099928,1,colour,0.5,3.9
64,21,0,1,5,18,218,412.78179355571046,413.3990960463416,"[87, 0, 167]",167,l,0.10029467521235347,1,colour,0.5,3.9
64,21,0,1,5,19,219,413.9089539940469,415.54309652210213,"[49, 0, 205]",205,a,1.116861383896321,1,colour,0.5,3.9
64,21,0,1,5,20,220,416.0521218809299,417.73510122601874,"[25, 0, 229]",229,a,1.16571434866637,1,colour,0.5,3.9
64,21,0,1,5,21,221,418.24437273829244,418.89510993799195,"[75, 0, 179]",179,l,0.13324495451524854,1,colour,0.5,3.9
64,21,0,1,5,22,222,419.4042152473703,420.1112104912754,"[44, 0, 210]",210,a,0.1883171305526048,1,colour,0.5,3.9
64,21,0,1,5,23,223,420.6210901008453,422.1430485516321,"[98, 0, 156]",156,l,1.0036225891672075,1,colour,0.5,3.9
64,21,0,1,5,24,224,422.6522680763155,423.3830929300748,"[47, 0, 207]",207,a,0.21291828341782093,1,colour,0.5,3.9
64,21,0,1,5,25,225,423.8928350873757,424.5751354433596,"[14, 0, 240]",240,a,0.16483804304152727,1,colour,0.5,3.9
64,21,0,1,5,26,226,425.0844628815539,425.8310805382207,"[70, 0, 184]",184,l,0.2286910000257194,1,colour,0.5,3.9
64,21,0,1,5,27,227,426.34032487496734,427.0150519795716,"[22, 0, 232]",232,a,0.15751173254102468,1,colour,0.5,3.9
64,21,0,1,5,28,228,427.5242514181882,432.6950696082786,"[27, 0, 227]",227,a,4.653372812550515,1,colour,0.5,3.9
64,21,0,1,5,29,229,433.20489053451456,433.9990665866062,"[45, 0, 209]",209,a,0.27584097790531814,1,colour,0.5,3.9
64,21,0,1,5,30,230,434.5085996121634,437.67902159364894,"[30, 0, 224]",224,a,2.6532723817508668,1,colour,0.5,3.9
64,21,0,1,5,31,231,438.18899493827485,439.99907603883184,"[56, 0, 198]",198,l,1.2932686323765665,1,colour,0.5,3.9
64,21,0,1,5,32,232,440.5083191941958,441.2630303716287,"[71, 0, 183]",183,l,0.23676128406077623,1,colour,0.5,3.9
64,21,0,1,5,33,233,441.77226683171466,442.9030474962201,"[52, 0, 202]",202,a,0.6133061423897743,0,colour,0.5,3.9
64,21,0,1,5,34,234,443.41200117510743,444.3591435912531,"[76, 0, 178]",178,l,0.4295851862989366,1,colour,0.5,3.9
64,21,0,1,5,35,235,444.8682930113282,445.72704512043856,"[78, 0, 176]",176,l,0.34121693461202085,1,colour,0.5,3.9
64,21,0,1,5,36,236,446.2361275870353,446.9510383338202,"[94, 0, 160]",160,l,0.1969510072376579,1,colour,0.5,3.9
64,21,0,1,5,37,237,447.45983408088796,448.1830427541863,"[17, 0, 237]",237,a,0.20520285400561988,1,colour,0.5,3.9
64,21,0,1,5,38,238,448.69208189775236,450.2712243231945,"[85, 0, 169]",169,l,1.0617896015755832,1,colour,0.5,3.9
64,21,0,1,5,39,239,450.7804280940909,451.76703184004873,"[67, 0, 187]",187,l,0.4674282060004771,1,colour,0.5,3.9
64,21,0,1,5,40,240,452.2756212120876,453.19903996260837,"[73, 0, 181]",181,l,0.40636997506953776,1,colour,0.5,3.9
64,21,0,1,5,41,241,453.70827130274847,454.3190186319407,"[46, 0, 208]",208,a,0.09273008839227259,1,colour,0.5,3.9
64,21,0,1,5,42,242,454.82768992404453,455.75902260188013,"[82, 0, 172]",172,l,0.4136706853751093,1,colour,0.5,3.9
64,21,0,1,5,43,243,456.26809955458157,456.90300574852154,"[55, 0, 199]",199,a,0.11758093908429146,0,colour,0.5,3.9
64,21,0,1,5,44,244,457.4119594276417,458.055003646994,"[90, 0, 164]",164,l,0.1259383363649249,1,colour,0.5,3.9
64,21,0,1,5,45,245,458.56418339326046,459.2310036595445,"[53, 0, 201]",201,a,0.14863012731075287,0,colour,0.5,3.9
64,21,0,1,5,46,246,459.7407694477588,460.70297762798145,"[51, 0, 203]",203,a,0.44437171425670385,0,colour,0.5,3.9
64,21,0,1,5,47,247,461.21177810127847,462.1910622322466,"[77, 0, 177]",177,l,0.4616540400311351,1,colour,0.5,3.9
64,21,0,1,5,48,248,462.6999272960238,463.5110430284403,"[91, 0, 163]",163,l,0.2934411368332803,1,colour,0.5,3.9
64,21,0,1,5,49,249,464.0209592652973,464.7349803156685,"[32, 0, 222]",222,a,0.1961562274955213,1,colour,0.5,3.9
64,21,0,1,5,50,250,465.2442841231823,466.0715136420913,"[28, 0, 226]",226,a,0.3096931630279869,1,colour,0.5,3.9
64,21,0,1,6,1,251,471.6511731862556,474.97493844199926,"[47, 0, 207]",207,a,2.806263558100909,1,colour,0.5,3.9
64,21,0,1,6,2,252,475.4840181514155,476.39095250703394,"[78, 0, 176]",176,l,0.38994741393253207,1,colour,0.5,3.9
64,21,0,1,6,3,253,476.9000609673094,477.7989994753152,"[87, 0, 167]",167,l,0.3812517032492906,1,colour,0.5,3.9
64,21,0,1,6,4,254,478.3081898554228,481.0789860689547,"[15, 0, 239]",239,a,2.253397703403607,1,colour,0.5,3.9
64,21,0,1,6,5,255,481.5873253492173,484.9269220044371,"[82, 0, 172]",172,l,2.8217113523278385,1,colour,0.5,3.9
64,21,0,1,6,6,256,485.43604188621975,486.3829578412697,"[12, 0, 242]",242,a,0.4296352048404515,1,colour,0.5,3.9
64,21,0,1,6,7,257,486.89214231353253,488.414908147417,"[61, 0, 193]",193,a,1.0048395711928606,0,colour,0.5,3.9
64,21,0,1,6,8,258,488.92432853300124,489.9669453515671,"[34, 0, 220]",220,a,0.525462492601946,1,colour,0.5,3.9
64,21,0,1,6,9,259,490.4763803095557,491.4549354328774,"[70, 0, 184]",184,l,0.46126019465737045,1,colour,0.5,3.9
64,21,0,1,6,10,260,491.96398363495246,493.007045104634,"[44, 0, 210]",210,a,0.5237382377963513,1,colour,0.5,3.9
64,21,0,1,6,11,261,493.5170586213935,494.12693791580386,"[95, 0, 159]",159,l,0.09158242330886424,1,colour,0.5,3.9
64,21,0,1,6,12,262,494.63600659766234,495.6469306848012,"[35, 0, 219]",219,a,0.4931750549003482,1,colour,0.5,3.9
64,21,0,1,6,13,263,496.1565090024378,497.0949427112937,"[36, 0, 218]",218,a,0.42111711855977774,1,colour,0.5,3.9
64,21,0,1,6,14,264,497.6041311221197,498.4389311352279,"[32, 0, 222]",222,a,0.3169863901566714,1,colour,0.5,3.9
64,21,0,1,6,15,265,498.9479383772705,499.7908925637603,"[40, 0, 214]",214,a,0.3249944469425827,1,colour,0.5,3.9
64,21,0,1,6,16,266,500.3000616761856,501.2869237845298,"[46, 0, 208]",208,a,0.46963570872321725,1,colour,0.5,3.9
64,21,0,1,6,17,267,501.7962969089858,502.82302246335894,"[24, 0, 230]",230,a,0.5087949594017118,1,colour,0.5,3.9
64,21,0,1,6,18,268,503.3321033543907,504.27112586190924,"[5, 0, 249]",249,a,0.4214629146736115,1,colour,0.5,3.9
64,21,0,1,6,19,269,504.78024968202226,505.75892335292883,"[65, 0, 189]",189,l,0.4599482959602028,1,colour,0.5,3.9
64,21,0,1,6,20,270,506.2678734874353,509.2148540329654,"[23, 0, 231]",231,a,2.42976714274846,1,colour,0.5,3.9
64,21,0,1,6,21,271,509.724258271046,510.7188976428006,"[0, 0, 254]",254,a,0.4772495261859149,1,colour,0.5,3.9
64,21,0,1,6,22,272,511.2277875188738,512.3828774967697,"[37, 0, 217]",217,a,0.6373811177909374,1,colour,0.5,3.9
64,21,0,1,6,23,273,512.891935544787,513.9268633215688,"[75, 0, 179]",179,l,0.5169845786876976,1,colour,0.5,3.9
64,21,0,1,6,24,274,514.4359678432811,524.1988867567852,"[68, 0, 186]",186,l,9.24563580006361,1,colour,0.5,3.9
64,21,0,1,6,25,275,524.7077573344577,525.3429959339555,"[63, 0, 191]",191,l,0.11826189770363271,1,colour,0.5,3.9
64,21,0,1,6,26,276,525.8521323571913,526.5908211201895,"[92, 0, 162]",162,l,0.22126268385909498,1,colour,0.5,3.9
64,21,0,1,6,27,277,527.0999248542357,527.6549064458814,"[93, 0, 161]",161,l,0.03732078056782484,1,colour,0.5,3.9
64,21,0,1,6,28,278,528.1641791397706,529.0388445681892,"[67, 0, 187]",187,a,0.3568017871584743,0,colour,0.5,3.9
64,21,0,1,6,29,279,529.5479427883402,530.4308596698102,"[80, 0, 174]",174,l,0.3655593313742429,1,colour,0.5,3.9
64,21,0,1,6,30,280,530.9400445360225,531.5828823803458,"[55, 0, 199]",199,a,0.12561695859767497,0,colour,0.5,3.9
64,21,0,1,6,31,281,532.0920455851592,533.0308719577733,"[86, 0, 168]",168,l,0.42126165982335806,1,colour,0.5,3.9
64,21,0,1,6,32,282,533.5410276525654,534.4710094411857,"[56, 0, 198]",198,a,0.4129491609055549,0,colour,0.5,3.9
64,21,0,1,6,33,283,534.9800670954864,535.8388570137322,"[41, 0, 213]",213,a,0.34103261516429484,1,colour,0.5,3.9
64,21,0,1,6,34,284,536.3478709510528,536.9751396968495,"[89, 0, 165]",165,l,0.10944606433622539,1,colour,0.5,3.9
64,21,0,1,6,35,285,537.483740884345,538.1908377404325,"[10, 0, 244]",244,a,0.1891642918344587,1,colour,0.5,3.9
64,21,0,1,6,36,286,538.6998556163162,539.4868550191168,"[17, 0, 237]",237,a,0.2688793682027608,1,colour,0.5,3.9
64,21,0,1,6,37,287,539.9952171426266,540.6228230199777,"[29, 0, 225]",225,a,0.1100726721342653,1,colour,0.5,3.9
64,21,0,1,6,38,288,541.1318940650672,541.9988287040032,"[38, 0, 216]",216,a,0.3496755501255393,1,colour,0.5,3.9
64,21,0,1,6,39,289,542.5078197983094,543.1748180827126,"[64, 0, 190]",190,l,0.1496241926215589,1,colour,0.5,3.9
64,21,0,1,6,40,290,543.6833838243037,544.5668170368299,"[18, 0, 236]",236,a,0.3656609433237463,1,colour,0.5,3.9
64,21,0,1,6,41,291,545.076006235322,545.8548128684051,"[27, 0, 227]",227,a,0.2612757910974324,1,colour,0.5,3.9
64,21,0,1,6,42,292,546.363879580982,547.070936264703,"[90, 0, 164]",164,l,0.18784687924198806,1,colour,0.5,3.9
64,21,0,1,6,43,293,547.5801380663179,548.4709704504348,"[76, 0, 178]",178,l,0.37350319093093276,1,colour,0.5,3.9
64,21,0,1,6,44,294,548.9801580738276,549.7988037343603,"[62, 0, 192]",192,a,0.30026174965314567,0,colour,0.5,3.9
64,21,0,1,6,45,295,550.307566398289,551.3187728724442,"[45, 0, 209]",209,l,0.49391902843490243,0,colour,0.5,3.9
64,21,0,1,6,46,296,551.8280877077486,552.4388054986484,"[28, 0, 226]",226,a,0.09354652953334153,1,colour,0.5,3.9
64,21,0,1,6,47,297,552.9477997438516,553.7827927412,"[57, 0, 197]",197,a,0.3172463281080127,0,colour,0.5,3.9
64,21,0,1,6,48,298,554.2918988384772,554.8387983306311,"[1, 0, 253]",253,a,0.029411973198875785,1,colour,0.5,3.9
64,21,0,1,6,49,299,555.3480355783831,556.0709181479178,"[91, 0, 163]",163,l,0.20463611069135368,1,colour,0.5,3.9
64,21,0,1,6,50,300,556.580076626502,557.3668019131292,"[53, 0, 201]",201,a,0.26765962946228683,0,colour,0.5,3.9
64,21,0,1,7,1,301,564.0598132857122,565.5187761809211,"[63, 0, 191]",191,l,0.9420637809671462,1,colour,0.5,3.9
64,21,0,1,7,2,302,566.028239889536,568.2147748700809,"[64, 0, 190]",190,l,1.6691490735393018,1,colour,0.5,3.9
64,21,0,1,7,3,303,568.7244197477121,569.6708697837312,"[38, 0, 216]",216,a,0.42735720355995,1,colour,0.5,3.9
64,21,0,1,7,4,304,570.1804402244743,570.8627992633265,"[6, 0, 248]",248,a,0.16306416364386678,1,colour,0.5,3.9
64,21,0,1,7,5,305,571.3721700245515,573.462769015925,"[24, 0, 230]",230,a,1.5729082480538636,1,colour,0.5,3.9
64,21,0,1,7,6,306,573.9718885039911,575.0147530511022,"[18, 0, 236]",236,a,0.525451858760789,1,colour,0.5,3.9
64,21,0,1,7,7,307,575.5234054385219,576.3267789597157,"[0, 0, 254]",254,a,0.2864236009772867,1,colour,0.5,3.9
64,21,0,1,7,8,308,576.8358799370471,577.7667561483104,"[69, 0, 185]",185,l,0.4136513869743794,1,colour,0.5,3.9
64,21,0,1,7,9,309,578.2758894208819,579.2867008680478,"[1, 0, 253]",253,a,0.49278908618725836,1,colour,0.5,3.9
64,21,0,1,7,10,310,579.7959562328178,580.9587773939129,"[61, 0, 193]",193,l,0.6453509712591767,1,colour,0.5,3.9
64,21,0,1,7,11,311,581.4679693493526,582.526714920532,"[17, 0, 237]",237,a,0.541514839278534,1,colour,0.5,3.9
64,21,0,1,7,12,312,583.0357776947785,584.2147429685574,"[99, 0, 155]",155,l,0.6619617906399071,1,colour,0.5,3.9
64,21,0,1,7,13,313,584.7250258754939,585.8227365317289,"[65, 0, 189]",189,l,0.5803775244858116,1,colour,0.5,3.9
64,21,0,1,7,14,314,586.3318902840838,587.998770808801,"[2, 0, 252]",252,a,1.1482264357618988,1,colour,0.5,3.9
64,21,0,1,7,15,315,588.5077886846848,591.2147193378769,"[31, 0, 223]",223,a,2.1895636508706957,1,colour,0.5,3.9
64,21,0,1,7,16,316,591.7244291999377,592.8708490673453,"[92, 0, 162]",162,l,0.6284219247754663,1,colour,0.5,3.9
64,21,0,1,7,17,317,593.3799634354655,594.3827022355981,"[34, 0, 220]",220,a,0.4841875049751252,1,colour,0.5,3.9
64,21,0,1,7,18,318,594.8918772556353,595.8946928556543,"[66, 0, 188]",188,l,0.4843438614625484,1,colour,0.5,3.9
64,21,0,1,7,19,319,596.4037678390741,597.4627343576867,"[85, 0, 169]",169,l,0.5417227896396071,1,colour,0.5,3.9
64,21,0,1,7,20,320,597.9714143141173,599.1906920175534,"[86, 0, 168]",168,l,0.7020564237609506,1,colour,0.5,3.9
64,21,0,1,7,21,321,599.6997859056573,600.7106749406084,"[56, 0, 198]",198,l,0.49321995326317847,1,colour,0.5,3.9
64,21,0,1,7,22,322,601.219872015994,602.3587280844804,"[11, 0, 243]",243,a,0.6213106540963054,1,colour,0.5,3.9
64,21,0,1,7,23,323,602.8677877078298,604.0708051142283,"[26, 0, 228]",228,a,0.6859552401583642,1,colour,0.5,3.9
64,21,0,1,7,24,324,604.5806366745383,605.53471313091,"[13, 0, 241]",241,a,0.43579927762039006,1,colour,0.5,3.9
64,21,0,1,7,25,325,606.0440236339346,607.8308859786484,"[84, 0, 170]",170,l,1.2694500503130257,1,colour,0.5,3.9
64,21,0,1,7,26,326,608.3408423878718,611.5186907164752,"[25, 0, 229]",229,l,2.660940943751484,0,colour,0.5,3.9
64,21,0,1,7,27,327,612.0280346961226,613.0866562060546,"[98, 0, 156]",156,l,0.5407480224967003,1,colour,0.5,3.9
64,21,0,1,7,28,328,613.5966583013069,614.7826608030591,"[4, 0, 250]",250,a,0.6675532124936581,1,colour,0.5,3.9
64,21,0,1,7,29,329,615.2918763891794,620.3826660017949,"[9, 0, 245]",245,l,4.573518314631656,0,colour,0.5,3.9
64,21,0,1,7,30,330,620.8918611081317,622.7827084583696,"[78, 0, 176]",176,l,1.3734901940915734,1,colour,0.5,3.9
64,21,0,1,7,31,331,623.2918027401902,626.0866097323596,"[87, 0, 167]",167,l,2.277101676678285,1,colour,0.5,3.9
64,21,0,1,7,32,332,626.596572049195,627.4707814047579,"[40, 0, 214]",214,a,0.3557033524848521,1,colour,0.5,3.9
64,21,0,1,7,33,333,627.9798729296308,629.2226557144895,"[79, 0, 175]",175,l,0.7253767917864025,1,colour,0.5,3.9
64,21,0,1,7,34,334,629.7318988698535,630.6946674920619,"[45, 0, 209]",209,a,0.4453890167642385,1,colour,0.5,3.9
64,21,0,1,7,35,335,631.2038389677182,632.1827005026862,"[89, 0, 165]",165,l,0.4620049560908228,1,colour,0.5,3.9
64,21,0,1,7,36,336,632.6918936397415,633.7266914474312,"[96, 0, 158]",158,l,0.5174670391716063,1,colour,0.5,3.9
64,21,0,1,7,37,337,634.2351610905025,635.286627613008,"[29, 0, 225]",225,a,0.5338911758735776,1,colour,0.5,3.9
64,21,0,1,7,38,338,635.7961062877439,636.926636072807,"[62, 0, 192]",192,a,0.6125125440303236,0,colour,0.5,3.9
64,21,0,1,7,39,339,637.4358315728605,639.1506596121471,"[27, 0, 227]",227,a,1.1975969136692584,1,colour,0.5,3.9
64,21,0,1,7,40,340,639.66058096895,640.9345933231525,"[53, 0, 201]",201,a,0.7557505352888256,0,colour,0.5,3.9
64,21,0,1,7,41,341,641.4438589278143,642.4305859473534,"[93, 0, 161]",161,l,0.4690504549071193,1,colour,0.5,3.9
64,21,0,1,7,42,342,642.9399145669304,643.8945857298095,"[71, 0, 183]",183,l,0.43666101107373834,1,colour,0.5,3.9
64,21,0,1,7,43,343,644.4037434207276,645.366561667528,"[47, 0, 207]",207,a,0.44498847611248493,1,colour,0.5,3.9
64,21,0,1,7,44,344,645.8769194050692,646.9905815834645,"[57, 0, 197]",197,a,0.5962487023789436,0,colour,0.5,3.9
64,21,0,1,7,45,345,647.4996735022869,648.4386526867747,"[35, 0, 219]",219,a,0.42099030036479235,1,colour,0.5,3.9
64,21,0,1,7,46,346,648.9477079778444,649.9745898889378,"[32, 0, 222]",222,a,0.5083290406037122,1,colour,0.5,3.9
64,21,0,1,7,47,347,650.4837188289966,651.4146033111028,"[73, 0, 181]",181,l,0.4127341213170439,1,colour,0.5,3.9
64,21,0,1,7,48,348,651.9250181561802,653.0625713844784,"[94, 0, 160]",160,l,0.6203122562728822,1,colour,0.5,3.9
64,21,0,1,7,49,349,653.5718354135752,654.6465766178444,"[48, 0, 206]",206,a,0.5569646027870476,1,colour,0.5,3.9
64,21,0,1,7,50,350,655.1557957485784,656.1586306469981,"[16, 0, 238]",238,a,0.4856333110947162,1,colour,0.5,3.9
64,21,0,1,8,1,351,661.0112072618213,662.006552797975,"[68, 0, 186]",186,l,0.4777268667239696,1,colour,0.5,3.9
64,21,0,1,8,2,352,662.5157136397902,663.6066009260248,"[38, 0, 216]",216,a,0.5729074606206268,1,colour,0.5,3.9
64,21,0,1,8,3,353,664.115688118618,665.2305341959,"[25, 0, 229]",229,a,0.5974507180508226,1,colour,0.5,3.9
64,21,0,1,8,4,354,665.7399896339048,666.5426120923366,"[80, 0, 174]",174,l,0.2853487974498421,1,colour,0.5,3.9
64,21,0,1,8,5,355,667.0524479849264,667.8947208188474,"[50, 0, 204]",204,a,0.3255619779229164,1,colour,0.5,3.9
64,21,0,1,8,6,356,668.4043239487801,669.0305982353166,"[79, 0, 175]",175,l,0.10805933526717126,1,colour,0.5,3.9
64,21,0,1,8,7,357,669.5395574280992,670.230574761983,"[36, 0, 218]",218,a,0.1717137941159308,1,colour,0.5,3.9
64,21,0,1,8,8,358,670.7398332774173,671.6385874659754,"[8, 0, 246]",246,a,0.38057035114616156,1,colour,0.5,3.9
64,21,0,1,8,9,359,672.1475387818646,673.1265279226936,"[84, 0, 170]",170,l,0.46070369123481214,1,colour,0.5,3.9
64,21,0,1,8,10,360,673.6354024389293,676.3586319861934,"[70, 0, 184]",184,l,2.2052481460850686,1,colour,0.5,3.9
64,21,0,1,8,11,361,676.8684154972434,677.4065665039234,"[9, 0, 245]",245,a,0.020268854685127735,1,colour,0.5,3.9
64,21,0,1,8,12,362,677.9157679115888,678.566508655902,"[28, 0, 226]",226,a,0.13247656216844916,1,colour,0.5,3.9
64,21,0,1,8,13,363,679.0756261746865,679.9905335342046,"[95, 0, 159]",159,l,0.39691493078134954,1,colour,0.5,3.9
64,21,0,1,8,14,364,680.4995896131732,681.2546576145105,"[47, 0, 207]",207,a,0.23703855113126338,1,colour,0.5,3.9
64,21,0,1,8,15,365,681.7637152688112,682.3905362123623,"[85, 0, 169]",169,l,0.10765761276707053,1,colour,0.5,3.9
64,21,0,1,8,16,366,682.8996348266955,683.510505429469,"[13, 0, 241]",241,a,0.09267258690670133,1,colour,0.5,3.9
64,21,0,1,8,17,367,684.01953472686,684.7185270343907,"[90, 0, 164]",164,l,0.18169344030320644,1,colour,0.5,3.9
64,21,0,1,8,18,368,685.2280064967927,685.8625503531657,"[46, 0, 208]",208,a,0.11658726749010384,1,colour,0.5,3.9
64,21,0,1,8,19,369,686.371099553071,687.1584853183012,"[20, 0, 234]",234,a,0.2690160328056663,1,colour,0.5,3.9
64,21,0,1,8,20,370,687.6674496310297,688.4225471708924,"[73, 0, 181]",181,l,0.23706218204461038,1,colour,0.5,3.9
64,21,0,1,8,21,371,688.932045931695,689.9824766409583,"[32, 0, 222]",222,a,0.5321106011979282,1,colour,0.5,3.9
64,21,0,1,8,22,372,690.4913653356489,691.2706611244939,"[41, 0, 213]",213,a,0.2619228789117187,1,colour,0.5,3.9
64,21,0,1,8,23,373,691.779841264477,692.6705562828574,"[21, 0, 233]",233,a,0.37272849725559354,1,colour,0.5,3.9
64,21,0,1,8,24,374,693.1797852597665,694.1264905075077,"[5, 0, 249]",249,a,0.4278920453507453,1,colour,0.5,3.9
64,21,0,1,8,25,375,694.6355662785936,695.7665541055612,"[24, 0, 230]",230,a,0.6120611971709877,1,colour,0.5,3.9
64,21,0,1,8,26,376,696.277002427727,697.2545741193462,"[35, 0, 219]",219,a,0.45894320285879076,1,colour,0.5,3.9
64,21,0,1,8,27,377,697.7633907401469,698.3985990134533,"[16, 0, 238]",238,a,0.11782945552840829,1,colour,0.5,3.9
64,21,0,1,8,28,378,698.9083624384366,699.558486420894,"[62, 0, 192]",192,l,0.13084367965348065,1,colour,0.5,3.9
64,21,0,1,8,29,379,700.2051945831627,700.8224781691097,"[67, 0, 187]",187,l,0.09656535391695797,1,colour,0.5,3.9
64,21,0,1,8,30,380,701.3325015320443,701.9105400091503,"[72, 0, 182]",182,l,0.05988339032046497,1,colour,0.5,3.9
64,21,0,1,8,31,381,702.4200801239349,703.0305312816054,"[15, 0, 239]",239,a,0.09087665239349008,1,colour,0.5,3.9
64,21,0,1,8,32,382,703.5402951003052,704.1666044390295,"[81, 0, 173]",173,l,0.10774740972556174,1,colour,0.5,3.9
64,21,0,1,8,33,383,704.6760224618483,705.278484467417,"[37, 0, 217]",217,a,0.08411275316029787,1,colour,0.5,3.9
64,21,0,1,8,34,384,705.7873916728422,706.4465500726365,"[88, 0, 166]",166,l,0.14125301083549857,1,colour,0.5,3.9
64,21,0,1,8,35,385,706.9561528088525,708.3265044495929,"[59, 0, 195]",195,l,0.8532583608757704,1,colour,0.5,3.9
64,21,0,1,8,36,386,708.8349232866894,711.5584564886522,"[17, 0, 237]",237,a,2.20577786793001,1,colour,0.5,3.9
64,21,0,1,8,37,387,712.0671088760719,713.0784689499997,"[98, 0, 156]",156,l,0.4938532563392073,1,colour,0.5,3.9
64,21,0,1,8,38,388,713.5867546673398,715.0708594648167,"[48, 0, 206]",206,a,0.9663514327257872,1,colour,0.5,3.9
64,21,0,1,8,39,389,715.5805799607188,718.4624287337065,"[14, 0, 240]",240,a,2.3640142760705203,1,colour,0.5,3.9
64,21,0,1,8,40,390,718.9716840982437,719.9104647845961,"[57, 0, 197]",197,l,0.42080834368243814,1,colour,0.5,3.9
64,21,0,1,8,41,391,720.4191632519942,722.5105605679564,"[44, 0, 210]",210,l,1.572959054261446,0,colour,0.5,3.9
64,21,0,1,8,42,392,723.0191337922588,724.0464363300707,"[64, 0, 190]",190,l,0.5096913513261825,1,colour,0.5,3.9
64,21,0,1,8,43,393,724.5557661314961,725.5984278481919,"[89, 0, 165]",165,a,0.5252919574268162,0,colour,0.5,3.9
64,21,0,1,8,44,394,726.1075280378573,727.1186588937417,"[71, 0, 183]",183,l,0.4944948304910213,1,colour,0.5,3.9
64,21,0,1,8,45,395,727.6286747734994,728.5185505074915,"[4, 0, 250]",250,a,0.3712866296991706,1,colour,0.5,3.9
64,21,0,1,8,46,396,729.026985098375,729.958412693115,"[53, 0, 201]",201,l,0.41241077426820993,1,colour,0.5,3.9
64,21,0,1,8,47,397,730.4674597135745,731.670676011825,"[82, 0, 172]",172,l,0.6856232287827879,1,colour,0.5,3.9
64,21,0,1,8,48,398,732.1792803499848,733.1825524168089,"[74, 0, 180]",180,l,0.48498937394469976,1,colour,0.5,3.9
64,21,0,1,8,49,399,733.6920744145755,734.2384560003411,"[27, 0, 227]",227,a,0.028599076438695192,1,colour,0.5,3.9
64,21,0,1,8,50,400,734.7478448785841,736.1264302490745,"[60, 0, 194]",194,l,0.8608162521850318,1,colour,0.5,3.9
64,21,0,1,9,1,401,741.6829596529715,743.8864374645054,"[87, 0, 167]",167,l,1.6856657641474158,1,colour,0.5,3.9
64,21,0,1,9,2,402,744.3966384516098,745.3903554375283,"[39, 0, 215]",215,a,0.4742566957138479,1,colour,0.5,3.9
64,21,0,1,9,3,403,745.8987297702115,746.4783629267476,"[7, 0, 247]",247,a,0.0623673724476248,1,colour,0.5,3.9
64,21,0,1,9,4,404,746.9876265621278,747.5583781134337,"[89, 0, 165]",165,l,0.05230147438123822,1,colour,0.5,3.9
64,21,0,1,9,5,405,748.0674857860431,748.798370504519,"[42, 0, 212]",212,a,0.21292576659470797,1,colour,0.5,3.9
64,21,0,1,9,6,406,749.3071709775832,750.2305534943007,"[32, 0, 222]",222,a,0.4060430834069848,1,colour,0.5,3.9
64,21,0,1,9,7,407,750.7416689903475,751.5023792195134,"[31, 0, 223]",223,a,0.2437354966532439,1,colour,0.5,3.9
64,21,0,1,9,8,408,752.0116334024351,753.0223782898393,"[5, 0, 249]",249,a,0.4934349926188588,1,colour,0.5,3.9
64,21,0,1,9,9,409,753.5314241289161,754.3903325945139,"[29, 0, 225]",225,a,0.34101055981591344,1,colour,0.5,3.9
64,21,0,1,9,10,410,754.8994489316829,755.7265213062055,"[73, 0, 181]",181,l,0.3093698159791529,1,colour,0.5,3.9
64,21,0,1,9,11,411,756.2357908491977,757.8943659642246,"[21, 0, 233]",233,a,1.1413569862488657,1,colour,0.5,3.9
64,21,0,1,9,12,412,758.403520898195,760.1343370873947,"[27, 0, 227]",227,a,1.212811551289633,1,colour,0.5,3.9
64,21,0,1,9,13,413,760.6436149012297,761.5423273420893,"[93, 0, 161]",161,l,0.38151873042806983,1,colour,0.5,3.9
64,21,0,1,9,14,414,762.0514885776211,763.0864454987459,"[38, 0, 216]",216,a,0.5172358518466353,1,colour,0.5,3.9
64,21,0,1,9,15,415,763.5968311994802,764.6543893271592,"[51, 0, 203]",203,l,0.5378741333261132,1,colour,0.5,3.9
64,21,0,1,9,16,416,765.1634639166296,766.0623449233826,"[46, 0, 208]",208,a,0.38163845939561725,1,colour,0.5,3.9
64,21,0,1,9,17,417,766.5717058384325,767.374312936794,"[96, 0, 158]",158,l,0.2850679855328053,1,colour,0.5,3.9
64,21,0,1,9,18,418,767.8834844124503,768.6783469368238,"[47, 0, 207]",207,a,0.2776191895827651,1,colour,0.5,3.9
64,21,0,1,9,19,419,769.1875806397293,769.9183665029705,"[78, 0, 176]",176,l,0.21244842605665326,1,colour,0.5,3.9
64,21,0,1,9,20,420,770.4278908639681,771.0543498636689,"[77, 0, 177]",177,l,0.10914477263577282,1,colour,0.5,3.9
64,21,0,1,9,21,421,771.5637210188434,772.2783206277527,"[22, 0, 232]",232,a,0.19473405182361603,1,colour,0.5,3.9
64,21,0,1,9,22,422,772.787347168196,773.6463119538967,"[36, 0, 218]",218,a,0.3420963913667947,1,colour,0.5,3.9
64,21,0,1,9,23,423,774.1560643510893,775.1022993475199,"[57, 0, 197]",197,l,0.4290617657825351,1,colour,0.5,3.9
64,21,0,1,9,24,424,775.6121907723136,776.4462826517411,"[9, 0, 245]",245,a,0.3157012730371207,1,colour,0.5,3.9
64,21,0,1,9,25,425,776.9552457830869,777.4863252972718,"[74, 0, 180]",180,l,0.01388816675171256,1,colour,0.5,3.9
64,21,0,1,9,26,426,777.9961982113309,778.5423375822138,"[1, 0, 253]",253,a,0.027937416452914476,1,colour,0.5,3.9
64,21,0,1,9,27,427,779.0515527743846,779.6943492651917,"[66, 0, 188]",188,l,0.12565752468071878,1,colour,0.5,3.9
64,21,0,1,9,28,428,780.2044651815668,780.9662832976319,"[30, 0, 224]",224,a,0.24410413578152657,1,colour,0.5,3.9
64,21,0,1,9,29,429,781.4755016406998,782.4063081413042,"[26, 0, 228]",228,a,0.4130854313261807,1,colour,0.5,3.9
64,21,0,1,9,30,430,782.9151854144875,783.6063335048966,"[67, 0, 187]",187,l,0.17375785112380981,1,colour,0.5,3.9
64,21,0,1,9,31,431,784.1149851046503,784.8222973940428,"[11, 0, 243]",243,a,0.1891690178308636,1,colour,0.5,3.9
64,21,0,1,9,32,432,785.3312912452966,786.2782599756029,"[60, 0, 194]",194,l,0.4294784541707486,1,colour,0.5,3.9
64,21,0,1,9,33,433,786.7873684358783,787.7502867192961,"[35, 0, 219]",219,a,0.4460502830334008,1,colour,0.5,3.9
64,21,0,1,9,34,434,788.2595082132611,788.918279069243,"[85, 0, 169]",169,l,0.1414987703319639,1,colour,0.5,3.9
64,21,0,1,9,35,435,789.4276261997875,790.574302066816,"[49, 0, 205]",205,a,0.6293584890663624,1,colour,0.5,3.9
64,21,0,1,9,36,436,791.0834097391926,793.7022722510155,"[80, 0, 174]",174,l,2.1004092840012163,1,colour,0.5,3.9
64,21,0,1,9,37,437,794.211650889134,794.9262831872329,"[91, 0, 163]",163,l,0.1974834860302508,1,colour,0.5,3.9
64,21,0,1,9,38,438,795.4353246937972,796.5262832660228,"[55, 0, 199]",199,l,0.5739129474386573,1,colour,0.5,3.9
64,21,0,1,9,39,439,797.0353354064282,797.6783122783527,"[86, 0, 168]",168,l,0.12566461390815675,1,colour,0.5,3.9
64,21,0,1,9,40,440,798.1875081723556,798.7902525651734,"[28, 0, 226]",226,a,0.08575311885215342,1,colour,0.5,3.9
64,21,0,1,9,41,441,799.2993929267395,800.0222928256262,"[76, 0, 178]",178,l,0.20430685603059828,1,colour,0.5,3.9
64,21,0,1,9,42,442,800.530674247304,801.390269579133,"[16, 0, 238]",238,a,0.3415465832222253,1,colour,0.5,3.9
64,21,0,1,9,43,443,801.8994615345728,802.8703599115834,"[94, 0, 160]",160,l,0.45259323506616056,1,colour,0.5,3.9
64,21,0,1,9,44,444,803.3789504652377,804.2942268580664,"[70, 0, 184]",184,l,0.39755926188081503,1,colour,0.5,3.9
64,21,0,1,9,45,445,804.8040911073331,805.4142543640919,"[64, 0, 190]",190,l,0.09291992173530161,1,colour,0.5,3.9
64,21,0,1,9,46,446,805.9239275986329,806.91822590027,"[71, 0, 183]",183,l,0.4769671391695738,1,colour,0.5,3.9
64,21,0,1,9,47,447,807.4274922923651,808.4142291580793,"[34, 0, 220]",220,a,0.4692631312645972,1,colour,0.5,3.9
64,21,0,1,9,48,448,808.9239559555426,809.6462237325031,"[90, 0, 164]",164,l,0.20493700844235718,1,colour,0.5,3.9
64,21,0,1,9,49,449,810.1554917001631,811.0222282349132,"[24, 0, 230]",230,a,0.34906193939968944,1,colour,0.5,3.9
64,21,0,1,9,50,450,811.5313516613096,812.2782064126804,"[75, 0, 179]",179,l,0.22863428620621562,1,colour,0.5,3.9
64,21,0,1,10,1,451,818.1625797338784,820.4543312743772,"[53, 0, 201]",201,l,1.7748260386288166,1,colour,0.5,3.9
64,21,0,1,10,2,452,820.9634743928909,821.5982269872911,"[85, 0, 169]",169,l,0.11569323879666626,1,colour,0.5,3.9
64,21,0,1,10,3,453,822.1071897246875,822.7502174025867,"[23, 0, 231]",231,a,0.12596708722412586,1,colour,0.5,3.9
64,21,0,1,10,4,454,823.2594570133369,824.310201223474,"[95, 0, 159]",159,l,0.533313011052087,1,colour,0.5,3.9
64,21,0,1,10,5,455,824.8192407607567,827.1661716031376,"[55, 0, 199]",199,a,1.829379914328456,0,colour,0.5,3.9
64,21,0,1,10,6,456,827.6753395339474,828.3742262909655,"[89, 0, 165]",165,l,0.18073324556462467,1,colour,0.5,3.9
64,21,0,1,10,7,457,828.8832599206362,829.8462030161172,"[16, 0, 238]",238,a,0.4449699653778225,1,colour,0.5,3.9
64,21,0,1,10,8,458,830.355292965658,831.0941703806166,"[51, 0, 203]",203,a,0.22152931708842516,0,colour,0.5,3.9
64,21,0,1,10,9,459,831.6032559978776,832.1581899342127,"[64, 0, 190]",190,l,0.037641764618456364,1,colour,0.5,3.9
64,21,0,1,10,10,460,832.6674854711164,833.2462167220656,"[75, 0, 179]",179,l,0.061487128492444754,1,colour,0.5,3.9
64,21,0,1,10,11,461,833.7562133034226,835.6941732163541,"[6, 0, 248]",248,a,1.4201202963013202,1,colour,0.5,3.9
64,21,0,1,10,12,462,836.2032363843173,837.3341694669798,"[72, 0, 182]",182,l,0.6136361847165972,1,colour,0.5,3.9
64,21,0,1,10,13,463,837.8432507517282,838.7662150047254,"[63, 0, 191]",191,l,0.4050836763344705,1,colour,0.5,3.9
64,21,0,1,10,14,464,839.2752289422788,842.7502024364658,"[92, 0, 162]",162,l,2.957519058138132,1,colour,0.5,3.9
64,21,0,1,10,15,465,843.2594396842178,844.1821349407546,"[58, 0, 196]",196,l,0.40564136137254536,1,colour,0.5,3.9
64,21,0,1,10,16,466,844.690972435521,845.4381777092349,"[99, 0, 155]",155,a,0.22923962655477226,0,colour,0.5,3.9
64,21,0,1,10,17,467,845.9472790802829,847.4941781787202,"[34, 0, 220]",220,l,1.0290476663503796,0,colour,0.5,3.9
64,21,0,1,10,18,468,848.0032480421942,848.8701677150093,"[31, 0, 223]",223,a,0.3496211995370686,1,colour,0.5,3.9
64,21,0,1,10,19,469,849.3794089010917,850.3661465544719,"[25, 0, 229]",229,a,0.4687916983384639,1,colour,0.5,3.9
64,21,0,1,10,20,470,850.8760395545978,851.95014509256,"[74, 0, 180]",180,l,0.5558870420791209,1,colour,0.5,3.9
64,21,0,1,10,21,471,852.459478438599,856.1582789432723,"[44, 0, 210]",210,a,3.1798801764380187,1,colour,0.5,3.9
64,21,0,1,10,22,472,856.6673527450766,857.702159217326,"[7, 0, 247]",247,a,0.5167707204818726,1,colour,0.5,3.9
64,21,0,1,10,23,473,858.2116430122405,859.0942113404162,"[52, 0, 202]",202,l,0.3646842068992555,1,colour,0.5,3.9
64,21,0,1,10,24,474,859.6032768716104,860.4141303028446,"[10, 0, 244]",244,a,0.2929500115569681,1,colour,0.5,3.9
64,21,0,1,10,25,475,860.9228681547102,861.9104604523163,"[13, 0, 241]",241,a,0.47024616901762784,1,colour,0.5,3.9
64,21,0,1,10,26,476,862.4191467105411,863.8461309424601,"[94, 0, 160]",160,l,0.9095896603539586,1,colour,0.5,3.9
64,21,0,1,10,27,477,864.3552181350533,865.2381365918554,"[81, 0, 173]",173,l,0.36545141763053834,1,colour,0.5,3.9
64,21,0,1,10,28,478,865.7473277596291,866.2941228828859,"[11, 0, 243]",243,a,0.028859408339485526,1,colour,0.5,3.9
64,21,0,1,10,29,479,866.8031553309411,867.6781224447768,"[41, 0, 213]",213,a,0.3572424999438226,1,colour,0.5,3.9
64,21,0,1,10,30,480,868.1872238160577,869.0301331039518,"[48, 0, 206]",206,a,0.3245411308016628,1,colour,0.5,3.9
64,21,0,1,10,31,481,869.5395337974187,870.1341200787574,"[87, 0, 167]",167,l,0.07761233649216592,1,colour,0.5,3.9
64,21,0,1,10,32,482,870.6436373502947,871.294092950644,"[82, 0, 172]",172,l,0.13130329712294042,1,colour,0.5,3.9
64,21,0,1,10,33,483,871.8026004028507,872.4141039152164,"[56, 0, 198]",198,a,0.09349572355858982,0,colour,0.5,3.9
64,21,0,1,10,34,484,872.9239870691672,873.830069931224,"[26, 0, 228]",228,a,0.3888147147372365,1,colour,0.5,3.9
64,21,0,1,10,35,485,874.339257554384,874.9821670786478,"[9, 0, 245]",245,a,0.12559450953267515,1,colour,0.5,3.9
64,21,0,1,10,36,486,875.4915047567338,876.0228067936841,"[21, 0, 233]",233,a,0.014076818712055683,1,colour,0.5,3.9
64,21,0,1,10,37,487,876.5307597117499,878.5902390168048,"[15, 0, 239]",239,a,1.5422017055097967,1,colour,0.5,3.9
64,21,0,1,10,38,488,879.0993124248926,879.9501246125437,"[91, 0, 163]",163,l,0.33324708114378154,1,colour,0.5,3.9
64,21,0,1,10,39,489,880.4597907578573,881.3261228136253,"[28, 0, 226]",226,a,0.34871693095192313,1,colour,0.5,3.9
64,21,0,1,10,40,490,881.8357594204135,882.8220571484417,"[29, 0, 225]",225,a,0.4692229588981718,1,colour,0.5,3.9
64,21,0,1,10,41,491,883.331132525811,884.0701351833995,"[22, 0, 232]",232,a,0.22115752706304193,1,colour,0.5,3.9
64,21,0,1,10,42,492,884.5793074467219,885.4860988361761,"[68, 0, 186]",186,l,0.3893889409955591,1,colour,0.5,3.9
64,21,0,1,10,43,493,885.995260859374,886.7501662026625,"[0, 0, 254]",254,a,0.23773802048526704,1,colour,0.5,3.9
64,21,0,1,10,44,494,887.259060804965,887.9180467005353,"[62, 0, 192]",192,l,0.14014827483333647,1,colour,0.5,3.9
64,21,0,1,10,45,495,888.4280795156956,889.1741465765517,"[17, 0, 237]",237,a,0.22779933433048427,1,colour,0.5,3.9
64,21,0,1,10,46,496,889.6825815613847,890.422095036367,"[47, 0, 207]",207,l,0.22153995092958212,0,colour,0.5,3.9
64,21,0,1,10,47,497,890.931354733184,891.6060259118676,"[59, 0, 195]",195,l,0.1567547619342804,1,colour,0.5,3.9
64,21,0,1,10,48,498,892.1144927979913,892.7660318666603,"[86, 0, 168]",168,a,0.13339540315791965,0,colour,0.5,3.9
64,21,0,1,10,49,499,893.2755633168854,894.6541671983432,"[18, 0, 236]",236,a,0.860367662506178,1,colour,0.5,3.9
64,21,0,1,10,50,500,895.1632760523353,896.7020513038151,"[14, 0, 240]",240,a,1.0198336555622518,1,colour,0.5,3.9
64,21,0,1,11,1,501,901.3626098237,902.3740380327217,"[83, 0, 171]",171,l,0.4946314946282655,1,colour,0.5,3.8
64,21,0,1,11,2,502,902.8831606714521,903.6780239834916,"[44, 0, 210]",210,a,0.2775746847037226,1,colour,0.5,3.8
64,21,0,1,11,3,503,904.1877712609712,905.5660533707123,"[34, 0, 220]",220,a,0.86098403041251,1,colour,0.5,3.8
64,21,0,1,11,4,504,906.0748140655924,907.0541675135028,"[2, 0, 252]",252,a,0.46194509183987975,1,colour,0.5,3.8
64,21,0,1,11,5,505,907.5633212658577,908.4139900938608,"[60, 0, 194]",194,l,0.33055593608878553,1,colour,0.5,3.8
64,21,0,1,11,6,506,908.9239468970336,909.8700448353775,"[40, 0, 214]",214,a,0.4288278219755739,1,colour,0.5,3.8
64,21,0,1,11,7,507,910.3794695532415,911.3820086740889,"[7, 0, 247]",247,a,0.48368180776014924,1,colour,0.5,3.8
64,21,0,1,11,8,508,911.8916878160089,912.7900162579026,"[61, 0, 193]",193,l,0.38102209148928523,1,colour,0.5,3.8
64,21,0,1,11,9,509,913.299186157994,914.2219916915055,"[73, 0, 181]",181,l,0.40560709685087204,1,colour,0.5,3.8
64,21,0,1,11,10,510,914.7309142567683,915.6860347969923,"[88, 0, 166]",166,l,0.43687644437886775,1,colour,0.5,3.8
64,21,0,1,11,11,511,916.1954102844466,918.2380172566045,"[65, 0, 189]",189,l,1.5240986060816795,1,colour,0.5,3.8
64,21,0,1,11,12,512,918.7471012985334,919.5260209650733,"[37, 0, 217]",217,a,0.2610481483861804,1,colour,0.5,3.8
64,21,0,1,11,13,513,920.0350455364678,920.9820292326622,"[53, 0, 201]",201,a,0.4293201284017414,0,colour,0.5,3.8
64,21,0,1,11,14,514,921.4910092994105,922.3499874756671,"[32, 0, 222]",222,a,0.3416324413847178,1,colour,0.5,3.8
64,21,0,1,11,15,515,922.8592633202206,923.8140278244391,"[43, 0, 211]",211,a,0.4372391761280596,1,colour,0.5,3.8
64,21,0,1,11,16,516,924.3230063156225,925.3579793844838,"[57, 0, 197]",197,l,0.5177624230273068,1,colour,0.5,3.8
64,21,0,1,11,17,517,925.8669551189523,926.8701228166465,"[10, 0, 244]",244,a,0.4860763871110976,1,colour,0.5,3.8
64,21,0,1,11,18,518,927.3792793261819,928.3340221687686,"[31, 0, 223]",223,a,0.4363514487631619,1,colour,0.5,3.8
64,21,0,1,11,19,519,928.843241693452,930.1500716011506,"[47, 0, 207]",207,l,0.788346353918314,0,colour,0.5,3.8
64,21,0,1,11,20,520,930.6593824978918,932.3339934179094,"[38, 0, 216]",216,a,1.1564570148475468,1,colour,0.5,3.8
64,21,0,1,11,21,521,932.8433090408798,941.3099613715895,"[77, 0, 177]",177,l,7.949127396335825,1,colour,0.5,3.8
64,21,0,1,11,22,522,941.8191525393631,943.0939116242807,"[19, 0, 235]",235,a,0.756694188574329,1,colour,0.5,3.8
64,21,0,1,11,23,523,943.6031441458035,944.461960057728,"[27, 0, 227]",227,a,0.3411673102527857,1,colour,0.5,3.8
64,21,0,1,11,24,524,944.9710874226876,946.7579351949971,"[96, 0, 158]",158,l,1.2687241930980235,1,colour,0.5,3.8
64,21,0,1,11,25,525,947.2678289827891,948.3899387491401,"[69, 0, 185]",185,l,0.6048506775405258,1,colour,0.5,3.8
64,21,0,1,11,26,526,948.8991374000907,950.2939326555934,"[13, 0, 241]",241,a,0.8772368445061147,1,colour,0.5,3.8
64,21,0,1,11,27,527,950.802566925995,951.8299395684153,"[56, 0, 198]",198,l,0.5101021321024746,1,colour,0.5,3.8
64,21,0,1,11,28,528,952.3393308094237,953.1979789433535,"[76, 0, 178]",178,l,0.34146348177455366,1,colour,0.5,3.8
64,21,0,1,11,29,529,953.7073619137518,955.2541239541024,"[46, 0, 208]",208,a,1.0293903117999434,1,colour,0.5,3.8
64,21,0,1,11,30,530,955.7631398607045,956.6859564217739,"[14, 0, 240]",240,a,0.40477765863761306,1,colour,0.5,3.8
64,21,0,1,11,31,531,957.1955181979574,958.869910140289,"[90, 0, 164]",164,l,1.1560820743907243,1,colour,0.5,3.8
64,21,0,1,11,32,532,959.3793053198606,960.486010221066,"[49, 0, 205]",205,l,0.5878712190315127,0,colour,0.5,3.8
64,21,0,1,11,33,533,960.9954692036845,961.9258999759331,"[82, 0, 172]",172,l,0.4125868233386427,1,colour,0.5,3.8
64,21,0,1,11,34,534,962.4349938638043,963.5978847355582,"[58, 0, 196]",196,l,0.6455845215823501,1,colour,0.5,3.8
64,21,0,1,11,35,535,964.1078194833826,966.5099564092234,"[95, 0, 159]",159,l,1.8849672400392592,1,colour,0.5,3.8
64,21,0,1,11,36,536,967.0190609309357,968.9259180927183,"[41, 0, 213]",213,a,1.3897185896057636,1,colour,0.5,3.8
64,21,0,1,11,37,537,969.434965900844,970.4458817171399,"[26, 0, 228]",228,a,0.49370832135900855,1,colour,0.5,3.8
64,21,0,1,11,38,538,970.9552087616175,972.1979308943264,"[42, 0, 212]",212,a,0.7252161030191928,1,colour,0.5,3.8
64,21,0,1,11,39,539,972.7079357465263,973.7818833524361,"[66, 0, 188]",188,l,0.5557834606152028,1,colour,0.5,3.8
64,21,0,1,11,40,540,974.29140416882,975.2860407833941,"[3, 0, 251]",251,a,0.47703527426347136,1,colour,0.5,3.8
64,21,0,1,11,41,541,975.7955549042672,976.6698690226767,"[94, 0, 160]",160,l,0.35694475285708904,1,colour,0.5,3.8
64,21,0,1,11,42,542,977.179982182337,978.1338987376075,"[22, 0, 232]",232,a,0.4364195838570595,1,colour,0.5,3.8
64,21,0,1,11,43,543,978.6432470497675,979.6938876784407,"[52, 0, 202]",202,l,0.5329884823877364,1,colour,0.5,3.8
64,21,0,1,11,44,544,980.2024565706961,980.9898785694968,"[21, 0, 233]",233,a,0.2700116734486073,1,colour,0.5,3.8
64,21,0,1,11,45,545,981.4987668702379,982.6778758978471,"[54, 0, 200]",200,l,0.662013778463006,1,colour,0.5,3.8
64,21,0,1,11,46,546,983.186989084119,984.1498608938418,"[71, 0, 183]",183,l,0.4449227040167898,1,colour,0.5,3.8
64,21,0,1,11,47,547,984.6590587568935,985.5818772872444,"[68, 0, 186]",186,l,0.4053593680728227,1,colour,0.5,3.8
64,21,0,1,11,48,548,986.090597809758,987.0698606732767,"[67, 0, 187]",187,l,0.4615217079408467,1,colour,0.5,3.8
64,21,0,1,11,49,549,987.5791912623681,988.4378547561355,"[97, 0, 157]",157,l,0.3407998525071889,1,colour,0.5,3.8
64,21,0,1,11,50,550,988.9469431303442,989.6218813359737,"[4, 0, 250]",250,a,0.1562632431741804,1,colour,0.5,3.8
64,21,0,1,12,1,551,994.8424134366214,995.9419306612108,"[83, 0, 171]",171,l,0.5822163880802691,1,colour,0.5,3.8
64,21,0,1,12,2,552,996.4509875276126,997.7578666659538,"[46, 0, 208]",208,a,0.7896354093682021,1,colour,0.5,3.8
64,21,0,1,12,3,553,998.2669180186931,999.4938438041136,"[15, 0, 239]",239,a,0.7097505857236683,1,colour,0.5,3.8
64,21,0,1,12,4,554,1000.0028766461182,1000.9258511390071,"[8, 0, 246]",246,a,0.4056630227714777,1,colour,0.5,3.8
64,21,0,1,12,5,555,1001.4347630704287,1002.477821389446,"[89, 0, 165]",165,l,0.5250012995675206,1,colour,0.5,3.8
64,21,0,1,12,6,556,1002.9868632899597,1004.0859587059822,"[38, 0, 216]",216,l,0.5820273421704769,0,colour,0.5,3.8
64,21,0,1,12,7,557,1004.5954862176441,1005.677801460959,"[6, 0, 248]",248,a,0.5645311586558819,1,colour,0.5,3.8
64,21,0,1,12,8,558,1006.1868500567507,1007.1018231885973,"[71, 0, 183]",183,l,0.3977211322635412,1,colour,0.5,3.8
64,21,0,1,12,9,559,1007.6112975312863,1008.5257921409793,"[40, 0, 214]",214,a,0.3961839540861547,1,colour,0.5,3.8
64,21,0,1,12,10,560,1009.0349317151122,1010.5018723404501,"[48, 0, 206]",206,l,0.9498579793144017,0,colour,0.5,3.8
64,21,0,1,12,11,561,1011.011994952336,1011.9097928844858,"[5, 0, 249]",249,a,0.3802107700612396,1,colour,0.5,3.8
64,21,0,1,12,12,562,1012.4189237940591,1013.1578374425881,"[53, 0, 201]",201,l,0.2213808372616768,1,colour,0.5,3.8
64,21,0,1,12,13,563,1013.6715483791195,1014.5017825437244,"[52, 0, 202]",202,l,0.31255917507223785,1,colour,0.5,3.8
64,21,0,1,12,14,564,1015.0111997788772,1015.7418241654523,"[33, 0, 221]",221,a,0.21310299704782665,1,colour,0.5,3.8
64,21,0,1,12,15,565,1016.2509613763541,1016.9018088525627,"[82, 0, 172]",172,l,0.13289049360901117,1,colour,0.5,3.8
64,21,0,1,12,16,566,1017.4113659027498,1018.389779635705,"[97, 0, 157]",157,l,0.4610022259876132,1,colour,0.5,3.8
64,21,0,1,12,17,567,1018.8988518621773,1019.9417471291963,"[99, 0, 155]",155,l,0.5243089196737856,1,colour,0.5,3.8
64,21,0,1,12,18,568,1020.4507102605421,1021.3817885145545,"[32, 0, 222]",222,a,0.4138723344076425,1,colour,0.5,3.8
64,21,0,1,12,19,569,1021.8905350309797,1022.9897521452513,"[28, 0, 226]",226,a,0.5822632557246834,1,colour,0.5,3.8
64,21,0,1,12,20,570,1023.498842094792,1024.741748940898,"[65, 0, 189]",189,l,0.7259415660519153,1,colour,0.5,3.8
64,21,0,1,12,21,571,1025.2507644537836,1026.7017917598132,"[42, 0, 212]",212,a,0.933042754419148,1,colour,0.5,3.8
64,21,0,1,12,22,572,1027.2112204162404,1027.8217696414795,"[80, 0, 174]",174,l,0.09292582958005369,1,colour,0.5,3.8
64,21,0,1,12,23,573,1028.3309277261142,1029.5417676880024,"[94, 0, 160]",160,l,0.6933717411011457,1,colour,0.5,3.8
64,21,0,1,12,24,574,1030.050868665101,1030.6377627537586,"[30, 0, 224]",224,a,0.06823409209027886,1,colour,0.5,3.8
64,21,0,1,12,25,575,1031.1467995343264,1031.8617681763135,"[73, 0, 181]",181,l,0.1959679692517966,1,colour,0.5,3.8
64,21,0,1,12,26,576,1032.3710885252804,1033.261734620668,"[96, 0, 158]",158,l,0.3740187343209982,1,colour,0.5,3.8
64,21,0,1,12,27,577,1033.7710258252919,1034.4457757729106,"[37, 0, 217]",217,a,0.15766100003384054,1,colour,0.5,3.8
64,21,0,1,12,28,578,1034.9549834821373,1036.1257150261663,"[56, 0, 198]",198,l,0.6529128011316061,1,colour,0.5,3.8
64,21,0,1,12,29,579,1036.6348006434273,1037.6539458571933,"[26, 0, 228]",228,a,0.5017526114825159,1,colour,0.5,3.8
64,21,0,1,12,30,580,1038.1629865760915,1039.0857290942222,"[76, 0, 178]",178,l,0.4051187285222113,1,colour,0.5,3.8
64,21,0,1,12,31,581,1039.5952042245772,1040.2697403142229,"[63, 0, 191]",191,l,0.1572762131690979,1,colour,0.5,3.8
64,21,0,1,12,32,582,1040.779209536733,1041.589734894922,"[64, 0, 190]",190,l,0.2925762524828315,1,colour,0.5,3.8
64,21,0,1,12,33,583,1042.099471932277,1042.7577126724645,"[11, 0, 243]",243,a,0.13960831286385655,1,colour,0.5,3.8
64,21,0,1,12,34,584,1043.267313439399,1044.0777297024615,"[24, 0, 230]",230,a,0.2932489402592182,1,colour,0.5,3.8
64,21,0,1,12,35,585,1044.5866810183506,1045.2297472930513,"[81, 0, 173]",173,l,0.1251096858177334,1,colour,0.5,3.8
64,21,0,1,12,36,586,1045.7394819674082,1046.4937354966532,"[62, 0, 192]",192,l,0.2371389816980809,1,colour,0.5,3.8
64,21,0,1,12,37,587,1047.002825446194,1047.5577365395147,"[13, 0, 241]",241,a,0.03727548848837614,1,colour,0.5,3.8
64,21,0,1,12,38,588,1048.0670919406693,1048.9017627728172,"[55, 0, 199]",199,l,0.3171423531603068,1,colour,0.5,3.8
64,21,0,1,12,39,589,1049.4117038219701,1049.965739397332,"[36, 0, 218]",218,a,0.036262124544009566,1,colour,0.5,3.8
64,21,0,1,12,40,590,1050.474899057299,1051.037770552095,"[91, 0, 163]",163,l,0.045000764075666666,1,colour,0.5,3.8
64,21,0,1,12,41,591,1051.547138950089,1052.1496954788454,"[2, 0, 252]",252,a,0.08420885144732893,1,colour,0.5,3.8
64,21,0,1,12,42,592,1052.6588500188664,1053.4538602354005,"[45, 0, 209]",209,a,0.2778700690250844,1,colour,0.5,3.8
64,21,0,1,12,43,593,1053.9630659753457,1054.485709323315,"[84, 0, 170]",170,l,0.003771068761125207,1,colour,0.5,3.8
64,21,0,1,12,44,594,1054.9966909117065,1055.6456932227593,"[9, 0, 245]",245,a,0.12956683314405382,1,colour,0.5,3.8
64,21,0,1,12,45,595,1056.1542747181375,1056.8377534591127,"[90, 0, 164]",164,l,0.16566748125478625,1,colour,0.5,3.8
64,21,0,1,12,46,596,1057.3468658577185,1058.2937073761132,"[1, 0, 253]",253,a,0.4295938510913402,1,colour,0.5,3.8
64,21,0,1,12,47,597,1058.8027729070745,1060.133714417927,"[85, 0, 169]",169,l,0.8124339324422181,1,colour,0.5,3.8
64,21,0,1,12,48,598,1060.6432182989083,1062.2376714604907,"[61, 0, 193]",193,l,1.0768963256850839,1,colour,0.5,3.8
64,21,0,1,12,49,599,1062.7467555024195,1064.8456890480593,"[0, 0, 254]",254,a,1.5816114416811615,1,colour,0.5,3.8
64,21,0,1,12,50,600,1065.355182689149,1068.3337594738696,"[19, 0, 235]",235,a,2.4611920593306422,1,colour,0.5,3.8
64,21,0,1,13,1,601,1073.1145526627079,1078.8936928824987,"[25, 0, 229]",229,a,5.26212807209231,1,colour,0.5,3.8
64,21,0,1,13,2,602,1079.4028210351244,1079.9896718007512,"[10, 0, 244]",244,a,0.06945580034516752,1,colour,0.5,3.8
64,21,0,1,13,3,603,1080.4987326057162,1081.3976258216426,"[59, 0, 195]",195,l,0.3815663857385516,1,colour,0.5,3.8
64,21,0,1,13,4,604,1081.9071631794795,1082.9336575467605,"[26, 0, 228]",228,a,0.5095153024885803,1,colour,0.5,3.8
64,21,0,1,13,5,605,1083.4437222634442,1084.9736442663707,"[11, 0, 243]",243,a,1.012589265126735,1,colour,0.5,3.8
64,21,0,1,13,6,606,1085.4828267695848,1086.1656233703252,"[88, 0, 166]",166,l,0.16480535361915827,1,colour,0.5,3.8
64,21,0,1,13,7,607,1086.674721590709,1087.6776695228182,"[14, 0, 240]",240,a,0.4850067032966763,1,colour,0.5,3.8
64,21,0,1,13,8,608,1088.187039496377,1088.877621631138,"[79, 0, 175]",175,l,0.1726724135223776,1,colour,0.5,3.8
64,21,0,1,13,9,609,1089.3875036037061,1091.2537474380806,"[27, 0, 227]",227,a,1.3496247443836182,1,colour,0.5,3.8
64,21,0,1,13,10,610,1091.7629610549193,1092.4695967182051,"[53, 0, 201]",201,l,0.18893389240838587,1,colour,0.5,3.8
64,21,0,1,13,11,611,1092.9790541252587,1093.9576651747338,"[15, 0, 239]",239,a,0.46083247871138155,1,colour,0.5,3.8
64,21,0,1,13,12,612,1094.4671631481033,1095.3096549599431,"[39, 0, 215]",215,a,0.325333941495046,1,colour,0.5,3.8
64,21,0,1,13,13,613,1095.8187035557348,1096.4456418654881,"[61, 0, 193]",193,l,0.10894154873676598,1,colour,0.5,3.8
64,21,0,1,13,14,614,1096.95543561643,1097.6216288811993,"[75, 0, 179]",179,l,0.14880105620250106,1,colour,0.5,3.8
64,21,0,1,13,15,615,1098.130636910908,1098.805597959552,"[92, 0, 162]",162,l,0.15734159154817462,1,colour,0.5,3.8
64,21,0,1,13,16,616,1099.3144551464356,1099.9416258248966,"[71, 0, 183]",183,l,0.1099249804392457,1,colour,0.5,3.8
64,21,0,1,13,17,617,1100.4513801913708,1103.2136094819289,"[9, 0, 245]",245,a,2.2442518279422075,1,colour,0.5,3.8
64,21,0,1,13,18,618,1103.7229062002152,1105.0376590937376,"[65, 0, 189]",189,l,0.7975442169699818,1,colour,0.5,3.8
64,21,0,1,13,19,619,1105.5465796897188,1106.645612878492,"[6, 0, 248]",248,a,0.5808182372711599,1,colour,0.5,3.8
64,21,0,1,13,20,620,1107.1554704324808,1108.3335790927522,"[81, 0, 173]",173,l,0.6606144458055496,1,colour,0.5,3.8
64,21,0,1,13,21,621,1108.8424358859193,1109.80562867946,"[77, 0, 177]",177,l,0.44586438802070916,1,colour,0.5,3.8
64,21,0,1,13,22,622,1110.315174307907,1111.3415682446212,"[29, 0, 225]",225,a,0.508360154228285,1,colour,0.5,3.8
64,21,0,1,13,23,623,1111.8507389326114,1112.7415618645027,"[36, 0, 218]",218,a,0.3725284240208566,1,colour,0.5,3.8
64,21,0,1,13,24,624,1113.2513087478,1114.4055653491523,"[37, 0, 217]",217,a,0.6370302017312497,1,colour,0.5,3.8
64,21,0,1,13,25,625,1114.9146478155162,1115.9015831793658,"[8, 0, 246]",246,a,0.4689011874143034,1,colour,0.5,3.8
64,21,0,1,13,26,626,1116.4118503325153,1118.085552651668,"[35, 0, 219]",219,a,1.1560328437481076,1,colour,0.5,3.8
64,21,0,1,13,27,627,1118.5949620096944,1119.6455731000751,"[40, 0, 214]",214,a,0.5328073136042804,1,colour,0.5,3.8
64,21,0,1,13,28,628,1120.1550702855457,1121.0855731314514,"[41, 0, 213]",213,a,0.41329259402118623,1,colour,0.5,3.8
64,21,0,1,13,29,629,1121.5950147849508,1122.557591210585,"[18, 0, 236]",236,a,0.44530237070284784,1,colour,0.5,3.8
64,21,0,1,13,30,630,1123.066698489245,1124.0215559408534,"[43, 0, 211]",211,a,0.4363455409184098,1,colour,0.5,3.8
64,21,0,1,13,31,631,1124.5306573119015,1125.2775565679185,"[62, 0, 192]",192,l,0.228871381143108,1,colour,0.5,3.8
64,21,0,1,13,32,632,1125.786751280306,1126.6695649742614,"[69, 0, 185]",185,l,0.3651103477459401,1,colour,0.5,3.8
64,21,0,1,13,33,633,1127.179127538111,1127.8376199456397,"[49, 0, 205]",205,a,0.13957011001184583,1,colour,0.5,3.8
64,21,0,1,13,34,634,1128.3466677535325,1129.0615379344672,"[73, 0, 181]",181,l,0.19493885175324976,1,colour,0.5,3.8
64,21,0,1,13,35,635,1129.571025667712,1130.7255244837143,"[57, 0, 197]",197,a,0.6375425942242146,0,colour,0.5,3.8
64,21,0,1,13,36,636,1131.234598679468,1132.1895258417353,"[20, 0, 234]",234,a,0.4376625595614314,1,colour,0.5,3.8
64,21,0,1,13,37,637,1132.6985953112599,1133.5655476732645,"[28, 0, 226]",226,a,0.34970193775370717,1,colour,0.5,3.8
64,21,0,1,13,38,638,1134.0745883921627,1134.73352545104,"[70, 0, 184]",184,l,0.1405456648208201,1,colour,0.5,3.8
64,21,0,1,13,39,639,1135.2427780586295,1137.2214962339494,"[48, 0, 206]",206,a,1.4615008342079818,1,colour,0.5,3.8
64,21,0,1,13,40,640,1137.730161224492,1138.701548363315,"[54, 0, 200]",200,a,0.45341007015667856,0,colour,0.5,3.8
64,21,0,1,13,41,641,1139.2108462632168,1140.253690724261,"[51, 0, 203]",203,l,0.5248079216107726,1,colour,0.5,3.8
64,21,0,1,13,42,642,1140.7629011904355,1141.7575287467334,"[74, 0, 180]",180,l,0.47619717149063945,1,colour,0.5,3.8
64,21,0,1,13,43,643,1142.2668479143176,1143.301535051316,"[66, 0, 188]",188,l,0.5166037301532924,1,colour,0.5,3.8
64,21,0,1,13,44,644,1143.8115418727975,1144.8376037979033,"[55, 0, 199]",199,a,0.5084318341687322,0,colour,0.5,3.8
64,21,0,1,13,45,645,1145.3467354951426,1146.4134887289256,"[34, 0, 220]",220,a,0.5486146886833012,1,colour,0.5,3.8
64,21,0,1,13,46,646,1146.9231347879395,1147.9735190235078,"[72, 0, 182]",182,l,0.5332090358715504,1,colour,0.5,3.8
64,21,0,1,13,47,647,1148.483418325195,1149.861521629151,"[58, 0, 196]",196,a,0.8604913298040628,0,colour,0.5,3.8
64,21,0,1,13,48,648,1150.3711046730168,1151.4375255014747,"[78, 0, 176]",176,l,0.5486540731508285,1,colour,0.5,3.8
64,21,0,1,13,49,649,1151.9465071435552,1153.7174624705222,"[99, 0, 155]",155,l,1.2523611027281731,1,colour,0.5,3.8
64,21,0,1,13,50,650,1154.2267710040323,1154.9735418665223,"[16, 0, 238]",238,a,0.2294231583364308,1,colour,0.5,3.8
64,21,0,1,14,1,651,1160.7220050820615,1161.797458752524,"[83, 0, 171]",171,l,0.5582631106954068,1,colour,0.5,3.8
64,21,0,1,14,2,652,1162.307047704002,1163.3175019337796,"[5, 0, 249]",249,a,0.4934456264600158,1,colour,0.5,3.8
64,21,0,1,14,3,653,1163.8267797473818,1164.9814841507468,"[42, 0, 212]",212,a,0.6372200350742787,1,colour,0.5,3.8
64,21,0,1,14,4,654,1165.4902507534716,1166.4854509606957,"[13, 0, 241]",241,a,0.4779056725092232,1,colour,0.5,3.8
64,21,0,1,14,5,655,1166.9948768601753,1167.9494976107962,"[32, 0, 222]",222,a,0.43638256238773465,1,colour,0.5,3.8
64,21,0,1,14,6,656,1168.4583607055247,1169.6134372926317,"[28, 0, 226]",226,a,0.6378852396737784,1,colour,0.5,3.8
64,21,0,1,14,7,657,1170.1220109111164,1171.213514958974,"[35, 0, 219]",219,a,0.5743733528070152,1,colour,0.5,3.8
64,21,0,1,14,8,658,1171.7228821755853,1172.7894928373862,"[82, 0, 172]",172,l,0.5487879803404212,1,colour,0.5,3.8
64,21,0,1,14,9,659,1173.2994527912233,1174.333455819171,"[68, 0, 186]",186,l,0.5167900191154331,1,colour,0.5,3.8
64,21,0,1,14,10,660,1174.843247601064,1176.5174733405001,"[38, 0, 216]",216,a,1.155896179145202,1,colour,0.5,3.8
64,21,0,1,14,11,661,1177.026723191375,1178.2134161037393,"[40, 0, 214]",214,a,0.668984446208924,1,colour,0.5,3.8
64,21,0,1,14,12,662,1178.7231070613489,1179.8054384521674,"[25, 0, 229]",229,a,0.5649482407607138,1,colour,0.5,3.8
64,21,0,1,14,13,663,1180.315397224389,1181.4294371004216,"[62, 0, 192]",192,l,0.5967863011173904,1,colour,0.5,3.8
64,21,0,1,14,14,664,1181.9394285618328,1183.7414318954106,"[70, 0, 184]",184,l,1.28515975154005,1,colour,0.5,3.8
64,21,0,1,14,15,665,1184.2504383497871,1187.365424636053,"[91, 0, 163]",163,l,2.5964279018808156,1,colour,0.5,3.8
64,21,0,1,14,16,666,1187.8739840760827,1188.8694544611499,"[89, 0, 165]",165,l,0.478043518261984,1,colour,0.5,3.8
64,21,0,1,14,17,667,1189.379018206615,1190.3654608698562,"[84, 0, 170]",170,l,0.4684565360657871,1,colour,0.5,3.8
64,21,0,1,14,18,668,1190.8739494176116,1191.933417694876,"[93, 0, 161]",161,l,0.5415191715583205,1,colour,0.5,3.8
64,21,0,1,14,19,669,1192.4435229776427,1193.1893966605421,"[37, 0, 217]",217,a,0.22843539458699524,1,colour,0.5,3.8
64,21,0,1,14,20,670,1193.698473219294,1194.7013943698257,"[90, 0, 164]",164,l,0.4850417554844171,1,colour,0.5,3.8
64,21,0,1,14,21,671,1195.2107166880742,1196.1894289557822,"[19, 0, 235]",235,a,0.4606993589550257,1,colour,0.5,3.8
64,21,0,1,14,22,672,1196.6982290351298,1197.429436706705,"[79, 0, 175]",175,l,0.21358624496497214,1,colour,0.5,3.8
64,21,0,1,14,23,673,1197.9387141265906,1199.1254109775182,"[52, 0, 202]",202,l,0.669295190135017,1,colour,0.5,3.8
64,21,0,1,14,24,674,1199.6343662319705,1200.5333831154276,"[9, 0, 245]",245,a,0.3812008975073695,1,colour,0.5,3.8
64,21,0,1,14,25,675,1201.042553803185,1201.845437380951,"[2, 0, 252]",252,a,0.28538936330005527,1,colour,0.5,3.8
64,21,0,1,14,26,676,1202.3542772387154,1203.1333863448817,"[49, 0, 205]",205,l,0.2618425344116986,0,colour,0.5,3.8
64,21,0,1,14,27,677,1203.6425609712023,1204.8854193743318,"[95, 0, 159]",159,l,0.7251294569578022,1,colour,0.5,3.8
64,21,0,1,14,28,678,1205.394770837156,1206.7733542385977,"[51, 0, 203]",203,a,0.8607032187283039,0,colour,0.5,3.8
64,21,0,1,14,29,679,1207.2823689635843,1208.2933714259416,"[22, 0, 232]",232,a,0.49380126874893904,1,colour,0.5,3.8
64,21,0,1,14,30,680,1208.8024810678326,1209.7253413456492,"[36, 0, 218]",218,a,0.4055712567642331,1,colour,0.5,3.8
64,21,0,1,14,31,681,1210.2344226306304,1211.5653960430063,"[46, 0, 208]",208,a,0.8136544590815902,1,colour,0.5,3.8
64,21,0,1,14,32,682,1212.0744982017204,1215.2053820535075,"[98, 0, 156]",156,l,2.613632246153429,1,colour,0.5,3.8
64,21,0,1,14,33,683,1215.7142605080735,1216.6773438127711,"[33, 0, 221]",221,a,0.44485259940847754,1,colour,0.5,3.8
64,21,0,1,14,34,684,1217.1864514853805,1218.6053886702284,"[88, 0, 166]",166,l,0.9010278575588018,1,colour,0.5,3.8
64,21,0,1,14,35,685,1219.1145487241447,1220.093368511647,"[39, 0, 215]",215,a,0.46060680551454425,1,colour,0.5,3.8
64,21,0,1,14,36,686,1220.6024990272708,1221.1493737071287,"[81, 0, 173]",173,l,0.02971759717911482,1,colour,0.5,3.8
64,21,0,1,14,37,687,1221.6586948439945,1222.3893712181598,"[92, 0, 162]",162,l,0.21321366750635207,1,colour,0.5,3.8
64,21,0,1,14,38,688,1222.898277635686,1223.6374110500328,"[24, 0, 230]",230,a,0.22078219265677035,1,colour,0.5,3.8
64,21,0,1,14,39,689,1224.1463056523353,1225.0853218582924,"[59, 0, 195]",195,l,0.41942122066393495,1,colour,0.5,3.8
64,21,0,1,14,40,690,1225.5946583549958,1226.5733521117363,"[45, 0, 209]",209,a,0.46167806442826986,1,colour,0.5,3.8
64,21,0,1,14,41,691,1227.082371563185,1228.213340091752,"[7, 0, 247]",247,a,0.6134112989529967,1,colour,0.5,3.8
64,21,0,1,14,42,692,1228.7228034066502,1229.669344027061,"[56, 0, 198]",198,l,0.42946230666711926,1,colour,0.5,3.8
64,21,0,1,14,43,693,1230.178771108156,1231.1893206483219,"[54, 0, 200]",200,l,0.4930218488443643,1,colour,0.5,3.8
64,21,0,1,14,44,694,1231.6987055880018,1232.5895860213786,"[63, 0, 191]",191,l,0.3735098864417523,1,colour,0.5,3.8
64,21,0,1,14,45,695,1233.0989709610585,1234.0613630670123,"[85, 0, 169]",169,l,0.44477658718824387,1,colour,0.5,3.8
64,21,0,1,14,46,696,1234.5698275901377,1235.253434724873,"[4, 0, 250]",250,a,0.16563991201110184,1,colour,0.5,3.8
64,21,0,1,14,47,697,1235.762686150847,1236.7493158907164,"[11, 0, 243]",243,a,0.4681146782822907,1,colour,0.5,3.8
64,21,0,1,14,48,698,1237.2587603009306,1238.1413384752814,"[64, 0, 190]",190,l,0.36526237172074616,1,colour,0.5,3.8
64,21,0,1,14,49,699,1238.6505241293926,1239.757308587199,"[50, 0, 204]",204,l,0.5897400148678571,0,colour,0.5,3.8
64,21,0,1,14,50,700,1240.2668731203303,1240.8772971027065,"[29, 0, 225]",225,a,0.09324484411627054,1,colour,0.5,3.8
64,21,0,1,15,1,701,1261.8422767724842,1263.5092199184,"[33, 0, 221]",221,a,1.1493997010402381,1,colour,0.5,3.8
64,21,0,1,15,2,702,1264.018201166764,1264.9732634178363,"[13, 0, 241]",241,a,0.4377803192473948,1,colour,0.5,3.8
64,21,0,1,15,3,703,1265.482272235211,1266.3812564294785,"[32, 0, 222]",222,a,0.38173849624581635,1,colour,0.5,3.8
64,21,0,1,15,4,704,1266.8904558680952,1267.4373037666082,"[57, 0, 197]",197,l,0.029597868211567402,1,colour,0.5,3.8
64,21,0,1,15,5,705,1267.9464350698981,1268.765231573023,"[98, 0, 156]",156,l,0.2993582682684064,1,colour,0.5,3.8
64,21,0,1,15,6,706,1269.274416439468,1270.1492638243362,"[90, 0, 164]",164,l,0.3566922980826348,1,colour,0.5,3.8
64,21,0,1,15,7,707,1270.658319903072,1271.501230766531,"[34, 0, 220]",220,a,0.3257726849988103,1,colour,0.5,3.8
64,21,0,1,15,8,708,1272.0104577741586,1273.3092347269412,"[22, 0, 232]",232,a,0.7815371623728424,1,colour,0.5,3.8
64,21,0,1,15,9,709,1273.8191312716808,1274.7332214023918,"[23, 0, 231]",231,a,0.3962733568623662,1,colour,0.5,3.8
64,21,0,1,15,10,710,1275.2424744039308,1277.397220161045,"[56, 0, 198]",198,l,1.6373090441338718,1,colour,0.5,3.8
64,21,0,1,15,11,711,1277.9074361142702,1278.757276291959,"[91, 0, 163]",163,a,0.3327764361165464,0,colour,0.5,3.8
64,21,0,1,15,12,712,1279.2658936269581,1281.2372654059436,"[52, 0, 202]",202,a,1.4539815397001803,0,colour,0.5,3.8
64,21,0,1,15,13,713,1281.7462494112551,1282.4452365986072,"[74, 0, 180]",180,l,0.17898023989982903,1,colour,0.5,3.8
64,21,0,1,15,14,714,1282.9544238278177,1283.5812282301486,"[6, 0, 248]",248,a,0.11025305348448455,1,colour,0.5,3.8
64,21,0,1,15,15,715,1284.0910747565795,1285.5252541482914,"[38, 0, 216]",216,a,0.9173460497986525,1,colour,0.5,3.8
64,21,0,1,15,16,716,1286.0343307070434,1287.0292654626537,"[36, 0, 218]",218,a,0.4776221038773656,1,colour,0.5,3.8
64,21,0,1,15,17,717,1287.538539731875,1288.5571910638828,"[96, 0, 158]",158,l,0.5014938553795218,1,colour,0.5,3.8
64,21,0,1,15,18,718,1289.0662869210355,1290.0452032005414,"[70, 0, 184]",184,l,0.4613074562512338,1,colour,0.5,3.8
64,21,0,1,15,19,719,1290.5536570898257,1291.8691854649223,"[26, 0, 228]",228,a,0.7988096419721842,1,colour,0.5,3.8
64,21,0,1,15,20,720,1292.378636964364,1293.397205194924,"[29, 0, 225]",225,a,0.4998593972995877,1,colour,0.5,3.8
64,21,0,1,15,21,721,1293.9072533701546,1294.717166692717,"[59, 0, 195]",195,l,0.29182755248621106,1,colour,0.5,3.8
64,21,0,1,15,22,722,1295.2263582542073,1296.7971940885764,"[86, 0, 168]",168,l,1.053180143237114,1,colour,0.5,3.8
64,21,0,1,15,23,723,1297.3063368133735,1298.1892198240384,"[18, 0, 236]",236,a,0.36597365653142333,1,colour,0.5,3.8
64,21,0,1,15,24,724,1298.697677651653,1299.7411861359142,"[58, 0, 196]",196,l,0.5255010894034058,1,colour,0.5,3.8
64,21,0,1,15,25,725,1300.2503686391283,1301.2771371228155,"[41, 0, 213]",213,a,0.5095141211058944,1,colour,0.5,3.8
64,21,0,1,15,26,726,1301.7866520313546,1303.501211861847,"[8, 0, 246]",246,a,1.1976441747974604,1,colour,0.5,3.8
64,21,0,1,15,27,727,1304.010972923832,1305.1891926485114,"[44, 0, 210]",210,a,0.6604596646502614,1,colour,0.5,3.8
64,21,0,1,15,28,728,1305.6982865366153,1306.6691652212758,"[97, 0, 157]",157,l,0.45348175009712577,1,colour,0.5,3.8
64,21,0,1,15,29,729,1307.1785458286759,1308.2211776131298,"[15, 0, 239]",239,a,0.5256739873439074,1,colour,0.5,3.8
64,21,0,1,15,30,730,1308.7302403873764,1309.6691801873967,"[45, 0, 209]",209,l,0.420672073494643,0,colour,0.5,3.8
64,21,0,1,15,31,731,1310.1786911576055,1311.109134532744,"[78, 0, 176]",176,l,0.4132374555338174,1,colour,0.5,3.8
64,21,0,1,15,32,732,1311.6186439276207,1312.4372372066136,"[35, 0, 219]",219,a,0.3010285662021488,1,colour,0.5,3.8
64,21,0,1,15,33,733,1312.946294466965,1313.8692035817076,"[55, 0, 199]",199,a,0.4034177106805146,0,colour,0.5,3.8
64,21,0,1,15,34,734,1314.3783167682122,1315.3331687059253,"[87, 0, 167]",167,l,0.4377102148719132,1,colour,0.5,3.8
64,21,0,1,15,35,735,1315.842209818773,1316.7091310669202,"[49, 0, 205]",205,a,0.3497121778782457,1,colour,0.5,3.8
64,21,0,1,15,36,736,1317.2182769426145,1318.6851238328964,"[61, 0, 193]",193,a,0.9494696480687708,0,colour,0.5,3.8
64,21,0,1,15,37,737,1319.1944347296376,1320.3651249199174,"[43, 0, 211]",211,a,0.6530624623410404,1,colour,0.5,3.8
64,21,0,1,15,38,738,1320.8747107204981,1321.9011519188061,"[82, 0, 172]",172,l,0.5090651374775916,1,colour,0.5,3.8
64,21,0,1,15,39,739,1322.4105289813597,1323.1572384040337,"[2, 0, 252]",252,a,0.22856969572603703,1,colour,0.5,3.8
64,21,0,1,15,40,740,1323.6662452521268,1325.365118618356,"[50, 0, 204]",204,l,1.1815658344421536,0,colour,0.5,3.8
64,21,0,1,15,41,741,1325.8739726545755,1326.8372087711468,"[69, 0, 185]",185,l,0.44539965060539544,1,colour,0.5,3.8
64,21,0,1,15,42,742,1327.3464420803357,1329.245081659872,"[16, 0, 238]",238,a,1.3790355359669775,1,colour,0.5,3.8
64,21,0,1,15,43,743,1329.7549778106622,1330.7330756797455,"[12, 0, 242]",242,a,0.46041185199283063,1,colour,0.5,3.8
64,21,0,1,15,44,744,1331.2421715368982,1332.1171106877737,"[76, 0, 178]",178,l,0.3580589413177222,1,colour,0.5,3.8
64,21,0,1,15,45,745,1332.6264259167947,1333.3330639430787,"[1, 0, 253]",253,a,0.18949866644106805,1,colour,0.5,3.8
64,21,0,1,15,46,746,1333.842263775412,1334.5651215326507,"[68, 0, 186]",186,l,0.2054911486338824,1,colour,0.5,3.8
64,21,0,1,15,47,747,1335.0743158513214,1335.6771004162729,"[28, 0, 226]",226,a,0.08547703316435218,1,colour,0.5,3.8
64,21,0,1,15,48,748,1336.186195879709,1336.9250551776495,"[60, 0, 194]",194,l,0.2217431750614196,1,colour,0.5,3.8
64,21,0,1,15,49,749,1337.434085656656,1338.0371360671706,"[66, 0, 188]",188,a,0.08577714348211884,0,colour,0.5,3.8
64,21,0,1,15,50,750,1338.546402853215,1339.4690977160353,"[54, 0, 200]",200,l,0.40351065807044506,1,colour,0.5,3.8
64,21,0,1,16,1,751,1344.1371089706663,1345.2450792968739,"[6, 0, 248]",248,a,0.5895395476836711,1,colour,0.5,3.8
64,21,0,1,16,2,752,1345.754188150866,1346.4530705753714,"[19, 0, 235]",235,a,0.18092465423978865,1,colour,0.5,3.8
64,21,0,1,16,3,753,1346.96241258597,1347.6050629601814,"[32, 0, 222]",222,a,0.12465597619302571,1,colour,0.5,3.8
64,21,0,1,16,4,754,1348.114115100354,1348.6450937902555,"[26, 0, 228]",228,a,0.01296341815032065,1,colour,0.5,3.8
64,21,0,1,16,5,755,1349.154480699217,1349.7650886073243,"[92, 0, 162]",162,l,0.09292307263240218,1,colour,0.5,3.8
64,21,0,1,16,6,756,1350.273843000643,1351.693076750962,"[82, 0, 172]",172,l,0.9016009024344385,1,colour,0.5,3.8
64,21,0,1,16,7,757,1352.2015038589016,1354.3810614759568,"[21, 0, 233]",233,a,1.6623245221562684,1,colour,0.5,3.8
64,21,0,1,16,8,758,1354.8908957932144,1356.2530830209143,"[44, 0, 210]",210,a,0.843867119634524,1,colour,0.5,3.8
64,21,0,1,16,9,759,1356.7634391831234,1357.6610705186613,"[11, 0, 243]",243,a,0.38017059792764485,1,colour,0.5,3.8
64,21,0,1,16,10,760,1358.1701210837346,1359.26104736072,"[28, 0, 226]",226,a,0.5730311279185116,1,colour,0.5,3.8
64,21,0,1,16,11,761,1359.7695166100748,1360.7010655091144,"[47, 0, 207]",207,l,0.4142047397326678,0,colour,0.5,3.8
64,21,0,1,16,12,762,1361.2103220550343,1361.9490253904369,"[27, 0, 227]",227,a,0.22136784065514803,1,colour,0.5,3.8
64,21,0,1,16,13,763,1362.458265001187,1363.2610729606822,"[84, 0, 170]",170,l,0.285035690292716,1,colour,0.5,3.8
64,21,0,1,16,14,764,1363.769676511176,1364.5170527137816,"[30, 0, 224]",224,a,0.22939125704579055,1,colour,0.5,3.8
64,21,0,1,16,15,765,1365.026273026131,1365.8210264553782,"[75, 0, 179]",179,l,0.27740926994010806,1,colour,0.5,3.8
64,21,0,1,16,16,766,1366.3301349156536,1368.5330294421874,"[42, 0, 212]",212,a,1.685276250820607,1,colour,0.5,3.8
64,21,0,1,16,17,767,1369.0424458894413,1370.541007960448,"[41, 0, 213]",213,a,0.9812525699380785,1,colour,0.5,3.8
64,21,0,1,16,18,768,1371.0500037809834,1372.117030737223,"[12, 0, 242]",242,a,0.5497202123515308,1,colour,0.5,3.8
64,21,0,1,16,19,769,1372.6261750373524,1373.6210306300782,"[97, 0, 157]",157,l,0.477828478673473,1,colour,0.5,3.8
64,21,0,1,16,20,770,1374.13016784098,1374.9970055941958,"[79, 0, 175]",175,l,0.3489236996974796,1,colour,0.5,3.8
64,21,0,1,16,21,771,1375.505889562657,1380.0130347041413,"[64, 0, 190]",190,l,3.9896501393523067,1,colour,0.5,3.8
64,21,0,1,16,22,772,1380.521866291063,1382.3490131024737,"[80, 0, 174]",174,l,1.3097546028438956,1,colour,0.5,3.8
64,21,0,1,16,23,773,1382.8581121102907,1384.660957091255,"[1, 0, 253]",253,a,1.2859104205854237,1,colour,0.5,3.8
64,21,0,1,16,24,774,1385.1699627579655,1389.1810266601387,"[67, 0, 187]",187,l,3.493941871682182,1,colour,0.5,3.8
64,21,0,1,16,25,775,1389.6902717847843,1390.773004110204,"[87, 0, 167]",167,l,0.5658840173855424,1,colour,0.5,3.8
64,21,0,1,16,26,776,1391.2820932720788,1392.341012135148,"[14, 0, 240]",240,a,0.5414935715962201,1,colour,0.5,3.8
64,21,0,1,16,27,777,1392.8501379245427,1393.8849814182613,"[51, 0, 203]",203,l,0.5176383617799729,1,colour,0.5,3.8
64,21,0,1,16,28,778,1394.3942513552029,1395.5489707246888,"[74, 0, 180]",180,l,0.6372511489316821,1,colour,0.5,3.8
64,21,0,1,16,29,779,1396.0580449204426,1397.1730205728672,"[58, 0, 196]",196,l,0.5973695861175656,1,colour,0.5,3.8
64,21,0,1,16,30,780,1397.6820900423918,1398.868986966787,"[94, 0, 160]",160,l,0.6680498514324427,1,colour,0.5,3.8
64,21,0,1,16,31,781,1399.3784101095516,1400.3729277828243,"[24, 0, 230]",230,a,0.4764819217380136,1,colour,0.5,3.8
64,21,0,1,16,32,782,1400.8822528580204,1402.365020944737,"[83, 0, 171]",171,l,0.9651163341477513,1,colour,0.5,3.8
64,21,0,1,16,33,783,1402.8745961117093,1404.1409792883787,"[25, 0, 229]",229,a,0.7491268448065966,1,colour,0.5,3.8
64,21,0,1,16,34,784,1404.6501369792968,1405.5169349540956,"[71, 0, 183]",183,l,0.34885359508916736,1,colour,0.5,3.8
64,21,0,1,16,35,785,1406.0261375433765,1406.9249496271368,"[36, 0, 218]",218,a,0.3814033337403089,1,colour,0.5,3.8
64,21,0,1,16,36,786,1407.4341333119664,1408.4689449041616,"[49, 0, 205]",205,a,0.5173480978701264,1,colour,0.5,3.8
64,21,0,1,16,37,787,1408.9782707670238,1410.1809423773084,"[17, 0, 237]",237,a,0.6852569526527077,1,colour,0.5,3.8
64,21,0,1,16,38,788,1410.690321803093,1411.9969138281886,"[65, 0, 189]",189,l,0.7893069426063448,1,colour,0.5,3.8
64,21,0,1,16,39,789,1412.5058344241697,1413.6212610295042,"[68, 0, 186]",186,l,0.5981639719102532,1,colour,0.5,3.8
64,21,0,1,16,40,790,1414.1303301053122,1415.1808907834347,"[73, 0, 181]",181,l,0.5320034751202911,1,colour,0.5,3.8
64,21,0,1,16,41,791,1415.6911213090643,1416.660909829894,"[16, 0, 238]",238,a,0.4524502691347152,1,colour,0.5,3.8
64,21,0,1,16,42,792,1417.1698843827471,1418.188972488977,"[89, 0, 165]",165,l,0.5021255828905851,1,colour,0.5,3.8
64,21,0,1,16,43,793,1418.6980159648228,1419.7009126970079,"[93, 0, 161]",161,l,0.48487161425873637,1,colour,0.5,3.8
64,21,0,1,16,44,794,1420.2101720001083,1421.2449434201699,"[99, 0, 155]",155,l,0.5174579806625843,1,colour,0.5,3.8
64,21,0,1,16,45,795,1421.7550546105485,1422.7409277735278,"[56, 0, 198]",198,a,0.4684171515982598,0,colour,0.5,3.8
64,21,0,1,16,46,796,1423.2499873968773,1424.3489394532517,"[34, 0, 220]",220,a,0.5812065685167909,1,colour,0.5,3.8
64,21,0,1,16,47,797,1424.8581054150127,1425.8049528410193,"[3, 0, 251]",251,a,0.4294898759108037,1,colour,0.5,3.8
64,21,0,1,16,48,798,1426.3134996776935,1426.9649454050232,"[35, 0, 219]",219,a,0.13304921332746744,1,colour,0.5,3.8
64,21,0,1,16,49,799,1427.4745402643457,1428.2849069028161,"[95, 0, 159]",159,l,0.2931745033711195,1,colour,0.5,3.8
64,21,0,1,16,50,800,1428.795131520601,1429.8608761166688,"[63, 0, 191]",191,l,0.548407525755465,1,colour,0.5,3.8
