id,age,condition,counterbalance,block,trialinblock,trial,tstart,tend,trialstim,trialintensity,response,RT,accuracy,trialtype,colourfreq,credits
60,18,0,2,Practice,1,NA,5.907611921429634e-06,1.1086912769824266,"[33, 0, 221]",221,a,0.5696120969951153,1,colour,0.5,4
60,18,0,2,Practice,2,NA,1.615184026537463,2.5647221041144803,"[75, 0, 179]",179,l,0.4278507464332506,1,colour,0.5,4
60,18,0,2,Practice,3,NA,3.0840609311126173,3.612713036243804,"[73, 0, 181]",181,a,0.006528786383569241,0,colour,0.5,4
60,18,0,2,Practice,4,NA,4.130996749619953,4.932704308652319,"[84, 0, 170]",170,l,0.29043076129164547,1,colour,0.5,4
60,18,0,2,Practice,5,NA,5.448737979284488,8.596798897837289,"[91, 0, 163]",163,l,2.6261995075037703,1,colour,0.5,4
60,18,0,2,Practice,6,NA,9.10498794238083,10.172716470551677,"[4, 0, 250]",250,a,0.5457442371407524,1,colour,0.5,4
60,18,0,2,Practice,7,NA,10.683248505461961,11.276679231668822,"[50, 0, 204]",204,a,0.0717890813248232,1,colour,0.5,4
60,18,0,2,Practice,8,NA,11.792764496174641,12.34070521290414,"[15, 0, 239]",239,a,0.02619942871388048,1,colour,0.5,4
60,18,0,2,Practice,9,NA,12.855506145395339,13.436773329391144,"[14, 0, 240]",240,a,0.05966807447839528,1,colour,0.5,4
60,18,0,2,Practice,10,NA,13.949166680802591,17.772706703166477,"[49, 0, 205]",205,a,3.301667189807631,1,colour,0.5,4
60,18,0,2,1,1,1,4.464274419355206,5.76799787953496,"[43, 0, 211]",211,a,0.7810794769320637,1,colour,0.5,4.0
60,18,0,2,1,2,2,6.27771032077726,7.00800137699116,"[79, 0, 175]",175,l,0.20859781745821238,1,colour,0.5,4.0
60,18,0,2,1,3,3,7.527747046900913,10.535978036001325,"[64, 0, 190]",190,a,2.4864546487806365,0,colour,0.5,4.0
60,18,0,2,1,4,4,11.043706674478017,11.631971321767196,"[23, 0, 231]",231,a,0.0664268669206649,1,colour,0.5,4.0
60,18,0,2,1,5,5,12.137541683739983,12.67996540456079,"[34, 0, 220]",220,a,0.020431158947758377,1,colour,0.5,4.0
60,18,0,2,1,6,6,13.184490499086678,15.423966242698953,"[16, 0, 238]",238,a,1.7175934587139636,1,colour,0.5,4.0
60,18,0,2,1,7,7,15.934734585229307,16.576038483530283,"[37, 0, 217]",217,a,0.11962601949926466,1,colour,0.5,4.0
60,18,0,2,1,8,8,17.091049336013384,17.864003768423572,"[70, 0, 184]",184,l,0.25095753837376833,1,colour,0.5,4.0
60,18,0,2,1,9,9,18.372462991275825,20.191980663803406,"[36, 0, 218]",218,a,1.2981635351898149,1,colour,0.5,4.0
60,18,0,2,1,10,10,20.700667923665605,21.248006055830047,"[85, 0, 169]",169,l,0.024930850486271083,1,colour,0.5,4.0
60,18,0,2,1,11,11,21.763283148175105,23.695991395274177,"[9, 0, 245]",245,a,1.4104309345129877,1,colour,0.5,4.0
60,18,0,2,1,12,12,24.20144872344099,27.39199854445178,"[60, 0, 194]",194,a,2.6678814193001017,0,colour,0.5,4.0
60,18,0,2,1,13,13,27.905908597051166,29.103974970290437,"[53, 0, 201]",201,a,0.6755704761017114,0,colour,0.5,4.0
60,18,0,2,1,14,14,29.60923301242292,30.135996231692843,"[22, 0, 232]",232,a,0.004935285192914307,1,colour,0.5,4.0
60,18,0,2,1,15,15,30.656177101656795,31.35996152914595,"[71, 0, 183]",183,l,0.18213845021091402,1,colour,0.5,4.0
60,18,0,2,1,16,16,31.87511534767691,32.39997786586173,"[52, 0, 202]",202,a,0.0028998886700719595,0,colour,0.5,4.0
60,18,0,2,1,17,17,32.92195900622755,33.455978839541785,"[99, 0, 155]",155,l,0.012249400722794235,1,colour,0.5,4.0
60,18,0,2,1,18,18,33.96894366154447,34.519980402314104,"[61, 0, 193]",193,a,0.029298997367732227,0,colour,0.5,4.0
60,18,0,2,1,19,19,35.03149311384186,35.560079840477556,"[31, 0, 223]",223,a,0.006936023244634271,1,colour,0.5,4.0
60,18,0,2,1,20,20,36.07856874761637,38.376003667595796,"[58, 0, 196]",196,a,1.7755656319204718,0,colour,0.5,4.0
60,18,0,2,1,21,21,38.89142727071885,39.431986130424775,"[32, 0, 222]",222,a,0.01886286400258541,1,colour,0.5,4.0
60,18,0,2,1,22,22,39.938134658383206,40.49599045002833,"[10, 0, 244]",244,a,0.036093235947191715,1,colour,0.5,4.0
60,18,0,2,1,23,23,41.00076091068331,44.20800114062149,"[51, 0, 203]",203,a,2.6849522835109383,0,colour,0.5,4.0
60,18,0,2,1,24,24,44.70847040822264,45.27997257257812,"[90, 0, 164]",164,l,0.048704581102356315,1,colour,0.5,4.0
60,18,0,2,1,25,25,45.78709193121176,46.35200268763583,"[88, 0, 166]",166,l,0.042833517654798925,1,colour,0.5,4.0
60,18,0,2,1,26,26,46.86807613680139,49.92001261888072,"[69, 0, 185]",185,a,2.5301022463245317,0,colour,0.5,4.0
60,18,0,2,1,27,27,50.43076441984158,50.98396061861422,"[55, 0, 199]",199,a,0.03150571684818715,0,colour,0.5,4.0
60,18,0,2,1,28,28,51.493387521361,53.87199844990391,"[5, 0, 249]",249,a,1.8567223420832306,1,colour,0.5,4.0
60,18,0,2,1,29,29,54.384393376647495,56.17599681462161,"[20, 0, 234]",234,a,1.2701165744801983,1,colour,0.5,4.0
60,18,0,2,1,30,30,56.68159907811787,57.663984706276096,"[21, 0, 233]",233,a,0.46026427869219333,1,colour,0.5,4.0
60,18,0,2,1,31,31,58.17064917262178,59.055977342883125,"[27, 0, 227]",227,a,0.36361957143526524,1,colour,0.5,4.0
60,18,0,2,1,32,32,59.56115819106344,60.27995248651132,"[65, 0, 189]",189,a,0.1969163428293541,0,colour,0.5,4.0
60,18,0,2,1,33,33,60.79561121563893,61.487979226978496,"[8, 0, 246]",246,a,0.17065035400446504,1,colour,0.5,4.0
60,18,0,2,1,34,34,61.99889959406573,62.920007104985416,"[66, 0, 188]",188,a,0.3990625675069168,0,colour,0.5,4.0
60,18,0,2,1,35,35,63.436472431058064,64.05596631520893,"[12, 0, 242]",242,a,0.09757063922006637,1,colour,0.5,4.0
60,18,0,2,1,36,36,64.56162804947235,65.11194680875633,"[40, 0, 214]",214,a,0.028733828221447766,1,colour,0.5,4.0
60,18,0,2,1,37,37,65.62410227709915,66.29596193565521,"[84, 0, 170]",170,l,0.14997697970829904,1,colour,0.5,4.0
60,18,0,2,1,38,38,66.8117892309092,67.47196465788875,"[25, 0, 229]",229,a,0.14877417380921543,1,colour,0.5,4.0
60,18,0,2,1,39,39,67.98909597762395,68.58414186653681,"[89, 0, 165]",165,l,0.07679762179031968,1,colour,0.5,4.0
60,18,0,2,1,40,40,69.08207909774501,69.61598668491933,"[45, 0, 209]",209,a,0.012153696035966277,1,colour,0.5,4.0
60,18,0,2,1,41,41,70.12920514389407,71.7279650013661,"[24, 0, 230]",230,a,1.081927073188126,1,colour,0.5,4.0
60,18,0,2,1,42,42,72.23379018169362,72.94397382030729,"[42, 0, 212]",212,a,0.18829702131915838,1,colour,0.5,4.0
60,18,0,2,1,43,43,73.45499028579798,74.72805479820818,"[95, 0, 159]",159,l,0.7517442457610741,1,colour,0.5,4.0
60,18,0,2,1,44,44,75.23567197821103,76.21595052978955,"[72, 0, 182]",182,a,0.4585215096594766,0,colour,0.5,4.0
60,18,0,2,1,45,45,76.72024561825674,77.29594578791875,"[68, 0, 186]",186,a,0.061907876981422305,0,colour,0.5,4.0
60,18,0,2,1,46,46,77.79304294544272,79.61596384178847,"[30, 0, 224]",224,a,1.3013276944402605,1,colour,0.5,4.0
60,18,0,2,1,47,47,80.12133334227838,81.11197437800001,"[11, 0, 243]",243,a,0.46822745236568153,1,colour,0.5,4.0
60,18,0,2,1,48,48,81.62149344070349,82.27194874652196,"[7, 0, 247]",247,a,0.12874985777307302,1,colour,0.5,4.0
60,18,0,2,1,49,49,82.77781449304894,83.63194454018958,"[50, 0, 204]",204,a,0.33172749157529324,1,colour,0.5,4.0
60,18,0,2,1,50,50,84.13724905613344,84.70397898752708,"[76, 0, 178]",178,l,0.0444392281351611,1,colour,0.5,4.0
60,18,0,2,2,1,51,92.84524606133346,94.024001373793,"[18, 0, 236]",236,a,0.6561987630557269,1,colour,0.5,4.0
60,18,0,2,2,2,52,94.53372720570769,95.46396879479289,"[15, 0, 239]",239,a,0.4085936425253749,1,colour,0.5,4.0
60,18,0,2,2,3,53,95.95880960812792,97.13596393633634,"[75, 0, 179]",179,l,0.6524938530055806,1,colour,0.5,4.0
60,18,0,2,2,4,54,97.6494293367723,98.70398213830777,"[64, 0, 190]",190,a,0.5298084372188896,0,colour,0.5,4.0
60,18,0,2,2,5,55,99.21447990857996,101.00814316153992,"[0, 0, 254]",254,a,1.2715556881157681,1,colour,0.5,4.0
60,18,0,2,2,6,56,101.5271692747483,102.1439743717201,"[54, 0, 200]",200,a,0.09469241218175739,0,colour,0.5,4.0
60,18,0,2,2,7,57,102.65219413628802,103.32799068011809,"[85, 0, 169]",169,l,0.15403398813214153,1,colour,0.5,4.0
60,18,0,2,2,8,58,103.83976648084354,104.48799222393427,"[36, 0, 218]",218,a,0.12579955672845244,1,colour,0.5,4.0
60,18,0,2,2,9,59,104.99610486230813,106.471960719442,"[32, 0, 222]",222,a,0.9540913321543485,1,colour,0.5,4.0
60,18,0,2,2,10,60,106.98069760389626,107.67196599696763,"[99, 0, 155]",155,l,0.17886046937201172,1,colour,0.5,4.0
60,18,0,2,2,11,61,108.18998386419844,108.7200274275383,"[7, 0, 247]",247,a,0.008042336907237768,1,colour,0.5,4.0
60,18,0,2,2,12,62,109.23803229781333,110.151946210186,"[59, 0, 195]",195,a,0.38963034795597196,0,colour,0.5,4.0
60,18,0,2,2,13,63,110.66239514341578,112.03193855378777,"[77, 0, 177]",177,l,0.8478367807110772,1,colour,0.5,4.0
60,18,0,2,2,14,64,112.53993500757497,113.18395801924635,"[88, 0, 166]",166,l,0.12219940987415612,1,colour,0.5,4.0
60,18,0,2,2,15,65,113.69638957374264,114.23996962665115,"[49, 0, 205]",205,a,0.021131811197847128,1,colour,0.5,4.0
60,18,0,2,2,16,66,114.75896344438661,115.38397314294707,"[71, 0, 183]",183,a,0.1158872387604788,0,colour,0.5,4.0
60,18,0,2,2,17,67,115.90279051766265,116.49601683777291,"[93, 0, 161]",161,l,0.06871353730093688,1,colour,0.5,4.0
60,18,0,2,2,18,68,117.01502483396325,118.2319670682773,"[91, 0, 163]",163,l,0.6952675061766058,1,colour,0.5,4.0
60,18,0,2,2,19,69,118.74949656636454,119.55198472831398,"[92, 0, 162]",162,l,0.2808028000872582,1,colour,0.5,4.0
60,18,0,2,2,20,70,120.06212764314841,120.63200991868507,"[48, 0, 206]",206,a,0.04740961524657905,1,colour,0.5,4.0
60,18,0,2,2,21,71,121.13669570232742,122.36793454911094,"[37, 0, 217]",217,a,0.7094424202805385,1,colour,0.5,4.0
60,18,0,2,2,22,72,122.88682084693573,123.67996343539562,"[50, 0, 204]",204,a,0.2707975343801081,1,colour,0.5,4.0
60,18,0,2,2,23,73,124.19940978230443,125.14393892558292,"[67, 0, 187]",187,a,0.4228485075291246,0,colour,0.5,4.0
60,18,0,2,2,24,74,125.65265336073935,126.35195542615838,"[43, 0, 211]",211,a,0.17714290670119226,1,colour,0.5,4.0
60,18,0,2,2,25,75,126.8714651822811,127.50394653470721,"[8, 0, 246]",246,a,0.11067823052871972,1,colour,0.5,4.0
60,18,0,2,2,26,76,128.01219544385094,128.54394829913508,"[26, 0, 228]",228,a,0.00990089657716453,1,colour,0.5,4.0
60,18,0,2,2,27,77,129.05913520068862,129.599945728085,"[33, 0, 221]",221,a,0.01903655007481575,1,colour,0.5,4.0
60,18,0,2,2,28,78,130.1061336407438,130.7039715044666,"[83, 0, 171]",171,l,0.0760599480709061,1,colour,0.5,4.0
60,18,0,2,2,29,79,131.21557480073534,131.75197346427012,"[38, 0, 216]",216,a,0.023981287609785795,1,colour,0.5,4.0
60,18,0,2,2,30,80,132.26067411492113,133.7679781873012,"[42, 0, 212]",212,a,0.9849409013986588,1,colour,0.5,4.0
60,18,0,2,2,31,81,134.27649688103702,134.85600081610028,"[84, 0, 170]",170,l,0.057360924081876874,1,colour,0.5,4.0
60,18,0,2,2,32,82,135.37029368709773,136.52797941607423,"[79, 0, 175]",175,l,0.644709091517143,1,colour,0.5,4.0
60,18,0,2,2,33,83,137.03362579038367,137.75196519354358,"[28, 0, 226]",226,a,0.19661701982840896,1,colour,0.5,4.0
60,18,0,2,2,34,84,138.2681071718689,139.19996983138844,"[70, 0, 184]",184,a,0.41000558075029403,0,colour,0.5,4.0
60,18,0,2,2,35,85,139.70588323334232,140.3679605430225,"[17, 0, 237]",237,a,0.14021038473583758,1,colour,0.5,4.0
60,18,0,2,2,36,86,140.87782343337312,141.59996817726642,"[45, 0, 209]",209,a,0.2008240835275501,1,colour,0.5,4.0
60,18,0,2,2,37,87,142.11383057455532,142.65592346468475,"[74, 0, 180]",180,l,0.01685385510791093,1,colour,0.5,4.0
60,18,0,2,2,38,88,143.1638127923943,144.37596861529164,"[51, 0, 203]",203,a,0.6881227445555851,0,colour,0.5,4.0
60,18,0,2,2,39,89,144.88461767195258,145.51196602848358,"[58, 0, 196]",196,a,0.1056657515000552,0,colour,0.5,4.0
60,18,0,2,2,40,90,146.02534478274174,146.63191303249914,"[90, 0, 164]",164,l,0.08390221116133034,1,colour,0.5,4.0
60,18,0,2,2,41,91,147.14505547913723,148.19997731456533,"[87, 0, 167]",167,l,0.5325283382553607,1,colour,0.5,4.0
60,18,0,2,2,42,92,148.70761300530285,149.34397452918347,"[61, 0, 193]",193,a,0.1234589294763282,0,colour,0.5,4.0
60,18,0,2,2,43,93,149.85443842876703,151.32799461856484,"[19, 0, 235]",235,a,0.9513962434139103,1,colour,0.5,4.0
60,18,0,2,2,44,94,151.83902762562502,153.0719930935884,"[47, 0, 207]",207,a,0.7205744796665385,1,colour,0.5,4.0
60,18,0,2,2,45,95,153.56739592528902,154.45593866717536,"[21, 0, 233]",233,a,0.37673307035584,1,colour,0.5,4.0
60,18,0,2,2,46,96,154.96330890571699,155.64793390326668,"[9, 0, 245]",245,a,0.1623973095556721,1,colour,0.5,4.0
60,18,0,2,2,47,97,156.16642596106976,157.18397495464887,"[46, 0, 208]",208,a,0.504473500768654,1,colour,0.5,4.0
60,18,0,2,2,48,98,157.6907500916859,158.31994086015038,"[34, 0, 220]",220,a,0.1070662682177499,1,colour,0.5,4.0
60,18,0,2,2,49,99,158.83138898096513,159.46407592098694,"[94, 0, 160]",160,l,0.11031037825159729,1,colour,0.5,4.0
60,18,0,2,2,50,100,159.9721208178671,160.52793924382422,"[39, 0, 215]",215,a,0.03399915643967688,1,colour,0.5,4.0
60,18,0,2,3,1,101,165.21420303476043,166.74396657350007,"[69, 0, 185]",185,a,1.0168633074499667,0,colour,0.5,3.9
60,18,0,2,3,2,102,167.2524340673117,167.83997679466847,"[41, 0, 213]",213,a,0.07340030558407307,1,colour,0.5,3.9
60,18,0,2,3,3,103,168.35425903182477,169.01597518462222,"[81, 0, 173]",173,l,0.15119317639619112,1,colour,0.5,3.9
60,18,0,2,3,4,104,169.53071664634626,170.15196826553438,"[8, 0, 246]",246,a,0.1088649631710723,1,colour,0.5,3.9
60,18,0,2,3,5,105,170.66164526052307,171.27995366801042,"[95, 0, 159]",159,l,0.09670299640856683,1,colour,0.5,3.9
60,18,0,2,3,6,106,171.7867713405285,172.33600978006143,"[62, 0, 192]",192,a,0.026913077803328633,0,colour,0.5,3.9
60,18,0,2,3,7,107,172.84929125430062,173.55195203900803,"[84, 0, 170]",170,l,0.1808769612107426,1,colour,0.5,3.9
60,18,0,2,3,8,108,174.0681755435653,175.50394574692473,"[13, 0, 241]",241,a,0.9140230076154694,1,colour,0.5,3.9
60,18,0,2,3,9,109,176.02144373732153,176.90393660974223,"[37, 0, 217]",217,a,0.3599910675548017,1,colour,0.5,3.9
60,18,0,2,3,10,110,177.4131323248148,178.34395089850295,"[70, 0, 184]",184,a,0.40902490413282067,0,colour,0.5,3.9
60,18,0,2,3,11,111,178.85279963514768,180.06395942135714,"[78, 0, 176]",176,l,0.6988251177826896,1,colour,0.5,3.9
60,18,0,2,3,12,112,180.57774462469388,181.39994596433826,"[87, 0, 167]",167,l,0.29977475944906473,1,colour,0.5,3.9
60,18,0,2,3,13,113,181.90590387093835,182.47208005480934,"[36, 0, 218]",218,a,0.04384570219554007,1,colour,0.5,3.9
60,18,0,2,3,14,114,182.98422331397887,183.5759510496864,"[32, 0, 222]",222,a,0.07015698309987783,1,colour,0.5,3.9
60,18,0,2,3,15,115,184.08119176258333,185.15197102248203,"[34, 0, 220]",220,a,0.5491691227070987,1,colour,0.5,3.9
60,18,0,2,3,16,116,185.64926431525964,186.34395404928364,"[25, 0, 229]",229,a,0.16985714808106422,1,colour,0.5,3.9
60,18,0,2,3,17,117,186.85563138849102,187.57606250816025,"[63, 0, 191]",191,a,0.21097901079338044,0,colour,0.5,3.9
60,18,0,2,3,18,118,188.09301620326005,188.77592718263622,"[53, 0, 201]",201,a,0.17053377570118755,0,colour,0.5,3.9
60,18,0,2,3,19,119,189.28673175896984,189.90394369896967,"[39, 0, 215]",215,a,0.09544741502031684,1,colour,0.5,3.9
60,18,0,2,3,20,120,190.41183972207364,191.079959811992,"[4, 0, 250]",250,a,0.14608302351552993,1,colour,0.5,3.9
60,18,0,2,3,21,121,191.59940182662103,192.19992414524313,"[17, 0, 237]",237,a,0.0787392829079181,1,colour,0.5,3.9
60,18,0,2,3,22,122,192.70894262962975,193.40804147045128,"[92, 0, 162]",162,l,0.1759306484600529,1,colour,0.5,3.9
60,18,0,2,3,23,123,193.9134267248446,194.5279203391401,"[40, 0, 214]",214,a,0.09117497282568365,1,colour,0.5,3.9
60,18,0,2,3,24,124,195.0400529644685,197.0399352045497,"[3, 0, 251]",251,a,1.4778550198534504,1,colour,0.5,3.9
60,18,0,2,3,25,125,197.55593185371254,198.20799326372799,"[28, 0, 226]",226,a,0.13042488507926464,1,colour,0.5,3.9
60,18,0,2,3,26,126,198.72794452134985,199.39195837208536,"[20, 0, 234]",234,a,0.1418633566936478,1,colour,0.5,3.9
60,18,0,2,3,27,127,199.89985124440864,200.47992901329417,"[1, 0, 253]",253,a,0.058360505499877036,1,colour,0.5,3.9
60,18,0,2,3,28,128,200.99440581037197,201.6639559554169,"[47, 0, 207]",207,a,0.1472570786718279,1,colour,0.5,3.9
60,18,0,2,3,29,129,202.1819501919672,202.80803233326878,"[58, 0, 196]",196,a,0.10377883492037654,0,colour,0.5,3.9
60,18,0,2,3,30,130,203.32118108146824,204.2879298387561,"[91, 0, 163]",163,l,0.4448625339427963,1,colour,0.5,3.9
60,18,0,2,3,31,131,204.80573936132714,205.39205486443825,"[14, 0, 240]",240,a,0.06448559963610023,1,colour,0.5,3.9
60,18,0,2,3,32,132,205.89953498600516,206.59192741580773,"[60, 0, 194]",194,a,0.18030627840198576,0,colour,0.5,3.9
60,18,0,2,3,33,133,207.1095360768959,207.71194964449387,"[29, 0, 225]",225,a,0.09317374171223491,1,colour,0.5,3.9
60,18,0,2,3,34,134,208.22206499020103,208.76791123347357,"[44, 0, 210]",210,a,0.025039552012458444,1,colour,0.5,3.9
60,18,0,2,3,35,135,209.2836577903945,209.82396577007603,"[52, 0, 202]",202,a,0.02168083260767162,0,colour,0.5,3.9
60,18,0,2,3,36,136,210.34316596318968,211.39196467364673,"[64, 0, 190]",190,a,0.5344077716581523,0,colour,0.5,3.9
60,18,0,2,3,37,137,211.8985480077099,212.4719674148364,"[54, 0, 200]",200,a,0.0510526915313676,0,colour,0.5,3.9
60,18,0,2,3,38,138,212.97736763523426,213.9439218326006,"[5, 0, 249]",249,a,0.44474674318917096,1,colour,0.5,3.9
60,18,0,2,3,39,139,214.4619263090426,215.50392841768917,"[51, 0, 203]",203,a,0.5196157007012516,0,colour,0.5,3.9
60,18,0,2,3,40,140,216.01053420105018,217.08796118886676,"[76, 0, 178]",178,l,0.5556849121348932,1,colour,0.5,3.9
60,18,0,2,3,41,141,217.604524188675,218.23993102973327,"[79, 0, 175]",175,l,0.11320396536029875,1,colour,0.5,3.9
60,18,0,2,3,42,142,218.74613154539838,219.81590295326896,"[30, 0, 224]",224,a,0.5481191290309653,1,colour,0.5,3.9
60,18,0,2,3,43,143,220.32449687155895,220.84797777771018,"[98, 0, 156]",156,l,0.001123249065130949,1,colour,0.5,3.9
60,18,0,2,3,44,144,221.37138779158704,221.91996850806754,"[22, 0, 232]",232,a,0.026503477827645838,1,colour,0.5,3.9
60,18,0,2,3,45,145,222.42639312229585,222.983940532431,"[59, 0, 195]",195,a,0.03343595645856112,0,colour,0.5,3.9
60,18,0,2,3,46,146,223.4930854414124,224.65591676940676,"[2, 0, 252]",252,a,0.6412239476339892,1,colour,0.5,3.9
60,18,0,2,3,47,147,225.16500260145403,225.75192029506434,"[83, 0, 171]",171,l,0.07748409546911716,1,colour,0.5,3.9
60,18,0,2,3,48,148,226.24964800011367,227.3440225784434,"[93, 0, 161]",161,l,0.5725750010460615,1,colour,0.5,3.9
60,18,0,2,3,49,149,227.85911968315486,232.6960169953527,"[61, 0, 193]",193,l,4.3144624611595646,1,colour,0.5,3.9
60,18,0,2,3,50,150,233.20329664926976,234.23993969429284,"[48, 0, 206]",206,a,0.512645018985495,1,colour,0.5,3.9
60,18,0,2,4,1,151,239.04868449503556,240.4319053919753,"[31, 0, 223]",223,a,0.8609936027787626,1,colour,0.5,3.9
60,18,0,2,4,2,152,240.94025473180227,241.51205976388883,"[74, 0, 180]",180,l,0.049490304198116064,1,colour,0.5,3.9
60,18,0,2,4,3,153,242.01843396562617,243.6399931786582,"[49, 0, 205]",205,a,1.099318134249188,1,colour,0.5,3.9
60,18,0,2,4,4,154,244.15932806709316,244.80807289935183,"[25, 0, 229]",229,a,0.1267715689027682,1,colour,0.5,3.9
60,18,0,2,4,5,155,245.31563612248283,245.96792911400553,"[42, 0, 212]",212,a,0.12978094664867967,1,colour,0.5,3.9
60,18,0,2,4,6,156,246.48762358399108,247.11993676412385,"[58, 0, 196]",196,a,0.12165708374232054,0,colour,0.5,3.9
60,18,0,2,4,7,157,247.63298468769062,248.18396156386007,"[35, 0, 219]",219,a,0.02910601277835667,1,colour,0.5,3.9
60,18,0,2,4,8,158,248.69548018311616,249.34407850459684,"[21, 0, 233]",233,a,0.12719928566366434,1,colour,0.5,3.9
60,18,0,2,4,9,159,249.85184495232534,250.83192106697243,"[85, 0, 169]",169,l,0.4580878851702437,1,colour,0.5,3.9
60,18,0,2,4,10,160,251.33634809381329,251.99194506008644,"[45, 0, 209]",209,a,0.13395335210952908,1,colour,0.5,3.9
60,18,0,2,4,11,161,252.50838124146685,253.4478994810488,"[55, 0, 199]",199,a,0.4179801761638373,0,colour,0.5,3.9
60,18,0,2,4,12,162,253.96151217992883,254.48793275316712,"[53, 0, 201]",201,l,0.0050652544014155865,1,colour,0.5,3.9
60,18,0,2,4,13,163,255.00857442303095,255.64008691406343,"[79, 0, 175]",175,a,0.10980664915405214,0,colour,0.5,3.9
60,18,0,2,4,14,164,256.14916329376865,256.75992561038584,"[0, 0, 254]",254,a,0.08925930550321937,1,colour,0.5,3.9
60,18,0,2,4,15,165,257.2742362045683,258.33591565082315,"[87, 0, 167]",167,l,0.5401378382230178,1,colour,0.5,3.9
60,18,0,2,4,16,166,258.85253181983717,259.8639076699037,"[44, 0, 210]",210,a,0.4894529989687726,1,colour,0.5,3.9
60,18,0,2,4,17,167,260.3683626598213,262.44005249184556,"[82, 0, 172]",172,l,1.54996863019187,1,colour,0.5,3.9
60,18,0,2,4,18,168,262.94686898286454,263.5999315496301,"[69, 0, 185]",185,l,0.1323448846815154,1,colour,0.5,3.9
60,18,0,2,4,19,169,264.117885613814,265.35992135689594,"[48, 0, 206]",206,a,0.7194413845427334,1,colour,0.5,3.9
60,18,0,2,4,20,170,265.86872322589625,266.61596029717475,"[68, 0, 186]",186,l,0.22589553706347942,1,colour,0.5,3.9
60,18,0,2,4,21,171,267.1344397520879,268.11994897341356,"[17, 0, 237]",237,a,0.46345088724046946,1,colour,0.5,3.9
60,18,0,2,4,22,172,268.6346861027414,269.5279290038161,"[73, 0, 181]",181,l,0.37125427764840424,1,colour,0.5,3.9
60,18,0,2,4,23,173,270.04101355501916,270.72796697053127,"[77, 0, 177]",177,l,0.16492698283400387,1,colour,0.5,3.9
60,18,0,2,4,24,174,271.2441392750479,271.79989901790395,"[27, 0, 227]",227,a,0.03324612264987081,1,colour,0.5,3.9
60,18,0,2,4,25,175,272.3076859456487,273.2399215773912,"[94, 0, 160]",160,l,0.41019817150663584,1,colour,0.5,3.9
60,18,0,2,4,26,176,273.7453316440806,274.51993077772204,"[98, 0, 156]",156,l,0.2529370087431744,1,colour,0.5,3.9
60,18,0,2,4,27,177,275.02667125628795,275.6959630383644,"[47, 0, 207]",207,a,0.14693885098677129,1,colour,0.5,3.9
60,18,0,2,4,28,178,276.21425738558173,276.7519518027548,"[38, 0, 216]",216,a,0.015459640068002045,1,colour,0.5,3.9
60,18,0,2,4,29,179,277.2617048100801,278.18392493610736,"[72, 0, 182]",182,a,0.40035713952966034,0,colour,0.5,3.9
60,18,0,2,4,30,180,278.7005722189788,279.2799335818272,"[96, 0, 158]",158,l,0.057019065716303885,1,colour,0.5,3.9
60,18,0,2,4,31,181,279.79222138249315,280.71993014751934,"[70, 0, 184]",184,a,0.40521365555468947,0,colour,0.5,3.9
60,18,0,2,4,32,182,281.2308717822889,281.8639553253306,"[26, 0, 228]",228,a,0.11147970729507506,1,colour,0.5,3.9
60,18,0,2,4,33,183,282.3715063391719,283.54426258825697,"[66, 0, 188]",188,a,0.6510708872228861,0,colour,0.5,3.9
60,18,0,2,4,34,184,284.05032919626683,285.15991883620154,"[6, 0, 248]",248,a,0.599849235615693,1,colour,0.5,3.9
60,18,0,2,4,35,185,285.67867516481783,286.8079803455621,"[89, 0, 165]",165,l,0.6074666127096862,1,colour,0.5,3.9
60,18,0,2,4,36,186,287.31940719869453,288.29591664334293,"[34, 0, 220]",220,a,0.4667083880631253,1,colour,0.5,3.9
60,18,0,2,4,37,187,288.80875504075084,289.9279387712013,"[1, 0, 253]",253,a,0.5976740238256752,1,colour,0.5,3.9
60,18,0,2,4,38,188,290.43382657307666,291.1601752300048,"[4, 0, 250]",250,a,0.20524815644603223,1,colour,0.5,3.9
60,18,0,2,4,39,189,291.66822642844636,292.32793593546376,"[18, 0, 236]",236,a,0.13748024369124323,1,colour,0.5,3.9
60,18,0,2,4,40,190,292.8402548499871,293.94389780797064,"[59, 0, 195]",195,l,0.5789824828971177,1,colour,0.5,3.9
60,18,0,2,4,41,191,294.44326903275214,295.13591076713055,"[52, 0, 202]",202,a,0.17138566472567618,0,colour,0.5,3.9
60,18,0,2,4,42,192,295.64648100500926,296.3999109120341,"[90, 0, 164]",164,l,0.22881078568752855,1,colour,0.5,3.9
60,18,0,2,4,43,193,296.91446687222924,297.5039201469626,"[57, 0, 197]",197,a,0.06713736522942781,0,colour,0.5,3.9
60,18,0,2,4,44,194,298.008290459984,298.69590356759727,"[32, 0, 222]",222,a,0.16539250896312296,1,colour,0.5,3.9
60,18,0,2,4,45,195,299.21146856143605,300.00797341391444,"[3, 0, 251]",251,a,0.27458436437882483,1,colour,0.5,3.9
60,18,0,2,4,46,196,300.52410869684536,301.13594975788146,"[78, 0, 176]",176,l,0.09038097911980003,1,colour,0.5,3.9
60,18,0,2,4,47,197,301.6492406844627,302.3120403077919,"[86, 0, 168]",168,l,0.14079839689657092,1,colour,0.5,3.9
60,18,0,2,4,48,198,302.821188367554,303.44825197337195,"[28, 0, 226]",226,a,0.10551490855868906,1,colour,0.5,3.9
60,18,0,2,4,49,199,303.9618308014469,304.511948305415,"[15, 0, 239]",239,a,0.027751576039008796,1,colour,0.5,3.9
60,18,0,2,4,50,200,305.02442751522176,305.5679197405698,"[29, 0, 225]",225,a,0.021455552778206766,1,colour,0.5,3.9
60,18,0,2,5,1,201,310.92599789774977,312.3519345523091,"[48, 0, 206]",206,a,0.9040354650933295,1,colour,0.5,3.9
60,18,0,2,5,2,202,312.864399583661,313.5519863036461,"[90, 0, 164]",164,l,0.16557407204527408,1,colour,0.5,3.9
60,18,0,2,5,3,203,314.06748513132334,314.60013398644514,"[14, 0, 240]",240,a,0.010703554726205766,1,colour,0.5,3.9
60,18,0,2,5,4,204,315.1144737252034,315.71991242445074,"[19, 0, 235]",235,a,0.08355562668293715,1,colour,0.5,3.9
60,18,0,2,5,5,205,316.23958523292094,316.8239177209325,"[7, 0, 247]",247,a,0.06261286151129752,1,colour,0.5,3.9
60,18,0,2,5,6,206,317.3333977928851,317.95204845257103,"[81, 0, 173]",173,l,0.09623510716482997,1,colour,0.5,3.9
60,18,0,2,5,7,207,318.4462898321217,318.9919100077823,"[6, 0, 248]",248,a,0.0241262229392305,1,colour,0.5,3.9
60,18,0,2,5,8,208,319.5087195552187,320.0559348075185,"[58, 0, 196]",196,a,0.02573232725262642,0,colour,0.5,3.9
60,18,0,2,5,9,209,320.5712713706307,321.51991108537186,"[66, 0, 188]",188,l,0.4270110666984692,1,colour,0.5,3.9
60,18,0,2,5,10,210,322.02457205671817,322.6799019953469,"[85, 0, 169]",169,l,0.13390254590194672,1,colour,0.5,3.9
60,18,0,2,5,11,211,323.19646853976883,323.83208333153743,"[33, 0, 221]",221,a,0.11276285769417882,1,colour,0.5,3.9
60,18,0,2,5,12,212,324.3372503952123,324.9599143464584,"[23, 0, 231]",231,a,0.1006745402701199,1,colour,0.5,3.9
60,18,0,2,5,13,213,325.47798853367567,326.62392780336086,"[82, 0, 172]",172,l,0.6246016739169136,1,colour,0.5,3.9
60,18,0,2,5,14,214,327.1345594812883,327.8560201146174,"[93, 0, 161]",161,l,0.1995050930418074,1,colour,0.5,3.9
60,18,0,2,5,15,215,328.3688029797049,328.8959545312682,"[46, 0, 208]",208,a,0.004513082094490528,1,colour,0.5,3.9
60,18,0,2,5,16,216,329.41575455199927,330.1359257332515,"[49, 0, 205]",205,a,0.19830661942251027,1,colour,0.5,3.9
60,18,0,2,5,17,217,330.65022529964335,331.57592151127756,"[70, 0, 184]",184,l,0.40439051727298647,1,colour,0.5,3.9
60,18,0,2,5,18,218,332.0878780874191,333.2319024774479,"[57, 0, 197]",197,a,0.6217029667459428,0,colour,0.5,3.9
60,18,0,2,5,19,219,333.7442166658584,334.3762127998052,"[37, 0, 217]",217,a,0.11006186134181917,1,colour,0.5,3.9
60,18,0,2,5,20,220,334.8849134504562,336.0879095949931,"[74, 0, 180]",180,l,0.6814033365808427,1,colour,0.5,3.9
60,18,0,2,5,21,221,336.6038243242074,337.34391111996956,"[29, 0, 225]",225,a,0.21798159391619265,1,colour,0.5,3.9
60,18,0,2,5,22,222,337.855582551565,338.4879244824406,"[87, 0, 167]",167,l,0.10985194146633148,1,colour,0.5,3.9
60,18,0,2,5,23,223,338.99628051766194,339.6560762770241,"[28, 0, 226]",226,a,0.13836718501988798,1,colour,0.5,3.9
60,18,0,2,5,24,224,340.1682467114879,340.8160281962482,"[10, 0, 244]",244,a,0.12527771072927862,1,colour,0.5,3.9
60,18,0,2,5,25,225,341.32470797304995,342.023992315284,"[42, 0, 212]",212,a,0.1872824738966301,1,colour,0.5,3.9
60,18,0,2,5,26,226,342.53425771638285,343.67988939234056,"[25, 0, 229]",229,a,0.6225591881666332,1,colour,0.5,3.9
60,18,0,2,5,27,227,344.191194546991,345.32789497543126,"[60, 0, 194]",194,a,0.6147165312431753,0,colour,0.5,3.9
60,18,0,2,5,28,228,345.84756935935,346.41592626890633,"[76, 0, 178]",178,l,0.045858649420551956,1,colour,0.5,3.9
60,18,0,2,5,29,229,346.92579782393295,347.67189195391256,"[31, 0, 223]",223,a,0.2244607558241114,1,colour,0.5,3.9
60,18,0,2,5,30,230,348.19163447304163,349.04795351671055,"[63, 0, 191]",191,a,0.3344324263744056,0,colour,0.5,3.9
60,18,0,2,5,31,231,349.5693998141214,350.2079645129852,"[20, 0, 234]",234,a,0.11707035242579877,1,colour,0.5,3.9
60,18,0,2,5,32,232,350.72575316170696,351.27191566338297,"[4, 0, 250]",250,a,0.024742985842749476,1,colour,0.5,3.9
60,18,0,2,5,33,233,351.788329789415,352.33589005086105,"[32, 0, 222]",222,a,0.024850899702869356,1,colour,0.5,3.9
60,18,0,2,5,34,234,352.85122425085865,353.4798947486561,"[98, 0, 156]",156,l,0.10706075432244688,1,colour,0.5,3.9
60,18,0,2,5,35,235,353.9919056755025,354.6880542152794,"[86, 0, 168]",168,l,0.17350652581080794,1,colour,0.5,3.9
60,18,0,2,5,36,236,355.19504793698434,356.3278953693807,"[53, 0, 201]",201,a,0.6106256521306932,0,colour,0.5,3.9
60,18,0,2,5,37,237,356.8358571646968,357.80010342400055,"[52, 0, 202]",202,a,0.4419697345001623,0,colour,0.5,3.9
60,18,0,2,5,38,238,358.305392579874,359.02388321992476,"[97, 0, 157]",157,l,0.19670642272103578,1,colour,0.5,3.9
60,18,0,2,5,39,239,359.5397900722455,361.35222836141475,"[2, 0, 252]",252,a,1.2906099611427635,1,colour,0.5,3.9
60,18,0,2,5,40,240,361.868020998314,362.59991067578085,"[77, 0, 177]",177,l,0.21032837708480656,1,colour,0.5,3.9
60,18,0,2,5,41,241,363.1180892321281,363.77591536729597,"[36, 0, 218]",218,a,0.13620536401867867,1,colour,0.5,3.9
60,18,0,2,5,42,242,364.29014640441164,365.31188749556895,"[79, 0, 175]",175,l,0.5001502522500232,1,colour,0.5,3.9
60,18,0,2,5,43,243,365.8215806382941,366.5278848930029,"[89, 0, 165]",165,l,0.1847819450777024,1,colour,0.5,3.9
60,18,0,2,5,44,244,367.04040112439543,367.73607783659827,"[39, 0, 215]",215,a,0.17351046425756067,1,colour,0.5,3.9
60,18,0,2,5,45,245,368.24360206897836,369.27992176648695,"[62, 0, 192]",192,a,0.514228280284442,0,colour,0.5,3.9
60,18,0,2,5,46,246,369.79064836131874,371.0879127457738,"[18, 0, 236]",236,a,0.7827442642301321,1,colour,0.5,3.9
60,18,0,2,5,47,247,371.59608524886426,372.1839706222527,"[88, 0, 166]",166,l,0.06556395010557026,1,colour,0.5,3.9
60,18,0,2,5,48,248,372.69000966113526,373.63990928942803,"[92, 0, 162]",162,l,0.42761286348104477,1,colour,0.5,3.9
60,18,0,2,5,49,249,374.15886057179887,374.7119059275137,"[43, 0, 211]",211,a,0.03164631989784539,1,colour,0.5,3.9
60,18,0,2,5,50,250,375.2212969902903,375.75192817195784,"[38, 0, 216]",216,a,0.014734175521880388,1,colour,0.5,3.9
60,18,0,2,6,1,251,391.23175911745057,393.12793774716556,"[76, 0, 178]",178,l,1.377650337992236,1,colour,0.5,3.9
60,18,0,2,6,2,252,393.63479756121524,394.3438800062286,"[85, 0, 169]",169,l,0.18706467701122165,1,colour,0.5,3.9
60,18,0,2,6,3,253,394.85551835468505,395.53587169758976,"[81, 0, 173]",173,l,0.1591055440949276,1,colour,0.5,3.9
60,18,0,2,6,4,254,396.04313126544,396.72787677973974,"[66, 0, 188]",188,a,0.16318421391770244,0,colour,0.5,3.9
60,18,0,2,6,5,255,397.2462613177486,397.9438982019201,"[6, 0, 248]",248,a,0.17350376897957176,1,colour,0.5,3.9
60,18,0,2,6,6,256,398.452198310988,399.0559036936611,"[55, 0, 199]",199,a,0.08191998384427279,0,colour,0.5,3.9
60,18,0,2,6,7,257,399.562150683254,400.1598392793676,"[72, 0, 182]",182,a,0.07579449587501585,0,colour,0.5,3.9
60,18,0,2,6,8,258,400.6594972240273,401.2238971621264,"[36, 0, 218]",218,a,0.04544668644666672,1,colour,0.5,3.9
60,18,0,2,6,9,259,401.73501996602863,402.2639339788584,"[49, 0, 205]",205,a,0.007309389300644398,1,colour,0.5,3.9
60,18,0,2,6,10,260,402.7818687445251,403.6718954985263,"[70, 0, 184]",184,a,0.367821121471934,0,colour,0.5,3.9
60,18,0,2,6,11,261,404.1767222790513,404.75990670581814,"[54, 0, 200]",200,a,0.06146322481799871,0,colour,0.5,3.9
60,18,0,2,6,12,262,405.27130086976103,405.8239118132042,"[71, 0, 183]",183,a,0.04134793032426387,0,colour,0.5,3.9
60,18,0,2,6,13,263,406.33887934254017,407.12787670106627,"[84, 0, 170]",170,l,0.2669768335763365,1,colour,0.5,3.9
60,18,0,2,6,14,264,407.63619177625515,408.2319229574641,"[8, 0, 246]",246,a,0.07374689006246626,1,colour,0.5,3.9
60,18,0,2,6,15,265,408.7332988587441,409.3680208014557,"[92, 0, 162]",162,l,0.11254978703800589,1,colour,0.5,3.9
60,18,0,2,6,16,266,409.87404841871466,410.52802746533416,"[23, 0, 231]",231,a,0.13185572787187994,1,colour,0.5,3.9
60,18,0,2,6,17,267,411.04592875402886,411.7119090782944,"[77, 0, 177]",177,l,0.14476403302978724,1,colour,0.5,3.9
60,18,0,2,6,18,268,412.22034821507987,412.88789644057397,"[95, 0, 159]",159,l,0.1454319959739223,1,colour,0.5,3.9
60,18,0,2,6,19,269,413.4080170519883,414.0398954260163,"[40, 0, 214]",214,a,0.1103288889862597,1,colour,0.5,3.9
60,18,0,2,6,20,270,414.5488426242955,415.1760810976848,"[53, 0, 201]",201,a,0.10606432368513197,0,colour,0.5,3.9
60,18,0,2,6,21,271,415.6895149904303,416.423902045819,"[65, 0, 189]",189,a,0.2131345303496346,0,colour,0.5,3.9
60,18,0,2,6,22,272,416.9394406520296,418.2958898617653,"[64, 0, 190]",190,a,0.8345287217525765,0,colour,0.5,3.9
60,18,0,2,6,23,273,418.81458671961445,419.4079028366832,"[19, 0, 235]",235,a,0.0716508412733674,1,colour,0.5,3.9
60,18,0,2,6,24,274,419.9240499349544,420.5839406112209,"[96, 0, 158]",158,l,0.13812418200541288,1,colour,0.5,3.9
60,18,0,2,6,25,275,421.09609056578483,422.1118932457175,"[47, 0, 207]",207,a,0.4941157427383587,1,colour,0.5,3.9
60,18,0,2,6,26,276,422.6273893165635,423.1598719685571,"[34, 0, 220]",220,a,0.010769720887765288,1,colour,0.5,3.9
60,18,0,2,6,27,277,423.67435979342554,424.2078877129825,"[14, 0, 240]",240,a,0.011334890150465071,1,colour,0.5,3.9
60,18,0,2,6,28,278,424.7214901718544,425.24789065890945,"[60, 0, 194]",194,a,0.002536368672735989,0,colour,0.5,3.9
60,18,0,2,6,29,279,425.77060041448567,426.3518770507071,"[2, 0, 252]",252,a,0.05946563743054867,1,colour,0.5,3.9
60,18,0,2,6,30,280,426.86433144833427,427.4638947517378,"[18, 0, 236]",236,a,0.07735648937523365,1,colour,0.5,3.9
60,18,0,2,6,31,281,427.97383168525994,430.0079131553648,"[22, 0, 232]",232,a,1.5123260036343709,1,colour,0.5,3.9
60,18,0,2,6,32,282,430.52091854368336,431.3679132814286,"[90, 0, 164]",164,l,0.3248119483469054,1,colour,0.5,3.9
60,18,0,2,6,33,283,431.8803968236316,432.5999079188332,"[97, 0, 157]",157,l,0.1977973764296621,1,colour,0.5,3.9
60,18,0,2,6,34,284,433.1148478789255,433.65589235094376,"[99, 0, 155]",155,l,0.019042851636186242,1,colour,0.5,3.9
60,18,0,2,6,35,285,434.16186837432906,434.8478655315703,"[33, 0, 221]",221,a,0.16414834919851273,1,colour,0.5,3.9
60,18,0,2,6,36,286,435.36507562047336,435.9838684586575,"[24, 0, 230]",230,a,0.09691409789957106,1,colour,0.5,3.9
60,18,0,2,6,37,287,436.4901430173777,437.98393186787143,"[10, 0, 244]",244,a,0.9711578642018139,1,colour,0.5,3.9
60,18,0,2,6,38,288,438.4903785373317,439.45589731330983,"[75, 0, 179]",179,a,0.44380151259247214,0,colour,0.5,3.9
60,18,0,2,6,39,289,439.9749076727312,440.52791088691447,"[45, 0, 209]",209,a,0.028951231273822486,1,colour,0.5,3.9
60,18,0,2,6,40,290,441.03991275525186,442.0238903091522,"[41, 0, 213]",213,a,0.47396775893867016,1,colour,0.5,3.9
60,18,0,2,6,41,291,442.54623300023377,443.408182467334,"[59, 0, 195]",195,a,0.34068512672092766,0,colour,0.5,3.9
60,18,0,2,6,42,292,443.92351942439564,444.5199335345533,"[17, 0, 237]",237,a,0.07469724060501903,1,colour,0.5,3.9
60,18,0,2,6,43,293,445.03314451046754,445.5838429373689,"[7, 0, 247]",247,a,0.028798812767490745,1,colour,0.5,3.9
60,18,0,2,6,44,294,446.09594759962056,447.9359121849993,"[32, 0, 222]",222,a,1.3182705588405952,1,colour,0.5,3.9
60,18,0,2,6,45,295,448.4554223349551,449.0479196460219,"[4, 0, 250]",250,a,0.07022314926143736,1,colour,0.5,3.9
60,18,0,2,6,46,296,449.5678933528252,450.7758712564828,"[1, 0, 253]",253,a,0.6862141663441435,1,colour,0.5,3.9
60,18,0,2,6,47,297,451.28724730352405,451.8559248037636,"[28, 0, 226]",226,a,0.046748347696848214,1,colour,0.5,3.9
60,18,0,2,6,48,298,452.3656589065213,452.9198491728166,"[25, 0, 229]",229,a,0.03280974132940173,1,colour,0.5,3.9
60,18,0,2,6,49,299,453.42800513422117,454.5519161990378,"[62, 0, 192]",192,a,0.6026034012902528,0,colour,0.5,3.9
60,18,0,2,6,50,300,455.06889825104736,455.92789741733577,"[87, 0, 167]",167,l,0.34149605582933873,1,colour,0.5,3.9
60,18,0,2,7,1,301,460.4904317065375,461.69588899530936,"[2, 0, 252]",252,a,0.6825541547732428,1,colour,0.5,3.8
60,18,0,2,7,2,302,462.20215134485625,462.8639277560869,"[74, 0, 180]",180,l,0.1389540156815201,1,colour,0.5,3.8
60,18,0,2,7,3,303,463.3754428307293,465.5918817296624,"[28, 0, 226]",226,l,1.7053298795362934,0,colour,0.5,3.8
60,18,0,2,7,4,304,466.0995245096274,466.7918716472341,"[83, 0, 171]",171,l,0.17065941262990236,1,colour,0.5,3.8
60,18,0,2,7,5,305,467.3026777988998,467.895854100585,"[35, 0, 219]",219,a,0.07035666308365762,1,colour,0.5,3.8
60,18,0,2,7,6,306,468.41284639260266,469.08809982275125,"[39, 0, 215]",215,a,0.1529859637375921,1,colour,0.5,3.8
60,18,0,2,7,7,307,469.6004522141302,470.83190019312315,"[34, 0, 220]",220,a,0.7094664449105039,1,colour,0.5,3.8
60,18,0,2,7,8,308,471.33827478880994,472.2638729327591,"[16, 0, 238]",238,a,0.4036016436293721,1,colour,0.5,3.8
60,18,0,2,7,9,309,472.77589725039434,473.711935859872,"[48, 0, 206]",206,a,0.41446706920396537,1,colour,0.5,3.8
60,18,0,2,7,10,310,474.22903212730307,474.98391532630194,"[1, 0, 253]",253,a,0.2329048156971112,1,colour,0.5,3.8
60,18,0,2,7,11,311,475.4947084811283,476.06390861514956,"[91, 0, 163]",163,l,0.04739858757238835,1,colour,0.5,3.8
60,18,0,2,7,12,312,476.5729239487555,477.15198244398925,"[76, 0, 178]",178,l,0.055232186103239655,1,colour,0.5,3.8
60,18,0,2,7,13,313,477.66833867458627,478.27989380341023,"[22, 0, 232]",232,a,0.08954681316390634,1,colour,0.5,3.8
60,18,0,2,7,14,314,478.7933792900294,479.37586109526455,"[79, 0, 175]",175,l,0.06076532951556146,1,colour,0.5,3.8
60,18,0,2,7,15,315,479.8901819293387,480.5359933960717,"[14, 0, 240]",240,a,0.12295244354754686,1,colour,0.5,3.8
60,18,0,2,7,16,316,481.0465136155253,481.67990593391005,"[15, 0, 239]",239,a,0.11172979953698814,1,colour,0.5,3.8
60,18,0,2,7,17,317,482.1872864124598,482.8478879807517,"[85, 0, 169]",169,l,0.13850581890437752,1,colour,0.5,3.8
60,18,0,2,7,18,318,483.35921519086696,483.87993208528496,"[43, 0, 211]",211,a,0.008512982982210815,1,colour,0.5,3.8
60,18,0,2,7,19,319,484.39690901723225,486.6158728634473,"[13, 0, 241]",241,a,1.6970279981615022,1,colour,0.5,3.8
60,18,0,2,7,20,320,487.1317714449251,487.67188525851816,"[55, 0, 199]",199,a,0.017693534959107637,0,colour,0.5,3.8
60,18,0,2,7,21,321,488.1787391648395,488.7598661396187,"[27, 0, 227]",227,a,0.06471993797458708,1,colour,0.5,3.8
60,18,0,2,7,22,322,489.267264341237,489.9358617727412,"[81, 0, 173]",173,l,0.14509210688993335,1,colour,0.5,3.8
60,18,0,2,7,23,323,490.45602058712393,491.1038599673193,"[41, 0, 213]",213,a,0.13297346304170787,1,colour,0.5,3.8
60,18,0,2,7,24,324,491.62119726848323,492.29588237870485,"[54, 0, 200]",200,a,0.15252988995052874,0,colour,0.5,3.8
60,18,0,2,7,25,325,492.8089889853727,493.35187390004285,"[21, 0, 233]",233,a,0.02133227896410972,1,colour,0.5,3.8
60,18,0,2,7,26,326,493.8714265853632,494.6718635970028,"[53, 0, 201]",201,a,0.2783377175219357,0,colour,0.5,3.8
60,18,0,2,7,27,327,495.17771555890795,495.95191178796813,"[71, 0, 183]",183,a,0.25295433786232024,0,colour,0.5,3.8
60,18,0,2,7,28,328,496.459076045081,497.05590763210785,"[86, 0, 168]",168,l,0.08689819823484868,1,colour,0.5,3.8
60,18,0,2,7,29,329,497.5722634688718,498.31186622788664,"[62, 0, 192]",192,a,0.21730969264172018,0,colour,0.5,3.8
60,18,0,2,7,30,330,498.8223159488989,499.3599185999483,"[7, 0, 247]",247,a,0.015656956937164068,1,colour,0.5,3.8
60,18,0,2,7,31,331,499.86940851807594,500.903875957476,"[49, 0, 205]",205,a,0.5122976468410343,1,colour,0.5,3.8
60,18,0,2,7,32,332,501.41633508109953,502.1119019102771,"[3, 0, 251]",251,a,0.17373613803647459,1,colour,0.5,3.8
60,18,0,2,7,33,333,502.6195309057366,503.6718793507898,"[93, 0, 161]",161,l,0.5302605724427849,1,colour,0.5,3.8
60,18,0,2,7,34,334,504.1821849241387,504.86392814991996,"[57, 0, 197]",197,a,0.1602331253234297,0,colour,0.5,3.8
60,18,0,2,7,35,335,505.3697513610823,507.607910083374,"[69, 0, 185]",185,a,1.714939329889603,0,colour,0.5,3.8
60,18,0,2,7,36,336,508.12116083770525,508.85586415149737,"[75, 0, 179]",179,l,0.21357957634609193,1,colour,0.5,3.8
60,18,0,2,7,37,337,509.3700731333811,509.9758564479416,"[89, 0, 165]",165,l,0.08259030990302563,1,colour,0.5,3.8
60,18,0,2,7,38,338,510.4713368671946,511.07986450125463,"[26, 0, 228]",228,a,0.08660557062830776,1,colour,0.5,3.8
60,18,0,2,7,39,339,511.59630068263505,512.1838694039034,"[40, 0, 214]",214,a,0.059680677484720945,1,colour,0.5,3.8
60,18,0,2,7,40,340,512.6964202936506,513.2638989265542,"[50, 0, 204]",204,a,0.04585352947469801,1,colour,0.5,3.8
60,18,0,2,7,41,341,513.7752028997056,514.4238965319237,"[30, 0, 224]",224,a,0.13918756635393947,1,colour,0.5,3.8
60,18,0,2,7,42,342,514.9222406061599,515.4638943579048,"[11, 0, 243]",243,a,0.019162974669598043,1,colour,0.5,3.8
60,18,0,2,7,43,343,515.9590494604781,516.9358704373008,"[88, 0, 166]",166,l,0.45469332579523325,1,colour,0.5,3.8
60,18,0,2,7,44,344,517.4449003431946,518.2800371634075,"[64, 0, 190]",190,a,0.3134305845014751,0,colour,0.5,3.8
60,18,0,2,7,45,345,518.7902600290254,519.7678702734411,"[67, 0, 187]",187,a,0.45530181797221303,0,colour,0.5,3.8
60,18,0,2,7,46,346,520.2746946413536,521.0558903028723,"[98, 0, 156]",156,l,0.25913811509963125,1,colour,0.5,3.8
60,18,0,2,7,47,347,521.5717707674485,522.1118861564901,"[29, 0, 225]",225,a,0.029532548040151596,1,colour,0.5,3.8
60,18,0,2,7,48,348,522.6234480987769,523.1518686224008,"[8, 0, 246]",246,a,0.005600097356364131,1,colour,0.5,3.8
60,18,0,2,7,49,349,523.6715536401607,524.5758596773958,"[78, 0, 176]",176,l,0.38400228740647435,1,colour,0.5,3.8
60,18,0,2,7,50,350,525.0915223450866,525.6958956907038,"[96, 0, 158]",158,l,0.082823860575445,1,colour,0.5,3.8
60,18,0,2,8,1,351,545.1880788307171,548.5118498438969,"[41, 0, 213]",213,a,2.8112114587565884,1,colour,0.5,3.8
60,18,0,2,8,2,352,549.0225776202278,549.5998807434225,"[21, 0, 233]",233,a,0.055059287580661476,1,colour,0.5,3.8
60,18,0,2,8,3,353,550.1190584873548,551.8718944744905,"[49, 0, 205]",205,a,1.2312624774640426,1,colour,0.5,3.8
60,18,0,2,8,4,354,552.3842571058776,553.3359018662013,"[50, 0, 204]",204,a,0.4296490476699546,1,colour,0.5,3.8
60,18,0,2,8,5,355,553.8530367305502,554.6318496232852,"[57, 0, 197]",197,a,0.2568884663050994,0,colour,0.5,3.8
60,18,0,2,8,6,356,555.150086469017,556.0799928950146,"[36, 0, 218]",218,a,0.4083179503213614,1,colour,0.5,3.8
60,18,0,2,8,7,357,556.5792881074594,557.1198505117791,"[64, 0, 190]",190,a,0.019055060809478164,0,colour,0.5,3.8
60,18,0,2,8,8,358,557.6287839254364,558.5918919696705,"[46, 0, 208]",208,a,0.4412793223746121,1,colour,0.5,3.8
60,18,0,2,8,9,359,559.0978034023428,560.0318755384069,"[51, 0, 203]",203,a,0.4212955724215135,0,colour,0.5,3.8
60,18,0,2,8,10,360,560.5418699732982,561.1278617348289,"[89, 0, 165]",165,l,0.06408781500067562,1,colour,0.5,3.8
60,18,0,2,8,11,361,561.6355931302533,562.2718479218893,"[68, 0, 186]",186,a,0.11450365744531155,0,colour,0.5,3.8
60,18,0,2,8,12,362,562.7763816809747,563.3281084400369,"[38, 0, 216]",216,a,0.030042972532100976,1,colour,0.5,3.8
60,18,0,2,8,13,363,563.8388842656277,564.4081415074179,"[97, 0, 157]",157,l,0.047460421454161406,1,colour,0.5,3.8
60,18,0,2,8,14,364,564.917094613309,566.0718914812896,"[6, 0, 248]",248,a,0.6329500292195007,1,colour,0.5,3.8
60,18,0,2,8,15,365,566.589107084088,567.1519186409423,"[10, 0, 244]",244,a,0.040986379608511925,1,colour,0.5,3.8
60,18,0,2,8,16,366,567.6673631179146,568.895894272835,"[58, 0, 196]",196,a,0.7064133500680327,0,colour,0.5,3.8
60,18,0,2,8,17,367,569.4018313055858,570.1758617254673,"[63, 0, 191]",191,a,0.25242422113660723,0,colour,0.5,3.8
60,18,0,2,8,18,368,570.683184308582,571.4238417873858,"[90, 0, 164]",164,l,0.21823601855430752,1,colour,0.5,3.8
60,18,0,2,8,19,369,571.9333202840062,572.7521109165391,"[42, 0, 212]",212,a,0.29697727074380964,1,colour,0.5,3.8
60,18,0,2,8,20,370,573.2615390009014,574.2158890898572,"[70, 0, 184]",184,a,0.43231617333367467,0,colour,0.5,3.8
60,18,0,2,8,21,371,574.7243018390145,575.3918937813723,"[48, 0, 206]",206,a,0.14539930678438395,1,colour,0.5,3.8
60,18,0,2,8,22,372,575.8962747281184,576.4478313457221,"[62, 0, 192]",192,a,0.041540521080605686,0,colour,0.5,3.8
60,18,0,2,8,23,373,576.9632037488045,578.0878709981916,"[12, 0, 242]",242,a,0.6169362477958202,1,colour,0.5,3.8
60,18,0,2,8,24,374,578.6061283238232,579.5038614638615,"[76, 0, 178]",178,l,0.37541683681774884,1,colour,0.5,3.8
60,18,0,2,8,25,375,580.0142706187908,581.095881827292,"[71, 0, 183]",183,l,0.5578014409402385,1,colour,0.5,3.8
60,18,0,2,8,26,376,581.6107071782462,582.1679312408669,"[33, 0, 221]",221,a,0.0340113656129688,1,colour,0.5,3.8
60,18,0,2,8,27,377,582.6747189810267,583.3758445536951,"[67, 0, 187]",187,a,0.17944769386667758,0,colour,0.5,3.8
60,18,0,2,8,28,378,583.8948832700262,584.6958870261442,"[7, 0, 247]",247,a,0.278543699067086,1,colour,0.5,3.8
60,18,0,2,8,29,379,585.2075454606675,585.8479872299358,"[24, 0, 230]",230,a,0.11857760115526617,1,colour,0.5,3.8
60,18,0,2,8,30,380,586.3639196822187,587.0878847826971,"[40, 0, 214]",214,a,0.20211865555029362,1,colour,0.5,3.8
60,18,0,2,8,31,381,587.5983872790821,588.1838847638573,"[44, 0, 210]",210,a,0.06387750129215419,1,colour,0.5,3.8
60,18,0,2,8,32,382,588.6923298083711,589.2959292463493,"[17, 0, 237]",237,a,0.08198930078651756,1,colour,0.5,3.8
60,18,0,2,8,33,383,589.8016898360802,590.3758457353106,"[4, 0, 250]",250,a,0.05235120200086385,1,colour,0.5,3.8
60,18,0,2,8,34,384,590.8955319344532,591.551887448295,"[59, 0, 195]",195,a,0.13417429977562279,0,colour,0.5,3.8
60,18,0,2,8,35,385,592.06747292215,592.6238600618672,"[23, 0, 231]",231,a,0.03441899630706757,1,colour,0.5,3.8
60,18,0,2,8,36,386,593.1330821645679,594.1201206902042,"[53, 0, 201]",201,a,0.47455065115354955,0,colour,0.5,3.8
60,18,0,2,8,37,387,594.6400727354921,595.1919558515074,"[35, 0, 219]",219,a,0.030486837145872414,1,colour,0.5,3.8
60,18,0,2,8,38,388,595.6975841087988,596.3038845432457,"[85, 0, 169]",169,l,0.0842180757317692,1,colour,0.5,3.8
60,18,0,2,8,39,389,596.8236120963702,597.9359169111121,"[29, 0, 225]",225,a,0.5905005113454536,1,colour,0.5,3.8
60,18,0,2,8,40,390,598.4486710255733,599.087835158105,"[45, 0, 209]",209,a,0.11742638912983239,1,colour,0.5,3.8
60,18,0,2,8,41,391,599.6049865640234,600.3038372817682,"[73, 0, 181]",181,a,0.17669195285998285,0,colour,0.5,3.8
60,18,0,2,8,42,392,600.8239062993089,601.3601663290756,"[22, 0, 232]",232,a,0.014419098617509007,1,colour,0.5,3.8
60,18,0,2,8,43,393,601.8709090716438,602.5278431453044,"[5, 0, 249]",249,a,0.13498641026671976,1,colour,0.5,3.8
60,18,0,2,8,44,394,603.0427425393136,603.8078657363076,"[69, 0, 185]",185,a,0.2431034598266706,0,colour,0.5,3.8
60,18,0,2,8,45,395,604.3241455608513,605.367846721434,"[84, 0, 170]",170,l,0.5218129679560661,1,colour,0.5,3.8
60,18,0,2,8,46,396,605.8807422266109,606.4877527655335,"[98, 0, 156]",156,l,0.08547444466967136,1,colour,0.5,3.8
60,18,0,2,8,47,397,607.0058990266407,607.6878525661305,"[56, 0, 198]",198,a,0.15981171000748873,0,colour,0.5,3.8
60,18,0,2,8,48,398,608.1810640381882,608.8398885731585,"[86, 0, 168]",168,l,0.13988034171052277,1,colour,0.5,3.8
60,18,0,2,8,49,399,609.3508235125337,610.1119393256959,"[11, 0, 243]",243,a,0.23832098685670644,1,colour,0.5,3.8
60,18,0,2,8,50,400,610.6175116569502,611.5518768144539,"[55, 0, 199]",199,a,0.41258251562248915,0,colour,0.5,3.8
60,18,0,2,9,1,401,619.6961702014087,620.6238537603058,"[12, 0, 242]",242,a,0.4052861232776195,1,colour,0.5,3.8
60,18,0,2,9,2,402,621.1343601951376,622.183887520805,"[39, 0, 215]",215,a,0.5274544192943722,1,colour,0.5,3.8
60,18,0,2,9,3,403,622.6971382751362,623.6558376062894,"[78, 0, 176]",176,l,0.4368930585915223,1,colour,0.5,3.8
60,18,0,2,9,4,404,624.1660864658188,624.8559700960759,"[99, 0, 155]",155,l,0.17054756020661443,1,colour,0.5,3.8
60,18,0,2,9,5,405,625.3662870910484,626.0238509245683,"[34, 0, 220]",220,a,0.13590722240041941,1,colour,0.5,3.8
60,18,0,2,9,6,406,626.5383537155576,627.2398242974887,"[89, 0, 165]",165,l,0.1796367400093004,1,colour,0.5,3.8
60,18,0,2,9,7,407,627.7591398875229,628.3838522321312,"[9, 0, 245]",245,a,0.10083680471871048,1,colour,0.5,3.8
60,18,0,2,9,8,408,628.9018228378845,629.5758214743109,"[5, 0, 249]",249,a,0.152599994558841,1,colour,0.5,3.8
60,18,0,2,9,9,409,630.0894089670619,630.7759409672581,"[30, 0, 224]",224,a,0.16528341360390186,1,colour,0.5,3.8
60,18,0,2,9,10,410,631.2925539854914,631.9998263139278,"[72, 0, 182]",182,l,0.18595836334861815,1,colour,0.5,3.8
60,18,0,2,9,11,411,632.5114701762795,633.0638967998093,"[0, 0, 254]",254,a,0.0305565478047356,1,colour,0.5,3.8
60,18,0,2,9,12,412,633.5646772057517,634.2238770759432,"[21, 0, 233]",233,a,0.14512834057677537,1,colour,0.5,3.8
60,18,0,2,9,13,413,634.7298404963221,635.2958366925595,"[79, 0, 175]",175,l,0.04445261892396957,1,colour,0.5,3.8
60,18,0,2,9,14,414,635.808156394749,636.6239809725666,"[77, 0, 177]",177,l,0.29350788064766675,1,colour,0.5,3.8
60,18,0,2,9,15,415,637.1362349024275,639.3518368784571,"[23, 0, 231]",231,a,1.6939772664336488,1,colour,0.5,3.8
60,18,0,2,9,16,416,639.8732174035395,640.5599195451941,"[40, 0, 214]",214,a,0.16406327846925706,1,colour,0.5,3.8
60,18,0,2,9,17,417,641.0763769942569,641.8558255545795,"[90, 0, 164]",164,l,0.2577340538846329,1,colour,0.5,3.8
60,18,0,2,9,18,418,642.3733897111379,643.0878560319543,"[42, 0, 212]",212,a,0.19213505135849118,1,colour,0.5,3.8
60,18,0,2,9,19,419,643.5961096673273,646.3598457383923,"[97, 0, 157]",157,l,2.252272590296343,1,colour,0.5,3.8
60,18,0,2,9,20,420,646.8671214538626,648.0638597782236,"[85, 0, 169]",169,l,0.6746354856295511,1,colour,0.5,3.8
60,18,0,2,9,21,421,648.566258103936,649.2078684144653,"[44, 0, 210]",210,a,0.12299970502499491,1,colour,0.5,3.8
60,18,0,2,9,22,422,649.7196465783054,651.0158314307919,"[25, 0, 229]",229,a,0.7739260506350547,1,colour,0.5,3.8
60,18,0,2,9,23,423,651.5204979160335,652.7358769751154,"[71, 0, 183]",183,a,0.6922762452159077,0,colour,0.5,3.8
60,18,0,2,9,24,424,653.2400775405113,654.2558621035423,"[69, 0, 185]",185,a,0.49381917668506503,0,colour,0.5,3.8
60,18,0,2,9,25,425,654.771539737354,655.5920156373177,"[8, 0, 246]",246,a,0.29816904896870255,1,colour,0.5,3.8
60,18,0,2,9,26,426,656.0997990204487,656.9438765402883,"[64, 0, 190]",190,a,0.32161155506037176,0,colour,0.5,3.8
60,18,0,2,9,27,427,657.4529844278004,658.1038583918707,"[2, 0, 252]",252,a,0.12934535299427807,1,colour,0.5,3.8
60,18,0,2,9,28,428,658.6092373447027,659.3998309613671,"[47, 0, 207]",207,a,0.26918552245479077,1,colour,0.5,3.8
60,18,0,2,9,29,429,659.906319378526,660.4798518194584,"[60, 0, 194]",194,a,0.05179745447821915,0,colour,0.5,3.8
60,18,0,2,9,30,430,660.9770332599292,661.5678748420905,"[52, 0, 202]",202,a,0.06884153722785413,0,colour,0.5,3.8
60,18,0,2,9,31,431,662.0864854475949,663.0878497303929,"[18, 0, 236]",236,a,0.47921654558740556,1,colour,0.5,3.8
60,18,0,2,9,32,432,663.6020843122387,664.2638603296364,"[1, 0, 253]",253,a,0.13924428028985858,1,colour,0.5,3.8
60,18,0,2,9,33,433,664.7741907152813,665.3358963524224,"[56, 0, 198]",198,a,0.04012661369051784,0,colour,0.5,3.8
60,18,0,2,9,34,434,665.852269518422,666.4878721009009,"[4, 0, 250]",250,a,0.11415628518443555,1,colour,0.5,3.8
60,18,0,2,9,35,435,666.9931187214097,667.5438234498724,"[41, 0, 213]",213,a,0.028423083596862853,1,colour,0.5,3.8
60,18,0,2,9,36,436,668.0575476072263,668.6318598632934,"[57, 0, 197]",197,a,0.06315991363953799,0,colour,0.5,3.8
60,18,0,2,9,37,437,669.1405550000491,669.7198722520843,"[37, 0, 217]",217,a,0.05562800134066492,1,colour,0.5,3.8
60,18,0,2,9,38,438,670.2310340468539,670.895878519048,"[6, 0, 248]",248,a,0.1528256683377549,1,colour,0.5,3.8
60,18,0,2,9,39,439,671.4088346764911,672.0321535937255,"[24, 0, 230]",230,a,0.10127948771696538,1,colour,0.5,3.8
60,18,0,2,9,40,440,672.5495444580447,673.3278272339376,"[65, 0, 189]",189,a,0.2562677649548277,0,colour,0.5,3.8
60,18,0,2,9,41,441,673.8464862825349,674.5918947266182,"[86, 0, 168]",168,l,0.22372426372021437,1,colour,0.5,3.8
60,18,0,2,9,42,442,675.1029399428517,676.0238414722262,"[82, 0, 172]",172,l,0.3990476013859734,1,colour,0.5,3.8
60,18,0,2,9,43,443,676.5406041520182,677.5918521912536,"[31, 0, 223]",223,a,0.5290077482350171,1,colour,0.5,3.8
60,18,0,2,9,44,444,678.1031392290024,678.7358419228112,"[61, 0, 193]",193,a,0.11120992270298302,0,colour,0.5,3.8
60,18,0,2,9,45,445,679.2314306498738,680.1038568165386,"[70, 0, 184]",184,a,0.35040879249572754,0,colour,0.5,3.8
60,18,0,2,9,46,446,680.6222047267947,681.3278807969764,"[87, 0, 167]",167,l,0.18367760069668293,1,colour,0.5,3.8
60,18,0,2,9,47,447,681.8410220621154,682.503901636228,"[53, 0, 201]",201,a,0.14114970760419965,0,colour,0.5,3.8
60,18,0,2,9,48,448,683.0134057328105,683.639860452502,"[32, 0, 222]",222,a,0.10456810251343995,1,colour,0.5,3.8
60,18,0,2,9,49,449,684.1537378159119,684.8078413178446,"[74, 0, 180]",180,a,0.13241498928982764,0,colour,0.5,3.8
60,18,0,2,9,50,450,685.3257800220745,685.9758804724552,"[50, 0, 204]",204,a,0.1320691923610866,1,colour,0.5,3.8
60,18,0,2,10,1,451,704.1161995587172,706.1358473579166,"[70, 0, 184]",184,a,1.497270449763164,0,colour,0.5,3.8
60,18,0,2,10,2,452,706.6484080939554,707.3919630981982,"[8, 0, 246]",246,a,0.221677839406766,1,colour,0.5,3.8
60,18,0,2,10,3,453,707.8863718623761,709.9598091895459,"[32, 0, 222]",222,a,1.5514967530034482,1,colour,0.5,3.8
60,18,0,2,10,4,454,710.4643791824346,711.2878522510873,"[86, 0, 168]",168,l,0.301010254654102,1,colour,0.5,3.8
60,18,0,2,10,5,455,711.8081961731659,712.4958392131375,"[49, 0, 205]",205,a,0.1661766564939171,1,colour,0.5,3.8
60,18,0,2,10,6,456,713.0001630523475,713.7198655568063,"[80, 0, 174]",174,l,0.2075100145302713,1,colour,0.5,3.8
60,18,0,2,10,7,457,714.2254028356401,714.9278974173358,"[21, 0, 233]",233,a,0.18426443135831505,1,colour,0.5,3.8
60,18,0,2,10,8,458,715.4404183748411,716.1438247101614,"[10, 0, 244]",244,a,0.18143937352579087,1,colour,0.5,3.8
60,18,0,2,10,9,459,716.6594149102457,717.6078187110834,"[75, 0, 179]",179,l,0.42693899280857295,1,colour,0.5,3.8
60,18,0,2,10,10,460,718.1283276547911,719.0158621508162,"[35, 0, 219]",219,a,0.36441632208880037,1,colour,0.5,3.8
60,18,0,2,10,11,461,719.5356200300157,720.1358154563932,"[42, 0, 212]",212,a,0.07883065519854426,1,colour,0.5,3.8
60,18,0,2,10,12,462,720.6452002176084,721.6079801879823,"[87, 0, 167]",167,l,0.44003437482751906,1,colour,0.5,3.8
60,18,0,2,10,13,463,722.1149270420428,722.7758543210803,"[95, 0, 159]",159,l,0.138902815640904,1,colour,0.5,3.8
60,18,0,2,10,14,464,723.2870031188941,723.8799131806009,"[25, 0, 229]",229,a,0.07130189368035644,1,colour,0.5,3.8
60,18,0,2,10,15,465,724.3963926851284,725.0158432461321,"[52, 0, 202]",202,l,0.1041478686966002,1,colour,0.5,3.8
60,18,0,2,10,16,466,725.5302184310276,726.7598570812261,"[3, 0, 251]",251,a,0.7077161929337308,1,colour,0.5,3.8
60,18,0,2,10,17,467,727.252941734856,727.8398078347091,"[68, 0, 186]",186,a,0.06531149486545473,0,colour,0.5,3.8
60,18,0,2,10,18,468,728.3469236486126,728.9758217894705,"[38, 0, 216]",216,a,0.10662791749928147,1,colour,0.5,3.8
60,18,0,2,10,19,469,729.4875400887104,730.2318418251816,"[54, 0, 200]",200,a,0.2256485956022516,0,colour,0.5,3.8
60,18,0,2,10,20,470,730.7502759876661,731.4078532120911,"[77, 0, 177]",177,a,0.13582569640129805,0,colour,0.5,3.8
60,18,0,2,10,21,471,731.9222433631076,732.6398588771699,"[24, 0, 230]",230,a,0.1952460416359827,1,colour,0.5,3.8
60,18,0,2,10,22,472,733.1569295445224,734.2318363112863,"[93, 0, 161]",161,l,0.5533383771544322,1,colour,0.5,3.8
60,18,0,2,10,23,473,734.7505599507131,735.3758366768016,"[65, 0, 189]",189,a,0.11613536172080785,0,colour,0.5,3.8
60,18,0,2,10,24,474,735.894465793157,736.4238406057702,"[6, 0, 248]",248,a,0.00686001090798527,1,colour,0.5,3.8
60,18,0,2,10,25,475,736.9422322330065,737.4638549733208,"[30, 0, 224]",224,a,0.010956404032185674,1,colour,0.5,3.8
60,18,0,2,10,26,476,737.9781084597344,738.5998555372935,"[90, 0, 164]",164,l,0.10035513096954674,1,colour,0.5,3.8
60,18,0,2,10,27,477,739.1189493919956,739.6558175201062,"[12, 0, 242]",242,a,0.014757018652744591,1,colour,0.5,3.8
60,18,0,2,10,28,478,740.1657316104975,741.1118002980947,"[4, 0, 250]",250,a,0.4239225258352235,1,colour,0.5,3.8
60,18,0,2,10,29,479,741.6189968504477,742.5440652713878,"[78, 0, 176]",176,l,0.4027725976193324,1,colour,0.5,3.8
60,18,0,2,10,30,480,743.0571703026071,744.047832212178,"[1, 0, 253]",253,a,0.4691218768712133,1,colour,0.5,3.8
60,18,0,2,10,31,481,744.5571897979826,745.4078811751679,"[41, 0, 213]",213,a,0.3290064091561362,1,colour,0.5,3.8
60,18,0,2,10,32,482,745.9166444472503,746.9758572356077,"[13, 0, 241]",241,a,0.5374986757524312,1,colour,0.5,3.8
60,18,0,2,10,33,483,747.5172927966341,748.0718359489692,"[88, 0, 166]",166,l,0.039215647615492344,1,colour,0.5,3.8
60,18,0,2,10,34,484,748.577974630869,749.1599649162963,"[16, 0, 238]",238,a,0.060803926549851894,1,colour,0.5,3.8
60,18,0,2,10,35,485,749.6718218493043,750.2559211804764,"[63, 0, 191]",191,a,0.06249431392643601,0,colour,0.5,3.8
60,18,0,2,10,36,486,750.7656084154733,751.3439103323035,"[85, 0, 169]",169,l,0.05683829030022025,1,colour,0.5,3.8
60,18,0,2,10,37,487,751.8594552400755,753.2239365467103,"[94, 0, 160]",160,l,0.8430113785434514,1,colour,0.5,3.8
60,18,0,2,10,38,488,753.7347679046215,754.6958610322326,"[11, 0, 243]",243,a,0.45135311724152416,1,colour,0.5,3.8
60,18,0,2,10,39,489,755.2068262977991,756.5998504173476,"[36, 0, 218]",218,a,0.8828473339090124,1,colour,0.5,3.8
60,18,0,2,10,40,490,757.1166308202082,757.799858845654,"[83, 0, 171]",171,l,0.16090975294355303,1,colour,0.5,3.8
60,18,0,2,10,41,491,758.3041909555905,759.0158259168966,"[17, 0, 237]",237,a,0.18983302102424204,1,colour,0.5,3.8
60,18,0,2,10,42,492,759.5232520815916,760.5038508300204,"[66, 0, 188]",188,l,0.4585199343273416,1,colour,0.5,3.8
60,18,0,2,10,43,493,761.0234247831395,762.0798522919649,"[72, 0, 182]",182,l,0.5344731500372291,1,colour,0.5,3.8
60,18,0,2,10,44,494,762.5859102354152,763.1198186102556,"[50, 0, 204]",204,a,0.012342742178589106,1,colour,0.5,3.8
60,18,0,2,10,45,495,763.6330358877312,764.6158059095033,"[39, 0, 215]",215,a,0.46115397685207427,1,colour,0.5,3.8
60,18,0,2,10,46,496,765.1331877153134,765.8241201577475,"[19, 0, 235]",235,a,0.16942824970465153,1,colour,0.5,3.8
60,18,0,2,10,47,497,766.3363776322221,766.9198342065793,"[96, 0, 158]",158,l,0.06142147711943835,1,colour,0.5,3.8
60,18,0,2,10,48,498,767.4301768015139,768.1199158902746,"[55, 0, 199]",199,a,0.16763428086414933,0,colour,0.5,3.8
60,18,0,2,10,49,499,768.6334190999623,769.2238050021697,"[26, 0, 228]",228,a,0.0680097343865782,1,colour,0.5,3.8
60,18,0,2,10,50,500,769.7427866107319,770.4637935333885,"[99, 0, 155]",155,l,0.19877135788556188,1,colour,0.5,3.8
60,18,0,2,11,1,501,799.1593887194758,800.1358079733327,"[63, 0, 191]",191,a,0.4542719105957076,0,colour,0.5,3.7
60,18,0,2,11,2,502,800.6446803407744,801.775794062647,"[49, 0, 205]",205,a,0.6098139352397993,1,colour,0.5,3.7
60,18,0,2,11,3,503,802.2730117370375,802.8717936498579,"[34, 0, 220]",220,a,0.07440855144523084,1,colour,0.5,3.7
60,18,0,2,11,4,504,803.3878903359873,804.1598030455643,"[81, 0, 173]",173,l,0.24952039401978254,1,colour,0.5,3.7
60,18,0,2,11,5,505,804.6700042496668,805.5118297577137,"[68, 0, 186]",186,a,0.32036660762969404,0,colour,0.5,3.7
60,18,0,2,11,6,506,806.0295049789129,806.7598247857532,"[14, 0, 240]",240,a,0.208118112757802,1,colour,0.5,3.7
60,18,0,2,11,7,507,807.2639867542312,807.7917869703379,"[18, 0, 236]",236,a,0.006023875786922872,1,colour,0.5,3.7
60,18,0,2,11,8,508,808.3109182403423,809.0561147951521,"[83, 0, 171]",171,l,0.22311931604053825,1,colour,0.5,3.7
60,18,0,2,11,9,509,809.5610825726762,810.2317886559758,"[37, 0, 217]",217,a,0.16059152537491173,1,colour,0.5,3.7
60,18,0,2,11,10,510,810.7370266118087,811.2798209418543,"[53, 0, 201]",201,a,0.021423257305286825,0,colour,0.5,3.7
60,18,0,2,11,11,511,811.7839391933521,812.3757961107185,"[93, 0, 161]",161,l,0.06944687874056399,1,colour,0.5,3.7
60,18,0,2,11,12,512,812.8934228887083,814.7678383719176,"[45, 0, 209]",209,a,1.3624490608926862,1,colour,0.5,3.7
60,18,0,2,11,13,513,815.2748785674339,816.0237985430285,"[55, 0, 199]",199,a,0.22736182599328458,0,colour,0.5,3.7
60,18,0,2,11,14,514,816.5406159674749,817.1118085688213,"[8, 0, 246]",246,a,0.04903107963036746,1,colour,0.5,3.7
60,18,0,2,11,15,515,817.6187959889648,818.207994051394,"[62, 0, 192]",192,a,0.06755326665006578,0,colour,0.5,3.7
60,18,0,2,11,16,516,818.7126565981889,819.3918642428471,"[98, 0, 156]",156,l,0.15778615965973586,1,colour,0.5,3.7
60,18,0,2,11,17,517,819.9021414592862,820.4318281981396,"[29, 0, 225]",225,a,0.007721352390944958,1,colour,0.5,3.7
60,18,0,2,11,18,518,820.9491072100354,822.6479213001439,"[67, 0, 187]",187,a,1.1768896635621786,0,colour,0.5,3.7
60,18,0,2,11,19,519,823.152343600872,823.6957909276243,"[99, 0, 155]",155,l,0.02208925096783787,1,colour,0.5,3.7
60,18,0,2,11,20,520,824.2149147146847,824.7518111997051,"[80, 0, 174]",174,l,0.015026015462353826,1,colour,0.5,3.7
60,18,0,2,11,21,521,825.2619517515413,826.4158455304569,"[86, 0, 168]",168,l,0.6325451554730535,1,colour,0.5,3.7
60,18,0,2,11,22,522,826.9339197176741,831.031828276813,"[92, 0, 162]",162,l,3.5762771541485563,1,colour,0.5,3.7
60,18,0,2,11,23,523,831.5417104656808,832.5758175358642,"[10, 0, 244]",244,a,0.5124110744800419,1,colour,0.5,3.7
60,18,0,2,11,24,524,833.0886000072351,833.7118275521789,"[46, 0, 208]",208,a,0.10105184465646744,1,colour,0.5,3.7
60,18,0,2,11,25,525,834.2294184903149,834.7918417148758,"[33, 0, 221]",221,a,0.040845382725819945,1,colour,0.5,3.7
60,18,0,2,11,26,526,835.3076375025557,836.1678083608858,"[88, 0, 166]",166,l,0.338885250268504,1,colour,0.5,3.7
60,18,0,2,11,27,527,836.6826388317859,837.2718428019434,"[1, 0, 253]",253,a,0.06772222672589123,1,colour,0.5,3.7
60,18,0,2,11,28,528,837.7840376548702,838.3438012369443,"[97, 0, 157]",157,l,0.037370478734374046,1,colour,0.5,3.7
60,18,0,2,11,29,529,838.862337405677,839.4398130334448,"[9, 0, 245]",245,a,0.055872185970656574,1,colour,0.5,3.7
60,18,0,2,11,30,530,839.9562011655653,840.5117939177435,"[91, 0, 163]",163,l,0.04439826821908355,1,colour,0.5,3.7
60,18,0,2,11,31,531,841.0241179522127,841.9358373542782,"[25, 0, 229]",229,a,0.3885299420217052,1,colour,0.5,3.7
60,18,0,2,11,32,532,842.4478624595795,843.1038253088482,"[66, 0, 188]",188,a,0.14587349747307599,0,colour,0.5,3.7
60,18,0,2,11,33,533,843.6199649241753,844.2558266574051,"[47, 0, 207]",207,a,0.12314188352320343,1,colour,0.5,3.7
60,18,0,2,11,34,534,844.7670565875014,845.8478426884394,"[76, 0, 178]",178,a,0.5586970468284562,0,colour,0.5,3.7
60,18,0,2,11,35,535,846.360904396628,846.935816874262,"[17, 0, 237]",237,a,0.0652910148492083,1,colour,0.5,3.7
60,18,0,2,11,36,536,847.4430977096781,848.5037744239671,"[5, 0, 249]",249,a,0.5490986242657527,1,colour,0.5,3.7
60,18,0,2,11,37,537,849.0117232223274,849.7278314875439,"[74, 0, 180]",180,a,0.19216301455162466,0,colour,0.5,3.7
60,18,0,2,11,38,538,850.2362119412282,850.8078279271722,"[70, 0, 184]",184,a,0.05010155320633203,0,colour,0.5,3.7
60,18,0,2,11,39,539,851.3143120120512,851.8958084144397,"[60, 0, 194]",194,a,0.06477547029498965,0,colour,0.5,3.7
60,18,0,2,11,40,540,852.4031022468116,853.0558272874914,"[28, 0, 226]",226,a,0.12980536522809416,1,colour,0.5,3.7
60,18,0,2,11,41,541,853.5751550868154,854.1837957546813,"[40, 0, 214]",214,a,0.08670324448030442,1,colour,0.5,3.7
60,18,0,2,11,42,542,854.7001807360211,855.2638280342799,"[48, 0, 206]",206,a,0.04184653947595507,1,colour,0.5,3.7
60,18,0,2,11,43,543,855.7784450405743,860.4158671919722,"[44, 0, 210]",210,a,4.113259103847668,1,colour,0.5,3.7
60,18,0,2,11,44,544,860.9212646555388,861.4638148010708,"[57, 0, 197]",197,a,0.02050205133855343,0,colour,0.5,3.7
60,18,0,2,11,45,545,861.983793233987,862.7678761811694,"[23, 0, 231]",231,a,0.26218608987983316,1,colour,0.5,3.7
60,18,0,2,11,46,546,863.2682891287841,864.0718312228564,"[69, 0, 185]",185,a,0.2812399693066254,0,colour,0.5,3.7
60,18,0,2,11,47,547,864.5808690056438,865.151928093168,"[50, 0, 204]",204,a,0.04944540560245514,1,colour,0.5,3.7
60,18,0,2,11,48,548,865.6618878697045,866.2077987038065,"[36, 0, 218]",218,a,0.024107712204568088,1,colour,0.5,3.7
60,18,0,2,11,49,549,866.7244558327366,868.5038173531648,"[35, 0, 219]",219,a,1.2567025710595772,1,colour,0.5,3.7
60,18,0,2,11,50,550,869.0224492263515,869.6958125891397,"[12, 0, 242]",242,a,0.15083398867864162,1,colour,0.5,3.7
60,18,0,2,12,1,551,874.3602435229113,874.935768825002,"[26, 0, 228]",228,a,0.052723386557772756,1,colour,0.5,3.7
60,18,0,2,12,2,552,875.4548548028106,876.3917850798462,"[24, 0, 230]",230,a,0.4146903798682615,1,colour,0.5,3.7
60,18,0,2,12,3,553,876.9080719935009,877.8718078284292,"[35, 0, 219]",219,a,0.4419776115100831,1,colour,0.5,3.7
60,18,0,2,12,4,554,878.3769004550995,879.183829231537,"[83, 0, 171]",171,l,0.2851457407232374,1,colour,0.5,3.7
60,18,0,2,12,5,555,879.6897875318537,880.231823314447,"[28, 0, 226]",226,a,0.020253140712156892,1,colour,0.5,3.7
60,18,0,2,12,6,556,880.7365157934837,881.3038199525326,"[97, 0, 157]",157,l,0.04898224270436913,1,colour,0.5,3.7
60,18,0,2,12,7,557,881.8143693165621,882.7838009534171,"[9, 0, 245]",245,a,0.44764348107855767,1,colour,0.5,3.7
60,18,0,2,12,8,558,883.292312163976,884.1598022577818,"[63, 0, 191]",191,a,0.34430693520698696,0,colour,0.5,3.7
60,18,0,2,12,9,559,884.6688837575493,885.7598173026927,"[41, 0, 213]",213,a,0.5657850947463885,1,colour,0.5,3.7
60,18,0,2,12,10,560,886.2604811303318,887.3118540185969,"[81, 0, 173]",173,l,0.5397384782554582,1,colour,0.5,3.7
60,18,0,2,12,11,561,887.8283559723059,889.2878108972218,"[80, 0, 174]",174,a,0.950032354448922,0,colour,0.5,3.7
60,18,0,2,12,12,562,889.8004334670259,890.4717909718165,"[56, 0, 198]",198,a,0.14901717682369053,0,colour,0.5,3.7
60,18,0,2,12,13,563,890.9887442730833,891.7197852121899,"[29, 0, 225]",225,a,0.20892313425429165,1,colour,0.5,3.7
60,18,0,2,12,14,564,892.2387199529912,893.3517904046457,"[51, 0, 203]",203,a,0.5910448067588732,0,colour,0.5,3.7
60,18,0,2,12,15,565,893.8673995092977,894.3917772029527,"[23, 0, 231]",231,a,0.002571027260273695,1,colour,0.5,3.7
60,18,0,2,12,16,566,894.8984621493146,895.471848079469,"[27, 0, 227]",227,a,0.05862477619666606,1,colour,0.5,3.7
60,18,0,2,12,17,567,895.9745063434821,896.5998165465426,"[22, 0, 232]",232,a,0.10330109961796552,1,colour,0.5,3.7
60,18,0,2,12,18,568,897.1077287172666,897.6957637523301,"[42, 0, 212]",212,a,0.06525438721291721,1,colour,0.5,3.7
60,18,0,2,12,19,569,898.1909255501814,899.5517822913826,"[90, 0, 164]",164,a,0.8385920317377895,0,colour,0.5,3.7
60,18,0,2,12,20,570,900.0660676793195,900.7278192782542,"[37, 0, 217]",217,a,0.13777523441240191,1,colour,0.5,3.7
60,18,0,2,12,21,571,901.2402575281449,901.8397731762379,"[13, 0, 241]",241,a,0.07718752941582352,1,colour,0.5,3.7
60,18,0,2,12,22,572,902.3492788481526,903.4797738378402,"[50, 0, 204]",204,a,0.6087670923443511,1,colour,0.5,3.7
60,18,0,2,12,23,573,903.983705012477,904.7597869766178,"[88, 0, 166]",166,l,0.25449073140043765,1,colour,0.5,3.7
60,18,0,2,12,24,574,905.2539578577271,905.7837785041193,"[84, 0, 170]",170,l,0.020201940555125475,1,colour,0.5,3.7
60,18,0,2,12,25,575,906.3040487770922,906.999782597064,"[49, 0, 205]",205,a,0.1731615166645497,1,colour,0.5,3.7
60,18,0,2,12,26,576,907.5085423245328,908.6158208757406,"[91, 0, 163]",163,a,0.5850449556019157,0,colour,0.5,3.7
60,18,0,2,12,27,577,909.1255364676472,909.7917932717828,"[59, 0, 195]",195,a,0.14430323312990367,0,colour,0.5,3.7
60,18,0,2,12,28,578,910.297394747613,916.3838124537142,"[78, 0, 176]",176,a,5.576682028011419,0,colour,0.5,3.7
60,18,0,2,12,29,579,916.8959631959442,917.6958102261415,"[86, 0, 168]",168,l,0.2777402530191466,1,colour,0.5,3.7
60,18,0,2,12,30,580,918.2012478619581,918.9118127435213,"[54, 0, 200]",200,a,0.20117539423517883,0,colour,0.5,3.7
60,18,0,2,12,31,581,919.413744755555,919.9837944156025,"[12, 0, 242]",242,a,0.048485996667295694,1,colour,0.5,3.7
60,18,0,2,12,32,582,920.4834515725961,921.1441338793375,"[44, 0, 210]",210,a,0.1373719359980896,1,colour,0.5,3.7
60,18,0,2,12,33,583,921.6587717595976,922.2717856941745,"[5, 0, 249]",249,a,0.09407879994250834,1,colour,0.5,3.7
60,18,0,2,12,34,584,922.7822031198302,923.4317817242118,"[11, 0, 243]",243,a,0.130938854184933,1,colour,0.5,3.7
60,18,0,2,12,35,585,923.9431754943216,924.7997698363615,"[68, 0, 186]",186,a,0.34382998768705875,0,colour,0.5,3.7
60,18,0,2,12,36,586,925.3096205175389,925.8958064451581,"[52, 0, 202]",202,a,0.061772000160999596,0,colour,0.5,3.7
60,18,0,2,12,37,587,926.3957109375624,927.1677835485898,"[92, 0, 162]",162,l,0.2501139199594036,1,colour,0.5,3.7
60,18,0,2,12,38,588,927.6646353399847,928.7197832429083,"[48, 0, 206]",206,a,0.5305532001657411,1,colour,0.5,3.7
60,18,0,2,12,39,589,929.2326125819236,932.9837849632604,"[77, 0, 177]",177,l,3.238285540835932,1,colour,0.5,3.7
60,18,0,2,12,40,590,933.4900055651087,934.9437052173307,"[89, 0, 165]",165,a,0.9316960626747459,0,colour,0.5,3.7
60,18,0,2,12,41,591,935.4589275650214,936.0878532750066,"[40, 0, 214]",214,a,0.10710210807155818,1,colour,0.5,3.7
60,18,0,2,12,42,592,936.5996495558647,937.3039018724812,"[72, 0, 182]",182,l,0.18270637630484998,1,colour,0.5,3.7
60,18,0,2,12,43,593,937.8190871987026,938.4158089028206,"[45, 0, 209]",209,a,0.07501034834422171,1,colour,0.5,3.7
60,18,0,2,12,44,594,938.928551201825,939.5918289542897,"[64, 0, 190]",190,a,0.14211423660162836,0,colour,0.5,3.7
60,18,0,2,12,45,595,940.1004957341356,940.7598373888759,"[76, 0, 178]",178,a,0.1377476651687175,0,colour,0.5,3.7
60,18,0,2,12,46,596,941.2725127340527,941.7998080394464,"[95, 0, 159]",159,l,0.005554411211051047,1,colour,0.5,3.7
60,18,0,2,12,47,597,942.3212106198771,943.0158026800491,"[20, 0, 234]",234,a,0.17270386754535139,1,colour,0.5,3.7
60,18,0,2,12,48,598,943.5204057560768,947.5197858422762,"[46, 0, 208]",208,a,3.475740853929892,1,colour,0.5,3.7
60,18,0,2,12,49,599,948.0378427002579,951.3757768122014,"[7, 0, 247]",247,a,2.8131653290474787,1,colour,0.5,3.7
60,18,0,2,12,50,600,951.8844388659345,952.455779159558,"[43, 0, 211]",211,a,0.0496391779743135,1,colour,0.5,3.7
60,18,0,2,13,1,601,993.5554115830455,994.4158120536013,"[72, 0, 182]",182,a,0.33744810591451824,0,colour,0.5,3.7
60,18,0,2,13,2,602,994.9313908320619,995.5598825236084,"[79, 0, 175]",175,a,0.10632820054888725,0,colour,0.5,3.7
60,18,0,2,13,3,603,996.0720698935911,996.7837800795678,"[90, 0, 164]",164,l,0.19014022103510797,1,colour,0.5,3.7
60,18,0,2,13,4,604,997.2793688066304,997.85576884076,"[88, 0, 166]",166,l,0.05315858649555594,1,colour,0.5,3.7
60,18,0,2,13,5,605,998.362796039437,998.9677814217284,"[34, 0, 220]",220,a,0.08619597065262496,1,colour,0.5,3.7
60,18,0,2,13,6,606,999.4861344520468,1000.1517937916797,"[4, 0, 250]",250,a,0.1426360827172175,1,colour,0.5,3.7
60,18,0,2,13,7,607,1000.6593400794081,1001.3758339198539,"[76, 0, 178]",178,l,0.19478090933989733,1,colour,0.5,3.7
60,18,0,2,13,8,608,1001.893882113276,1002.6797617862467,"[5, 0, 249]",249,a,0.26414941262919456,1,colour,0.5,3.7
60,18,0,2,13,9,609,1003.1806426229887,1003.72776020132,"[14, 0, 240]",240,a,0.0251344689168036,1,colour,0.5,3.7
60,18,0,2,13,10,610,1004.243329133722,1005.1758002854185,"[12, 0, 242]",242,a,0.41055302682798356,1,colour,0.5,3.7
60,18,0,2,13,11,611,1005.6809330844553,1006.3678179706912,"[61, 0, 193]",193,a,0.16480134602170438,0,colour,0.5,3.7
60,18,0,2,13,12,612,1006.8841738074552,1007.4477939303033,"[28, 0, 226]",226,a,0.04195524088572711,1,colour,0.5,3.7
60,18,0,2,13,13,613,1007.9623089305824,1009.3357766231056,"[54, 0, 200]",200,a,0.8506082755047828,0,colour,0.5,3.7
60,18,0,2,13,14,614,1009.8542930994881,1010.5198653992265,"[18, 0, 236]",236,a,0.14385858096648008,1,colour,0.5,3.7
60,18,0,2,13,15,615,1011.0148247602629,1011.7437826474197,"[24, 0, 230]",230,a,0.21493164997082204,1,colour,0.5,3.7
60,18,0,2,13,16,616,1012.2565481833881,1012.9037609543884,"[26, 0, 228]",228,a,0.12523675069678575,1,colour,0.5,3.7
60,18,0,2,13,17,617,1013.4004477242706,1014.4478179549333,"[51, 0, 203]",203,a,0.525513545726426,0,colour,0.5,3.7
60,18,0,2,13,18,618,1014.9514565019635,1015.7437672874657,"[91, 0, 163]",163,l,0.2704899406526238,1,colour,0.5,3.7
60,18,0,2,13,19,619,1016.2641238126671,1016.8637836084235,"[85, 0, 169]",169,l,0.07824224920477718,1,colour,0.5,3.7
60,18,0,2,13,20,620,1017.364313922124,1018.2957567417761,"[37, 0, 217]",217,a,0.41282276168931276,1,colour,0.5,3.7
60,18,0,2,13,21,621,1018.8144165781559,1019.5118069146993,"[31, 0, 223]",223,a,0.17863164492882788,1,colour,0.5,3.7
60,18,0,2,13,22,622,1020.0172799966531,1020.6317964540794,"[98, 0, 156]",156,l,0.09367195691447705,1,colour,0.5,3.7
60,18,0,2,13,23,623,1021.1416219291277,1021.6879171568435,"[69, 0, 185]",185,a,0.024286912055686116,0,colour,0.5,3.7
60,18,0,2,13,24,624,1022.2042580274865,1022.9757922509452,"[8, 0, 246]",246,a,0.24814193265046924,1,colour,0.5,3.7
60,18,0,2,13,25,625,1023.4866948949639,1024.375803199946,"[81, 0, 173]",173,a,0.36664273403584957,0,colour,0.5,3.7
60,18,0,2,13,26,626,1024.8899487724993,1025.5677755929064,"[58, 0, 196]",196,a,0.15574643085710704,0,colour,0.5,3.7
60,18,0,2,13,27,627,1026.0776211540215,1026.8557503300253,"[23, 0, 231]",231,a,0.2562051434069872,1,colour,0.5,3.7
60,18,0,2,13,28,628,1027.3621816395316,1029.3917669629445,"[42, 0, 212]",212,a,1.51905131933745,1,colour,0.5,3.7
60,18,0,2,13,29,629,1029.8977122663055,1030.4717578886775,"[11, 0, 243]",243,a,0.05166197137441486,1,colour,0.5,3.7
60,18,0,2,13,30,630,1030.9923373308266,1032.639884477132,"[63, 0, 191]",191,a,1.1336993214208633,0,colour,0.5,3.7
60,18,0,2,13,31,631,1033.1561071939068,1034.7597562565934,"[92, 0, 162]",162,l,1.0811925501329824,1,colour,0.5,3.7
60,18,0,2,13,32,632,1035.265541658504,1036.3197612663498,"[50, 0, 204]",204,a,0.5325271567562595,1,colour,0.5,3.7
60,18,0,2,13,33,633,1036.828277596971,1038.0717886874918,"[1, 0, 253]",253,a,0.7218166701495647,1,colour,0.5,3.7
60,18,0,2,13,34,634,1038.578324366128,1039.175931042293,"[82, 0, 172]",172,l,0.07583230501040816,1,colour,0.5,3.7
60,18,0,2,13,35,635,1039.6877875815844,1040.479772656341,"[0, 0, 254]",254,a,0.27014690067153424,1,colour,0.5,3.7
60,18,0,2,13,36,636,1040.9849105753237,1041.9278013189323,"[78, 0, 176]",176,l,0.42065242177341133,1,colour,0.5,3.7
60,18,0,2,13,37,637,1042.4274423281895,1042.9605523770442,"[20, 0, 234]",234,a,0.01119428698439151,1,colour,0.5,3.7
60,18,0,2,13,38,638,1043.474388780538,1044.4159132719506,"[56, 0, 198]",198,a,0.4290055031888187,0,colour,0.5,3.7
60,18,0,2,13,39,639,1044.9348484067013,1045.5277777669253,"[36, 0, 218]",218,a,0.0800976580940187,1,colour,0.5,3.7
60,18,0,2,13,40,640,1046.0351543070283,1046.6557793170214,"[10, 0, 244]",244,a,0.10946006455924362,1,colour,0.5,3.7
60,18,0,2,13,41,641,1047.1649021706544,1050.5838019774528,"[46, 0, 208]",208,a,2.897056118818,1,colour,0.5,3.7
60,18,0,2,13,42,642,1051.0954816796584,1051.6878045168705,"[40, 0, 214]",214,a,0.07062762917485088,1,colour,0.5,3.7
60,18,0,2,13,43,643,1052.2048149259062,1052.8477765223943,"[33, 0, 221]",221,a,0.12988295289687812,1,colour,0.5,3.7
60,18,0,2,13,44,644,1053.3678431768203,1054.255797512713,"[84, 0, 170]",170,l,0.36266803927719593,1,colour,0.5,3.7
60,18,0,2,13,45,645,1054.7616030008066,1055.7039088829188,"[43, 0, 211]",211,a,0.4198702434077859,1,colour,0.5,3.7
60,18,0,2,13,46,646,1056.214976154617,1056.9117548482027,"[16, 0, 238]",238,a,0.18302381632383913,1,colour,0.5,3.7
60,18,0,2,13,47,647,1057.4252576640574,1064.3597468830412,"[77, 0, 177]",177,a,6.411835389677435,0,colour,0.5,3.7
60,18,0,2,13,48,648,1064.864334992948,1065.5357748115202,"[55, 0, 199]",199,a,0.15878613491076976,0,colour,0.5,3.7
60,18,0,2,13,49,649,1066.033199648955,1066.583764955867,"[67, 0, 187]",187,a,0.031193790724501014,0,colour,0.5,3.7
60,18,0,2,13,50,650,1067.0941752922954,1067.631748798769,"[73, 0, 181]",181,l,0.015582126216031611,1,colour,0.5,3.7
60,18,0,2,14,1,651,1072.073860317818,1073.031788104563,"[12, 0, 242]",242,a,0.4355358650209382,1,colour,0.5,3.6
60,18,0,2,14,2,652,1073.543655277579,1074.4398130334448,"[11, 0, 243]",243,a,0.37474651087541133,1,colour,0.5,3.6
60,18,0,2,14,3,653,1074.9499693391845,1075.8637792761438,"[66, 0, 188]",188,a,0.392078495118767,0,colour,0.5,3.6
60,18,0,2,14,4,654,1076.3718450468732,1077.1037583550205,"[85, 0, 169]",169,l,0.20978171867318451,1,colour,0.5,3.6
60,18,0,2,14,5,655,1077.6218991022324,1078.3198006509338,"[29, 0, 225]",225,a,0.17566519614774734,1,colour,0.5,3.6
60,18,0,2,14,6,656,1078.8251256467775,1079.519784660777,"[33, 0, 221]",221,a,0.1729992520995438,1,colour,0.5,3.6
60,18,0,2,14,7,657,1080.028442775947,1082.5597600374604,"[44, 0, 210]",210,a,2.00817663827911,1,colour,0.5,3.6
60,18,0,2,14,8,658,1083.0691806387622,1083.6238931448897,"[82, 0, 172]",172,l,0.03112526156473905,1,colour,0.5,3.6
60,18,0,2,14,9,659,1084.1325937954243,1084.7837607810507,"[60, 0, 194]",194,a,0.12669358728453517,0,colour,0.5,3.6
60,18,0,2,14,10,660,1085.2817511814646,1085.9117808419978,"[72, 0, 182]",182,a,0.10837383707985282,0,colour,0.5,3.6
60,18,0,2,14,11,661,1086.4167297149543,1087.2237557714107,"[40, 0, 214]",214,a,0.28431748249568045,1,colour,0.5,3.6
60,18,0,2,14,12,662,1087.7304300839314,1088.327793757082,"[98, 0, 156]",156,l,0.07306711177807301,1,colour,0.5,3.6
60,18,0,2,14,13,663,1088.829813202843,1089.5038575254148,"[56, 0, 198]",198,a,0.16189515579026192,0,colour,0.5,3.6
60,18,0,2,14,14,664,1090.023280635476,1091.4397795564728,"[2, 0, 252]",252,a,0.9055458647198975,1,colour,0.5,3.6
60,18,0,2,14,15,665,1091.949399049976,1092.6558092493797,"[8, 0, 246]",246,a,0.19553118606563658,1,colour,0.5,3.6
60,18,0,2,14,16,666,1093.174551399541,1097.0557678167243,"[38, 0, 216]",216,a,3.3589773076819256,1,colour,0.5,3.6
60,18,0,2,14,17,667,1097.5654916794738,1098.367757318425,"[70, 0, 184]",184,a,0.280311280163005,0,colour,0.5,3.6
60,18,0,2,14,18,668,1098.8744812555378,1100.5677637774497,"[1, 0, 253]",253,a,1.1825204809429124,1,colour,0.5,3.6
60,18,0,2,14,19,669,1101.0823193438118,1101.6157558910782,"[45, 0, 209]",209,a,0.009126988938078284,1,colour,0.5,3.6
60,18,0,2,14,20,670,1102.1368382746587,1102.7118815090507,"[7, 0, 247]",247,a,0.06584712548647076,1,colour,0.5,3.6
60,18,0,2,14,21,671,1103.2181946648052,1104.3757968983846,"[41, 0, 213]",213,a,0.6478381985798478,1,colour,0.5,3.6
60,18,0,2,14,22,672,1104.8938931409502,1105.7837741718395,"[74, 0, 180]",180,a,0.38045294664334506,0,colour,0.5,3.6
60,18,0,2,14,23,673,1106.3034335895209,1107.0797790366923,"[28, 0, 226]",226,a,0.25451436219736934,1,colour,0.5,3.6
60,18,0,2,14,24,674,1107.5838106420124,1108.6237990156515,"[71, 0, 183]",183,a,0.5301152432803065,0,colour,0.5,3.6
60,18,0,2,14,25,675,1109.1344582628226,1110.0477691967972,"[96, 0, 158]",158,l,0.4000932627823204,1,colour,0.5,3.6
60,18,0,2,14,26,676,1110.5628040737938,1111.351771893911,"[23, 0, 231]",231,a,0.26705520902760327,1,colour,0.5,3.6
60,18,0,2,14,27,677,1111.8616442364873,1118.4399240980856,"[68, 0, 186]",186,a,6.054637872381136,0,colour,0.5,3.6
60,18,0,2,14,28,678,1118.958107380662,1120.1357532286784,"[76, 0, 178]",178,l,0.6551834278507158,1,colour,0.5,3.6
60,18,0,2,14,29,679,1120.645648808335,1121.6478200816782,"[10, 0, 244]",244,a,0.479587942478247,1,colour,0.5,3.6
60,18,0,2,14,30,680,1122.1615391189698,1123.1758967777714,"[92, 0, 162]",162,l,0.4929794968338683,1,colour,0.5,3.6
60,18,0,2,14,31,681,1123.6927429528441,1124.3838719244814,"[35, 0, 219]",219,a,0.16859132680110633,1,colour,0.5,3.6
60,18,0,2,14,32,682,1124.8962570050498,1125.5358382207341,"[13, 0, 241]",241,a,0.11784977372735739,1,colour,0.5,3.6
60,18,0,2,14,33,683,1126.052370106685,1127.143792020972,"[39, 0, 215]",215,a,0.5695459309499711,1,colour,0.5,3.6
60,18,0,2,14,34,684,1127.6618122513173,1128.2957866741344,"[4, 0, 250]",250,a,0.111707350355573,1,colour,0.5,3.6
60,18,0,2,14,35,685,1128.8023963959422,1129.4397417473374,"[16, 0, 238]",238,a,0.11490695585962385,1,colour,0.5,3.6
60,18,0,2,14,36,686,1129.9588478112128,1130.5037771807984,"[54, 0, 200]",200,a,0.0225945555139333,0,colour,0.5,3.6
60,18,0,2,14,37,687,1131.0212747773621,1133.4157714874018,"[64, 0, 190]",190,a,1.8725254158489406,0,colour,0.5,3.6
60,18,0,2,14,38,688,1133.927868666593,1135.0317947999574,"[91, 0, 163]",163,a,0.5822159592062235,0,colour,0.5,3.6
60,18,0,2,14,39,689,1135.5372883619275,1136.111753824167,"[15, 0, 239]",239,a,0.052630832651630044,1,colour,0.5,3.6
60,18,0,2,14,40,690,1136.6312509772833,1140.4157955120318,"[80, 0, 174]",174,l,3.2628709882264957,1,colour,0.5,3.6
60,18,0,2,14,41,691,1140.928365306463,1142.1278404671466,"[51, 0, 203]",203,a,0.6771730358013883,0,colour,0.5,3.6
60,18,0,2,14,42,692,1142.6472690911032,1144.0397749091499,"[90, 0, 164]",164,l,0.8790825592586771,1,colour,0.5,3.6
60,18,0,2,14,43,693,1144.545008926536,1145.5037929347018,"[73, 0, 181]",181,a,0.43665084324311465,0,colour,0.5,3.6
60,18,0,2,14,44,694,1146.0225847094553,1148.3517825277522,"[46, 0, 208]",208,a,1.8072363702813163,1,colour,0.5,3.6
60,18,0,2,14,45,695,1148.866484998609,1150.6637665154412,"[83, 0, 171]",171,l,1.2754027764312923,1,colour,0.5,3.6
60,18,0,2,14,46,696,1151.1729563229019,1151.9357751265634,"[9, 0, 245]",245,a,0.23843283916357905,1,colour,0.5,3.6
60,18,0,2,14,47,697,1152.4412998023909,1153.1357504717307,"[27, 0, 227]",227,a,0.1700843971921131,1,colour,0.5,3.6
60,18,0,2,14,48,698,1153.6470497187693,1154.6317925156327,"[97, 0, 157]",157,l,0.46314644417725503,1,colour,0.5,3.6
60,18,0,2,14,49,699,1155.1437349133193,1155.7357769382652,"[95, 0, 159]",159,l,0.075350237544626,1,colour,0.5,3.6
60,18,0,2,14,50,700,1156.2354238552507,1156.8237499424722,"[50, 0, 204]",204,a,0.06620749470312148,1,colour,0.5,3.6
60,18,0,2,15,1,701,1264.696436047554,1265.2957429571543,"[22, 0, 232]",232,a,0.07625135721173137,1,colour,0.5,3.6
60,18,0,2,15,2,702,1265.806752333534,1267.3598323476035,"[42, 0, 212]",212,a,1.0311807937687263,1,colour,0.5,3.6
60,18,0,2,15,3,703,1267.8693518042564,1268.511728145415,"[61, 0, 193]",193,a,0.12045309622772038,0,colour,0.5,3.6
60,18,0,2,15,4,704,1269.0257319334196,1269.7437617735704,"[66, 0, 188]",188,a,0.1964323059655726,0,colour,0.5,3.6
60,18,0,2,15,5,705,1270.2602011057315,1270.911971857422,"[82, 0, 172]",172,l,0.1298762575024739,1,colour,0.5,3.6
60,18,0,2,15,6,706,1271.4165709948866,1272.0157030369155,"[39, 0, 215]",215,a,0.0770004524383694,1,colour,0.5,3.6
60,18,0,2,15,7,707,1272.5264052132843,1273.4877133809496,"[88, 0, 166]",166,l,0.4400879379827529,1,colour,0.5,3.6
60,18,0,2,15,8,708,1273.9948874841211,1274.8397562408354,"[50, 0, 204]",204,a,0.3235760593088344,1,colour,0.5,3.6
60,18,0,2,15,9,709,1275.354358281009,1276.0957242888398,"[89, 0, 165]",165,l,0.21889807377010584,1,colour,0.5,3.6
60,18,0,2,15,10,710,1276.6045273394557,1277.7117027030326,"[33, 0, 221]",221,a,0.5849973002914339,1,colour,0.5,3.6
60,18,0,2,15,11,711,1278.2296047795098,1278.9918820447056,"[10, 0, 244]",244,a,0.24041703576222062,1,colour,0.5,3.6
60,18,0,2,15,12,712,1279.5110038624844,1280.3917228521314,"[43, 0, 211]",211,a,0.3590525323525071,1,colour,0.5,3.6
60,18,0,2,15,13,713,1280.9017633671174,1281.4557511964813,"[75, 0, 179]",179,l,0.031866873730905354,1,colour,0.5,3.6
60,18,0,2,15,14,714,1281.9643321178155,1282.863701294642,"[65, 0, 189]",189,l,0.37769563030451536,1,colour,0.5,3.6
60,18,0,2,15,15,715,1283.3707659086213,1284.2237632544711,"[76, 0, 178]",178,l,0.33103629178367555,1,colour,0.5,3.6
60,18,0,2,15,16,716,1284.7301914131967,1285.5597312867176,"[80, 0, 174]",174,l,0.3072184502379969,1,colour,0.5,3.6
60,18,0,2,15,17,717,1286.0741742131067,1286.9037404743722,"[81, 0, 173]",173,l,0.30725389637518674,1,colour,0.5,3.6
60,18,0,2,15,18,718,1287.4178671423579,1288.199745733058,"[93, 0, 161]",161,l,0.2596390873659402,1,colour,0.5,3.6
60,18,0,2,15,19,719,1288.7149109730963,1289.7837087934604,"[21, 0, 233]",233,a,0.54702148004435,1,colour,0.5,3.6
60,18,0,2,15,20,720,1290.2933007177198,1291.1117357072653,"[83, 0, 171]",171,l,0.29609544936101884,1,colour,0.5,3.6
60,18,0,2,15,21,721,1291.6214229422621,1292.511899862322,"[49, 0, 205]",205,a,0.3684367028763518,1,colour,0.5,3.6
60,18,0,2,15,22,722,1293.0276696560904,1293.9837467601756,"[52, 0, 202]",202,a,0.434147163759917,0,colour,0.5,3.6
60,18,0,2,15,23,723,1294.496546954615,1295.519760636147,"[12, 0, 242]",242,a,0.501449944335036,1,colour,0.5,3.6
60,18,0,2,15,24,724,1296.027965828427,1296.85598112375,"[59, 0, 195]",195,a,0.30624210578389466,0,colour,0.5,3.6
60,18,0,2,15,25,725,1297.371850560652,1297.9436973403208,"[48, 0, 206]",206,a,0.04975693789310753,1,colour,0.5,3.6
60,18,0,2,15,26,726,1298.4500195544679,1299.8077137117507,"[84, 0, 170]",170,a,0.8359572015469894,0,colour,0.5,3.6
60,18,0,2,15,27,727,1300.3251715298975,1303.1277463380247,"[51, 0, 203]",203,a,2.280146258766763,0,colour,0.5,3.6
60,18,0,2,15,28,728,1303.6379833820974,1304.2237092974829,"[91, 0, 163]",163,l,0.06375068274792284,1,colour,0.5,3.6
60,18,0,2,15,29,729,1304.7318321759813,1305.967734947917,"[3, 0, 251]",251,a,0.7136274286312982,1,colour,0.5,3.6
60,18,0,2,15,30,730,1306.4819108466618,1307.5917241912102,"[67, 0, 187]",187,a,0.5875588750932366,0,colour,0.5,3.6
60,18,0,2,15,31,731,1308.1071351912105,1308.8717290591449,"[29, 0, 225]",225,a,0.24277538596652448,1,colour,0.5,3.6
60,18,0,2,15,32,732,1309.3884846497094,1309.9197109327652,"[15, 0, 239]",239,a,0.00921205966733396,1,colour,0.5,3.6
60,18,0,2,15,33,733,1310.4353507574415,1311.1519816563232,"[28, 0, 226]",226,a,0.19450246018823236,1,colour,0.5,3.6
60,18,0,2,15,34,734,1311.6698821573518,1312.4479668287095,"[57, 0, 197]",197,a,0.25624767877161503,0,colour,0.5,3.6
60,18,0,2,15,35,735,1312.9668346157996,1316.0397241029423,"[11, 0, 243]",243,a,2.5509260699618608,1,colour,0.5,3.6
60,18,0,2,15,36,736,1316.545426009572,1317.2637441450497,"[58, 0, 196]",196,a,0.1959868660196662,0,colour,0.5,3.6
60,18,0,2,15,37,737,1317.779732523486,1318.4956887640292,"[32, 0, 222]",222,a,0.19390735880006105,1,colour,0.5,3.6
60,18,0,2,15,38,738,1319.0142525018891,1320.0877437858144,"[31, 0, 223]",223,a,0.5512442975305021,1,colour,0.5,3.6
60,18,0,2,15,39,739,1320.6080892833415,1321.3197037647478,"[62, 0, 192]",192,a,0.18909416580572724,0,colour,0.5,3.6
60,18,0,2,15,40,740,1321.8270086249104,1324.2397289866349,"[71, 0, 183]",183,a,1.8904099661158398,0,colour,0.5,3.6
60,18,0,2,15,41,741,1324.749243717175,1331.0157475415617,"[35, 0, 219]",219,a,5.7447593855904415,1,colour,0.5,3.6
60,18,0,2,15,42,742,1331.5312093477696,1332.103750478127,"[37, 0, 217]",217,a,0.05098376842215657,1,colour,0.5,3.6
60,18,0,2,15,43,743,1332.609062870848,1333.9197140835458,"[5, 0, 249]",249,a,0.7887964969268069,1,colour,0.5,3.6
60,18,0,2,15,44,744,1334.437307778513,1334.9676935940515,"[45, 0, 209]",209,a,0.008057696861214936,1,colour,0.5,3.6
60,18,0,2,15,45,745,1335.4843164585764,1336.0316719199764,"[47, 0, 207]",207,a,0.02507657348178327,1,colour,0.5,3.6
60,18,0,2,15,46,746,1336.546878907713,1337.6397816833341,"[77, 0, 177]",177,l,0.5705273953499272,1,colour,0.5,3.6
60,18,0,2,15,47,747,1338.156412424636,1338.8396951947361,"[44, 0, 210]",210,a,0.16158834972884506,1,colour,0.5,3.6
60,18,0,2,15,48,748,1339.359759486164,1340.007707173936,"[8, 0, 246]",246,a,0.1260346828494221,1,colour,0.5,3.6
60,18,0,2,15,49,749,1340.516031701467,1341.1917215130525,"[46, 0, 208]",208,a,0.15330182830803096,1,colour,0.5,3.6
60,18,0,2,15,50,750,1341.703639098443,1342.375745304511,"[73, 0, 181]",181,l,0.15048582886811346,1,colour,0.5,3.6
60,18,0,2,16,1,751,1393.144312291639,1393.8239515916212,"[62, 0, 192]",192,a,0.1575124366208911,0,colour,0.5,3.6
60,18,0,2,16,2,752,1394.3331311590737,1394.9517109264852,"[77, 0, 177]",177,l,0.09684478095732629,1,colour,0.5,3.6
60,18,0,2,16,3,753,1395.4577326360159,1396.2717061373405,"[18, 0, 236]",236,a,0.29195297637488693,1,colour,0.5,3.6
60,18,0,2,16,4,754,1396.785911574494,1397.495678917854,"[76, 0, 178]",178,l,0.18844628904480487,1,colour,0.5,3.6
60,18,0,2,16,5,755,1398.0047655375674,1398.8719468560303,"[55, 0, 199]",199,a,0.34555897198151797,0,colour,0.5,3.6
60,18,0,2,16,6,756,1399.37996024522,1400.1916947315913,"[25, 0, 229]",229,a,0.28985692758578807,1,colour,0.5,3.6
60,18,0,2,16,7,757,1400.7081498175394,1401.4717429225566,"[93, 0, 161]",161,l,0.24152453092392534,1,colour,0.5,3.6
60,18,0,2,16,8,758,1401.9895126667107,1402.9038255451014,"[24, 0, 230]",230,a,0.39213757193647325,1,colour,0.5,3.6
60,18,0,2,16,9,759,1403.4115297651151,1404.1836972931633,"[9, 0, 245]",245,a,0.249729132396169,1,colour,0.5,3.6
60,18,0,2,16,10,760,1404.6929457836086,1405.3116933294805,"[16, 0, 238]",238,a,0.09677861479576677,1,colour,0.5,3.6
60,18,0,2,16,11,761,1405.8179863989353,1406.3443549845833,"[43, 0, 211]",211,a,0.004658805322833359,1,colour,0.5,3.6
60,18,0,2,16,12,762,1406.8648379343795,1407.8477395008085,"[79, 0, 175]",175,l,0.4605088570388034,1,colour,0.5,3.6
60,18,0,2,16,13,763,1408.3651654174319,1409.0397288291715,"[99, 0, 155]",155,l,0.1520848439540714,1,colour,0.5,3.6
60,18,0,2,16,14,764,1409.5526026727166,1410.383742742939,"[97, 0, 157]",157,l,0.3087532684439793,1,colour,0.5,3.6
60,18,0,2,16,15,765,1410.8964677127078,1411.5437230191892,"[13, 0, 241]",241,a,0.12517964304424822,1,colour,0.5,3.6
60,18,0,2,16,16,766,1412.0528852572897,1412.6477409186773,"[66, 0, 188]",188,a,0.07245940726716071,0,colour,0.5,3.6
60,18,0,2,16,17,767,1413.1623701342614,1415.0557185859652,"[17, 0, 237]",237,a,1.3709569238126278,1,colour,0.5,3.6
60,18,0,2,16,18,768,1415.5688913587946,1416.3676883953158,"[63, 0, 191]",191,a,0.2771652376977727,0,colour,0.5,3.6
60,18,0,2,16,19,769,1416.881297549582,1417.5036854146747,"[68, 0, 186]",186,a,0.10034213401377201,0,colour,0.5,3.6
60,18,0,2,16,20,770,1418.0221829864895,1418.767692255089,"[56, 0, 198]",198,a,0.22345290379598737,0,colour,0.5,3.6
60,18,0,2,16,21,771,1419.2878908480052,1419.9276993128005,"[80, 0, 174]",174,l,0.11760086310096085,1,colour,0.5,3.6
60,18,0,2,16,22,772,1420.4440807495266,1421.095752645866,"[6, 0, 248]",248,a,0.1290586331160739,1,colour,0.5,3.6
60,18,0,2,16,23,773,1421.6161213802407,1422.2156795636984,"[0, 0, 254]",254,a,0.07761839695740491,1,colour,0.5,3.6
60,18,0,2,16,24,774,1422.7256759678712,1423.2717085003387,"[58, 0, 196]",196,a,0.023753644549287856,0,colour,0.5,3.6
60,18,0,2,16,25,775,1423.7881470448337,1424.3837061153026,"[21, 0, 233]",233,a,0.0734692286932841,1,colour,0.5,3.6
60,18,0,2,16,26,776,1424.897639404866,1425.4717078702524,"[73, 0, 181]",181,a,0.05196090054232627,0,colour,0.5,3.6
60,18,0,2,16,27,777,1425.9913798909402,1426.51967714075,"[70, 0, 184]",184,l,0.0059391987742856145,1,colour,0.5,3.6
60,18,0,2,16,28,778,1427.0384153524647,1427.799672162626,"[27, 0, 227]",227,a,0.23892238992266357,1,colour,0.5,3.6
60,18,0,2,16,29,779,1428.3040688632755,1428.8638572576456,"[35, 0, 219]",219,a,0.03711526654660702,1,colour,0.5,3.6
60,18,0,2,16,30,780,1429.3822843309026,1430.0637085413327,"[30, 0, 224]",224,a,0.15971285465639085,1,colour,0.5,3.6
60,18,0,2,16,31,781,1430.5699842816684,1431.2156783821993,"[91, 0, 163]",163,l,0.12384411098901182,1,colour,0.5,3.6
60,18,0,2,16,32,782,1431.7263730755076,1432.3118355078623,"[11, 0, 243]",243,a,0.06334068905562162,1,colour,0.5,3.6
60,18,0,2,16,33,783,1432.820084023173,1433.4317064996576,"[41, 0, 213]",213,a,0.08930065936874598,1,colour,0.5,3.6
60,18,0,2,16,34,784,1433.9452341278084,1434.7597168720094,"[61, 0, 193]",193,a,0.29213808407075703,0,colour,0.5,3.6
60,18,0,2,16,35,785,1435.2734485123074,1435.943683161866,"[2, 0, 252]",252,a,0.14828383538406342,1,colour,0.5,3.6
60,18,0,2,16,36,786,1436.4610941123683,1438.1117057750234,"[14, 0, 240]",240,a,1.1281413655960932,1,colour,0.5,3.6
60,18,0,2,16,37,787,1438.6174726661993,1441.447718311916,"[95, 0, 159]",159,l,2.308495299308561,1,colour,0.5,3.6
60,18,0,2,16,38,788,1441.9614621615037,1443.2396966912784,"[4, 0, 250]",250,a,0.7565038756001741,1,colour,0.5,3.6
60,18,0,2,16,39,789,1443.7584916168125,1444.431728161173,"[19, 0, 235]",235,a,0.15113213018048555,1,colour,0.5,3.6
60,18,0,2,16,40,790,1444.9461580906063,1445.6397426925832,"[81, 0, 173]",173,l,0.1710449878592044,1,colour,0.5,3.6
60,18,0,2,16,41,791,1446.1492802660214,1446.7437728012446,"[1, 0, 253]",253,a,0.0730285148601979,1,colour,0.5,3.6
60,18,0,2,16,42,792,1447.258730484522,1447.9277193988673,"[74, 0, 180]",180,a,0.14712474634870887,0,colour,0.5,3.6
60,18,0,2,16,43,793,1448.4464264967246,1449.1996945330175,"[83, 0, 171]",171,l,0.23136999749112874,1,colour,0.5,3.6
60,18,0,2,16,44,794,1449.7121658659307,1450.2796807326376,"[45, 0, 209]",209,a,0.04603863705415279,1,colour,0.5,3.6
60,18,0,2,16,45,795,1450.7903742444469,1451.551652716007,"[28, 0, 226]",226,a,0.239004309871234,1,colour,0.5,3.6
60,18,0,2,16,46,796,1452.0718040474458,1452.8316402547061,"[71, 0, 183]",183,l,0.23781489464454353,1,colour,0.5,3.6
60,18,0,2,16,47,797,1453.3376127335941,1453.863683177624,"[78, 0, 176]",176,l,0.0039388545555993915,1,colour,0.5,3.6
60,18,0,2,16,48,798,1454.3843902258668,1455.2796515880618,"[40, 0, 214]",214,a,0.37289504043292254,1,colour,0.5,3.6
60,18,0,2,16,49,799,1455.79080708127,1456.599646405084,"[65, 0, 189]",189,a,0.2866159682162106,0,colour,0.5,3.6
60,18,0,2,16,50,800,1457.1190320997266,1457.7596570074093,"[10, 0, 244]",244,a,0.11835232132580131,1,colour,0.5,3.6
