id,age,condition,counterbalance,block,trialinblock,trial,tstart,tend,trialstim,trialintensity,response,RT,accuracy,trialtype,colourfreq,credits
73,20,0,1,Practice,1,NA,5.907844752073288e-06,0.909445334924385,"[54, 0, 200]",200,a,0.35482026264071465,0,colour,0.5,4
73,20,0,1,Practice,2,NA,1.4228445691987872,1.957403183914721,"[18, 0, 236]",236,a,0.012340773129835725,1,colour,0.5,4
73,20,0,1,Practice,3,NA,2.469764239853248,5.165405112085864,"[34, 0, 220]",220,a,2.1734364212024957,1,colour,0.5,4
73,20,0,1,Practice,4,NA,5.673179830657318,7.9494128345977515,"[28, 0, 226]",226,a,1.7540962945204228,1,colour,0.5,4
73,20,0,1,Practice,5,NA,8.45490088290535,9.349369432777166,"[50, 0, 204]",204,a,0.3724523573182523,1,colour,0.5,4
73,20,0,1,Practice,6,NA,9.860976273659617,10.437389304628596,"[23, 0, 231]",231,a,0.05421133688651025,1,colour,0.5,4
73,20,0,1,Practice,7,NA,10.954862088896334,11.653396548237652,"[71, 0, 183]",183,l,0.17633906682021916,1,colour,0.5,4
73,20,0,1,Practice,8,NA,12.17357347975485,12.72537546348758,"[81, 0, 173]",173,l,0.02975585893727839,1,colour,0.5,4
73,20,0,1,Practice,9,NA,13.23620012588799,13.861388630466536,"[72, 0, 182]",182,l,0.10279500740580261,1,colour,0.5,4
73,20,0,1,Practice,10,NA,14.37705051037483,14.92536892555654,"[30, 0, 224]",224,a,0.026133262552320957,1,colour,0.5,4
73,20,0,1,1,1,1,4.513108181999996,5.312052910914645,"[74, 0, 180]",180,l,0.2758801179006696,1,colour,0.5,4.0
73,20,0,1,1,2,2,5.826585634145886,7.072047050576657,"[17, 0, 237]",237,a,0.723435377702117,1,colour,0.5,4.0
73,20,0,1,1,3,3,7.592199563514441,8.520034359069541,"[97, 0, 157]",157,l,0.4055117969401181,1,colour,0.5,4.0
73,20,0,1,1,4,4,9.02978067100048,9.856038625352085,"[37, 0, 217]",217,a,0.3038873001933098,1,colour,0.5,4.0
73,20,0,1,1,5,5,10.373626806540415,11.128038965631276,"[21, 0, 233]",233,l,0.23214666196145117,0,colour,0.5,4.0
73,20,0,1,1,6,6,11.639408711111173,12.760036281077191,"[64, 0, 190]",190,l,0.5983171744737774,1,colour,0.5,4.0
73,20,0,1,1,7,7,13.280184461735189,14.23204426211305,"[95, 0, 159]",159,l,0.4295946969650686,1,colour,0.5,4.0
73,20,0,1,1,8,8,14.748962117126212,15.752045144326985,"[73, 0, 181]",181,l,0.481042810017243,1,colour,0.5,4.0
73,20,0,1,1,9,9,16.26481540640816,16.96800079406239,"[13, 0, 241]",241,a,0.18092028447426856,1,colour,0.5,4.0
73,20,0,1,1,10,10,17.483595326310024,18.392013904405758,"[78, 0, 176]",176,l,0.38632952398620546,1,colour,0.5,4.0
73,20,0,1,1,11,11,18.905623058555648,19.9120250265114,"[36, 0, 218]",218,a,0.4842538367956877,1,colour,0.5,4.0
73,20,0,1,1,12,12,20.42137591703795,21.40006766282022,"[1, 0, 253]",253,a,0.4565042301546782,1,colour,0.5,4.0
73,20,0,1,1,13,13,21.90587315079756,23.240019645076245,"[46, 0, 208]",208,a,0.8118546092882752,1,colour,0.5,4.0
73,20,0,1,1,14,14,23.74972893553786,24.75999492732808,"[11, 0, 243]",243,a,0.48806587303988636,1,colour,0.5,4.0
73,20,0,1,1,15,15,25.265455406159163,26.168057271512225,"[76, 0, 178]",178,l,0.3802398757543415,1,colour,0.5,4.0
73,20,0,1,1,16,16,26.687480381689966,27.600023315753788,"[23, 0, 231]",231,a,0.39027664926834404,1,colour,0.5,4.0
73,20,0,1,1,17,17,28.109384840121493,29.152028130134568,"[81, 0, 173]",173,l,0.5211465805768967,1,colour,0.5,4.0
73,20,0,1,1,18,18,29.672211362980306,30.656018775422126,"[40, 0, 214]",214,a,0.4615860260091722,1,colour,0.5,4.0
73,20,0,1,1,19,19,31.172312384471297,32.2080444637686,"[89, 0, 165]",165,l,0.5135764651931822,1,colour,0.5,4.0
73,20,0,1,1,20,20,32.71921807387844,33.73603805806488,"[77, 0, 177]",177,l,0.49449265329167247,1,colour,0.5,4.0
73,20,0,1,1,21,21,34.250629858346656,35.21605056663975,"[53, 0, 201]",201,a,0.44322334649041295,0,colour,0.5,4.0
73,20,0,1,1,22,22,35.73508179979399,36.54401485901326,"[90, 0, 164]",164,l,0.2866726820357144,1,colour,0.5,4.0
73,20,0,1,1,23,23,37.063304061535746,38.168050576234236,"[68, 0, 186]",186,l,0.5824475407134742,1,colour,0.5,4.0
73,20,0,1,1,24,24,38.672836002893746,39.560034942114726,"[27, 0, 227]",227,a,0.3649070542305708,1,colour,0.5,4.0
73,20,0,1,1,25,25,40.07917763362639,41.08801278262399,"[42, 0, 212]",212,a,0.48655980569310486,1,colour,0.5,4.0
73,20,0,1,1,26,26,41.59492576587945,42.67200656305067,"[48, 0, 206]",206,a,0.5547908814623952,1,colour,0.5,4.0
73,20,0,1,1,27,27,43.18886455358006,44.32003735238686,"[55, 0, 199]",199,a,0.6089868585113436,0,colour,0.5,4.0
73,20,0,1,1,28,28,44.82951703062281,45.73600221821107,"[98, 0, 156]",156,l,0.3841684905346483,1,colour,0.5,4.0
73,20,0,1,1,29,29,46.251502227503806,47.19203580217436,"[10, 0, 244]",244,a,0.41831336985342205,1,colour,0.5,4.0
73,20,0,1,1,30,30,47.704738322878256,48.53600836219266,"[22, 0, 232]",232,a,0.3089722469449043,1,colour,0.5,4.0
73,20,0,1,1,31,31,49.048579338239506,49.928010451141745,"[0, 0, 254]",254,a,0.3570584896951914,1,colour,0.5,4.0
73,20,0,1,1,32,32,50.439350264379755,51.37601430132054,"[15, 0, 239]",239,a,0.4143410383258015,1,colour,0.5,4.0
73,20,0,1,1,33,33,51.892609202768654,53.031987390713766,"[58, 0, 196]",196,a,0.6171965801622719,0,colour,0.5,4.0
73,20,0,1,1,34,34,53.54889736883342,54.50406153779477,"[72, 0, 182]",182,l,0.43283723178319633,1,colour,0.5,4.0
73,20,0,1,1,35,35,55.01783728878945,55.928020297316834,"[66, 0, 188]",188,l,0.3879049082752317,1,colour,0.5,4.0
73,20,0,1,1,36,36,56.43991188891232,57.384047186002135,"[5, 0, 249]",249,a,0.4219682614784688,1,colour,0.5,4.0
73,20,0,1,1,37,37,57.89309008885175,58.76006503193639,"[24, 0, 230]",230,a,0.3448910089209676,1,colour,0.5,4.0
73,20,0,1,1,38,38,59.26817570114508,60.12802399951033,"[38, 0, 216]",216,a,0.337638727389276,1,colour,0.5,4.0
73,20,0,1,1,39,39,60.64329951652326,61.52802746533416,"[82, 0, 172]",172,l,0.3625301932916045,1,colour,0.5,4.0
73,20,0,1,1,40,40,62.03400388266891,62.856025234563276,"[9, 0, 245]",245,a,0.299707411788404,1,colour,0.5,4.0
73,20,0,1,1,41,41,63.36229112860747,64.12800548877567,"[86, 0, 168]",168,l,0.24343783524818718,1,colour,0.5,4.0
73,20,0,1,1,42,42,64.64359568874352,65.6160063771531,"[57, 0, 197]",197,l,0.4503039112314582,1,colour,0.5,4.0
73,20,0,1,1,43,43,66.12819492863491,67.09603779041208,"[47, 0, 207]",207,a,0.44572190614417195,1,colour,0.5,4.0
73,20,0,1,1,44,44,67.61262599634938,68.52003908529878,"[94, 0, 160]",160,l,0.3852602317929268,1,colour,0.5,4.0
73,20,0,1,1,45,45,69.03468090388924,70.60800854489207,"[62, 0, 192]",192,l,1.0512055037543178,1,colour,0.5,4.0
73,20,0,1,1,46,46,71.11297159618698,72.00798168452457,"[19, 0, 235]",235,a,0.37279697274789214,1,colour,0.5,4.0
73,20,0,1,1,47,47,72.51923327636905,73.30402908474207,"[71, 0, 183]",183,l,0.26262759137898684,1,colour,0.5,4.0
73,20,0,1,1,48,48,73.81617667619139,74.71202093060128,"[84, 0, 170]",170,l,0.3735381909646094,1,colour,0.5,4.0
73,20,0,1,1,49,49,75.22265379014425,76.06398620293476,"[39, 0, 215]",215,a,0.3192311495076865,1,colour,0.5,4.0
73,20,0,1,1,50,50,76.58207141770981,77.55199930048548,"[43, 0, 211]",211,a,0.4476734132040292,1,colour,0.5,4.0
73,20,0,1,2,1,51,83.31620483612642,84.73598843347281,"[50, 0, 204]",204,l,0.8970683277584612,0,colour,0.5,4.0
73,20,0,1,2,2,52,85.25463409139775,86.04801928903908,"[14, 0, 240]",240,a,0.27109764516353607,1,colour,0.5,4.0
73,20,0,1,2,3,53,86.567175765289,87.4239969626069,"[5, 0, 249]",249,a,0.334467084845528,1,colour,0.5,4.0
73,20,0,1,2,4,54,87.94237716821954,88.76003706874326,"[73, 0, 181]",181,l,0.29542079102247953,1,colour,0.5,4.0
73,20,0,1,2,5,55,89.27054153452627,90.17603698698804,"[67, 0, 187]",187,l,0.38319805380888283,1,colour,0.5,4.0
73,20,0,1,2,6,56,90.69258541450836,91.47202215949073,"[21, 0, 233]",233,a,0.2572760109324008,1,colour,0.5,4.0
73,20,0,1,2,7,57,91.98963948525488,92.8560000283178,"[23, 0, 231]",231,a,0.34423407376743853,1,colour,0.5,4.0
73,20,0,1,2,8,58,93.36474360828288,94.3679952013772,"[78, 0, 176]",176,l,0.4810542312916368,1,colour,0.5,4.0
73,20,0,1,2,9,59,94.88037161738612,95.69601699523628,"[25, 0, 229]",229,a,0.2933783051557839,1,colour,0.5,4.0
73,20,0,1,2,10,60,96.20857970044017,97.08002361515537,"[64, 0, 190]",190,l,0.34910988830961287,1,colour,0.5,4.0
73,20,0,1,2,11,61,97.5993269958999,98.4879957686644,"[17, 0, 237]",237,a,0.3662737002596259,1,colour,0.5,4.0
73,20,0,1,2,12,62,99.00569895282388,99.83202937454917,"[22, 0, 232]",232,a,0.30401766300201416,1,colour,0.5,4.0
73,20,0,1,2,13,63,100.34954430046491,101.28799836803228,"[89, 0, 165]",165,l,0.4165579981636256,1,colour,0.5,4.0
73,20,0,1,2,14,64,101.80279339267872,102.69604692747816,"[63, 0, 191]",191,l,0.37099000671878457,1,colour,0.5,4.0
73,20,0,1,2,15,65,103.20913620502688,104.16799858841114,"[92, 0, 162]",162,l,0.4366083077620715,1,colour,0.5,4.0
73,20,0,1,2,16,66,104.678037134232,105.5040087623056,"[71, 0, 183]",183,l,0.30398812470957637,1,colour,0.5,4.0
73,20,0,1,2,17,67,106.02193171274848,106.71199178602546,"[88, 0, 166]",166,l,0.16783159784972668,1,colour,0.5,4.0
73,20,0,1,2,18,68,107.22519803559408,108.04802322760224,"[24, 0, 230]",230,a,0.30071132560260594,1,colour,0.5,4.0
73,20,0,1,2,19,69,108.55331671563908,109.85602050833404,"[48, 0, 206]",206,a,0.7804205724969506,1,colour,0.5,4.0
73,20,0,1,2,20,70,110.36594326328486,111.28800821420737,"[72, 0, 182]",182,l,0.39973525679670274,1,colour,0.5,4.0
73,20,0,1,2,21,71,111.80357675254345,112.73601639666595,"[29, 0, 225]",225,a,0.4101190085057169,1,colour,0.5,4.0
73,20,0,1,2,22,72,113.24119842634536,114.26402928959578,"[60, 0, 194]",194,a,0.5004862030036747,0,colour,0.5,4.0
73,20,0,1,2,23,73,114.77262793411501,115.65598096628673,"[47, 0, 207]",207,a,0.3611221935134381,1,colour,0.5,4.0
73,20,0,1,2,24,74,116.16336223250255,117.0159905445762,"[37, 0, 217]",217,a,0.3304270119406283,1,colour,0.5,4.0
73,20,0,1,2,25,75,117.52279679547064,118.48000699467957,"[94, 0, 160]",160,l,0.43493485590443015,1,colour,0.5,4.0
73,20,0,1,2,26,76,118.99163116468117,119.80001480854116,"[2, 0, 252]",252,a,0.28610121132805943,1,colour,0.5,4.0
73,20,0,1,2,27,77,120.31995385698974,121.23999522672966,"[84, 0, 170]",170,l,0.3979105679318309,1,colour,0.5,4.0
73,20,0,1,2,28,78,121.75746761704795,122.51198690221645,"[31, 0, 223]",223,a,0.23217620025388896,1,colour,0.5,4.0
73,20,0,1,2,29,79,123.02317154011689,123.93604569882154,"[32, 0, 222]",222,a,0.39051492628641427,1,colour,0.5,4.0
73,20,0,1,2,30,80,124.44524338305928,125.28798812790774,"[40, 0, 214]",214,a,0.32053635525517166,1,colour,0.5,4.0
73,20,0,1,2,31,81,125.80469054938294,126.63998254481703,"[36, 0, 218]",218,a,0.31297096610069275,1,colour,0.5,4.0
73,20,0,1,2,32,82,127.14855125686154,128.07201160420664,"[81, 0, 173]",173,l,0.4011873670388013,1,colour,0.5,4.0
73,20,0,1,2,33,83,128.58617962617427,129.57603021268733,"[82, 0, 172]",172,l,0.46762526175007224,1,colour,0.5,4.0
73,20,0,1,2,34,84,130.08631924446672,130.895999035798,"[13, 0, 241]",241,a,0.28746746317483485,1,colour,0.5,4.0
73,20,0,1,2,35,85,131.41451905691065,132.34402494155802,"[59, 0, 195]",195,a,0.40721636288799345,0,colour,0.5,4.0
73,20,0,1,2,36,86,132.85212970292196,133.64002153556794,"[35, 0, 219]",219,a,0.26562515390105546,1,colour,0.5,4.0
73,20,0,1,2,37,87,134.14904198911972,135.12799800559878,"[57, 0, 197]",197,a,0.45657591009512544,0,colour,0.5,4.0
73,20,0,1,2,38,88,135.63377356133424,136.44806095794775,"[20, 0, 234]",234,a,0.29230704391375184,1,colour,0.5,4.0
73,20,0,1,2,39,89,136.96255784132518,137.80799531168304,"[90, 0, 164]",164,l,0.32394627458415926,1,colour,0.5,4.0
73,20,0,1,2,40,90,138.32145519834012,139.09599604271352,"[10, 0, 244]",244,a,0.2524076795671135,1,colour,0.5,4.0
73,20,0,1,2,41,91,139.60262742592022,140.42400365811773,"[76, 0, 178]",178,l,0.29912963951937854,1,colour,0.5,4.0
73,20,0,1,2,42,92,140.9309304258786,141.66398076782934,"[18, 0, 236]",236,a,0.21074624778702855,1,colour,0.5,4.0
73,20,0,1,2,43,93,142.1810829427559,142.99198917089961,"[28, 0, 226]",226,a,0.2887510077562183,1,colour,0.5,4.0
73,20,0,1,2,44,94,143.50929811503738,144.28798773419112,"[95, 0, 159]",159,l,0.25648634950630367,1,colour,0.5,4.0
73,20,0,1,2,45,95,144.80620606895536,145.432028665673,"[19, 0, 235]",235,a,0.103515351889655,1,colour,0.5,4.0
73,20,0,1,2,46,96,145.94701943197288,146.7360416026786,"[93, 0, 161]",161,l,0.2667909380979836,1,colour,0.5,4.0
73,20,0,1,2,47,97,147.24390651192516,147.82401106250472,"[3, 0, 251]",251,a,0.05809426563791931,1,colour,0.5,4.0
73,20,0,1,2,48,98,148.33773876423948,149.0239903461188,"[68, 0, 186]",186,l,0.1640168046578765,1,colour,0.5,4.0
73,20,0,1,2,49,99,149.54098539496772,150.31201785849407,"[91, 0, 163]",163,l,0.24878902174532413,1,colour,0.5,4.0
73,20,0,1,2,50,100,150.8223135857843,152.03202362451702,"[62, 0, 192]",192,a,0.6873693170491606,0,colour,0.5,4.0
73,20,0,1,3,1,101,157.02517857961357,157.5919782218989,"[0, 0, 254]",254,a,0.04384452058002353,1,colour,0.5,4.0
73,20,0,1,3,2,102,158.1041644103825,159.39998219814152,"[52, 0, 202]",202,a,0.7736156999599189,0,colour,0.5,4.0
73,20,0,1,3,3,103,159.91674842266366,160.78398842411116,"[75, 0, 179]",179,l,0.34500719350762665,1,colour,0.5,4.0
73,20,0,1,3,4,104,161.2918541210238,162.0400009767618,"[81, 0, 173]",173,l,0.2258439431898296,1,colour,0.5,4.0
73,20,0,1,3,5,105,162.55762736103497,163.40798515058123,"[83, 0, 171]",171,l,0.3280659047886729,1,colour,0.5,4.0
73,20,0,1,3,6,106,163.91714423778467,164.67205539997667,"[84, 0, 170]",170,l,0.2326783542521298,1,colour,0.5,4.0
73,20,0,1,3,7,107,165.18280877638608,165.94401674950495,"[14, 0, 240]",240,a,0.23887906689196825,1,colour,0.5,4.0
73,20,0,1,3,8,108,166.4642287332099,167.22401137743145,"[16, 0, 238]",238,a,0.23752384237013757,1,colour,0.5,4.0
73,20,0,1,3,9,109,167.72987357946113,168.92004136973992,"[61, 0, 193]",193,a,0.6679034747648984,0,colour,0.5,4.0
73,20,0,1,3,10,110,169.43320350861177,170.24001610046253,"[20, 0, 234]",234,a,0.2846711562015116,1,colour,0.5,4.0
73,20,0,1,3,11,111,170.74577117618173,171.54401564667933,"[6, 0, 248]",248,a,0.2760010287165642,1,colour,0.5,4.0
73,20,0,1,3,12,112,172.05845817923546,172.8640096760355,"[27, 0, 227]",227,a,0.2834305411670357,1,colour,0.5,4.0
73,20,0,1,3,13,113,173.37109792069532,174.1680178870447,"[45, 0, 209]",209,a,0.2748120075557381,1,colour,0.5,4.0
73,20,0,1,3,14,114,174.68359390855767,175.38398653361946,"[59, 0, 195]",195,a,0.17823661724105477,0,colour,0.5,4.0
73,20,0,1,3,15,115,175.902334443992,176.70401207054965,"[79, 0, 175]",175,l,0.27936211111955345,1,colour,0.5,4.0
73,20,0,1,3,16,116,177.21511636395007,178.03198935999535,"[94, 0, 160]",160,l,0.2946858743671328,1,colour,0.5,4.0
73,20,0,1,3,17,117,178.54322953009978,179.27199994656257,"[54, 0, 200]",200,a,0.2065675409976393,0,colour,0.5,4.0
73,20,0,1,3,18,118,179.777701853076,180.49601801927201,"[53, 0, 201]",201,a,0.19621569057926536,0,colour,0.5,4.0
73,20,0,1,3,19,119,181.01225924678147,181.91999292653054,"[17, 0, 237]",237,a,0.38548551173880696,1,colour,0.5,4.0
73,20,0,1,3,20,120,182.43414716375992,183.23201748053543,"[9, 0, 245]",245,a,0.27564026578329504,1,colour,0.5,4.0
73,20,0,1,3,21,121,183.7467546099797,184.5600046159234,"[88, 0, 166]",166,l,0.29085335810668766,1,colour,0.5,4.0
73,20,0,1,3,22,122,185.07505248999223,185.84802425140515,"[37, 0, 217]",217,a,0.25084529211744666,1,colour,0.5,4.0
73,20,0,1,3,23,123,186.3563243607059,187.07997123361565,"[55, 0, 199]",199,a,0.2019276402425021,0,colour,0.5,4.0
73,20,0,1,3,24,124,187.59096131124534,188.42400129511952,"[90, 0, 164]",164,l,0.31090642511844635,1,colour,0.5,4.0
73,20,0,1,3,25,125,188.93475309596397,189.76799906115048,"[40, 0, 214]",214,a,0.3110273357015103,1,colour,0.5,4.0
73,20,0,1,3,26,126,190.27854645601474,191.0799865934532,"[48, 0, 206]",206,a,0.27915337262675166,1,colour,0.5,4.0
73,20,0,1,3,27,127,191.59118265286088,192.51998237147927,"[69, 0, 185]",185,l,0.40653697843663394,1,colour,0.5,4.0
73,20,0,1,3,28,128,193.02875470207073,193.80801067175344,"[86, 0, 168]",168,l,0.256967629538849,1,colour,0.5,4.0
73,20,0,1,3,29,129,194.32575639127754,195.09598422725685,"[24, 0, 230]",230,a,0.24791271425783634,1,colour,0.5,4.0
73,20,0,1,3,30,130,195.60711096972227,196.44001704570837,"[93, 0, 161]",161,l,0.3108725540805608,1,colour,0.5,4.0
73,20,0,1,3,31,131,196.95099018816836,197.71200360148214,"[91, 0, 163]",163,l,0.2387053808197379,1,colour,0.5,4.0
73,20,0,1,3,32,132,198.2323325574398,199.28797237412073,"[85, 0, 169]",169,l,0.5334408795461059,1,colour,0.5,4.0
73,20,0,1,3,33,133,199.7950042989105,200.62399475718848,"[1, 0, 253]",253,a,0.3068612318020314,1,colour,0.5,4.0
73,20,0,1,3,34,134,201.13879056973383,201.90398662816733,"[18, 0, 236]",236,a,0.24292898597195745,1,colour,0.5,4.0
73,20,0,1,3,35,135,202.4202002864331,203.28001392632723,"[76, 0, 178]",178,l,0.3376127334777266,1,colour,0.5,4.0
73,20,0,1,3,36,136,203.79526502499357,204.52000048849732,"[46, 0, 208]",208,a,0.20258142473176122,1,colour,0.5,4.0
73,20,0,1,3,37,137,205.02972671412863,205.9120116357226,"[7, 0, 247]",247,a,0.3600241504609585,1,colour,0.5,4.0
73,20,0,1,3,38,138,206.4204657387454,207.13598874863237,"[10, 0, 244]",244,a,0.193293746560812,1,colour,0.5,4.0
73,20,0,1,3,39,139,207.65494042495266,208.5200071837753,"[74, 0, 180]",180,l,0.3426862587220967,1,colour,0.5,4.0
73,20,0,1,3,40,140,209.03006542171352,209.98398306779563,"[35, 0, 219]",219,a,0.4316383642144501,1,colour,0.5,4.0
73,20,0,1,3,41,141,210.49880290497094,211.28800585097633,"[39, 0, 215]",215,a,0.26672004582360387,1,colour,0.5,4.0
73,20,0,1,3,42,142,211.7946266005747,212.5520107219927,"[98, 0, 156]",156,l,0.23523992905393243,1,colour,0.5,4.0
73,20,0,1,3,43,143,213.0603636065498,213.79999196552671,"[97, 0, 157]",157,l,0.2174916493240744,1,colour,0.5,4.0
73,20,0,1,3,44,144,214.31046098517254,215.0399887675885,"[33, 0, 221]",221,a,0.20736311003565788,1,colour,0.5,4.0
73,20,0,1,3,45,145,215.54495024355128,216.54397704987787,"[64, 0, 190]",190,a,0.4767408291809261,0,colour,0.5,4.0
73,20,0,1,3,46,146,217.06066962494515,217.9279710664414,"[82, 0, 172]",172,l,0.34530966728925705,1,colour,0.5,4.0
73,20,0,1,3,47,147,218.43583952030167,219.35997413215227,"[49, 0, 205]",205,a,0.4019293731544167,1,colour,0.5,4.0
73,20,0,1,3,48,148,219.873403692618,220.73596952902153,"[42, 0, 212]",212,a,0.3402837975881994,1,colour,0.5,4.0
73,20,0,1,3,49,149,221.2484999387525,222.12797398096882,"[21, 0, 233]",233,a,0.3571085080038756,1,colour,0.5,4.0
73,20,0,1,3,50,150,222.63927992340177,223.43998908251524,"[36, 0, 218]",218,a,0.2785590589046478,1,colour,0.5,4.0
73,20,0,1,4,1,151,228.42019162187353,229.12000135495327,"[39, 0, 215]",215,a,0.17675221152603626,1,colour,0.5,4.0
73,20,0,1,4,2,152,229.63986832951196,230.4399985349737,"[29, 0, 225]",225,a,0.27791472687385976,1,colour,0.5,4.0
73,20,0,1,4,3,153,230.9523891294375,231.76797424885444,"[15, 0, 239]",239,a,0.29331804695539176,1,colour,0.5,4.0
73,20,0,1,4,4,154,232.28066416620277,233.03999625053257,"[97, 0, 157]",157,l,0.23707367619499564,1,colour,0.5,4.0
73,20,0,1,4,5,155,233.54631807096303,234.29596863104962,"[76, 0, 178]",178,l,0.22732283524237573,1,colour,0.5,4.0
73,20,0,1,4,6,156,234.81212518154643,235.72795948735438,"[51, 0, 203]",203,l,0.3936018915846944,1,colour,0.5,4.0
73,20,0,1,4,7,157,236.2340812338516,237.19198342063464,"[30, 0, 224]",224,a,0.43564811116084456,1,colour,0.5,4.0
73,20,0,1,4,8,158,237.70295380614698,238.83999333623797,"[56, 0, 198]",198,l,0.6147897867485881,1,colour,0.5,4.0
73,20,0,1,4,9,159,239.35943653224967,240.3519747245591,"[53, 0, 201]",201,l,0.47037351969629526,1,colour,0.5,4.0
73,20,0,1,4,10,160,240.85950722778216,241.63994749239646,"[27, 0, 227]",227,a,0.25833545671775937,1,colour,0.5,4.0
73,20,0,1,4,11,161,242.1564238462597,243.00000827084295,"[69, 0, 185]",185,l,0.3213468906469643,1,colour,0.5,4.0
73,20,0,1,4,12,162,243.51586707378738,244.22400468215346,"[82, 0, 172]",172,l,0.18585635721683502,1,colour,0.5,4.0
73,20,0,1,4,13,163,244.73475923994556,245.57597704348154,"[87, 0, 167]",167,l,0.3189085894264281,1,colour,0.5,4.0
73,20,0,1,4,14,164,246.09426784608513,246.88797008967958,"[31, 0, 223]",223,a,0.27176954643800855,1,colour,0.5,4.0
73,20,0,1,4,15,165,247.40681975986809,248.27199718961492,"[67, 0, 187]",187,l,0.34363464009948075,1,colour,0.5,4.0
73,20,0,1,4,16,166,248.78208535979502,249.7199498398695,"[47, 0, 207]",207,a,0.41566199832595885,1,colour,0.5,4.0
73,20,0,1,4,17,167,250.23516470449977,251.0480208643712,"[73, 0, 181]",181,l,0.2905666381120682,1,colour,0.5,4.0
73,20,0,1,4,18,168,251.5634291076567,252.33598693693057,"[43, 0, 211]",211,a,0.25022459076717496,1,colour,0.5,4.0
73,20,0,1,4,19,169,252.8448734828271,253.6959673706442,"[86, 0, 168]",168,l,0.3281391600612551,1,colour,0.5,4.0
73,20,0,1,4,20,170,254.20429544290528,255.0559816751629,"[21, 0, 233]",233,a,0.32950935047119856,1,colour,0.5,4.0
73,20,0,1,4,21,171,255.56383752590045,256.44013007963076,"[88, 0, 166]",166,l,0.35416884114965796,1,colour,0.5,4.0
73,20,0,1,4,22,172,256.9544985690154,257.75199394416995,"[75, 0, 179]",179,l,0.27522712107747793,1,colour,0.5,4.0
73,20,0,1,4,23,173,258.26707687042654,259.11998875183053,"[37, 0, 217]",217,a,0.33077753498218954,1,colour,0.5,4.0
73,20,0,1,4,24,174,259.6264976488892,260.39197924593464,"[96, 0, 158]",158,l,0.24328147829510272,1,colour,0.5,4.0
73,20,0,1,4,25,175,260.9079416305758,261.71195279527456,"[19, 0, 235]",235,a,0.2816377538256347,1,colour,0.5,4.0
73,20,0,1,4,26,176,262.2205376550555,262.9599734232761,"[18, 0, 236]",236,a,0.2171348249539733,1,colour,0.5,4.0
73,20,0,1,4,27,177,263.4706023442559,264.2879487434402,"[36, 0, 218]",218,a,0.295059634372592,1,colour,0.5,4.0
73,20,0,1,4,28,178,264.79887068574317,265.9839972462505,"[60, 0, 194]",194,l,0.6628961155656725,1,colour,0.5,4.0
73,20,0,1,4,29,179,266.50206670723855,267.41596959205344,"[90, 0, 164]",164,l,0.3915822491981089,1,colour,0.5,4.0
73,20,0,1,4,30,180,267.9241653319914,268.82397719169967,"[42, 0, 212]",212,a,0.37752745812758803,1,colour,0.5,4.0
73,20,0,1,4,31,181,269.3304199227132,270.095961777959,"[38, 0, 216]",216,a,0.2432456382084638,1,colour,0.5,4.0
73,20,0,1,4,32,182,270.6117898609955,271.3679632998537,"[13, 0, 241]",241,a,0.2340654800646007,1,colour,0.5,4.0
73,20,0,1,4,33,183,271.8775292302016,272.8800998637453,"[62, 0, 192]",192,a,0.48059579473920166,0,colour,0.5,4.0
73,20,0,1,4,34,184,273.39326239633374,274.35995247075334,"[41, 0, 213]",213,a,0.4445671495050192,1,colour,0.5,4.0
73,20,0,1,4,35,185,274.87780925491825,275.70398528920487,"[95, 0, 159]",159,l,0.3042374295182526,1,colour,0.5,4.0
73,20,0,1,4,36,186,276.2216104918625,277.0239560813643,"[74, 0, 180]",180,l,0.28001865232363343,1,colour,0.5,4.0
73,20,0,1,4,37,187,277.53419548878446,278.39997904747725,"[35, 0, 219]",219,a,0.3434652863070369,1,colour,0.5,4.0
73,20,0,1,4,38,188,278.9093334826175,279.78396164253354,"[72, 0, 182]",182,l,0.35242213355377316,1,colour,0.5,4.0
73,20,0,1,4,39,189,280.3001008639112,281.1119601994287,"[14, 0, 240]",240,a,0.28966433671303093,1,colour,0.5,4.0
73,20,0,1,4,40,190,281.62827113782987,282.4480345703196,"[63, 0, 191]",191,l,0.29777677822858095,1,colour,0.5,4.0
73,20,0,1,4,41,191,282.9565422362648,283.7680026057642,"[99, 0, 155]",155,l,0.28919881070032716,1,colour,0.5,4.0
73,20,0,1,4,42,192,284.28474480542354,285.0799976212438,"[4, 0, 250]",250,a,0.272917214082554,1,colour,0.5,4.0
73,20,0,1,4,43,193,285.5973554023076,286.4079595503863,"[23, 0, 231]",231,a,0.28831974626518786,1,colour,0.5,4.0
73,20,0,1,4,44,194,286.92561153462157,287.6879317292478,"[34, 0, 220]",220,a,0.2400929005816579,1,colour,0.5,4.0
73,20,0,1,4,45,195,288.2069972269237,289.0399686812889,"[22, 0, 232]",232,a,0.3108056001365185,1,colour,0.5,4.0
73,20,0,1,4,46,196,289.5507630177308,290.35198181378655,"[68, 0, 186]",186,l,0.2788957974407822,1,colour,0.5,4.0
73,20,0,1,4,47,197,290.8634362362791,291.6639472907409,"[84, 0, 170]",170,l,0.27818136056885123,1,colour,0.5,4.0
73,20,0,1,4,48,198,292.17604722687975,292.8480270083528,"[65, 0, 189]",189,l,0.1498237734194845,1,colour,0.5,4.0
73,20,0,1,4,49,199,293.3635908206925,294.0399674999062,"[2, 0, 252]",252,a,0.1540729789994657,1,colour,0.5,4.0
73,20,0,1,4,50,200,294.55116355908103,295.303963706363,"[25, 0, 229]",229,a,0.23044485319405794,1,colour,0.5,4.0
73,20,0,1,5,1,201,300.285271771485,301.3519924476277,"[3, 0, 251]",251,a,0.5436796960420907,1,colour,0.5,4.0
73,20,0,1,5,2,202,301.86433932511136,302.775940179592,"[55, 0, 199]",199,a,0.3894109756220132,0,colour,0.5,4.0
73,20,0,1,5,3,203,303.2862748974003,303.8639754115138,"[96, 0, 158]",158,l,0.05540311522781849,1,colour,0.5,4.0
73,20,0,1,5,4,204,304.3801579559222,305.44796879799105,"[47, 0, 207]",207,a,0.5455614926759154,1,colour,0.5,4.0
73,20,0,1,5,5,205,305.9583196635358,306.7199742582161,"[40, 0, 214]",214,a,0.239458414260298,1,colour,0.5,4.0
73,20,0,1,5,6,206,307.23973213741556,308.0079627800733,"[82, 0, 172]",172,l,0.24606439471244812,1,colour,0.5,4.0
73,20,0,1,5,7,207,308.5211044389289,309.3359952077735,"[98, 0, 156]",156,l,0.2926685947459191,1,colour,0.5,4.0
73,20,0,1,5,8,208,309.8492187866941,310.7279586996883,"[4, 0, 250]",250,a,0.35661816969513893,1,colour,0.5,4.0
73,20,0,1,5,9,209,311.24002200807445,311.983964557061,"[10, 0, 244]",244,a,0.22170186415314674,1,colour,0.5,4.0
73,20,0,1,5,10,210,312.49008709122427,313.2879830079619,"[36, 0, 218]",218,a,0.2756323888897896,1,colour,0.5,4.0
73,20,0,1,5,11,211,313.8026972943917,314.4639506780077,"[84, 0, 170]",170,l,0.13897134503349662,1,colour,0.5,4.0
73,20,0,1,5,12,212,314.9747312297113,315.87198466528207,"[69, 0, 185]",185,l,0.3750856122933328,1,colour,0.5,4.0
73,20,0,1,5,13,213,316.3810452912003,317.53598473151214,"[67, 0, 187]",187,l,0.6329039493575692,1,colour,0.5,4.0
73,20,0,1,5,14,214,318.0531058111228,318.8079626224935,"[80, 0, 174]",174,l,0.23264212044887245,1,colour,0.5,4.0
73,20,0,1,5,15,215,319.3188829894643,320.071953315055,"[23, 0, 231]",231,a,0.23090722830966115,1,colour,0.5,4.0
73,20,0,1,5,16,216,320.58454989106394,322.031974787591,"[75, 0, 179]",179,l,0.9251849993597716,1,colour,0.5,4.0
73,20,0,1,5,17,217,322.53814300801605,323.43197628413327,"[66, 0, 188]",188,l,0.37191278813406825,1,colour,0.5,4.0
73,20,0,1,5,18,218,323.9441140294075,325.0319377661217,"[22, 0, 232]",232,a,0.5657535870559514,1,colour,0.5,4.0
73,20,0,1,5,19,219,325.5380035864655,326.4319554104004,"[54, 0, 200]",200,a,0.3717843946069479,0,colour,0.5,4.0
73,20,0,1,5,20,220,326.9443747557234,327.65595103404485,"[49, 0, 205]",205,a,0.18957780883647501,1,colour,0.5,4.0
73,20,0,1,5,21,221,328.1633070940152,328.81597975315526,"[52, 0, 202]",202,a,0.13042882340960205,0,colour,0.5,4.0
73,20,0,1,5,22,222,329.3351807340514,330.15200568083674,"[89, 0, 165]",165,l,0.29454172658734024,1,colour,0.5,4.0
73,20,0,1,5,23,223,330.66341678006575,331.4559800210409,"[14, 0, 240]",240,a,0.27028514072299004,1,colour,0.5,4.0
73,20,0,1,5,24,224,331.97602895251475,333.1759755469393,"[72, 0, 182]",182,l,0.6777200880460441,1,colour,0.5,4.0
73,20,0,1,5,25,225,333.6948689338751,334.4639589486178,"[74, 0, 180]",180,l,0.2469985974021256,1,colour,0.5,4.0
73,20,0,1,5,26,226,334.9762372970581,335.7599787795916,"[16, 0, 238]",238,a,0.2614531423896551,1,colour,0.5,4.0
73,20,0,1,5,27,227,336.2732118109707,336.95999941718765,"[46, 0, 208]",208,a,0.16463041678071022,1,colour,0.5,4.0
73,20,0,1,5,28,228,337.4764635616448,338.2639674558304,"[73, 0, 181]",181,l,0.2652407600544393,1,colour,0.5,4.0
73,20,0,1,5,29,229,338.7734420138877,339.5359776422847,"[13, 0, 241]",241,a,0.24027879582718015,1,colour,0.5,4.0
73,20,0,1,5,30,230,340.05477571859956,340.999968492426,"[70, 0, 184]",184,l,0.42290679668076336,1,colour,0.5,4.0
73,20,0,1,5,31,231,341.5080984600354,342.55996759445406,"[63, 0, 191]",191,l,0.529707218753174,1,colour,0.5,4.0
73,20,0,1,5,32,232,343.0707568107173,343.8319817192387,"[8, 0, 246]",246,a,0.23906732513569295,1,colour,0.5,4.0
73,20,0,1,5,33,233,344.3520412845537,345.19196136528626,"[71, 0, 183]",183,l,0.31804567272774875,1,colour,0.5,4.0
73,20,0,1,5,34,234,345.71147821075283,346.5999532111455,"[86, 0, 168]",168,l,0.36644738633185625,1,colour,0.5,4.0
73,20,0,1,5,35,235,347.1178371706046,347.95198858785443,"[43, 0, 211]",211,a,0.31187410466372967,1,colour,0.5,4.0
73,20,0,1,5,36,236,348.46175774303265,349.1279850087594,"[76, 0, 178]",178,l,0.1440519595053047,1,colour,0.5,4.0
73,20,0,1,5,37,237,349.63362705055624,350.87195433909073,"[58, 0, 196]",196,a,0.7161023574881256,0,colour,0.5,4.0
73,20,0,1,5,38,238,351.38383214594796,352.3519877213985,"[61, 0, 193]",193,a,0.44594442890957,0,colour,0.5,4.0
73,20,0,1,5,39,239,352.86827345378697,353.6159520263318,"[17, 0, 237]",237,a,0.22544734016992152,1,colour,0.5,4.0
73,20,0,1,5,40,240,354.1340522074606,354.87223672680557,"[48, 0, 206]",206,a,0.21594619750976562,1,colour,0.5,4.0
73,20,0,1,5,41,241,355.38412634911947,356.1679816530086,"[12, 0, 242]",242,a,0.26158114220015705,1,colour,0.5,4.0
73,20,0,1,5,42,242,356.6816660319455,357.7039399968926,"[15, 0, 239]",239,a,0.5004830523394048,1,colour,0.5,4.0
73,20,0,1,5,43,243,358.21246144734323,359.1119531102013,"[85, 0, 169]",169,l,0.37718875030986965,1,colour,0.5,4.0
73,20,0,1,5,44,244,359.61883025360294,360.7199529905338,"[44, 0, 210]",210,a,0.5788241566624492,1,colour,0.5,4.0
73,20,0,1,5,45,245,361.22835195506923,361.9519614125602,"[28, 0, 226]",226,a,0.2015629387460649,1,colour,0.5,4.0
73,20,0,1,5,46,246,362.46280970587395,363.2159379266668,"[20, 0, 234]",234,a,0.23077725898474455,1,colour,0.5,4.0
73,20,0,1,5,47,247,363.7285683734808,364.5199741006363,"[78, 0, 176]",176,l,0.2691693746019155,1,colour,0.5,4.0
73,20,0,1,5,48,248,365.02551453048363,365.76794352871366,"[18, 0, 236]",236,a,0.22025881195440888,1,colour,0.5,4.0
73,20,0,1,5,49,249,366.2755780380685,366.95199173875153,"[2, 0, 252]",252,a,0.15414899121969938,1,colour,0.5,4.0
73,20,0,1,5,50,250,367.4633504564408,368.5839441558346,"[5, 0, 249]",249,a,0.598410909762606,1,colour,0.5,4.0
73,20,0,1,6,1,251,375.35367574589327,376.31195090478286,"[14, 0, 240]",240,a,0.4356441725976765,1,colour,0.5,3.9
73,20,0,1,6,2,252,376.8233789394144,377.79195553646423,"[27, 0, 227]",227,a,0.4464280721731484,1,colour,0.5,3.9
73,20,0,1,6,3,253,378.3078151270747,379.26394461258315,"[34, 0, 220]",220,a,0.4339033728465438,1,colour,0.5,3.9
73,20,0,1,6,4,254,379.7766943948809,380.5279490898829,"[98, 0, 156]",156,l,0.22911483491770923,1,colour,0.5,3.9
73,20,0,1,6,5,255,381.0424199793488,381.96799921873026,"[29, 0, 225]",225,a,0.4033590345643461,1,colour,0.5,3.9
73,20,0,1,6,6,256,382.48005898250267,383.23198006511666,"[32, 0, 222]",222,a,0.2296461332589388,1,colour,0.5,3.9
73,20,0,1,6,7,257,383.7458716069814,384.65597663400695,"[66, 0, 188]",188,l,0.38793562818318605,1,colour,0.5,3.9
73,20,0,1,6,8,258,385.16771777626127,386.31994834309444,"[62, 0, 192]",192,a,0.6299772788770497,0,colour,0.5,3.9
73,20,0,1,6,9,259,386.839716068469,389.263958791038,"[67, 0, 187]",187,l,1.9019405976869166,1,colour,0.5,3.9
73,20,0,1,6,10,260,389.777448609937,390.67995398305357,"[95, 0, 159]",159,l,0.3804155313409865,1,colour,0.5,3.9
73,20,0,1,6,11,261,391.1993936346844,391.8479639929719,"[77, 0, 177]",177,l,0.12624617805704474,1,colour,0.5,3.9
73,20,0,1,6,12,262,392.3558446560055,393.055935989134,"[9, 0, 245]",245,a,0.17838076502084732,1,colour,0.5,3.9
73,20,0,1,6,13,263,393.5746911361348,394.2319576158188,"[11, 0, 243]",243,a,0.13517348724417388,1,colour,0.5,3.9
73,20,0,1,6,14,264,394.7465730467811,395.44001901498996,"[18, 0, 236]",236,a,0.1711072155740112,1,colour,0.5,3.9
73,20,0,1,6,15,265,395.9498047113884,396.7199376304634,"[78, 0, 176]",176,l,0.2476842834148556,1,colour,0.5,3.9
73,20,0,1,6,16,266,397.23118134518154,398.5279723268468,"[50, 0, 204]",204,a,0.7744585305918008,1,colour,0.5,3.9
73,20,0,1,6,17,267,399.043910686858,399.791941751726,"[10, 0, 244]",244,a,0.22597548784688115,1,colour,0.5,3.9
73,20,0,1,6,18,268,400.30961933592334,401.07993696886115,"[16, 0, 238]",238,a,0.24820928019471467,1,colour,0.5,3.9
73,20,0,1,6,19,269,401.5909148375504,402.3599599536974,"[94, 0, 160]",160,l,0.2467831636313349,1,colour,0.5,3.9
73,20,0,1,6,20,270,402.8722828067839,403.58397881430574,"[42, 0, 212]",212,a,0.18948367959819734,1,colour,0.5,3.9
73,20,0,1,6,21,271,404.09107808675617,404.8159671500325,"[58, 0, 196]",196,a,0.20257748616859317,0,colour,0.5,3.9
73,20,0,1,6,22,272,405.32560200360604,406.0559592258651,"[96, 0, 158]",158,l,0.20815080194734037,1,colour,0.5,3.9
73,20,0,1,6,23,273,406.5757151360158,407.29594106180593,"[4, 0, 250]",250,a,0.19800965953618288,1,colour,0.5,3.9
73,20,0,1,6,24,274,407.8101216866635,408.52794160693884,"[0, 0, 254]",254,a,0.1955871123354882,1,colour,0.5,3.9
73,20,0,1,6,25,275,409.04462551744655,409.7919397824444,"[68, 0, 186]",186,a,0.22531894617713988,0,colour,0.5,3.9
73,20,0,1,6,26,276,410.3103672496509,411.07993224286474,"[86, 0, 168]",168,l,0.24752398836426437,1,colour,0.5,3.9
73,20,0,1,6,27,277,411.59165329881944,412.39195600897074,"[56, 0, 198]",198,a,0.27807423449121416,0,colour,0.5,3.9
73,20,0,1,6,28,278,412.90424814191647,413.65595221542753,"[25, 0, 229]",229,a,0.22938580089248717,1,colour,0.5,3.9
73,20,0,1,6,29,279,414.17008439730853,414.95999390329234,"[99, 0, 155]",155,l,0.2676826056558639,1,colour,0.5,3.9
73,20,0,1,6,30,280,415.46701164962724,416.25593693414703,"[82, 0, 172]",172,l,0.26667947974056005,1,colour,0.5,3.9
73,20,0,1,6,31,281,416.7639495357871,417.5279148253612,"[1, 0, 253]",253,a,0.24161826632916927,1,colour,0.5,3.9
73,20,0,1,6,32,282,418.0453836710658,418.7999352517072,"[23, 0, 231]",231,a,0.23238730197772384,1,colour,0.5,3.9
73,20,0,1,6,33,283,419.31107223406434,420.06393854739144,"[7, 0, 247]",247,a,0.23091156058944762,1,colour,0.5,3.9
73,20,0,1,6,34,284,420.5768336588517,421.27995051722974,"[91, 0, 163]",163,l,0.18101480742916465,1,colour,0.5,3.9
73,20,0,1,6,35,285,421.7956844710279,422.55195794673637,"[19, 0, 235]",235,a,0.2340406677685678,1,colour,0.5,3.9
73,20,0,1,6,36,286,423.06143801868893,423.7839655810967,"[26, 0, 228]",228,a,0.2005373635329306,1,colour,0.5,3.9
73,20,0,1,6,37,287,424.29589576949365,425.14392947312444,"[73, 0, 181]",181,l,0.32583161583170295,1,colour,0.5,3.9
73,20,0,1,6,38,288,425.65537050482817,426.4399595442228,"[38, 0, 216]",216,a,0.26234284066595137,1,colour,0.5,3.9
73,20,0,1,6,39,289,426.95230287709273,427.75194274424575,"[37, 0, 217]",217,a,0.2773558592889458,1,colour,0.5,3.9
73,20,0,1,6,40,290,428.264991061762,429.71996047371067,"[65, 0, 189]",189,l,0.9327905608806759,1,colour,0.5,3.9
73,20,0,1,6,41,291,430.23384610773064,431.0159184706863,"[30, 0, 224]",224,a,0.25987263792194426,1,colour,0.5,3.9
73,20,0,1,6,42,292,431.5307800555602,432.30395543552004,"[69, 0, 185]",185,l,0.2509532058611512,1,colour,0.5,3.9
73,20,0,1,6,43,293,432.81209840020165,434.2879566203337,"[55, 0, 199]",199,a,0.9536021754611284,0,colour,0.5,3.9
73,20,0,1,6,44,294,434.7966958677862,435.70396047690883,"[45, 0, 209]",209,a,0.3850132904481143,1,colour,0.5,3.9
73,20,0,1,6,45,295,436.2187846461311,437.47196702100337,"[43, 0, 211]",211,a,0.7311358561273664,1,colour,0.5,3.9
73,20,0,1,6,46,296,437.9844359906856,442.1919440361671,"[90, 0, 164]",164,l,3.6853477051481605,1,colour,0.5,3.9
73,20,0,1,6,47,297,442.7041577936616,443.69596225069836,"[53, 0, 201]",201,a,0.4700970398262143,0,colour,0.5,3.9
73,20,0,1,6,48,298,444.20373854460195,444.84792618383653,"[13, 0, 241]",241,a,0.12197452364489436,1,colour,0.5,3.9
73,20,0,1,6,49,299,445.36005250760354,446.0719312597066,"[92, 0, 162]",162,l,0.18979245494119823,1,colour,0.5,3.9
73,20,0,1,6,50,300,446.57886590459384,447.7919386010617,"[63, 0, 191]",191,a,0.6908757286146283,0,colour,0.5,3.9
73,20,0,1,7,1,301,452.7035504831001,453.711959884502,"[77, 0, 177]",177,l,0.4852593259420246,1,colour,0.5,3.9
73,20,0,1,7,2,302,454.22017571050674,454.9279576756526,"[0, 0, 254]",254,a,0.18564880033954978,1,colour,0.5,3.9
73,20,0,1,7,3,303,455.4389631135855,456.11995015479624,"[29, 0, 225]",225,a,0.1594978147186339,1,colour,0.5,3.9
73,20,0,1,7,4,304,456.6264811074361,457.7119327089749,"[89, 0, 165]",165,l,0.5630801597144455,1,colour,0.5,3.9
73,20,0,1,7,5,305,458.22051914432086,459.1039210134186,"[58, 0, 196]",196,a,0.3613285687752068,0,colour,0.5,3.9
73,20,0,1,7,6,306,459.61112859356217,460.1679462068714,"[56, 0, 198]",198,a,0.034748645266518,0,colour,0.5,3.9
73,20,0,1,7,7,307,460.6736599288415,461.2959166432265,"[52, 0, 202]",202,a,0.09990654024295509,0,colour,0.5,3.9
73,20,0,1,7,8,308,461.81440121820197,462.7599516042974,"[71, 0, 183]",183,l,0.42325298744253814,1,colour,0.5,3.9
73,20,0,1,7,9,309,463.26769008883275,463.9519425078761,"[4, 0, 250]",250,a,0.16193335875868797,1,colour,0.5,3.9
73,20,0,1,7,10,310,464.47089812275954,465.58396109123714,"[78, 0, 176]",176,l,0.5909975452814251,1,colour,0.5,3.9
73,20,0,1,7,11,311,466.0959936797153,467.3759213536978,"[94, 0, 160]",160,l,0.7576609954703599,1,colour,0.5,3.9
73,20,0,1,7,12,312,467.89303376874886,468.4399418211542,"[85, 0, 169]",169,l,0.02467327518388629,1,colour,0.5,3.9
73,20,0,1,7,13,313,468.95562536269426,469.6559274031315,"[3, 0, 251]",251,a,0.17802945408038795,1,colour,0.5,3.9
73,20,0,1,7,14,314,470.1744679042604,471.1519804748241,"[53, 0, 201]",201,a,0.45522501808591187,0,colour,0.5,3.9
73,20,0,1,7,15,315,471.65894899028353,472.67994846915826,"[76, 0, 178]",178,l,0.49871547101065516,1,colour,0.5,3.9
73,20,0,1,7,16,316,473.1901878763456,473.95193108636886,"[41, 0, 213]",213,a,0.23933041444979608,1,colour,0.5,3.9
73,20,0,1,7,17,317,474.471732288599,475.40792016591877,"[79, 0, 175]",175,l,0.41403620154596865,1,colour,0.5,3.9
73,20,0,1,7,18,318,475.92487228568643,476.7999506117776,"[86, 0, 168]",168,l,0.3530270813498646,1,colour,0.5,3.9
73,20,0,1,7,19,319,477.3156786579639,478.1999292653054,"[72, 0, 182]",182,l,0.36191264260560274,1,colour,0.5,3.9
73,20,0,1,7,20,320,478.7064050794579,479.4799258625135,"[74, 0, 180]",180,l,0.2512678890489042,1,colour,0.5,3.9
73,20,0,1,7,21,321,479.987732876325,480.9279442850966,"[18, 0, 236]",236,a,0.41791794868186116,1,colour,0.5,3.9
73,20,0,1,7,22,322,481.44095006701536,482.25596883590333,"[60, 0, 194]",194,a,0.29273594240657985,0,colour,0.5,3.9
73,20,0,1,7,23,323,482.76929757162,483.5039221162442,"[23, 0, 231]",231,a,0.21242954581975937,1,colour,0.5,3.9
73,20,0,1,7,24,324,484.01934690074995,484.78392422711477,"[90, 0, 164]",164,l,0.24243589071556926,1,colour,0.5,3.9
73,20,0,1,7,25,325,485.3007014791947,485.98392871697433,"[12, 0, 242]",242,a,0.16107044206000865,1,colour,0.5,3.9
73,20,0,1,7,26,326,486.5038717039861,487.2319473759271,"[42, 0, 212]",212,a,0.2058755534235388,1,colour,0.5,3.9
73,20,0,1,7,27,327,487.7383692332078,488.54393490822986,"[30, 0, 224]",224,a,0.28326788265258074,1,colour,0.5,3.9
73,20,0,1,7,28,328,489.0510463900864,489.87192558823153,"[44, 0, 210]",210,a,0.2986798672936857,1,colour,0.5,3.9
73,20,0,1,7,29,329,490.3791595562361,491.22396254050545,"[14, 0, 240]",240,a,0.32248392421752214,1,colour,0.5,3.9
73,20,0,1,7,30,330,491.73872448224574,493.4799561887048,"[13, 0, 241]",241,a,1.2190697907935828,1,colour,0.5,3.9
73,20,0,1,7,31,331,493.9888970851898,494.7439425489865,"[43, 0, 211]",211,a,0.23283746815286577,1,colour,0.5,3.9
73,20,0,1,7,32,332,495.25458170985803,495.7999506117776,"[47, 0, 207]",207,a,0.023116795578971505,1,colour,0.5,3.9
73,20,0,1,7,33,333,496.3171933898702,496.887954729842,"[6, 0, 248]",248,a,0.04857658129185438,1,colour,0.5,3.9
73,20,0,1,7,34,334,497.3954143715091,498.20793497445993,"[48, 0, 206]",206,a,0.2901909090578556,1,colour,0.5,3.9
73,20,0,1,7,35,335,498.72361024515703,499.49592152703553,"[91, 0, 163]",163,l,0.25013400614261627,1,colour,0.5,3.9
73,20,0,1,7,36,336,500.00496324826963,500.7199462952558,"[17, 0, 237]",237,a,0.19274314981885254,1,colour,0.5,3.9
73,20,0,1,7,37,337,501.23948795278557,501.935912972549,"[28, 0, 226]",226,a,0.17416306701488793,1,colour,0.5,3.9
73,20,0,1,7,38,338,502.44261406664737,503.78394155646674,"[35, 0, 219]",219,a,0.818948958767578,1,colour,0.5,3.9
73,20,0,1,7,39,339,504.3021988819819,505.26393200969324,"[98, 0, 156]",156,l,0.43947590119205415,1,colour,0.5,3.9
73,20,0,1,7,40,340,505.77105373120867,506.6319638385903,"[96, 0, 158]",158,l,0.3386572131421417,1,colour,0.5,3.9
73,20,0,1,7,41,341,507.1461346175056,507.91191868809983,"[54, 0, 200]",200,a,0.24349730578251183,0,colour,0.5,3.9
73,20,0,1,7,42,342,508.42755851265974,509.3359317984432,"[33, 0, 221]",221,a,0.3864015976432711,1,colour,0.5,3.9
73,20,0,1,7,43,343,509.8494720296003,510.6799264138099,"[11, 0, 243]",243,a,0.3081617115531117,1,colour,0.5,3.9
73,20,0,1,7,44,344,511.1932921712287,512.0719186565839,"[59, 0, 195]",195,a,0.3563952527474612,0,colour,0.5,3.9
73,20,0,1,7,45,345,512.5840749128256,513.4479195671156,"[99, 0, 155]",155,l,0.3415949111804366,1,colour,0.5,3.9
73,20,0,1,7,46,346,513.9591471343301,514.6399380401708,"[67, 0, 187]",187,a,0.1584592426661402,0,colour,0.5,3.9
73,20,0,1,7,47,347,515.1467356265057,515.9439139557071,"[19, 0, 235]",235,a,0.27489825966767967,1,colour,0.5,3.9
73,20,0,1,7,48,348,516.4593682787381,517.2719006973784,"[51, 0, 203]",203,a,0.29020154289901257,0,colour,0.5,3.9
73,20,0,1,7,49,349,517.7876141711604,518.6639382324647,"[22, 0, 232]",232,a,0.35401012119837105,1,colour,0.5,3.9
73,20,0,1,7,50,350,519.1783433496021,519.9759135555942,"[49, 0, 205]",205,a,0.27551305340602994,1,colour,0.5,3.9
73,20,0,1,8,1,351,524.3811264233664,525.3119509047829,"[69, 0, 185]",185,l,0.4076169044710696,1,colour,0.5,3.9
73,20,0,1,8,2,352,525.8196791494265,526.5119097083807,"[90, 0, 164]",164,l,0.17008439707569778,1,colour,0.5,3.9
73,20,0,1,8,3,353,527.0228891524021,527.8879417327698,"[84, 0, 170]",170,l,0.34279141551814973,1,colour,0.5,3.9
73,20,0,1,8,4,354,528.3979964263272,529.143955467036,"[76, 0, 178]",178,l,0.2237616789061576,1,colour,0.5,3.9
73,20,0,1,8,5,355,529.6636786877643,530.4559225195553,"[82, 0, 172]",172,l,0.26996179297566414,1,colour,0.5,3.9
73,20,0,1,8,6,356,530.9764062569011,531.7119071090128,"[28, 0, 226]",226,a,0.21341376705095172,1,colour,0.5,3.9
73,20,0,1,8,7,357,532.2264500723686,533.031910196878,"[31, 0, 223]",223,a,0.2833115996327251,1,colour,0.5,3.9
73,20,0,1,8,8,358,533.5389909585938,534.3279512955341,"[5, 0, 249]",249,a,0.26668381225317717,1,colour,0.5,3.9
73,20,0,1,8,9,359,534.8365885368548,535.6079049634282,"[96, 0, 158]",158,l,0.249644061550498,1,colour,0.5,3.9
73,20,0,1,8,10,360,536.1173361984547,536.9359306958504,"[80, 0, 174]",174,l,0.29647039086557925,1,colour,0.5,3.9
73,20,0,1,8,11,361,537.4456108415034,538.1919420668855,"[18, 0, 236]",236,a,0.2241078696679324,1,colour,0.5,3.9
73,20,0,1,8,12,362,538.7113450907636,539.6879470890854,"[99, 0, 155]",155,l,0.45458462415263057,1,colour,0.5,3.9
73,20,0,1,8,13,363,540.195790336933,541.1279145102017,"[91, 0, 163]",163,l,0.40989648550748825,1,colour,0.5,3.9
73,20,0,1,8,14,364,541.6334120107349,542.5679358881898,"[33, 0, 221]",221,a,0.41231312486343086,1,colour,0.5,3.9
73,20,0,1,8,15,365,543.0865850907285,543.8958911220543,"[71, 0, 183]",183,l,0.2869688542559743,1,colour,0.5,3.9
73,20,0,1,8,16,366,544.414956619963,545.2079294605646,"[89, 0, 165]",165,l,0.27081368188373744,1,colour,0.5,3.9
73,20,0,1,8,17,367,545.7275309830438,546.5679118635599,"[44, 0, 210]",210,a,0.3185017465148121,1,colour,0.5,3.9
73,20,0,1,8,18,368,547.0869052875787,547.879899002146,"[7, 0, 247]",247,a,0.2707368819974363,1,colour,0.5,3.9
73,20,0,1,8,19,369,548.3995458167046,549.2079172513913,"[27, 0, 227]",227,a,0.2860653712414205,1,colour,0.5,3.9
73,20,0,1,8,20,370,549.7278243983164,551.0159113814589,"[21, 0, 233]",233,a,0.7660609444137663,1,colour,0.5,3.9
73,20,0,1,8,21,371,551.5248534597922,552.2559160604142,"[47, 0, 207]",207,a,0.2088116758968681,1,colour,0.5,3.9
73,20,0,1,8,22,372,552.7749563520774,553.5599199389108,"[30, 0, 224]",224,a,0.2627685882616788,1,colour,0.5,3.9
73,20,0,1,8,23,373,554.0719257458113,554.9119245959446,"[9, 0, 245]",245,a,0.31777352513745427,1,colour,0.5,3.9
73,20,0,1,8,24,374,555.431346524274,556.2559160604142,"[24, 0, 230]",230,a,0.3022374790161848,1,colour,0.5,3.9
73,20,0,1,8,25,375,556.7752686720341,557.5521721988916,"[51, 0, 203]",203,a,0.2546388173941523,0,colour,0.5,3.9
73,20,0,1,8,26,376,558.0722030135803,558.9119600420818,"[26, 0, 228]",228,a,0.317459236131981,1,colour,0.5,3.9
73,20,0,1,8,27,377,559.4317541550845,560.1999280836899,"[53, 0, 201]",201,a,0.2458887391258031,0,colour,0.5,3.9
73,20,0,1,8,28,378,560.7130512320437,561.5199205377139,"[39, 0, 215]",215,a,0.28461719932965934,1,colour,0.5,3.9
73,20,0,1,8,29,379,562.0256665549241,562.7838911442086,"[48, 0, 206]",206,a,0.23610166436992586,1,colour,0.5,3.9
73,20,0,1,8,30,380,563.2914114380255,563.9519054864068,"[45, 0, 209]",209,a,0.13831283431500196,1,colour,0.5,3.9
73,20,0,1,8,31,381,564.4633528196719,565.1199158902746,"[14, 0, 240]",240,a,0.13432435505092144,1,colour,0.5,3.9
73,20,0,1,8,32,382,565.6353170440998,566.4239469442982,"[6, 0, 248]",248,a,0.2664073321502656,1,colour,0.5,3.9
73,20,0,1,8,33,383,566.9323061301839,567.75992049044,"[81, 0, 173]",173,l,0.30534453061409295,1,colour,0.5,3.9
73,20,0,1,8,34,384,568.2761790473014,569.2078967713751,"[54, 0, 200]",200,a,0.40952548244968057,0,colour,0.5,3.9
73,20,0,1,8,35,385,569.7137904809788,570.511933339294,"[62, 0, 192]",192,a,0.2758946903049946,0,colour,0.5,3.9
73,20,0,1,8,36,386,571.0263861117419,572.5598990651779,"[72, 0, 182]",182,l,1.011374668451026,1,colour,0.5,3.9
73,20,0,1,8,37,387,573.0734203916509,574.0239285123535,"[61, 0, 193]",193,a,0.42827452509664,0,colour,0.5,3.9
73,20,0,1,8,38,388,574.5422523978632,575.3439103323035,"[3, 0, 251]",251,a,0.2794507264625281,1,colour,0.5,3.9
73,20,0,1,8,39,389,575.8554734562058,576.7119275890291,"[73, 0, 181]",181,l,0.3348014601506293,1,colour,0.5,3.9
73,20,0,1,8,40,390,577.2299525456037,578.0559352012351,"[2, 0, 252]",252,a,0.3036884078755975,1,colour,0.5,3.9
73,20,0,1,8,41,391,578.573751419317,579.3839514814317,"[16, 0, 238]",238,a,0.28902039863169193,1,colour,0.5,3.9
73,20,0,1,8,42,392,579.9020934100263,580.7279074997641,"[35, 0, 219]",219,a,0.30355253093875945,1,colour,0.5,3.9
73,20,0,1,8,43,393,581.2460124068893,582.1199064380489,"[46, 0, 208]",208,a,0.3516659492161125,1,colour,0.5,3.9
73,20,0,1,8,44,394,582.6366781762335,583.5439321512822,"[67, 0, 187]",187,l,0.38500029337592423,1,colour,0.5,3.9
73,20,0,1,8,45,395,584.058679520851,584.9759501833469,"[92, 0, 162]",162,l,0.39507211931049824,1,colour,0.5,3.9
73,20,0,1,8,46,396,585.4963224623352,586.3519365214743,"[19, 0, 235]",235,a,0.3340610295999795,1,colour,0.5,3.9
73,20,0,1,8,47,397,586.8713352130726,587.8479123993311,"[56, 0, 198]",198,a,0.45438336906954646,0,colour,0.5,3.9
73,20,0,1,8,48,398,588.3559068837203,589.4558788025752,"[65, 0, 189]",189,l,0.5782582000829279,1,colour,0.5,3.9
73,20,0,1,8,49,399,589.9653517853003,590.7119047460146,"[75, 0, 179]",179,l,0.22422405425459146,1,colour,0.5,3.9
73,20,0,1,8,50,400,591.2310635852627,592.1439101747237,"[74, 0, 180]",180,l,0.39052319689653814,1,colour,0.5,3.9
73,20,0,1,9,1,401,596.9964309670031,598.4798833271489,"[20, 0, 234]",234,a,0.9603975955396891,1,colour,0.5,3.9
73,20,0,1,9,2,402,598.997326966608,600.015924378531,"[41, 0, 213]",213,a,0.49627677630633116,1,colour,0.5,3.9
73,20,0,1,9,3,403,600.5287052744534,601.3839014628902,"[34, 0, 220]",220,a,0.33297283295542,1,colour,0.5,3.9
73,20,0,1,9,4,404,601.9037822219543,602.4719347255304,"[2, 0, 252]",252,a,0.04585549863986671,1,colour,0.5,3.9
73,20,0,1,9,5,405,602.9820737019181,603.7839324979577,"[27, 0, 227]",227,a,0.27955903415568173,1,colour,0.5,3.9
73,20,0,1,9,6,406,604.2945996220224,605.2638949879911,"[79, 0, 175]",175,l,0.4473138318862766,1,colour,0.5,3.9
73,20,0,1,9,7,407,605.7791130035184,606.5679299805779,"[69, 0, 185]",185,l,0.2665396644733846,1,colour,0.5,3.9
73,20,0,1,9,8,408,607.0761154803913,607.9198944650125,"[17, 0, 237]",237,a,0.321551296627149,1,colour,0.5,3.9
73,20,0,1,9,9,409,608.435569341993,608.9759249771014,"[4, 0, 250]",250,a,0.018088956363499165,1,colour,0.5,3.9
73,20,0,1,9,10,410,609.4826351297088,610.087948191911,"[66, 0, 188]",188,l,0.0830908881034702,1,colour,0.5,3.9
73,20,0,1,9,11,411,610.6076320281718,611.3439359322656,"[64, 0, 190]",190,l,0.21414277632720768,1,colour,0.5,3.9
73,20,0,1,9,12,412,611.8577672156971,612.6398994433694,"[86, 0, 168]",168,l,0.2598698812071234,1,colour,0.5,3.9
73,20,0,1,9,13,413,613.1547177049797,613.9439100171439,"[25, 0, 229]",229,a,0.2669090919662267,1,colour,0.5,3.9
73,20,0,1,9,14,414,614.4517485387623,615.2879227495287,"[23, 0, 231]",231,a,0.31396936578676105,1,colour,0.5,3.9
73,20,0,1,9,15,415,615.7954796710983,616.5918931511696,"[67, 0, 187]",187,l,0.2742082413751632,1,colour,0.5,3.9
73,20,0,1,9,16,416,617.1081501326989,617.8720283822622,"[26, 0, 228]",228,a,0.24166119564324617,1,colour,0.5,3.9
73,20,0,1,9,17,417,618.3894889571238,619.1359324287623,"[88, 0, 166]",166,l,0.22415552521124482,1,colour,0.5,3.9
73,20,0,1,9,18,418,619.6552425047848,620.3838983122259,"[80, 0, 174]",174,l,0.20639779325574636,1,colour,0.5,3.9
73,20,0,1,9,19,419,620.8897364893928,621.5438876468688,"[47, 0, 207]",207,a,0.13194906944409013,1,colour,0.5,3.9
73,20,0,1,9,20,420,622.0616770833731,622.6958968723193,"[36, 0, 218]",218,a,0.11223746719770133,1,colour,0.5,3.9
73,20,0,1,9,21,421,623.2024061633274,623.7519045411609,"[38, 0, 216]",216,a,0.027307317592203617,1,colour,0.5,3.9
73,20,0,1,9,22,422,624.2649481324479,624.9118796973489,"[45, 0, 209]",209,a,0.12459399388171732,1,colour,0.5,3.9
73,20,0,1,9,23,423,625.4213975786697,626.1679221824743,"[56, 0, 198]",198,a,0.22442294680513442,0,colour,0.5,3.9
73,20,0,1,9,24,424,626.686985317152,627.3439166338649,"[52, 0, 202]",202,a,0.13462919206358492,0,colour,0.5,3.9
73,20,0,1,9,25,425,627.8589625386521,628.6478921554517,"[87, 0, 167]",167,l,0.2666156766936183,1,colour,0.5,3.9
73,20,0,1,9,26,426,629.1558602524456,629.887865326833,"[0, 0, 254]",254,a,0.20968207577243447,1,colour,0.5,3.9
73,20,0,1,9,27,427,630.4061104431748,631.1119231779594,"[19, 0, 235]",235,a,0.18352793925441802,1,colour,0.5,3.9
73,20,0,1,9,28,428,631.624911630759,632.3519109215122,"[62, 0, 192]",192,a,0.20472237188369036,0,colour,0.5,3.9
73,20,0,1,9,29,429,632.8593520524446,633.463914837921,"[60, 0, 194]",194,a,0.08228980540297925,0,colour,0.5,3.9
73,20,0,1,9,30,430,633.9688416554127,634.7119275890291,"[5, 0, 249]",249,a,0.22105123032815754,1,colour,0.5,3.9
73,20,0,1,9,31,431,635.2190048061311,635.9679003632627,"[96, 0, 158]",158,l,0.2267600290942937,1,colour,0.5,3.9
73,20,0,1,9,32,432,636.4846571353264,637.1679064284544,"[54, 0, 200]",200,a,0.16103578358888626,0,colour,0.5,3.9
73,20,0,1,9,33,433,637.687811606098,638.3519266752992,"[68, 0, 186]",186,a,0.1418251534923911,0,colour,0.5,3.9
73,20,0,1,9,34,434,638.8598644461017,639.6079037818126,"[31, 0, 223]",223,a,0.22585378936491907,1,colour,0.5,3.9
73,20,0,1,9,35,435,640.1255581290461,640.9359259696212,"[71, 0, 183]",183,l,0.28818308166228235,1,colour,0.5,3.9
73,20,0,1,9,36,436,641.4538311967626,642.1839560500812,"[53, 0, 201]",201,l,0.20791016216389835,1,colour,0.5,3.9
73,20,0,1,9,37,437,642.7039203045424,643.4959168008063,"[9, 0, 245]",245,a,0.26978338067419827,1,colour,0.5,3.9
73,20,0,1,9,38,438,644.0164883660618,644.7839210764505,"[76, 0, 178]",178,l,0.24507584096863866,1,colour,0.5,3.9
73,20,0,1,9,39,439,645.2979217136744,646.0798940397799,"[65, 0, 189]",189,a,0.25969068123959005,0,colour,0.5,3.9
73,20,0,1,9,40,440,646.595528744394,647.2879144786857,"[98, 0, 156]",156,l,0.17118204617872834,1,colour,0.5,3.9
73,20,0,1,9,41,441,647.798088507494,648.5439026129898,"[97, 0, 157]",157,l,0.2235824791714549,1,colour,0.5,3.9
73,20,0,1,9,42,442,649.0637656489853,650.1598999316338,"[78, 0, 176]",176,l,0.5738538193982095,1,colour,0.5,3.9
73,20,0,1,9,43,443,650.6733287044335,651.2718829743098,"[61, 0, 193]",193,a,0.07630255748517811,0,colour,0.5,3.9
73,20,0,1,9,44,444,651.7826584058348,652.3198963555042,"[51, 0, 203]",203,a,0.014887775527313352,0,colour,0.5,3.9
73,20,0,1,9,45,445,652.8296978059225,653.4479353211354,"[18, 0, 236]",236,a,0.09593027038499713,1,colour,0.5,3.9
73,20,0,1,9,46,446,653.9548124643043,655.0798735597637,"[14, 0, 240]",240,a,0.6027833891566843,1,colour,0.5,3.9
73,20,0,1,9,47,447,655.5955228365492,656.2718892756384,"[21, 0, 233]",233,a,0.15412693563848734,1,colour,0.5,3.9
73,20,0,1,9,48,448,656.7830388611183,657.351884533884,"[10, 0, 244]",244,a,0.04656757251359522,1,colour,0.5,3.9
73,20,0,1,9,49,449,657.8613279780839,658.4799183793366,"[11, 0, 243]",243,a,0.09653443028219044,1,colour,0.5,3.9
73,20,0,1,9,50,450,658.9864627227653,659.7118830843829,"[8, 0, 246]",246,a,0.20318007073365152,1,colour,0.5,3.9
73,20,0,1,10,1,451,664.7205248551909,665.3438819753937,"[44, 0, 210]",210,a,0.10028542019426823,1,colour,0.5,3.9
73,20,0,1,10,2,452,665.8619983040262,666.4478782133665,"[2, 0, 252]",252,a,0.06387080578133464,1,colour,0.5,3.9
73,20,0,1,10,3,453,666.9558360702358,667.6959126261063,"[82, 0, 172]",172,l,0.21785044320859015,1,colour,0.5,3.9
73,20,0,1,10,4,454,668.2059098179452,669.2159320190549,"[46, 0, 208]",208,a,0.48773189168423414,1,colour,0.5,3.9
73,20,0,1,10,5,455,669.721726085525,670.3838746813126,"[22, 0, 232]",232,a,0.13992445240728557,1,colour,0.5,3.9
73,20,0,1,10,6,456,670.8936241441406,671.5679799988866,"[78, 0, 176]",176,l,0.15220102830789983,1,colour,0.5,3.9
73,20,0,1,10,7,457,672.0812299656682,672.8238846377935,"[75, 0, 179]",179,l,0.22036751359701157,1,colour,0.5,3.9
73,20,0,1,10,8,458,673.3312773255166,674.0238863707054,"[7, 0, 247]",247,a,0.1703151911497116,1,colour,0.5,3.9
73,20,0,1,10,9,459,674.5346149348188,675.191882989835,"[34, 0, 220]",220,a,0.13502146257087588,1,colour,0.5,3.9
73,20,0,1,10,10,460,675.706537411781,676.4319254781585,"[42, 0, 212]",212,a,0.20302883395925164,1,colour,0.5,3.9
73,20,0,1,10,11,461,676.941007371759,677.5439242743887,"[0, 0, 254]",254,a,0.08065849472768605,1,colour,0.5,3.9
73,20,0,1,10,12,462,678.0511066485196,678.7278838690836,"[80, 0, 174]",174,l,0.15518244332633913,1,colour,0.5,3.9
73,20,0,1,10,13,463,679.2380259961355,680.2559038512409,"[24, 0, 230]",230,a,0.4955954225733876,1,colour,0.5,3.9
73,20,0,1,10,14,464,680.7694050916471,681.8319431224372,"[62, 0, 192]",192,a,0.5402217274531722,0,colour,0.5,3.9
73,20,0,1,10,15,465,682.3477211869322,682.9518857940566,"[48, 0, 206]",206,a,0.08246270357631147,1,colour,0.5,3.9
73,20,0,1,10,16,466,683.457124931505,684.3998797982931,"[50, 0, 204]",204,a,0.42049370193853974,1,colour,0.5,3.9
73,20,0,1,10,17,467,684.910338183865,685.5118978931569,"[93, 0, 161]",161,l,0.07934147375635803,1,colour,0.5,3.9
73,20,0,1,10,18,468,686.0198329070117,686.7839065040462,"[95, 0, 159]",159,l,0.2417710784357041,1,colour,0.5,3.9
73,20,0,1,10,19,469,687.301291460637,687.9838972094003,"[51, 0, 203]",203,a,0.16031662072055042,0,colour,0.5,3.9
73,20,0,1,10,20,470,688.4888476575725,689.207880229922,"[58, 0, 196]",196,a,0.19673989969305694,0,colour,0.5,3.9
73,20,0,1,10,21,471,689.7233735437039,690.4398547811434,"[36, 0, 218]",218,a,0.1942121956963092,1,colour,0.5,3.9
73,20,0,1,10,22,472,690.9579049437307,691.5438805576414,"[16, 0, 238]",238,a,0.0637491075322032,1,colour,0.5,3.9
73,20,0,1,10,23,473,692.0517675222363,692.9518511355855,"[19, 0, 235]",235,a,0.37792760552838445,1,colour,0.5,3.9
73,20,0,1,10,24,474,693.4580870976206,694.2398715589661,"[54, 0, 200]",200,a,0.2596083674579859,0,colour,0.5,3.9
73,20,0,1,10,25,475,694.755024589831,695.5198933621868,"[18, 0, 236]",236,a,0.24258318915963173,1,colour,0.5,3.9
73,20,0,1,10,26,476,696.0364547867794,696.8478651377372,"[67, 0, 187]",187,l,0.28926379536278546,1,colour,0.5,3.9
73,20,0,1,10,27,477,697.364607731346,698.1439082054421,"[74, 0, 180]",180,l,0.2570341893006116,1,colour,0.5,3.9
73,20,0,1,10,28,478,698.6616472296882,699.191909377696,"[73, 0, 181]",181,l,0.008338509127497673,1,colour,0.5,3.9
73,20,0,1,10,29,479,699.7085468142759,700.3839357274119,"[4, 0, 250]",250,a,0.1531218404415995,1,colour,0.5,3.9
73,20,0,1,10,30,480,700.896154605085,701.6638917585369,"[28, 0, 226]",226,a,0.24550198251381516,1,colour,0.5,3.9
73,20,0,1,10,31,481,702.1773488882463,702.9039677234832,"[89, 0, 165]",165,l,0.20515048247762024,1,colour,0.5,3.9
73,20,0,1,10,32,482,703.4118834389374,704.1839040622581,"[65, 0, 189]",189,a,0.250347864581272,0,colour,0.5,3.9
73,20,0,1,10,33,483,704.6933037897106,705.3998841305729,"[72, 0, 182]",182,a,0.18435540981590748,0,colour,0.5,3.9
73,20,0,1,10,34,484,705.9121931989212,706.687894313829,"[94, 0, 160]",160,l,0.25352187012322247,1,colour,0.5,3.9
73,20,0,1,10,35,485,707.1935706203803,707.9278702419251,"[29, 0, 225]",225,a,0.2122235642746091,1,colour,0.5,3.9
73,20,0,1,10,36,486,708.4436435804237,709.1998934252188,"[91, 0, 163]",163,l,0.23412455688230693,1,colour,0.5,3.9
73,20,0,1,10,37,487,709.7093242665287,710.5198776083998,"[53, 0, 201]",201,a,0.2883063554763794,0,colour,0.5,3.9
73,20,0,1,10,38,488,711.0376556233969,711.60790260043,"[43, 0, 211]",211,a,0.04807600285857916,1,colour,0.5,3.9
73,20,0,1,10,39,489,712.115837614052,712.8158769593574,"[13, 0, 241]",241,a,0.17789790965616703,1,colour,0.5,3.9
73,20,0,1,10,40,490,713.3346407711506,713.9359121848829,"[47, 0, 207]",207,a,0.07897401507943869,1,colour,0.5,3.9
73,20,0,1,10,41,491,714.4440701156855,715.071870607324,"[87, 0, 167]",167,l,0.10563660669140518,1,colour,0.5,3.9
73,20,0,1,10,42,492,715.5847932880279,716.2718869126402,"[40, 0, 214]",214,a,0.16488365991972387,1,colour,0.5,3.9
73,20,0,1,10,43,493,716.7880036849529,717.7758885857183,"[66, 0, 188]",188,a,0.4655788375530392,0,colour,0.5,3.9
73,20,0,1,10,44,494,718.2880720172543,719.0478806551546,"[52, 0, 202]",202,a,0.23747855005785823,0,colour,0.5,3.9
73,20,0,1,10,45,495,719.5539858601987,720.2238644729368,"[99, 0, 155]",155,l,0.14776080776937306,1,colour,0.5,3.9
73,20,0,1,10,46,496,720.7415129125584,721.5038839131594,"[84, 0, 170]",170,l,0.24018899886868894,1,colour,0.5,3.9
73,20,0,1,10,47,497,722.022841891041,722.8319163408596,"[14, 0, 240]",240,a,0.2869247435592115,1,colour,0.5,3.9
73,20,0,1,10,48,498,723.3510480048135,724.015881449217,"[41, 0, 213]",213,a,0.14315674710087478,1,colour,0.5,3.9
73,20,0,1,10,49,499,724.5229551217053,725.2158898776397,"[20, 0, 234]",234,a,0.17066492652520537,1,colour,0.5,3.9
73,20,0,1,10,50,500,725.7261804847512,726.3038884818088,"[30, 0, 224]",224,a,0.055399964563548565,1,colour,0.5,3.9
73,20,0,1,11,1,501,731.1789754724596,731.8478875870351,"[43, 0, 211]",211,a,0.14586798381060362,1,colour,0.5,3.8
73,20,0,1,11,2,502,732.3673713491298,733.3038731217384,"[46, 0, 208]",208,a,0.4143461585044861,1,colour,0.5,3.8
73,20,0,1,11,3,503,733.8205936599988,734.9358948557638,"[22, 0, 232]",232,a,0.5930459385272115,1,colour,0.5,3.8
73,20,0,1,11,4,504,735.4457837399095,736.9518676772714,"[94, 0, 160]",160,l,0.9839153264183551,1,colour,0.5,3.8
73,20,0,1,11,5,505,737.461639195215,738.3839806260075,"[74, 0, 180]",180,l,0.40038431505672634,1,colour,0.5,3.8
73,20,0,1,11,6,506,738.8991218414158,739.4318931826856,"[88, 0, 166]",166,l,0.010447554755955935,1,colour,0.5,3.8
73,20,0,1,11,7,507,739.946112010628,740.7278862320818,"[60, 0, 194]",194,a,0.2595772536005825,0,colour,0.5,3.8
73,20,0,1,11,8,508,741.2431290599052,741.9518605880439,"[11, 0, 243]",243,a,0.1864762711338699,1,colour,0.5,3.8
73,20,0,1,11,9,509,742.4619499398395,743.4078358828556,"[99, 0, 155]",155,l,0.42396978731267154,1,colour,0.5,3.8
73,20,0,1,11,10,510,743.9159008658025,744.5678724790923,"[56, 0, 198]",198,a,0.1303874698933214,0,colour,0.5,3.8
73,20,0,1,11,11,511,745.0871321428567,745.6878502031323,"[54, 0, 200]",200,a,0.07858844008296728,0,colour,0.5,3.8
73,20,0,1,11,12,512,746.1966296229511,746.7758684996516,"[36, 0, 218]",218,a,0.056981256464496255,1,colour,0.5,3.8
73,20,0,1,11,13,513,747.2904343060218,747.91985350498,"[62, 0, 192]",192,a,0.10717418184503913,0,colour,0.5,3.8
73,20,0,1,11,14,514,748.4311350290664,749.0638625351712,"[47, 0, 207]",207,a,0.11045098141767085,1,colour,0.5,3.8
73,20,0,1,11,15,515,749.5718459920026,750.4798888408113,"[63, 0, 191]",191,a,0.3856903116684407,0,colour,0.5,3.8
73,20,0,1,11,16,516,750.9939406781923,751.7198332613334,"[38, 0, 216]",216,a,0.20310681546106935,1,colour,0.5,3.8
73,20,0,1,11,17,517,752.2291502810549,753.0078568353783,"[33, 0, 221]",221,a,0.2564516910351813,1,colour,0.5,3.8
73,20,0,1,11,18,518,753.5261681179982,754.9678964249324,"[68, 0, 186]",186,l,0.9194691113661975,1,colour,0.5,3.8
73,20,0,1,11,19,519,755.4794540349394,756.5278908007313,"[4, 0, 250]",250,a,0.5262315270956606,1,colour,0.5,3.8
73,20,0,1,11,20,520,757.0420418870635,757.7998742056079,"[78, 0, 176]",176,l,0.23559478437528014,1,colour,0.5,3.8
73,20,0,1,11,21,521,758.3077765302733,759.0638991629239,"[32, 0, 222]",222,a,0.2338902186602354,1,colour,0.5,3.8
73,20,0,1,11,22,522,759.5734942378476,760.2718664326239,"[31, 0, 223]",223,a,0.1761074853129685,1,colour,0.5,3.8
73,20,0,1,11,23,523,760.7767893117853,761.5598521975335,"[26, 0, 228]",228,a,0.2609431117307395,1,colour,0.5,3.8
73,20,0,1,11,24,524,762.0737248347141,762.8319387901574,"[49, 0, 205]",205,a,0.23604928283020854,1,colour,0.5,3.8
73,20,0,1,11,25,525,763.3394523886964,763.9758974078577,"[35, 0, 219]",219,a,0.11428546672686934,1,colour,0.5,3.8
73,20,0,1,11,26,526,764.4958439392503,765.2718833680265,"[83, 0, 171]",171,l,0.2538723931647837,1,colour,0.5,3.8
73,20,0,1,11,27,527,765.7770945425145,766.527886074502,"[34, 0, 220]",220,a,0.22866309341043234,1,colour,0.5,3.8
73,20,0,1,11,28,528,767.0428988961503,767.7118618167005,"[16, 0, 238]",238,a,0.1467777679208666,1,colour,0.5,3.8
73,20,0,1,11,29,529,768.2304413085803,768.9198511419818,"[40, 0, 214]",214,a,0.1671207055915147,1,colour,0.5,3.8
73,20,0,1,11,30,530,769.4337304746732,770.199883185327,"[30, 0, 224]",224,a,0.24393762578256428,1,colour,0.5,3.8
73,20,0,1,11,31,531,770.7150090406649,771.5118533885106,"[80, 0, 174]",174,l,0.2745355274528265,1,colour,0.5,3.8
73,20,0,1,11,32,532,772.0276011268143,772.791862194892,"[73, 0, 181]",181,l,0.24221966927871108,1,colour,0.5,3.8
73,20,0,1,11,33,533,773.3089537362102,774.0398769152816,"[24, 0, 230]",230,a,0.20868879579938948,1,colour,0.5,3.8
73,20,0,1,11,34,534,774.5591239761561,775.3758689721581,"[81, 0, 173]",173,l,0.29455196647904813,1,colour,0.5,3.8
73,20,0,1,11,35,535,775.8873812898528,776.8319187038578,"[72, 0, 182]",182,l,0.4226760028395802,1,colour,0.5,3.8
73,20,0,1,11,36,536,777.3404775699601,778.12790427031,"[44, 0, 210]",210,a,0.2649591602385044,1,colour,0.5,3.8
73,20,0,1,11,37,537,778.6374855607282,779.3598969383165,"[25, 0, 229]",229,a,0.20013800356537104,1,colour,0.5,3.8
73,20,0,1,11,38,538,779.8720307452604,780.7998564825393,"[53, 0, 201]",201,a,0.40566342789679766,0,colour,0.5,3.8
73,20,0,1,11,39,539,781.3097201606724,781.9438765402883,"[59, 0, 195]",195,a,0.11206378089264035,0,colour,0.5,3.8
73,20,0,1,11,40,540,782.4502369575202,783.0798771043774,"[69, 0, 185]",185,l,0.10733053903095424,1,colour,0.5,3.8
73,20,0,1,11,41,541,783.591014480684,784.2239011004567,"[79, 0, 175]",175,l,0.11056243954226375,1,colour,0.5,3.8
73,20,0,1,11,42,542,784.731720717391,785.4958537854254,"[84, 0, 170]",170,l,0.24181794608011842,1,colour,0.5,3.8
73,20,0,1,11,43,543,786.012973289704,786.6799000261817,"[12, 0, 242]",242,a,0.14454466081224382,1,colour,0.5,3.8
73,20,0,1,11,44,544,787.1850143144839,787.8478600177914,"[37, 0, 217]",217,a,0.14059753553010523,1,colour,0.5,3.8
73,20,0,1,11,45,545,788.3570773943793,789.3278788276948,"[14, 0, 240]",240,a,0.4486450315453112,1,colour,0.5,3.8
73,20,0,1,11,46,546,789.8414623821154,790.7679132027552,"[65, 0, 189]",189,a,0.40415460360236466,0,colour,0.5,3.8
73,20,0,1,11,47,547,791.2791238343343,792.143897571601,"[2, 0, 252]",252,a,0.34251966164447367,1,colour,0.5,3.8
73,20,0,1,11,48,548,792.6542098403443,793.4638604870997,"[97, 0, 157]",157,l,0.28734418959356844,1,colour,0.5,3.8
73,20,0,1,11,49,549,793.9824238312431,795.3758721230552,"[58, 0, 196]",196,a,0.8710996932350099,0,colour,0.5,3.8
73,20,0,1,11,50,550,795.8888987789396,797.0638755320106,"[75, 0, 179]",179,l,0.6526986530516297,1,colour,0.5,3.8
73,20,0,1,12,1,551,801.9041536189616,802.8558932961896,"[89, 0, 165]",165,l,0.4285931463818997,1,colour,0.5,3.8
73,20,0,1,12,2,552,803.3738599633798,803.9838590063155,"[43, 0, 211]",211,a,0.08731764438562095,1,colour,0.5,3.8
73,20,0,1,12,3,553,804.499451963231,805.3758642459288,"[28, 0, 226]",226,a,0.35425273003056645,1,colour,0.5,3.8
73,20,0,1,12,4,554,805.8900377817918,806.567866177531,"[47, 0, 207]",207,a,0.15546207409352064,1,colour,0.5,3.8
73,20,0,1,12,5,555,807.0777865692507,808.1838843699079,"[42, 0, 212]",212,a,0.5841761310584843,1,colour,0.5,3.8
73,20,0,1,12,6,556,808.7028750369791,809.4638884502929,"[65, 0, 189]",189,l,0.2388767038937658,1,colour,0.5,3.8
73,20,0,1,12,7,557,809.9841453323606,810.5998665650841,"[69, 0, 185]",185,l,0.09351796330884099,1,colour,0.5,3.8
73,20,0,1,12,8,558,811.1092883476522,811.8318915285636,"[41, 0, 213]",213,a,0.20045465603470802,1,colour,0.5,3.8
73,20,0,1,12,9,559,812.3437839078251,813.1278727625031,"[58, 0, 196]",196,a,0.2623936466407031,0,colour,0.5,3.8
73,20,0,1,12,10,560,813.6406930431258,814.5198858792428,"[73, 0, 181]",181,l,0.3569328528828919,1,colour,0.5,3.8
73,20,0,1,12,11,561,815.0314974461216,815.7918661332224,"[93, 0, 161]",161,l,0.23813784844242036,1,colour,0.5,3.8
73,20,0,1,12,12,562,816.2971292953007,816.8318883776665,"[97, 0, 157]",157,l,0.012504219077527523,1,colour,0.5,3.8
73,20,0,1,12,13,563,817.3441147385165,818.1279444424435,"[62, 0, 192]",192,a,0.2620218559168279,0,colour,0.5,3.8
73,20,0,1,12,14,564,818.6410585322883,819.559851015918,"[29, 0, 225]",225,a,0.39653210644610226,1,colour,0.5,3.8
73,20,0,1,12,15,565,820.0786679969169,820.8558452469297,"[22, 0, 232]",232,a,0.25513506354764104,1,colour,0.5,3.8
73,20,0,1,12,16,566,821.3757161598187,822.1038828103337,"[16, 0, 238]",238,a,0.20587909780442715,1,colour,0.5,3.8
73,20,0,1,12,17,567,822.6101132584736,823.3838471120689,"[38, 0, 216]",216,a,0.2514663874171674,1,colour,0.5,3.8
73,20,0,1,12,18,568,823.891420181375,824.6318511986174,"[35, 0, 219]",219,a,0.218045003246516,1,colour,0.5,3.8
73,20,0,1,12,19,569,825.1415868767072,825.9518487725873,"[64, 0, 190]",190,l,0.2880487802904099,1,colour,0.5,3.8
73,20,0,1,12,20,570,826.4698500982486,827.4558917994145,"[40, 0, 214]",214,a,0.46376084396615624,1,colour,0.5,3.8
73,20,0,1,12,21,571,827.9699365475681,828.7518643687945,"[92, 0, 162]",162,l,0.2596694133244455,1,colour,0.5,3.8
73,20,0,1,12,22,572,829.2669508396648,830.0638444181532,"[20, 0, 234]",234,a,0.2746016934979707,1,colour,0.5,3.8
73,20,0,1,12,23,573,830.5795125998557,831.3518561769743,"[95, 0, 159]",159,l,0.25009895395487547,1,colour,0.5,3.8
73,20,0,1,12,24,574,831.8609546120279,832.8878444528673,"[59, 0, 195]",195,l,0.5047921221703291,1,colour,0.5,3.8
73,20,0,1,12,25,575,833.4078311566263,834.199889092939,"[63, 0, 191]",191,l,0.2696983099449426,1,colour,0.5,3.8
73,20,0,1,12,26,576,834.7048635657411,835.6478405618109,"[30, 0, 224]",224,a,0.42066699429415166,1,colour,0.5,3.8
73,20,0,1,12,27,577,836.158106750343,836.9358802833594,"[80, 0, 174]",174,l,0.2554765280801803,1,colour,0.5,3.8
73,20,0,1,12,28,578,837.4556468273513,838.2158524622209,"[71, 0, 183]",183,l,0.23854547925293446,1,colour,0.5,3.8
73,20,0,1,12,29,579,838.7207958211657,839.5278581115417,"[12, 0, 242]",242,a,0.28479955019429326,1,colour,0.5,3.8
73,20,0,1,12,30,580,840.0333083504811,840.8238515546545,"[54, 0, 200]",200,a,0.26806699950248003,0,colour,0.5,3.8
73,20,0,1,12,31,581,841.3304033810273,842.1038706011605,"[14, 0, 240]",240,a,0.25124465208500624,1,colour,0.5,3.8
73,20,0,1,12,32,582,842.6117540211417,843.3598414061125,"[85, 0, 169]",169,l,0.226139327744022,1,colour,0.5,3.8
73,20,0,1,12,33,583,843.8774776365608,844.8078795210458,"[44, 0, 210]",210,a,0.4083277964964509,1,colour,0.5,3.8
73,20,0,1,12,34,584,845.3150796180125,846.0878308257088,"[36, 0, 218]",218,a,0.25040654744952917,1,colour,0.5,3.8
73,20,0,1,12,35,585,846.5963877225295,847.3678581430577,"[4, 0, 250]",250,a,0.2491864124312997,1,colour,0.5,3.8
73,20,0,1,12,36,586,847.8777576610446,848.815887987148,"[68, 0, 186]",186,l,0.41601133975200355,1,colour,0.5,3.8
73,20,0,1,12,37,587,849.3309575226158,850.1118621318601,"[61, 0, 193]",193,l,0.25855876761488616,1,colour,0.5,3.8
73,20,0,1,12,38,588,850.6280068671331,851.3358502723277,"[19, 0, 235]",235,a,0.18573465873487294,1,colour,0.5,3.8
73,20,0,1,12,39,589,851.8468403501902,852.6398604523856,"[67, 0, 187]",187,l,0.2707242788746953,1,colour,0.5,3.8
73,20,0,1,12,40,590,853.159406442428,853.8718322468922,"[32, 0, 222]",222,a,0.19017369812354445,1,colour,0.5,3.8
73,20,0,1,12,41,591,854.3782509532757,854.9918422661722,"[10, 0, 244]",244,a,0.09148926194757223,1,colour,0.5,3.8
73,20,0,1,12,42,592,855.5034254763741,856.0478582060896,"[9, 0, 245]",245,a,0.02222394640557468,1,colour,0.5,3.8
73,20,0,1,12,43,593,856.5659123070072,857.2718802173622,"[94, 0, 160]",160,l,0.18358150240965188,1,colour,0.5,3.8
73,20,0,1,12,44,594,857.7848513408098,858.6878462645691,"[72, 0, 182]",182,l,0.380818041972816,1,colour,0.5,3.8
73,20,0,1,12,45,595,859.2066100763623,859.911905297311,"[31, 0, 223]",223,a,0.18299860996194184,1,colour,0.5,3.8
73,20,0,1,12,46,596,860.4257105870638,861.3838766505942,"[52, 0, 202]",202,a,0.43599272635765374,0,colour,0.5,3.8
73,20,0,1,12,47,597,861.8945685869548,862.6558939262759,"[1, 0, 253]",253,a,0.23931899294257164,1,colour,0.5,3.8
73,20,0,1,12,48,598,863.175874722423,863.9358515327331,"[88, 0, 166]",166,l,0.2376833502203226,1,colour,0.5,3.8
73,20,0,1,12,49,599,864.4416503254324,865.2878412234131,"[91, 0, 163]",163,l,0.32396360393613577,1,colour,0.5,3.8
73,20,0,1,12,50,600,865.801116789924,866.5278431454208,"[15, 0, 239]",239,a,0.20487794117070735,1,colour,0.5,3.8
73,20,0,1,13,1,601,870.6600651501212,871.26384772663,"[31, 0, 223]",223,a,0.08088141190819442,1,colour,0.5,3.8
73,20,0,1,13,2,602,871.7703857682645,872.6398072831798,"[75, 0, 179]",179,l,0.3471871316432953,1,colour,0.5,3.8
73,20,0,1,13,3,603,873.1454335714225,873.7918641641736,"[18, 0, 236]",236,a,0.12442030780948699,1,colour,0.5,3.8
73,20,0,1,13,4,604,874.3017538359854,875.1758794484194,"[13, 0, 241]",241,a,0.3518542074598372,1,colour,0.5,3.8
73,20,0,1,13,5,605,875.6924605651293,876.4878618610092,"[21, 0, 233]",233,a,0.27305545401759446,1,colour,0.5,3.8
73,20,0,1,13,6,606,877.0051089713816,877.8958544943016,"[51, 0, 203]",203,l,0.3685473734512925,1,colour,0.5,3.8
73,20,0,1,13,7,607,878.4114561160095,879.1918569961563,"[8, 0, 246]",246,a,0.25839374610222876,1,colour,0.5,3.8
73,20,0,1,13,8,608,879.7083924266044,880.2958737141453,"[3, 0, 251]",251,a,0.06513780867680907,1,colour,0.5,3.8
73,20,0,1,13,9,609,880.8022317681462,881.5518464883789,"[70, 0, 184]",184,l,0.22727990616112947,1,colour,0.5,3.8
73,20,0,1,13,10,610,882.067992011318,882.8558716345578,"[61, 0, 193]",193,l,0.26572873536497355,1,colour,0.5,3.8
73,20,0,1,13,11,611,883.364938168088,884.1358256964013,"[69, 0, 185]",185,l,0.24855468329042196,1,colour,0.5,3.8
73,20,0,1,13,12,612,884.6463266173378,885.3838947676122,"[82, 0, 172]",172,l,0.21537905931472778,1,colour,0.5,3.8
73,20,0,1,13,13,613,885.8964027280454,886.6798760015517,"[38, 0, 216]",216,a,0.2612266808282584,1,colour,0.5,3.8
73,20,0,1,13,14,614,887.1934504972305,888.0798940397799,"[64, 0, 190]",190,l,0.3642130976077169,1,colour,0.5,3.8
73,20,0,1,13,15,615,888.5996554635931,889.4238390303217,"[37, 0, 217]",217,a,0.30187829118222,1,colour,0.5,3.8
73,20,0,1,13,16,616,889.9436496850103,890.7038750122301,"[14, 0, 240]",240,a,0.23812170093879104,1,colour,0.5,3.8
73,20,0,1,13,17,617,891.2093382480089,891.9198779235594,"[72, 0, 182]",182,l,0.18818556307815015,1,colour,0.5,3.8
73,20,0,1,13,18,618,892.4281520387158,893.1438381008338,"[46, 0, 208]",208,a,0.19360212795436382,1,colour,0.5,3.8
73,20,0,1,13,19,619,893.6626668972895,894.4958333054092,"[47, 0, 207]",207,a,0.31098046782426536,1,colour,0.5,3.8
73,20,0,1,13,20,620,895.0065094879828,895.6878368123434,"[23, 0, 231]",231,a,0.15904883039183915,1,colour,0.5,3.8
73,20,0,1,13,21,621,896.1940621403046,896.9678531016689,"[63, 0, 191]",191,l,0.25160344573669136,1,colour,0.5,3.8
73,20,0,1,13,22,622,897.4754198694136,898.1678749208804,"[10, 0, 244]",244,a,0.17017458798363805,1,colour,0.5,3.8
73,20,0,1,13,23,623,898.6787117924541,899.367871139897,"[87, 0, 167]",167,l,0.16723492089658976,1,colour,0.5,3.8
73,20,0,1,13,24,624,899.8818666571751,900.5598584990948,"[48, 0, 206]",206,a,0.15568341547623277,1,colour,0.5,3.8
73,20,0,1,13,25,625,901.0695323431864,901.8318619900383,"[33, 0, 221]",221,a,0.2400932942982763,1,colour,0.5,3.8
73,20,0,1,13,26,626,902.3508294201456,903.0798428396229,"[28, 0, 226]",226,a,0.20716815604828298,1,colour,0.5,3.8
73,20,0,1,13,27,627,903.5852863832843,904.2398408390582,"[88, 0, 166]",166,l,0.13221018947660923,1,colour,0.5,3.8
73,20,0,1,13,28,628,904.7572549402248,905.4878752515651,"[6, 0, 248]",248,a,0.2083323651459068,1,colour,0.5,3.8
73,20,0,1,13,29,629,906.0073913093656,907.0798601689748,"[55, 0, 199]",199,a,0.5502132086548954,0,colour,0.5,3.8
73,20,0,1,13,30,630,907.5856380877085,908.2638500896282,"[93, 0, 161]",161,l,0.15600282466039062,1,colour,0.5,3.8
73,20,0,1,13,31,631,908.7732380016241,909.5438663791865,"[86, 0, 168]",168,l,0.24839399429038167,1,colour,0.5,3.8
73,20,0,1,13,32,632,910.054609909188,910.8398369792849,"[44, 0, 210]",210,a,0.2631955174729228,1,colour,0.5,3.8
73,20,0,1,13,33,633,911.3515741832089,912.0638140921947,"[43, 0, 211]",211,a,0.19051043642684817,1,colour,0.5,3.8
73,20,0,1,13,34,634,912.5704624108039,913.1838540439494,"[16, 0, 238]",238,a,0.09121711435727775,1,colour,0.5,3.8
73,20,0,1,13,35,635,913.6954904231243,914.3518565706909,"[9, 0, 245]",245,a,0.1343231734354049,1,colour,0.5,3.8
73,20,0,1,13,36,636,914.8674593737815,915.5358216790482,"[40, 0, 214]",214,a,0.146132254274562,1,colour,0.5,3.8
73,20,0,1,13,37,637,916.055049441522,916.9518377447966,"[60, 0, 194]",194,l,0.3745373785495758,1,colour,0.5,3.8
73,20,0,1,13,38,638,917.4614406968467,918.1678272655699,"[50, 0, 204]",204,l,0.18432193296030164,0,colour,0.5,3.8
73,20,0,1,13,39,639,918.6802596077323,919.3679373059422,"[83, 0, 171]",171,a,0.16511839209124446,0,colour,0.5,3.8
73,20,0,1,13,40,640,919.8833857213613,920.54387425608,"[80, 0, 174]",174,l,0.13811984984204173,1,colour,0.5,3.8
73,20,0,1,13,41,641,921.0554838536773,922.8079015763942,"[99, 0, 155]",155,l,1.2301565578673035,1,colour,0.5,3.8
73,20,0,1,13,42,642,923.3212803306524,924.4478321333881,"[27, 0, 227]",227,a,0.6042772470973432,1,colour,0.5,3.8
73,20,0,1,13,43,643,924.9619292628486,925.7358320767526,"[84, 0, 170]",170,l,0.2516853658016771,1,colour,0.5,3.8
73,20,0,1,13,44,644,926.2434039644431,927.2238396606408,"[67, 0, 187]",187,l,0.45830174372531474,1,colour,0.5,3.8
73,20,0,1,13,45,645,927.7435128628276,928.4958529977594,"[73, 0, 181]",181,l,0.23015104397200048,1,colour,0.5,3.8
73,20,0,1,13,46,646,929.0091777951457,929.7518375874497,"[85, 0, 169]",169,l,0.22037027054466307,1,colour,0.5,3.8
73,20,0,1,13,47,647,930.2592802937143,930.999822769314,"[39, 0, 215]",215,a,0.2182438955642283,1,colour,0.5,3.8
73,20,0,1,13,48,648,931.509391850559,932.3278217201587,"[20, 0, 234]",234,a,0.2961702800821513,1,colour,0.5,3.8
73,20,0,1,13,49,649,932.8375869365409,933.7838289164938,"[54, 0, 200]",200,a,0.4238595103379339,0,colour,0.5,3.8
73,20,0,1,13,50,650,934.2908513888251,935.0158570308704,"[94, 0, 160]",160,l,0.20262277871370316,1,colour,0.5,3.8
73,20,0,1,14,1,651,940.0405696905218,941.1358418441378,"[17, 0, 237]",237,a,0.5722614997066557,1,colour,0.5,3.8
73,20,0,1,14,2,652,941.6508385180496,942.4318408011459,"[89, 0, 165]",165,l,0.25876947515644133,1,colour,0.5,3.8
73,20,0,1,14,3,653,942.9478402072564,943.5118478746153,"[12, 0, 242]",242,a,0.041800853330641985,1,colour,0.5,3.8
73,20,0,1,14,4,654,944.0259965979494,944.7358281381894,"[24, 0, 230]",230,a,0.18753256602212787,1,colour,0.5,3.8
73,20,0,1,14,5,655,945.2448930963874,945.9438371558208,"[19, 0, 235]",235,a,0.17696016211993992,1,colour,0.5,3.8
73,20,0,1,14,6,656,946.4637446964625,947.1518501117826,"[6, 0, 248]",248,a,0.1658170751761645,1,colour,0.5,3.8
73,20,0,1,14,7,657,947.6668207917828,948.463856942486,"[26, 0, 228]",228,a,0.2746052381116897,1,colour,0.5,3.8
73,20,0,1,14,8,658,948.9795463918708,949.5998677464668,"[10, 0, 244]",244,a,0.09809563611634076,1,colour,0.5,3.8
73,20,0,1,14,9,659,950.1202254532836,950.9278261312284,"[66, 0, 188]",188,l,0.28544309455901384,1,colour,0.5,3.8
73,20,0,1,14,10,660,951.4326926902868,952.2318666374777,"[85, 0, 169]",169,l,0.27673752093687654,1,colour,0.5,3.8
73,20,0,1,14,11,661,952.7454765792936,953.6638567063492,"[60, 0, 194]",194,l,0.3962950112763792,1,colour,0.5,3.8
73,20,0,1,14,12,662,954.1830572932959,954.9518625573255,"[72, 0, 182]",182,l,0.2464263392612338,1,colour,0.5,3.8
73,20,0,1,14,13,663,955.464369336376,957.6478350479156,"[2, 0, 252]",252,a,1.6611360176466405,1,colour,0.5,3.8
73,20,0,1,14,14,664,958.1677815793082,958.9359996188432,"[18, 0, 236]",236,a,0.2460470653604716,1,colour,0.5,3.8
73,20,0,1,14,15,665,959.4491109515075,960.095856621163,"[14, 0, 240]",240,a,0.12450459087267518,1,colour,0.5,3.8
73,20,0,1,14,16,666,960.6055367670488,961.4478447365109,"[42, 0, 212]",212,a,0.320194497006014,1,colour,0.5,3.8
73,20,0,1,14,17,667,961.9649618777912,962.5598328991327,"[50, 0, 204]",204,a,0.07259449665434659,1,colour,0.5,3.8
73,20,0,1,14,18,668,963.074421154568,963.7358576767147,"[29, 0, 225]",225,a,0.13925136951729655,1,colour,0.5,3.8
73,20,0,1,14,19,669,964.2464609977324,964.8718275206629,"[23, 0, 231]",231,a,0.10325935203582048,1,colour,0.5,3.8
73,20,0,1,14,20,670,965.3870841329917,966.3918370674364,"[78, 0, 176]",176,l,0.4825721140950918,1,colour,0.5,3.8
73,20,0,1,14,21,671,966.9028905546293,967.8878259421326,"[49, 0, 205]",205,a,0.46272778580896556,1,colour,0.5,3.8
73,20,0,1,14,22,672,968.4029616438784,969.1838367145974,"[96, 0, 158]",158,l,0.25859381980262697,1,colour,0.5,3.8
73,20,0,1,14,23,673,969.6998983484227,970.2878341341857,"[97, 0, 157]",157,l,0.06568840565159917,1,colour,0.5,3.8
73,20,0,1,14,24,674,970.7937408406287,971.6238384002354,"[39, 0, 215]",215,a,0.30786553933285177,1,colour,0.5,3.8
73,20,0,1,14,25,675,972.1376129698474,972.8558783300687,"[81, 0, 173]",173,l,0.19603570294566453,1,colour,0.5,3.8
73,20,0,1,14,26,676,973.3720738713164,974.0398257153574,"[13, 0, 241]",241,a,0.14551194687373936,1,colour,0.5,3.8
73,20,0,1,14,27,677,974.5596989914775,975.4078410028014,"[86, 0, 168]",168,l,0.3266626310069114,1,colour,0.5,3.8
73,20,0,1,14,28,678,975.9192048406694,976.7198474397883,"[71, 0, 183]",183,l,0.2784279081970453,1,colour,0.5,3.8
73,20,0,1,14,29,679,977.2317780221347,978.0398524967022,"[91, 0, 163]",163,l,0.28576762368902564,1,colour,0.5,3.8
73,20,0,1,14,30,680,978.5600321851671,979.8238326502033,"[63, 0, 191]",191,l,0.7423462907318026,1,colour,0.5,3.8
73,20,0,1,14,31,681,980.3415086588357,981.1118420457933,"[30, 0, 224]",224,a,0.24868386494927108,1,colour,0.5,3.8
73,20,0,1,14,32,682,981.6227466589771,982.4398535995279,"[1, 0, 253]",253,a,0.2947827603202313,1,colour,0.5,3.8
73,20,0,1,14,33,683,982.9509515911341,983.8238302869722,"[82, 0, 172]",172,l,0.35067030624486506,1,colour,0.5,3.8
73,20,0,1,14,34,684,984.3417201542761,985.1198516932782,"[45, 0, 209]",209,a,0.2564087617211044,1,colour,0.5,3.8
73,20,0,1,14,35,685,985.6387218434829,986.3599087537732,"[20, 0, 234]",234,a,0.19890172081068158,1,colour,0.5,3.8
73,20,0,1,14,36,686,986.8731760496739,987.799866722431,"[57, 0, 197]",197,a,0.4045130033046007,0,colour,0.5,3.8
73,20,0,1,14,37,687,988.3107154096942,989.0878410658333,"[16, 0, 238]",238,a,0.25491214683279395,1,colour,0.5,3.8
73,20,0,1,14,38,688,989.6077316710725,990.3838561705779,"[27, 0, 227]",227,a,0.2538570330943912,1,colour,0.5,3.8
73,20,0,1,14,39,689,990.8890834925696,991.6558368185069,"[95, 0, 159]",159,l,0.2443704626057297,1,colour,0.5,3.8
73,20,0,1,14,40,690,992.1704644588754,992.9918383278418,"[32, 0, 222]",222,l,0.2991044335067272,0,colour,0.5,3.8
73,20,0,1,14,41,691,993.4986918403301,994.4880355470814,"[21, 0, 233]",233,a,0.4670939634088427,1,colour,0.5,3.8
73,20,0,1,14,42,692,994.9988113725558,995.9838412832469,"[65, 0, 189]",189,l,0.463433951837942,1,colour,0.5,3.8
73,20,0,1,14,43,693,996.4989785603248,997.4718441409059,"[38, 0, 216]",216,a,0.45058236038312316,1,colour,0.5,3.8
73,20,0,1,14,44,694,997.9833426740952,998.7118208569009,"[98, 0, 156]",156,l,0.20608389796689153,1,colour,0.5,3.8
73,20,0,1,14,45,695,999.2179276370443,1000.1438700025901,"[67, 0, 187]",187,l,0.40378044988028705,1,colour,0.5,3.8
73,20,0,1,14,46,696,1000.6555000802036,1001.3758547937032,"[61, 0, 193]",193,l,0.19825975177809596,1,colour,0.5,3.8
73,20,0,1,14,47,697,1001.8899743724614,1002.7438090350479,"[94, 0, 160]",160,l,0.33154829149134457,1,colour,0.5,3.8
73,20,0,1,14,48,698,1003.2495003077202,1004.2878522509709,"[53, 0, 201]",201,a,0.5161021999083459,0,colour,0.5,3.8
73,20,0,1,14,49,699,1004.7964662555605,1005.6798539462034,"[76, 0, 178]",178,l,0.3611533073708415,1,colour,0.5,3.8
73,20,0,1,14,50,700,1006.1871887384914,1006.9358133296482,"[92, 0, 162]",162,l,0.22639611549675465,1,colour,0.5,3.8
73,20,0,1,15,1,701,1012.0618834586348,1013.3998128443491,"[50, 0, 204]",204,a,0.8149388178717345,1,colour,0.5,3.8
73,20,0,1,15,2,702,1013.9065702585503,1014.5118088838644,"[28, 0, 226]",226,a,0.08304638369008899,1,colour,0.5,3.8
73,20,0,1,15,3,703,1015.0316987014376,1015.8718094036449,"[58, 0, 196]",196,a,0.31788419582881033,0,colour,0.5,3.8
73,20,0,1,15,4,704,1016.39112381218,1017.0878052257467,"[93, 0, 161]",161,l,0.17439189180731773,1,colour,0.5,3.8
73,20,0,1,15,5,705,1017.5943503568415,1018.4238213072531,"[76, 0, 178]",178,l,0.3073826839681715,1,colour,0.5,3.8
73,20,0,1,15,6,706,1018.9382173661143,1019.4958191269543,"[79, 0, 175]",175,l,0.0353461098857224,1,colour,0.5,3.8
73,20,0,1,15,7,707,1020.0164182614535,1020.559804542223,"[33, 0, 221]",221,a,0.021100697573274374,1,colour,0.5,3.8
73,20,0,1,15,8,708,1021.0790260029025,1021.6878249968868,"[52, 0, 202]",202,a,0.08680249354802072,0,colour,0.5,3.8
73,20,0,1,15,9,709,1022.204047319945,1022.7438228197861,"[43, 0, 211]",211,a,0.017394605791196227,1,colour,0.5,3.8
73,20,0,1,15,10,710,1023.2513068797998,1023.8319124022964,"[48, 0, 206]",206,a,0.0586444684304297,1,colour,0.5,3.8
73,20,0,1,15,11,711,1024.3448571383487,1024.927795017371,"[5, 0, 249]",249,a,0.061337587889283895,1,colour,0.5,3.8
73,20,0,1,15,12,712,1025.438734289026,1026.1838382899296,"[95, 0, 159]",159,l,0.22272783308289945,1,colour,0.5,3.8
73,20,0,1,15,13,713,1026.7044275782537,1027.3518483000807,"[34, 0, 220]",220,a,0.12515601236373186,1,colour,0.5,3.8
73,20,0,1,15,14,714,1027.860761627555,1028.495832517743,"[6, 0, 248]",248,a,0.1129156700335443,1,colour,0.5,3.8
73,20,0,1,15,15,715,1029.0015454520471,1031.1918739315588,"[64, 0, 190]",190,l,1.6686895915772766,1,colour,0.5,3.8
73,20,0,1,15,16,716,1031.7046772765461,1032.6318665586878,"[61, 0, 193]",193,a,0.4056512184906751,0,colour,0.5,3.8
73,20,0,1,15,17,717,1033.142658138182,1033.7678482180927,"[15, 0, 239]",239,a,0.10327037959359586,1,colour,0.5,3.8
73,20,0,1,15,18,718,1034.28343881201,1035.1678434130736,"[53, 0, 201]",201,a,0.36257351632229984,0,colour,0.5,3.8
73,20,0,1,15,19,719,1035.67387811956,1036.4238201258704,"[74, 0, 180]",180,l,0.22772377054207027,1,colour,0.5,3.8
73,20,0,1,15,20,720,1036.9396608120296,1037.8318391470239,"[51, 0, 203]",203,a,0.36994158872403204,0,colour,0.5,3.8
73,20,0,1,15,21,721,1038.3460536426865,1039.0718056228943,"[84, 0, 170]",170,l,0.20396382454782724,1,colour,0.5,3.8
73,20,0,1,15,22,722,1039.5803928456735,1040.1918451806996,"[85, 0, 169]",169,l,0.08947158860974014,1,colour,0.5,3.8
73,20,0,1,15,23,723,1040.7054468519054,1041.3278225078247,"[8, 0, 246]",246,a,0.09998452197760344,1,colour,0.5,3.8
73,20,0,1,15,24,724,1041.8462885718327,1043.1118223534431,"[66, 0, 188]",188,a,0.7433088505640626,0,colour,0.5,3.8
73,20,0,1,15,25,725,1043.627664220985,1044.3438272308558,"[56, 0, 198]",198,a,0.19407238019630313,0,colour,0.5,3.8
73,20,0,1,15,26,726,1044.8621062180027,1045.5117931300774,"[17, 0, 237]",237,a,0.12760888575576246,1,colour,0.5,3.8
73,20,0,1,15,27,727,1046.0184670486487,1046.7358190796804,"[55, 0, 199]",199,a,0.1950183983426541,0,colour,0.5,3.8
73,20,0,1,15,28,728,1047.2529523686972,1047.943813918857,"[39, 0, 215]",215,a,0.16858660080470145,1,colour,0.5,3.8
73,20,0,1,15,29,729,1048.4561663102359,1049.1038450011984,"[96, 0, 158]",158,l,0.12547778454609215,1,colour,0.5,3.8
73,20,0,1,15,30,730,1049.6124893317465,1050.3518069460988,"[26, 0, 228]",228,a,0.21730181551538408,1,colour,0.5,3.8
73,20,0,1,15,31,731,1050.862582771806,1051.551831522258,"[10, 0, 244]",244,a,0.16702578868716955,1,colour,0.5,3.8
73,20,0,1,15,32,732,1052.0659121100325,1052.7998513625935,"[92, 0, 162]",162,l,0.21171235223300755,1,colour,0.5,3.8
73,20,0,1,15,33,733,1053.3158984240144,1053.9758426633198,"[36, 0, 218]",218,a,0.13775632996112108,1,colour,0.5,3.8
73,20,0,1,15,34,734,1054.4878701316193,1055.0558131090365,"[91, 0, 163]",163,l,0.04567039106041193,1,colour,0.5,3.8
73,20,0,1,15,35,735,1055.5661399501842,1056.3438666153233,"[62, 0, 192]",192,a,0.2554820419754833,0,colour,0.5,3.8
73,20,0,1,15,36,736,1056.863077836344,1057.519808685407,"[13, 0, 241]",241,a,0.1344972534570843,1,colour,0.5,3.8
73,20,0,1,15,37,737,1058.0350373347756,1058.6798389800824,"[22, 0, 232]",232,a,0.12247864669188857,1,colour,0.5,3.8
73,20,0,1,15,38,738,1059.191313488409,1060.0958156611305,"[89, 0, 165]",165,l,0.382173266261816,1,colour,0.5,3.8
73,20,0,1,15,39,739,1060.6134125068784,1061.359833529219,"[54, 0, 200]",200,a,0.2241941220127046,0,colour,0.5,3.8
73,20,0,1,15,40,740,1061.87917708233,1062.679816924734,"[25, 0, 229]",229,a,0.27865161281079054,1,colour,0.5,3.8
73,20,0,1,15,41,741,1063.191713242326,1064.6078458866104,"[65, 0, 189]",189,l,0.8938112210016698,1,colour,0.5,3.8
73,20,0,1,15,42,742,1065.113769528456,1065.759816908976,"[14, 0, 240]",240,a,0.1237558894790709,1,colour,0.5,3.8
73,20,0,1,15,43,743,1066.2701118483674,1066.887802311452,"[23, 0, 231]",231,a,0.09552106424234807,1,colour,0.5,3.8
73,20,0,1,15,44,744,1067.3950882668141,1068.0478034613188,"[68, 0, 186]",186,l,0.13065607263706625,1,colour,0.5,3.8
73,20,0,1,15,45,745,1068.5670493405778,1069.183811508352,"[29, 0, 225]",225,a,0.09441908285953104,1,colour,0.5,3.8
73,20,0,1,15,46,746,1069.6922108668368,1070.3438331384677,"[46, 0, 208]",208,a,0.1298175745178014,1,colour,0.5,3.8
73,20,0,1,15,47,747,1070.8640738730319,1071.4798159794882,"[45, 0, 209]",209,a,0.09341004933230579,1,colour,0.5,3.8
73,20,0,1,15,48,748,1071.9892235836014,1072.6958330692723,"[4, 0, 250]",250,a,0.18416242534294724,1,colour,0.5,3.8
73,20,0,1,15,49,749,1073.2082126359455,1074.1918302145787,"[9, 0, 245]",245,a,0.46152773685753345,1,colour,0.5,3.8
73,20,0,1,15,50,750,1074.7081702975556,1075.2638437880669,"[16, 0, 238]",238,a,0.03337609185837209,1,colour,0.5,3.8
73,20,0,1,16,1,751,1080.442291506799,1081.1278038395103,"[36, 0, 218]",218,a,0.16252176486887038,1,colour,0.5,3.8
73,20,0,1,16,2,752,1081.6463427650742,1082.183928874554,"[30, 0, 224]",224,a,0.015385990729555488,1,colour,0.5,3.8
73,20,0,1,16,3,753,1082.6931990266312,1083.2318292220589,"[20, 0, 234]",234,a,0.01631428604014218,1,colour,0.5,3.8
73,20,0,1,16,4,754,1083.740188801894,1084.495807705447,"[28, 0, 226]",226,a,0.23334986180998385,1,colour,0.5,3.8
73,20,0,1,16,5,755,1085.0059384112246,1085.6478374109138,"[40, 0, 214]",214,a,0.11957954568788409,1,colour,0.5,3.8
73,20,0,1,16,6,756,1086.1623240541667,1086.8478096053004,"[38, 0, 216]",216,a,0.16353237396106124,1,colour,0.5,3.8
73,20,0,1,16,7,757,1087.3654883711133,1088.063802276738,"[83, 0, 171]",171,l,0.17602911009453237,1,colour,0.5,3.8
73,20,0,1,16,8,758,1088.5686487494968,1089.191808552947,"[70, 0, 184]",184,l,0.10081002302467823,1,colour,0.5,3.8
73,20,0,1,16,9,759,1089.709359712666,1090.3358290046453,"[80, 0, 174]",174,l,0.1041789825540036,1,colour,0.5,3.8
73,20,0,1,16,10,760,1090.8500635863747,1091.5438388099428,"[51, 0, 203]",203,a,0.17141638486646116,0,colour,0.5,3.8
73,20,0,1,16,11,761,1092.0533173065633,1092.6798058969434,"[91, 0, 163]",163,l,0.10414471803233027,1,colour,0.5,3.8
73,20,0,1,16,12,762,1093.19405190018,1093.8078271395061,"[26, 0, 228]",228,a,0.0915573975071311,1,colour,0.5,3.8
73,20,0,1,16,13,763,1094.3191248110961,1095.8717924684752,"[58, 0, 196]",196,a,1.030408461811021,0,colour,0.5,3.8
73,20,0,1,16,14,764,1096.3818239248358,1097.1198127025273,"[12, 0, 242]",242,a,0.21569571131840348,1,colour,0.5,3.8
73,20,0,1,16,15,765,1097.631935087964,1098.2718325618189,"[45, 0, 209]",209,a,0.11840549041517079,1,colour,0.5,3.8
73,20,0,1,16,16,766,1098.7882029709872,1099.415847499622,"[49, 0, 205]",205,a,0.10529474844224751,1,colour,0.5,3.8
73,20,0,1,16,17,767,1099.9289517432917,1100.847819845425,"[65, 0, 189]",189,l,0.39714493113569915,1,colour,0.5,3.8
73,20,0,1,16,18,768,1101.3666065002326,1102.4077874396462,"[78, 0, 176]",176,l,0.5188949622679502,1,colour,0.5,3.8
73,20,0,1,16,19,769,1102.913518884685,1103.9358282957692,"[31, 0, 223]",223,a,0.4999383632093668,1,colour,0.5,3.8
73,20,0,1,16,20,770,1104.444921610877,1105.2558089343365,"[17, 0, 237]",237,a,0.28884946927428246,1,colour,0.5,3.8
73,20,0,1,16,21,771,1105.773157657124,1106.5438017882407,"[7, 0, 247]",247,a,0.24830419709905982,1,colour,0.5,3.8
73,20,0,1,16,22,772,1107.0545323216356,1107.663812201703,"[90, 0, 164]",164,l,0.0869383707176894,1,colour,0.5,3.8
73,20,0,1,16,23,773,1108.17960759555,1109.0158653014805,"[63, 0, 191]",191,l,0.31397566734813154,1,colour,0.5,3.8
73,20,0,1,16,24,774,1109.5240637983661,1110.2638071603142,"[64, 0, 190]",190,l,0.2180635139811784,1,colour,0.5,3.8
73,20,0,1,16,25,775,1110.7735597738065,1111.5037937224843,"[87, 0, 167]",167,l,0.2078995283227414,1,colour,0.5,3.8
73,20,0,1,16,26,776,1112.0237276507542,1112.7437759521417,"[88, 0, 166]",166,l,0.19781234278343618,1,colour,0.5,3.8
73,20,0,1,16,27,777,1113.2580778815318,1113.9598127340432,"[42, 0, 212]",212,a,0.17934765690006316,1,colour,0.5,3.8
73,20,0,1,16,28,778,1114.4769743799698,1115.223832177464,"[5, 0, 249]",249,a,0.22458678646944463,1,colour,0.5,3.8
73,20,0,1,16,29,779,1115.7426849983167,1116.5117647731677,"[14, 0, 240]",240,a,0.24669139762409031,1,colour,0.5,3.8
73,20,0,1,16,30,780,1117.024032487534,1117.7518344365526,"[21, 0, 233]",233,a,0.20555771957151592,1,colour,0.5,3.8
73,20,0,1,16,31,781,1118.258492601337,1118.9517873325385,"[0, 0, 254]",254,a,0.17115959688089788,1,colour,0.5,3.8
73,20,0,1,16,32,782,1119.4617927952204,1120.1838268684223,"[99, 0, 155]",155,l,0.2001474560238421,1,colour,0.5,3.8
73,20,0,1,16,33,783,1120.6962178568356,1121.4717878210358,"[44, 0, 210]",210,a,0.25332258408889174,1,colour,0.5,3.8
73,20,0,1,16,34,784,1121.9775444720872,1122.6718305139802,"[89, 0, 165]",165,l,0.17204653844237328,1,colour,0.5,3.8
73,20,0,1,16,35,785,1123.180850179866,1123.9038050652016,"[96, 0, 158]",158,l,0.20069726509973407,1,colour,0.5,3.8
73,20,0,1,16,36,786,1124.4153039921075,1125.1198201857042,"[92, 0, 162]",162,l,0.18224400095641613,1,colour,0.5,3.8
73,20,0,1,16,37,787,1125.634101635078,1126.583819700405,"[56, 0, 198]",198,a,0.4279551156796515,0,colour,0.5,3.8
73,20,0,1,16,38,788,1127.1030135920737,1127.7518336488865,"[41, 0, 213]",213,a,0.12664002436213195,1,colour,0.5,3.8
73,20,0,1,16,39,789,1128.259267296642,1128.8957851775922,"[53, 0, 201]",201,a,0.11418661149218678,0,colour,0.5,3.8
73,20,0,1,16,40,790,1129.4157549459487,1130.223803032888,"[8, 0, 246]",246,a,0.28574832528829575,1,colour,0.5,3.8
73,20,0,1,16,41,791,1130.743900801288,1131.5598006036598,"[47, 0, 207]",207,a,0.29362603439949453,1,colour,0.5,3.8
73,20,0,1,16,42,792,1132.0721565396525,1132.9278245558962,"[29, 0, 225]",225,a,0.3334596266504377,1,colour,0.5,3.8
73,20,0,1,16,43,793,1133.4471909520216,1134.183836320648,"[82, 0, 172]",172,l,0.21430464694276452,1,colour,0.5,3.8
73,20,0,1,16,44,794,1134.6973304720595,1135.455810273299,"[4, 0, 250]",250,a,0.23608236573636532,1,colour,0.5,3.8
73,20,0,1,16,45,795,1135.9631273427512,1136.6558194893878,"[77, 0, 177]",177,l,0.17055386188440025,1,colour,0.5,3.8
73,20,0,1,16,46,796,1137.16631725966,1137.9118454328272,"[81, 0, 173]",173,l,0.22323943907395005,1,colour,0.5,3.8
73,20,0,1,16,47,797,1138.4319845549762,1139.1037926196586,"[79, 0, 175]",175,l,0.14946734299883246,1,colour,0.5,3.8
73,20,0,1,16,48,798,1139.619616764132,1140.2638059789315,"[9, 0, 245]",245,a,0.121932775946334,1,colour,0.5,3.8
73,20,0,1,16,49,799,1140.7759165486787,1141.7198226274922,"[95, 0, 159]",159,l,0.4215240031480789,1,colour,0.5,3.8
73,20,0,1,16,50,800,1142.229194785701,1143.255815235898,"[73, 0, 181]",181,l,0.5045778700150549,1,colour,0.5,3.8
