id,age,condition,counterbalance,block,trialinblock,trial,tstart,tend,trialstim,trialintensity,response,RT,accuracy,trialtype,colourfreq,credits
80,19,1,1,Practice,1,NA,5.907728336751461e-06,1.0199971328256652,"[73, 0, 181]",181,a,0.37815509969368577,0,colour,0.5,4
80,19,1,1,Practice,2,NA,1.5298149239970371,2.1800261829048395,"[18, 0, 236]",236,a,0.13394109008368105,1,colour,0.5,4
80,19,1,1,Practice,3,NA,2.688764048507437,3.699972115806304,"[43, 0, 211]",211,a,0.4920695185428485,1,colour,0.5,4
80,19,1,1,Practice,4,NA,4.20883916283492,5.147945857257582,"[82, 0, 172]",172,l,0.4223272828385234,1,colour,0.5,4
80,19,1,1,Practice,5,NA,5.657752620638348,6.61197984777391,"[16, 0, 238]",238,a,0.4377191752428189,1,colour,0.5,4
80,19,1,1,Practice,6,NA,7.121059965458699,8.012039475957863,"[90, 0, 164]",164,l,0.37460615404415876,1,colour,0.5,4
80,19,1,1,Practice,7,NA,8.521110929083079,9.516037799767219,"[91, 0, 163]",163,l,0.4774472010321915,1,colour,0.5,4
80,19,1,1,Practice,8,NA,10.02606196620036,10.92397789109964,"[92, 0, 162]",162,l,0.3813188639469445,1,colour,0.5,4
80,19,1,1,Practice,9,NA,11.433043436496519,12.235952697577886,"[20, 0, 234]",234,a,0.28642602160107344,1,colour,0.5,4
80,19,1,1,Practice,10,NA,12.7449686183827,13.563964909990318,"[40, 0, 214]",214,a,0.3027080058818683,1,colour,0.5,4
80,19,1,1,1,1,1,4.507777275401168,5.391994057572447,"[80, 0, 174]",174,l,0.36672057094983757,1,colour,0.5,4.0
80,19,1,1,1,2,2,5.901721658068709,6.92809358087834,"[9, 0, 245]",245,a,0.5098784433212131,1,colour,0.5,4.0
80,19,1,1,1,3,3,7.437551790731959,8.544005586300045,"[19, 0, 235]",235,a,0.590132032870315,1,colour,0.5,4.0
80,19,1,1,1,4,4,9.053151870146394,9.904013053630479,"[78, 0, 176]",176,l,0.3350703251780942,1,colour,0.5,4.0
80,19,1,1,1,5,5,10.413774524698965,11.44806471990887,"[85, 0, 169]",169,l,0.5178345248568803,1,colour,0.5,4.0
80,19,1,1,1,6,6,11.957107422174886,12.92001777025871,"[6, 0, 248]",248,a,0.44652832695282996,1,colour,0.5,4.0
80,19,1,1,1,7,7,13.429118367959745,14.375985402497463,"[86, 0, 168]",168,l,0.43046571500599384,1,colour,0.5,4.0
80,19,1,1,1,8,8,14.8846815204015,15.784020410617813,"[55, 0, 199]",199,a,0.38303130597341806,0,colour,0.5,4.0
80,19,1,1,1,9,9,16.293179297586903,17.135964276618324,"[87, 0, 167]",167,l,0.32458181446418166,1,colour,0.5,4.0
80,19,1,1,1,10,10,17.64439730544109,18.576020533568226,"[63, 0, 191]",191,a,0.41467052430380136,0,colour,0.5,4.0
80,19,1,1,1,11,11,19.08518769114744,19.976022266433574,"[12, 0, 242]",242,a,0.37398505909368396,1,colour,0.5,4.0
80,19,1,1,1,12,12,20.48452067375183,21.423978678765707,"[32, 0, 222]",222,a,0.42300942400470376,1,colour,0.5,4.0
80,19,1,1,1,13,13,21.93358851922676,22.84003593446687,"[74, 0, 180]",180,l,0.3895652098581195,1,colour,0.5,4.0
80,19,1,1,1,14,14,23.349854513304308,24.303993912646547,"[72, 0, 182]",182,l,0.43705200019758195,1,colour,0.5,4.0
80,19,1,1,1,15,15,24.81388023297768,25.703986193286255,"[98, 0, 156]",156,l,0.37232736160513014,1,colour,0.5,4.0
80,19,1,1,1,16,16,26.212992661865428,27.047951528569683,"[25, 0, 229]",229,a,0.31794157216791064,1,colour,0.5,4.0
80,19,1,1,1,17,17,27.557490476756357,28.4720203980105,"[40, 0, 214]",214,a,0.39816995547153056,1,colour,0.5,4.0
80,19,1,1,1,18,18,28.981189918820746,29.767992850858718,"[48, 0, 206]",206,a,0.2705792370252311,1,colour,0.5,4.0
80,19,1,1,1,19,19,30.2765282796463,31.231949647539295,"[97, 0, 157]",157,l,0.43633716995827854,1,colour,0.5,4.0
80,19,1,1,1,20,20,31.741495291120373,32.527998506557196,"[10, 0, 244]",244,a,0.26952806231565773,1,colour,0.5,4.0
80,19,1,1,1,21,21,33.03661585529335,33.871960690943524,"[52, 0, 202]",202,a,0.31870208855252713,0,colour,0.5,4.0
80,19,1,1,1,22,22,34.38088523957413,35.52800598961767,"[89, 0, 165]",165,l,0.6310376579640433,1,colour,0.5,4.0
80,19,1,1,1,23,23,36.0364086922491,37.031995254918,"[22, 0, 232]",232,a,0.47976616583764553,1,colour,0.5,4.0
80,19,1,1,1,24,24,37.54112342186272,38.54399967857171,"[77, 0, 177]",177,l,0.4865812755888328,1,colour,0.5,4.0
80,19,1,1,1,25,25,39.05322433775291,40.02398009656463,"[44, 0, 210]",210,a,0.45383338106330484,1,colour,0.5,4.0
80,19,1,1,1,26,26,40.53255727305077,41.70396256260574,"[5, 0, 249]",249,a,0.6537342107621953,1,colour,0.5,4.0
80,19,1,1,1,27,27,42.213857547496445,43.26395789941307,"[28, 0, 226]",226,a,0.5331381957512349,1,colour,0.5,4.0
80,19,1,1,1,28,28,43.77308803552296,44.815974311786704,"[64, 0, 190]",190,l,0.5266448581824079,1,colour,0.5,4.0
80,19,1,1,1,29,29,45.324840964982286,46.22397229843773,"[31, 0, 223]",223,a,0.38249370630364865,1,colour,0.5,4.0
80,19,1,1,1,30,30,46.73346437897999,47.696016721078195,"[42, 0, 212]",212,a,0.444643774186261,1,colour,0.5,4.0
80,19,1,1,1,31,31,48.20517600188032,49.17607118212618,"[7, 0, 247]",247,a,0.4542961501283571,1,colour,0.5,4.0
80,19,1,1,1,32,32,49.685157207539305,50.70400746096857,"[68, 0, 186]",186,l,0.5016254021320492,1,colour,0.5,4.0
80,19,1,1,1,33,33,51.213103332556784,52.17594751447905,"[38, 0, 216]",216,a,0.44649997004307806,1,colour,0.5,4.0
80,19,1,1,1,34,34,52.684539657086134,53.647999814129435,"[21, 0, 233]",233,a,0.44726442510727793,1,colour,0.5,4.0
80,19,1,1,1,35,35,54.15704999945592,55.191955775837414,"[51, 0, 203]",203,a,0.5184977614553645,0,colour,0.5,4.0
80,19,1,1,1,36,36,55.70116783189587,56.768000727752224,"[37, 0, 217]",217,a,0.5501011395826936,1,colour,0.5,4.0
80,19,1,1,1,37,37,57.276985140983015,58.375941291684285,"[90, 0, 164]",164,l,0.5808069430058822,1,colour,0.5,4.0
80,19,1,1,1,38,38,58.884562578983605,59.96800238196738,"[92, 0, 162]",162,l,0.5672834556316957,1,colour,0.5,4.0
80,19,1,1,1,39,39,60.47697025362868,61.44796665222384,"[70, 0, 184]",184,l,0.45304017537273467,1,colour,0.5,4.0
80,19,1,1,1,40,40,61.9575587696163,62.85591855889652,"[3, 0, 251]",251,a,0.3804157752310857,1,colour,0.5,4.0
80,19,1,1,1,41,41,63.364959291997366,64.39214293134864,"[53, 0, 201]",201,a,0.5109284365316853,0,colour,0.5,4.0
80,19,1,1,1,42,42,64.90083786775358,65.839941805345,"[71, 0, 183]",183,l,0.4228833932429552,1,colour,0.5,4.0
80,19,1,1,1,43,43,66.34906957834028,67.50397981295828,"[67, 0, 187]",187,l,0.6378649770049378,1,colour,0.5,4.0
80,19,1,1,1,44,44,68.01252745103557,68.77595129539259,"[4, 0, 250]",250,a,0.24711744172964245,1,colour,0.5,4.0
80,19,1,1,1,45,45,69.28386326611508,70.67997340753209,"[20, 0, 234]",234,a,0.8795339543139562,1,colour,0.5,4.0
80,19,1,1,1,46,46,71.18901256518438,72.15194142400287,"[23, 0, 231]",231,a,0.4468524621333927,1,colour,0.5,4.0
80,19,1,1,1,47,47,72.66110149247106,73.351942684385,"[39, 0, 215]",215,a,0.17433117085602134,1,colour,0.5,4.0
80,19,1,1,1,48,48,73.8608774729073,74.67995292751584,"[84, 0, 170]",170,l,0.3018238217337057,1,colour,0.5,4.0
80,19,1,1,1,49,49,75.18907242978457,76.19192544964608,"[94, 0, 160]",160,l,0.486530075664632,1,colour,0.5,4.0
80,19,1,1,1,50,50,76.70189959765412,77.3999635297805,"[35, 0, 219]",219,a,0.18242746137548238,1,colour,0.5,4.0
80,19,1,1,2,1,51,84.55616321600974,85.64794940175489,"[42, 0, 212]",212,a,0.574295882252045,1,colour,0.5,4.0
80,19,1,1,2,2,52,86.1571287686238,87.02390881045721,"[21, 0, 233]",233,a,0.34960205806419253,1,colour,0.5,4.0
80,19,1,1,2,3,53,87.53254821454175,88.40795505745336,"[35, 0, 219]",219,a,0.3584568959195167,1,colour,0.5,4.0
80,19,1,1,2,4,54,88.9169879136607,89.84793766518123,"[73, 0, 181]",181,l,0.4146185365971178,1,colour,0.5,4.0
80,19,1,1,2,5,55,90.35704535210971,91.51194337755442,"[57, 0, 197]",197,l,0.638918514829129,1,colour,0.5,4.0
80,19,1,1,2,6,56,92.02144727343693,92.75993555097375,"[1, 0, 253]",253,a,0.22178251505829394,1,colour,0.5,4.0
80,19,1,1,2,7,57,93.26838000142016,94.05591312388424,"[55, 0, 199]",199,a,0.2714074950199574,0,colour,0.5,4.0
80,19,1,1,2,8,58,94.56472542637493,95.12796014593914,"[63, 0, 191]",191,a,0.04651162796653807,0,colour,0.5,4.0
80,19,1,1,2,9,59,95.63714345125481,96.3279397446895,"[11, 0, 243]",243,a,0.1744280569255352,1,colour,0.5,4.0
80,19,1,1,2,10,60,96.83691155479755,97.45595542294905,"[83, 0, 171]",171,l,0.10127038939390332,1,colour,0.5,4.0
80,19,1,1,2,11,61,97.96506035292987,98.8559705466032,"[51, 0, 203]",203,a,0.373898412915878,0,colour,0.5,4.0
80,19,1,1,2,12,62,99.36524837499019,100.12794596748427,"[85, 0, 169]",169,l,0.24613400851376355,1,colour,0.5,4.0
80,19,1,1,2,13,63,100.63702490366995,101.47995087946765,"[54, 0, 200]",200,a,0.3261867364635691,0,colour,0.5,4.0
80,19,1,1,2,14,64,101.98905226495117,102.57595554890577,"[18, 0, 236]",236,a,0.07071188429836184,1,colour,0.5,4.0
80,19,1,1,2,15,65,103.08463709463831,104.03994385327678,"[67, 0, 187]",187,l,0.43739504006225616,1,colour,0.5,4.0
80,19,1,1,2,16,66,104.54901963868178,105.98401064320933,"[64, 0, 190]",190,l,0.9188200848875567,1,colour,0.5,4.0
80,19,1,1,2,17,67,106.4940529265441,107.09598812786862,"[76, 0, 178]",178,l,0.0836686275433749,1,colour,0.5,4.0
80,19,1,1,2,18,68,107.60510054090992,108.27994449925609,"[89, 0, 165]",165,l,0.15858718019444495,1,colour,0.5,4.0
80,19,1,1,2,19,69,108.78906597068999,109.35993657505605,"[87, 0, 167]",167,l,0.05425582034513354,1,colour,0.5,4.0
80,19,1,1,2,20,70,109.86889972048812,110.51998059125617,"[53, 0, 201]",201,a,0.13429358217399567,0,colour,0.5,4.0
80,19,1,1,2,21,71,111.02900753973518,111.64023238478694,"[2, 0, 252]",252,a,0.09493970999028534,1,colour,0.5,4.0
80,19,1,1,2,22,72,112.14922506874427,112.67194249527529,"[6, 0, 248]",248,a,0.0064110239036381245,1,colour,0.5,4.0
80,19,1,1,2,23,73,113.1901728353696,113.82392448547762,"[93, 0, 161]",161,l,0.1167942201718688,1,colour,0.5,4.0
80,19,1,1,2,24,74,114.33308179699816,115.23192719835788,"[15, 0, 239]",239,a,0.38218650652561337,1,colour,0.5,4.0
80,19,1,1,2,25,75,115.74173474952113,116.57594176428393,"[58, 0, 196]",196,a,0.3179659905144945,0,colour,0.5,4.0
80,19,1,1,2,26,76,117.08533892803825,119.43989359855186,"[97, 0, 157]",157,l,1.8387712952680886,1,colour,0.5,4.0
80,19,1,1,2,27,77,119.9488874640083,120.85592525429092,"[94, 0, 160]",160,l,0.39084245217964053,1,colour,0.5,4.0
80,19,1,1,2,28,78,121.36500497814268,122.2639437209582,"[14, 0, 240]",240,a,0.38198013126384467,1,colour,0.5,4.0
80,19,1,1,2,29,79,122.77301517408341,123.59198586561251,"[10, 0, 244]",244,a,0.302637507324107,1,colour,0.5,4.0
80,19,1,1,2,30,80,124.10224633954931,124.85599850967992,"[99, 0, 155]",155,l,0.23604722053278238,1,colour,0.5,4.0
80,19,1,1,2,31,81,125.36509044270497,126.21594453696162,"[79, 0, 175]",175,l,0.3345016115345061,1,colour,0.5,4.0
80,19,1,1,2,32,82,126.72522512229625,127.56009025371168,"[48, 0, 206]",206,a,0.3176965999882668,1,colour,0.5,4.0
80,19,1,1,2,33,83,128.06892658083234,130.12792351818644,"[92, 0, 162]",162,l,1.5429032115498558,1,colour,0.5,4.0
80,19,1,1,2,34,84,130.63764599862043,131.53612236632034,"[12, 0, 242]",242,a,0.3815319346031174,1,colour,0.5,4.0
80,19,1,1,2,35,85,132.04499965335708,132.99190764781088,"[24, 0, 230]",230,a,0.430549604119733,1,colour,0.5,4.0
80,19,1,1,2,36,86,133.50075106415898,134.32790232938714,"[39, 0, 215]",215,a,0.31027772440575063,1,colour,0.5,4.0
80,19,1,1,2,37,87,134.83658820728306,135.639910612721,"[4, 0, 250]",250,a,0.2863192893564701,1,colour,0.5,4.0
80,19,1,1,2,38,88,136.14865911216475,136.8001157118706,"[40, 0, 214]",214,a,0.13394502853043377,1,colour,0.5,4.0
80,19,1,1,2,39,89,137.3092415157007,137.88791381393094,"[49, 0, 205]",205,a,0.060670388862490654,1,colour,0.5,4.0
80,19,1,1,2,40,90,138.39684308855794,138.96792440046556,"[37, 0, 217]",217,a,0.053986035753041506,1,colour,0.5,4.0
80,19,1,1,2,41,91,139.47646652464755,140.27993741002865,"[44, 0, 210]",210,a,0.2855000898707658,1,colour,0.5,4.0
80,19,1,1,2,42,92,140.78906872763764,141.3599436642835,"[9, 0, 245]",245,a,0.05475049081724137,1,colour,0.5,4.0
80,19,1,1,2,43,93,141.8689461942995,142.56791203364264,"[82, 0, 172]",172,l,0.18239949829876423,1,colour,0.5,4.0
80,19,1,1,2,44,94,143.0777573940577,143.96788422821555,"[71, 0, 183]",183,l,0.3735782162984833,1,colour,0.5,4.0
80,19,1,1,2,45,95,144.4769950659247,145.22388998465613,"[0, 0, 254]",254,a,0.22838888666592538,1,colour,0.5,4.0
80,19,1,1,2,46,96,145.73365736345295,146.7199152916437,"[41, 0, 213]",213,a,0.4700346270110458,1,colour,0.5,4.0
80,19,1,1,2,47,97,147.2290911138989,148.27988502848893,"[65, 0, 189]",189,l,0.5337644108803943,1,colour,0.5,4.0
80,19,1,1,2,48,98,148.7890116199851,149.64789268793538,"[31, 0, 223]",223,a,0.341929939459078,1,colour,0.5,4.0
80,19,1,1,2,49,99,150.15703345800284,150.98395826178603,"[28, 0, 226]",226,a,0.31046598276589066,1,colour,0.5,4.0
80,19,1,1,2,50,100,151.4930427117506,153.23987422138453,"[69, 0, 185]",185,a,1.2294932305812836,0,colour,0.5,4.0
80,19,1,1,3,1,101,158.02041264018044,160.6319431096781,"[54, 0, 200]",200,l,2.0944292857311666,1,colour,0.5,4.0
80,19,1,1,3,2,102,161.14093776291702,161.99988814769313,"[16, 0, 238]",238,a,0.3428334220079705,1,colour,0.5,4.0
80,19,1,1,3,3,103,162.5090789361857,163.4719625026919,"[64, 0, 190]",190,l,0.4459206226747483,1,colour,0.5,4.0
80,19,1,1,3,4,104,163.98110130347777,164.98396495718043,"[43, 0, 211]",211,a,0.48590543610043824,1,colour,0.5,4.0
80,19,1,1,3,5,105,165.49270124733448,166.37586646096315,"[91, 0, 163]",163,l,0.36621211597230285,1,colour,0.5,4.0
80,19,1,1,3,6,106,166.88489183411002,167.86389551416505,"[26, 0, 228]",228,a,0.46201277314685285,1,colour,0.5,4.0
80,19,1,1,3,7,107,168.37278776743915,169.30388954351656,"[51, 0, 203]",203,a,0.41523569310083985,0,colour,0.5,4.0
80,19,1,1,3,8,108,169.81295823969413,170.95987418980803,"[41, 0, 213]",213,a,0.6307001319946721,1,colour,0.5,4.0
80,19,1,1,3,9,109,171.4682548372075,172.29608036659192,"[21, 0, 233]",233,a,0.3115715082967654,1,colour,0.5,4.0
80,19,1,1,3,10,110,172.80494505062234,173.77594499383122,"[94, 0, 160]",160,l,0.45389403332956135,1,colour,0.5,4.0
80,19,1,1,3,11,111,174.28470215795096,175.14388373040128,"[52, 0, 202]",202,a,0.3429496067110449,0,colour,0.5,4.0
80,19,1,1,3,12,112,175.65416704735253,176.57585945050232,"[23, 0, 231]",231,a,0.4050835268571973,1,colour,0.5,4.0
80,19,1,1,3,13,113,177.08539682335686,178.1358906273963,"[42, 0, 212]",212,a,0.5341893705772236,1,colour,0.5,4.0
80,19,1,1,3,14,114,178.6448919759132,179.59997975628357,"[45, 0, 209]",209,a,0.4375175260938704,1,colour,0.5,4.0
80,19,1,1,3,15,115,180.10907090164255,180.9518984160386,"[75, 0, 179]",179,l,0.32587165979202837,1,colour,0.5,4.0
80,19,1,1,3,16,116,181.46180679171812,182.30388402962126,"[74, 0, 180]",180,l,0.3256948229391128,1,colour,0.5,4.0
80,19,1,1,3,17,117,182.81285268894862,183.72790563758463,"[15, 0, 239]",239,a,0.3981786201475188,1,colour,0.5,4.0
80,19,1,1,3,18,118,184.2367888323497,185.06401571596507,"[30, 0, 224]",224,a,0.3101253060158342,1,colour,0.5,4.0
80,19,1,1,3,19,119,185.57228648033924,186.4078944051871,"[3, 0, 251]",251,a,0.31820111663546413,1,colour,0.5,4.0
80,19,1,1,3,20,120,186.91693159367424,187.8318908070214,"[33, 0, 221]",221,a,0.3975437405752018,1,colour,0.5,4.0
80,19,1,1,3,21,121,188.34099455538671,189.25586672883946,"[27, 0, 227]",227,a,0.398584675276652,1,colour,0.5,4.0
80,19,1,1,3,22,122,189.76493030495476,190.6400441264268,"[62, 0, 192]",192,l,0.35776293941307813,1,colour,0.5,4.0
80,19,1,1,3,23,123,191.14937236707192,191.86384313274175,"[86, 0, 168]",168,l,0.19784810463897884,1,colour,0.5,4.0
80,19,1,1,3,24,124,192.37277634593192,193.2798645484727,"[56, 0, 198]",198,a,0.39081606455147266,0,colour,0.5,4.0
80,19,1,1,3,25,125,193.78889425389934,194.62386336061172,"[87, 0, 167]",167,l,0.3187332024099305,1,colour,0.5,4.0
80,19,1,1,3,26,126,195.1336401917506,196.06388535303995,"[90, 0, 164]",164,l,0.41316051909234375,1,colour,0.5,4.0
80,19,1,1,3,27,127,196.5731005598791,197.56016232748516,"[58, 0, 196]",196,a,0.4706403618911281,0,colour,0.5,4.0
80,19,1,1,3,28,128,198.06964377418626,198.83189041307196,"[2, 0, 252]",252,a,0.24486858141608536,1,colour,0.5,4.0
80,19,1,1,3,29,129,199.3410788384499,200.13585360581055,"[84, 0, 170]",170,l,0.27855697995983064,1,colour,0.5,4.0
80,19,1,1,3,30,130,200.6449486897327,201.5838868181454,"[70, 0, 184]",184,l,0.42275893792975694,1,colour,0.5,4.0
80,19,1,1,3,31,131,202.09356558159925,202.83192270854488,"[40, 0, 214]",214,a,0.2198262824676931,1,colour,0.5,4.0
80,19,1,1,3,32,132,203.3410366969183,204.01589404593688,"[38, 0, 216]",216,a,0.15807714965194464,1,colour,0.5,4.0
80,19,1,1,3,33,133,204.52503717900254,205.30387260811403,"[11, 0, 243]",243,a,0.2615593777736649,1,colour,0.5,4.0
80,19,1,1,3,34,134,205.812447815435,206.43201274168678,"[36, 0, 218]",218,a,0.10222704114858061,1,colour,0.5,4.0
80,19,1,1,3,35,135,206.9417143482715,207.63989013270475,"[72, 0, 182]",182,l,0.18202928325627,1,colour,0.5,4.0
80,19,1,1,3,36,136,208.14901239192113,208.87187443871517,"[22, 0, 232]",232,a,0.206192912068218,1,colour,0.5,4.0
80,19,1,1,3,37,137,209.38143977464642,210.18389217439108,"[19, 0, 235]",235,a,0.28615032939706,1,colour,0.5,4.0
80,19,1,1,3,38,138,210.69281199679244,211.3038265281357,"[7, 0, 247]",247,a,0.0938274891814217,1,colour,0.5,4.0
80,19,1,1,3,39,139,211.81294878735207,212.655839317129,"[57, 0, 197]",197,l,0.3260260473471135,1,colour,0.5,4.0
80,19,1,1,3,40,140,213.16484972415492,213.83186126849614,"[97, 0, 157]",157,l,0.15052279108203948,1,colour,0.5,4.0
80,19,1,1,3,41,141,214.34143290598877,215.1359083504649,"[99, 0, 155]",155,l,0.2774601192213595,1,colour,0.5,4.0
80,19,1,1,3,42,142,215.6449798035901,216.37585937173571,"[9, 0, 245]",245,a,0.21487918379716575,1,colour,0.5,4.0
80,19,1,1,3,43,143,216.8846748250071,217.57584212126676,"[80, 0, 174]",174,l,0.17443593381904066,1,colour,0.5,4.0
80,19,1,1,3,44,144,218.08468750689644,218.79187212290708,"[39, 0, 215]",215,a,0.19115784391760826,1,colour,0.5,4.0
80,19,1,1,3,45,145,219.30104085593484,220.01587120292243,"[35, 0, 219]",219,a,0.19856569194234908,1,colour,0.5,4.0
80,19,1,1,3,46,146,220.52509586210363,221.07189420983195,"[81, 0, 173]",173,l,0.029363576555624604,1,colour,0.5,4.0
80,19,1,1,3,47,147,221.58108342287596,222.1758380252868,"[1, 0, 253]",253,a,0.07674560381565243,1,colour,0.5,4.0
80,19,1,1,3,48,148,222.68471610010602,223.39987688371912,"[76, 0, 178]",178,l,0.1989768670173362,1,colour,0.5,4.0
80,19,1,1,3,49,149,223.90886050916743,224.79187645518687,"[63, 0, 191]",191,l,0.3669308847747743,1,colour,0.5,4.0
80,19,1,1,3,50,150,225.30073208082467,226.1118719339138,"[89, 0, 165]",165,l,0.29485314281191677,1,colour,0.5,4.0
80,19,1,1,4,1,151,230.59527959907427,231.63986453274265,"[15, 0, 239]",239,a,0.5271225932519883,1,colour,0.5,4.0
80,19,1,1,4,2,152,232.14949052094016,232.99984482466243,"[28, 0, 226]",226,a,0.33330313849728554,1,colour,0.5,4.0
80,19,1,1,4,3,153,233.50922190223355,234.27186868863646,"[3, 0, 251]",251,a,0.24617221159860492,1,colour,0.5,4.0
80,19,1,1,4,4,154,234.78020995133556,235.31186452961992,"[5, 0, 249]",249,a,0.015065394225530326,1,colour,0.5,4.0
80,19,1,1,4,5,155,235.82141056703404,236.70381408266257,"[44, 0, 210]",210,l,0.36633854056708515,0,colour,0.5,4.0
80,19,1,1,4,6,156,237.21293831104413,238.16787288535852,"[56, 0, 198]",198,l,0.4381524056661874,1,colour,0.5,4.0
80,19,1,1,4,7,157,238.67775369191077,239.36785445339046,"[17, 0, 237]",237,a,0.17363406356889755,1,colour,0.5,4.0
80,19,1,1,4,8,158,239.8769593833713,240.73581130686216,"[0, 0, 254]",254,a,0.34061291883699596,1,colour,0.5,4.0
80,19,1,1,4,9,159,241.24491269222926,242.02382452739403,"[57, 0, 197]",197,l,0.2613163747591898,1,colour,0.5,4.0
80,19,1,1,4,10,160,242.5328022452304,243.5038199115079,"[49, 0, 205]",205,l,0.45404408860486,0,colour,0.5,4.0
80,19,1,1,4,11,161,244.01303157384973,244.7279009114718,"[69, 0, 185]",185,l,0.19859916879795492,1,colour,0.5,4.0
80,19,1,1,4,12,162,245.2368286108831,245.89582972310018,"[36, 0, 218]",218,a,0.14036708022467792,1,colour,0.5,4.0
80,19,1,1,4,13,163,246.4049114161171,247.03185780264903,"[2, 0, 252]",252,a,0.11055963928811252,1,colour,0.5,4.0
80,19,1,1,4,14,164,247.54029792081565,248.10384929249994,"[81, 0, 173]",173,l,0.04641710489522666,1,colour,0.5,4.0
80,19,1,1,4,15,165,248.6136269113049,249.25583364570048,"[75, 0, 179]",179,l,0.12541983975097537,1,colour,0.5,4.0
80,19,1,1,4,16,166,249.7649062804412,250.61584032536484,"[35, 0, 219]",219,a,0.3346422145841643,1,colour,0.5,4.0
80,19,1,1,4,17,167,251.1251421783818,253.95182082848623,"[25, 0, 229]",229,a,2.3105561735574156,1,colour,0.5,4.0
80,19,1,1,4,18,168,254.46090330916923,255.2078265849268,"[21, 0, 233]",233,a,0.2300135011319071,1,colour,0.5,4.0
80,19,1,1,4,19,169,255.7169835024979,256.71183948102407,"[98, 0, 156]",156,l,0.478612984996289,1,colour,0.5,4.0
80,19,1,1,4,20,170,257.22114960465115,257.9759056880139,"[76, 0, 178]",178,l,0.23837524373084307,1,colour,0.5,4.0
80,19,1,1,4,21,171,258.4849503596779,259.3598424458178,"[93, 0, 161]",161,l,0.3579598623327911,1,colour,0.5,4.0
80,19,1,1,4,22,172,259.86807776405476,260.54384017095435,"[39, 0, 215]",215,a,0.1582299618748948,1,colour,0.5,4.0
80,19,1,1,4,23,173,261.0534240176203,261.94386002083775,"[83, 0, 171]",171,l,0.3736049977596849,1,colour,0.5,4.0
80,19,1,1,4,24,174,262.4535431166878,263.29583618207835,"[37, 0, 217]",217,a,0.32597327197436243,1,colour,0.5,4.0
80,19,1,1,4,25,175,263.8049269337207,264.64787693414837,"[11, 0, 243]",243,a,0.3266857393318787,1,colour,0.5,4.0
80,19,1,1,4,26,176,265.15606774773914,265.9517971976893,"[43, 0, 211]",211,a,0.27945376723073423,1,colour,0.5,4.0
80,19,1,1,4,27,177,266.4608284784481,267.1519040087005,"[40, 0, 214]",214,a,0.1730098178377375,1,colour,0.5,4.0
80,19,1,1,4,28,178,267.66164933214895,268.4718266258715,"[46, 0, 208]",208,a,0.2939756540581584,1,colour,0.5,4.0
80,19,1,1,4,29,179,268.9810071742395,269.5839222642826,"[48, 0, 206]",206,a,0.08653661352582276,1,colour,0.5,4.0
80,19,1,1,4,30,180,270.0927337789908,270.71986015315633,"[86, 0, 168]",168,l,0.11058917769696563,1,colour,0.5,4.0
80,19,1,1,4,31,181,271.22902928001713,272.11980595998466,"[64, 0, 190]",190,l,0.37321705953218043,1,colour,0.5,4.0
80,19,1,1,4,32,182,272.6290735483635,273.4478252615081,"[53, 0, 201]",201,a,0.3024374336237088,0,colour,0.5,4.0
80,19,1,1,4,33,183,273.9571160868509,274.81582386267837,"[82, 0, 172]",172,l,0.34243366855662316,1,colour,0.5,4.0
80,19,1,1,4,34,184,275.3249047680292,275.9839547171723,"[85, 0, 169]",169,l,0.1416970978025347,1,colour,0.5,4.0
80,19,1,1,4,35,185,276.49319434247445,277.35982747969683,"[29, 0, 225]",225,a,0.3496851595118642,1,colour,0.5,4.0
80,19,1,1,4,36,186,277.86854762223084,278.67185860616155,"[89, 0, 165]",165,l,0.287179842707701,1,colour,0.5,4.0
80,19,1,1,4,37,187,279.18108090222813,280.0805879646214,"[33, 0, 221]",221,a,0.3818584327818826,1,colour,0.5,4.0
80,19,1,1,4,38,188,280.58969919616356,281.33583674929105,"[65, 0, 189]",189,l,0.22987801802810282,1,colour,0.5,4.0
80,19,1,1,4,39,189,281.8449507376645,282.63182259281166,"[72, 0, 182]",182,l,0.26950088690500706,1,colour,0.5,4.0
80,19,1,1,4,40,190,283.1418144638883,284.3118184496416,"[51, 0, 203]",203,l,0.652925645117648,1,colour,0.5,4.0
80,19,1,1,4,41,191,284.8214456193382,285.6799867982045,"[78, 0, 176]",176,l,0.34231551468838006,1,colour,0.5,4.0
80,19,1,1,4,42,192,286.1891303251032,287.5361688401317,"[54, 0, 200]",200,l,0.8307959153316915,1,colour,0.5,4.0
80,19,1,1,4,43,193,288.04549511149526,289.12782348133624,"[32, 0, 222]",222,a,0.5660341763868928,1,colour,0.5,4.0
80,19,1,1,4,44,194,289.6367574823089,290.78387193067465,"[58, 0, 196]",196,a,0.6306024581426755,0,colour,0.5,4.0
80,19,1,1,4,45,195,291.29295874387026,292.28014299750794,"[38, 0, 216]",216,a,0.4706454819533974,1,colour,0.5,4.0
80,19,1,1,4,46,196,292.7892892813543,293.8718200880103,"[95, 0, 159]",159,l,0.5664555914700031,1,colour,0.5,4.0
80,19,1,1,4,47,197,294.38117668556515,295.3598656827817,"[92, 0, 162]",162,l,0.46121484134346247,1,colour,0.5,4.0
80,19,1,1,4,48,198,295.8680915486766,296.7838148230221,"[61, 0, 193]",193,l,0.3992443671450019,1,colour,0.5,4.0
80,19,1,1,4,49,199,297.29272519319784,298.16781183925923,"[87, 0, 167]",167,l,0.3590232463320717,1,colour,0.5,4.0
80,19,1,1,4,50,200,298.6770061723655,299.75188573426567,"[42, 0, 212]",212,a,0.55652082816232,1,colour,0.5,4.0
80,19,1,1,5,1,201,305.6607828711858,306.7518239003839,"[5, 0, 249]",249,a,0.5741336176870391,1,colour,0.4,3.9
80,19,1,1,5,2,202,307.2611430826364,308.43979474320076,"[24, 0, 230]",230,a,0.66193880897481,1,colour,0.4,3.9
80,19,1,1,5,3,203,308.9488851008937,309.95184682228137,"[42, 0, 212]",212,a,0.48677071556448936,1,colour,0.4,3.9
80,19,1,1,5,4,204,310.46160159807187,311.607768847025,"[57, 0, 197]",197,a,0.6300077508203685,0,colour,0.4,3.9
80,19,1,1,5,5,205,312.11694073083345,312.92781907028984,"[3, 0, 251]",251,a,0.29364797414746135,1,colour,0.4,3.9
80,19,1,1,5,6,206,313.43601264082827,314.4398660293082,"[66, 0, 188]",188,l,0.486985755385831,1,colour,0.4,3.9
80,19,1,1,5,7,207,314.9489162147511,315.8397917499533,"[89, 0, 165]",165,l,0.3743792987661436,1,colour,0.4,3.9
80,19,1,1,5,8,208,316.3487856154097,318.99980032013264,"[27, 0, 227]",227,a,2.1345456435810775,1,colour,0.4,3.9
80,19,1,1,5,9,209,319.5083235396305,322.80788038426545,"[55, 0, 199]",199,a,2.7822280179243535,0,colour,0.4,3.9
80,19,1,1,5,10,210,323.31755993538536,323.88779723551124,"[77, 0, 177]",177,l,0.05387339589651674,1,colour,0.4,3.9
80,19,1,1,5,11,211,324.3975996666122,325.9358239886351,"[93, 0, 161]",161,l,1.0209443322382867,1,colour,0.4,3.9
80,19,1,1,5,12,212,326.44487811252475,327.43180006486364,"[4, 0, 250]",250,a,0.4697345163440332,1,colour,0.4,3.9
80,19,1,1,5,13,213,327.9405107550556,328.54383426334243,"[94, 0, 160]",160,l,0.08626564755104482,1,colour,0.4,3.9
80,19,1,1,5,14,214,329.05239214131143,330.8077811350813,"[90, 0, 164]",164,l,1.2391649049241096,1,colour,0.4,3.9
80,19,1,1,5,15,215,331.31769778148737,332.55183327395935,"[34, 0, 220]",220,a,0.7172910962253809,1,colour,0.4,3.9
80,19,1,1,5,16,216,333.06099452392664,333.9518507607281,"[97, 0, 157]",157,l,0.3740709174890071,1,colour,0.4,3.9
80,19,1,1,5,17,217,334.4609537215438,335.35976879671216,"[82, 0, 172]",172,l,0.38023421238176525,1,colour,0.4,3.9
80,19,1,1,5,18,218,335.86806988716125,336.77582526474725,"[62, 0, 192]",192,l,0.3901996957138181,1,colour,0.4,3.9
80,19,1,1,5,19,219,337.2848427608842,338.28777612536214,"[10, 0, 244]",244,a,0.4868207339895889,1,colour,0.4,3.9
80,19,1,1,5,20,220,338.7968861752888,339.77582172013354,"[18, 0, 236]",236,a,0.46264016977511346,1,colour,0.4,3.9
80,19,1,1,5,21,221,340.28473563480657,341.57577871216927,"[11, 0, 243]",243,a,0.7748812161153182,1,colour,0.4,3.9
80,19,1,1,5,22,222,342.08507308200933,343.1197866614675,"[78, 0, 176]",176,l,0.5177419710671529,1,colour,0.4,3.9
80,19,1,1,5,23,223,343.6290731545305,345.9037735952297,"[71, 0, 183]",183,l,1.758245951961726,1,colour,0.4,3.9
80,19,1,1,5,24,224,346.41296320210677,347.5997820455814,"[86, 0, 168]",168,l,0.669523099786602,1,colour,0.4,3.9
80,19,1,1,5,25,225,348.1088558618212,349.0717870837543,"[96, 0, 158]",158,l,0.44690681295469403,1,colour,0.4,3.9
80,19,1,1,5,26,226,349.58091682603117,350.46379413828254,"[87, 0, 167]",167,l,0.36613964836578816,1,colour,0.4,3.9
80,19,1,1,5,27,227,350.9731806680793,351.99178082938306,"[73, 0, 181]",181,l,0.5023650446673855,1,colour,0.4,3.9
80,19,1,1,5,28,228,352.5009645286482,353.35985307965893,"[26, 0, 228]",228,a,0.34203549020458013,1,colour,0.4,3.9
80,19,1,1,5,29,229,353.86832785618026,354.8078098858241,"[60, 0, 194]",194,a,0.4229503470705822,0,colour,0.4,3.9
80,19,1,1,5,30,230,355.31683762196917,356.2397552798502,"[79, 0, 175]",175,l,0.4068570149829611,1,colour,0.4,3.9
80,19,1,1,5,31,231,356.7488873852417,358.0157955845352,"[58, 0, 196]",196,a,0.7492780805332586,0,colour,0.4,3.9
80,19,1,1,5,32,232,358.525044662063,359.4798343011644,"[88, 0, 166]",166,l,0.4376951507292688,1,colour,0.4,3.9
80,19,1,1,5,33,233,359.98889078805223,360.9837491295766,"[47, 0, 207]",207,a,0.47867481876164675,1,colour,0.4,3.9
80,19,1,1,5,34,234,361.4934649146162,362.543794090976,"[99, 0, 155]",155,l,0.5320413348963484,1,colour,0.4,3.9
80,19,1,1,5,35,235,363.0535275990842,364.08778628660366,"[76, 0, 178]",178,l,0.5173118913080543,1,colour,0.4,3.9
80,19,1,1,5,36,236,364.5966915367171,365.4878660009708,"[31, 0, 223]",223,a,0.37353095470461994,1,colour,0.4,3.9
80,19,1,1,5,37,237,365.9969402110437,366.919781068922,"[35, 0, 219]",219,a,0.40480350237339735,1,colour,0.4,3.9
80,19,1,1,5,38,238,367.4290411742404,368.3518674598308,"[21, 0, 233]",233,a,0.406586836790666,1,colour,0.4,3.9
80,19,1,1,5,39,239,368.8612173619913,369.46377720288,"[12, 0, 242]",242,a,0.08583753695711493,1,colour,0.4,3.9
80,19,1,1,5,40,240,369.9729494805215,371.4318272402743,"[22, 0, 232]",232,a,0.9419203297002241,1,colour,0.4,3.9
80,19,1,1,5,41,241,371.94125157932285,372.82377561181784,"[61, 0, 193]",193,l,0.36607348220422864,1,colour,0.4,3.9
80,19,1,1,5,42,242,373.3328852679115,374.03179045498837,"[81, 0, 173]",173,l,0.18194736319128424,1,colour,0.4,3.9
80,19,1,1,5,43,243,374.54096391424537,375.50377934542485,"[68, 0, 186]",186,l,0.4465921299997717,1,colour,0.4,3.9
80,19,1,1,5,44,244,376.0125920417486,376.82374016568065,"[19, 0, 235]",235,a,0.29418045398779213,1,colour,0.4,3.9
80,19,1,1,5,45,245,377.3328521848889,378.1597706871107,"[15, 0, 239]",239,a,0.30967592785600573,1,colour,0.4,3.9
80,19,1,1,5,46,246,378.66886222641915,379.5517726216931,"[59, 0, 195]",195,l,0.36637241125572473,1,colour,0.4,3.9
80,19,1,1,5,47,247,380.061420665239,380.9198377827415,"[84, 0, 170]",170,l,0.3412312569562346,1,colour,0.4,3.9
80,19,1,1,5,48,248,381.4290419619065,382.2960555542959,"[70, 0, 184]",184,l,0.35044803912751377,1,colour,0.4,3.9
80,19,1,1,5,49,249,382.8058560162317,383.9997932309052,"[45, 0, 209]",209,a,0.6776705904630944,1,colour,0.4,3.9
80,19,1,1,5,50,250,384.50828376121353,385.36781113035977,"[83, 0, 171]",171,l,0.3433485724963248,1,colour,0.4,3.9
80,19,1,1,6,1,251,389.7717651070561,390.855781500577,"[72, 0, 182]",182,l,0.5662385824834928,1,colour,0.28,3.9
80,19,1,1,6,2,252,391.3649021843448,392.3357504969463,"[58, 0, 196]",196,l,0.45391333173029125,1,colour,0.28,3.9
80,19,1,1,6,3,253,392.84536939591635,393.9277371503413,"[98, 0, 156]",156,l,0.5654233213281259,1,colour,0.28,3.9
80,19,1,1,6,4,254,394.4368889479665,395.4957586732926,"[5, 0, 249]",249,a,0.542157267453149,1,colour,0.28,3.9
80,19,1,1,6,5,255,396.00481752329506,397.119738612324,"[68, 0, 186]",186,l,0.5979510559700429,1,colour,0.28,3.9
80,19,1,1,6,6,256,397.6290743360296,398.71179261326324,"[0, 0, 254]",254,a,0.5664772529853508,1,colour,0.28,3.9
80,19,1,1,6,7,257,399.22094834945165,400.39177389780525,"[55, 0, 199]",199,l,0.65476726857014,1,colour,0.28,3.9
80,19,1,1,6,8,258,400.9008646493312,402.0717547883978,"[53, 0, 201]",201,l,0.6540201428579167,1,colour,0.28,3.9
80,19,1,1,6,9,259,402.5800290972693,403.47978310112376,"[34, 0, 220]",220,a,0.3831967213191092,1,colour,0.28,3.9
80,19,1,1,6,10,260,403.98956032609567,404.8397614238784,"[90, 0, 164]",164,l,0.3343578578205779,1,colour,0.28,3.9
80,19,1,1,6,11,261,405.3498056763783,406.38374613632914,"[89, 0, 165]",165,l,0.5169755468377843,1,colour,0.28,3.9
80,19,1,1,6,12,262,406.8928148325067,407.9197377458913,"[52, 0, 202]",202,l,0.5105897291796282,1,colour,0.28,3.9
80,19,1,1,6,13,263,408.4290841034381,409.6077590009663,"[61, 0, 193]",193,l,0.6623361995443702,1,colour,0.28,3.9
80,19,1,1,6,14,264,410.11714277381543,411.0078501368407,"[67, 0, 187]",187,l,0.37321075797080994,1,colour,0.28,3.9
80,19,1,1,6,15,265,411.5170937005896,412.34376565529965,"[83, 0, 171]",171,l,0.3105443579843268,1,colour,0.28,3.9
80,19,1,1,6,16,266,412.8524231764022,413.71184814558364,"[99, 0, 155]",155,l,0.3426140499068424,1,colour,0.28,3.9
80,19,1,1,6,17,267,414.2209499247838,416.06372426997405,"[65, 0, 189]",189,l,1.3265128409257159,1,colour,0.28,3.9
80,19,1,1,6,18,268,416.5728902461706,417.3837390471017,"[76, 0, 178]",178,l,0.29383780795615166,1,colour,0.28,3.9
80,19,1,1,6,19,269,417.89278765709605,418.6877388674766,"[62, 0, 192]",192,l,0.27816352795343846,1,colour,0.28,3.9
80,19,1,1,6,20,270,419.1968516744673,420.3517193737207,"[69, 0, 185]",185,l,0.6375699864001945,1,colour,0.28,3.9
80,19,1,1,6,21,271,420.8612973126583,421.67173060623463,"[85, 0, 169]",169,l,0.2935097343288362,1,colour,0.28,3.9
80,19,1,1,6,22,272,422.18034874263685,423.17578288691584,"[48, 0, 206]",206,a,0.4792009969241917,1,colour,0.28,3.9
80,19,1,1,6,23,273,423.68486418609973,425.92773045494687,"[74, 0, 180]",180,l,1.7261337247909978,1,colour,0.28,3.9
80,19,1,1,6,24,274,426.4367530711461,427.10377288633026,"[60, 0, 194]",194,a,0.14951927168294787,0,colour,0.28,3.9
80,19,1,1,6,25,275,427.6128510348499,428.5037454747362,"[71, 0, 183]",183,l,0.3737274839077145,1,colour,0.28,3.9
80,19,1,1,6,26,276,429.0129646200221,429.87172753422055,"[66, 0, 188]",188,l,0.34254670224618167,1,colour,0.28,3.9
80,19,1,1,6,27,277,430.381166445557,431.3117487388663,"[93, 0, 161]",161,l,0.41283047606702894,1,colour,0.28,3.9
80,19,1,1,6,28,278,431.82079262274783,432.6477615373442,"[77, 0, 177]",177,l,0.3100335400085896,1,colour,0.28,3.9
80,19,1,1,6,29,279,433.1570976548828,433.93574915791396,"[7, 0, 247]",247,a,0.26123721175827086,1,colour,0.28,3.9
80,19,1,1,6,30,280,434.4448729925789,435.26375191798434,"[1, 0, 253]",253,a,0.30173363094218075,1,colour,0.28,3.9
80,19,1,1,6,31,281,435.77338026918005,436.5837170705199,"[46, 0, 208]",208,a,0.29404851549770683,1,colour,0.28,3.9
80,19,1,1,6,32,282,437.0926191698527,437.79972698597703,"[28, 0, 226]",226,a,0.19065687200054526,1,colour,0.28,3.9
80,19,1,1,6,33,283,438.3095723462757,438.8957375631435,"[86, 0, 168]",168,l,0.06975602032616735,1,colour,0.28,3.9
80,19,1,1,6,34,284,439.4045191456098,440.1277006014716,"[33, 0, 221]",221,a,0.2067679271567613,1,colour,0.28,3.9
80,19,1,1,6,35,285,440.63664129772224,441.46371300600003,"[10, 0, 244]",244,a,0.3111398530891165,1,colour,0.28,3.9
80,19,1,1,6,36,286,441.9727927298518,442.61573162395507,"[82, 0, 172]",172,l,0.12669156829360873,1,colour,0.28,3.9
80,19,1,1,6,37,287,443.12483497848734,443.7677246418316,"[54, 0, 200]",200,a,0.12651276215910912,0,colour,0.28,3.9
80,19,1,1,6,38,288,444.2769701748621,445.1357531751273,"[75, 0, 179]",179,l,0.3407381616998464,1,colour,0.28,3.9
80,19,1,1,6,39,289,445.6448419574881,446.48774824105203,"[50, 0, 204]",204,a,0.3256672538118437,1,colour,0.28,3.9
80,19,1,1,6,40,290,446.9969201248605,447.92775329807773,"[13, 0, 241]",241,a,0.4138765309471637,1,colour,0.28,3.9
80,19,1,1,6,41,291,448.43616269610357,449.0318507134216,"[64, 0, 190]",190,l,0.07960413757245988,1,colour,0.28,3.9
80,19,1,1,6,42,292,449.54103716951795,450.35971877817065,"[44, 0, 210]",210,l,0.30188329238444567,0,colour,0.28,3.9
80,19,1,1,6,43,293,450.8682904408779,451.4880314163165,"[18, 0, 236]",236,a,0.10284380393568426,1,colour,0.28,3.9
80,19,1,1,6,44,294,451.9971083832206,452.6158541099867,"[63, 0, 191]",191,l,0.10254881321452558,1,colour,0.28,3.9
80,19,1,1,6,45,295,453.124975581537,453.9117576398421,"[51, 0, 203]",203,a,0.27044926793314517,0,colour,0.28,3.9
80,19,1,1,6,46,296,454.42088856361806,455.3997603052994,"[59, 0, 195]",195,l,0.46257321594748646,1,colour,0.28,3.9
80,19,1,1,6,47,297,455.90885617688764,456.62375702220015,"[22, 0, 232]",232,a,0.19776894163805991,1,colour,0.28,3.9
80,19,1,1,6,48,298,457.13284265378024,457.91170604596846,"[84, 0, 170]",170,l,0.26200402982067317,1,colour,0.28,3.9
80,19,1,1,6,49,299,458.4208688713843,459.0637061530724,"[73, 0, 181]",181,l,0.1259192363359034,1,colour,0.28,3.9
80,19,1,1,6,50,300,459.5733226889279,460.43168466805946,"[97, 0, 157]",157,l,0.342150493292138,1,colour,0.28,3.9
80,19,1,1,7,1,301,464.98837288073264,466.2317184599815,"[50, 0, 204]",204,l,0.7262081616790965,0,colour,0.14,3.9
80,19,1,1,7,2,302,466.7412747374037,467.9037767460104,"[84, 0, 170]",170,l,0.6459533906308934,1,colour,0.14,3.9
80,19,1,1,7,3,303,468.41284426068887,469.33580130315386,"[68, 0, 186]",186,l,0.40667545213364065,1,colour,0.14,3.9
80,19,1,1,7,4,304,469.8449739746284,470.6560074893059,"[98, 0, 156]",156,l,0.294136343174614,1,colour,0.14,3.9
80,19,1,1,7,5,305,471.16574257286265,472.0797215036582,"[54, 0, 200]",200,a,0.39752326055895537,0,colour,0.14,3.9
80,19,1,1,7,6,306,472.58839084010106,473.35174654913135,"[96, 0, 158]",158,l,0.2470473371213302,1,colour,0.14,3.9
80,19,1,1,7,7,307,473.86164035252295,474.6237341791857,"[76, 0, 178]",178,l,0.2448181692743674,1,colour,0.14,3.9
80,19,1,1,7,8,308,475.1336366471369,476.1037197171245,"[60, 0, 194]",194,a,0.4537825749721378,0,colour,0.14,3.9
80,19,1,1,7,9,309,476.6127289426513,477.7116941518616,"[57, 0, 197]",197,l,0.5827040988951921,1,colour,0.14,3.9
80,19,1,1,7,10,310,478.22075930342544,479.30374500202015,"[62, 0, 192]",192,l,0.5666481821099296,1,colour,0.14,3.9
80,19,1,1,7,11,311,479.8129357905127,480.65572982793674,"[82, 0, 172]",172,l,0.3265734931919724,1,colour,0.14,3.9
80,19,1,1,7,12,312,481.16522899770644,481.7837344785221,"[92, 0, 162]",162,l,0.10132631554733962,1,colour,0.14,3.9
80,19,1,1,7,13,313,482.293689721846,482.9757268819958,"[79, 0, 175]",175,l,0.16368000174406916,1,colour,0.14,3.9
80,19,1,1,7,14,314,483.48511419957504,484.32768374483567,"[66, 0, 188]",188,l,0.32593388739041984,1,colour,0.14,3.9
80,19,1,1,7,15,315,484.8369001332903,485.4957267717691,"[53, 0, 201]",201,a,0.142201614449732,0,colour,0.14,3.9
80,19,1,1,7,16,316,486.00482067407575,487.08769491431303,"[91, 0, 163]",163,l,0.5653705459553748,1,colour,0.14,3.9
80,19,1,1,7,17,317,487.59686325350776,488.4876864072867,"[61, 0, 193]",193,l,0.3740153852850199,1,colour,0.14,3.9
80,19,1,1,7,18,318,488.9971584016457,489.61571035627276,"[58, 0, 196]",196,a,0.10156419849954545,0,colour,0.14,3.9
80,19,1,1,7,19,319,490.1247554216534,490.9117328275461,"[31, 0, 223]",223,a,0.270104652736336,1,colour,0.14,3.9
80,19,1,1,7,20,320,491.4208275175188,492.2557312458521,"[67, 0, 187]",187,l,0.3184579041553661,1,colour,0.14,3.9
80,19,1,1,7,21,321,492.7647475604899,493.3757038026815,"[71, 0, 183]",183,l,0.09440919966436923,1,colour,0.14,3.9
80,19,1,1,7,22,322,493.88517894782126,494.6876699444838,"[73, 0, 181]",181,l,0.2858360403915867,1,colour,0.14,3.9
80,19,1,1,7,23,323,495.19690208672546,497.055723684025,"[69, 0, 185]",185,l,1.3425628499826416,1,colour,0.14,3.9
80,19,1,1,7,24,324,497.56475457095075,498.2717013041256,"[81, 0, 173]",173,l,0.19043277367018163,1,colour,0.14,3.9
80,19,1,1,7,25,325,498.78082986478694,499.4877147641964,"[39, 0, 215]",215,a,0.18988966022152454,1,colour,0.14,3.9
80,19,1,1,7,26,326,499.9967810972594,500.78377740771975,"[51, 0, 203]",203,a,0.269985317485407,0,colour,0.14,3.9
80,19,1,1,7,27,327,501.2928748546401,502.09567620186135,"[55, 0, 199]",199,a,0.2858021695865318,0,colour,0.14,3.9
80,19,1,1,7,28,328,502.6047834949568,503.4237077126745,"[89, 0, 165]",165,l,0.3025807935046032,1,colour,0.14,3.9
80,19,1,1,7,29,329,503.93283824273385,504.76771400799043,"[75, 0, 179]",179,l,0.31857093796133995,1,colour,0.14,3.9
80,19,1,1,7,30,330,505.27675907337107,506.1677637901157,"[99, 0, 155]",155,l,0.37219739239662886,1,colour,0.14,3.9
80,19,1,1,7,31,331,506.6769707262283,507.3677489027614,"[63, 0, 191]",191,a,0.1728373133810237,0,colour,0.14,3.9
80,19,1,1,7,32,332,507.8764013038017,508.6397195974132,"[93, 0, 161]",161,l,0.2466034727403894,1,colour,0.14,3.9
80,19,1,1,7,33,333,509.14938615169376,509.97570876509417,"[9, 0, 245]",245,a,0.3098929369589314,1,colour,0.14,3.9
80,19,1,1,7,34,334,510.4853004886536,511.3436880677473,"[72, 0, 182]",182,l,0.3419756257208064,1,colour,0.14,3.9
80,19,1,1,7,35,335,511.8526275823824,512.815704527311,"[87, 0, 167]",167,l,0.44709073891863227,1,colour,0.14,3.9
80,19,1,1,7,36,336,513.3247992172837,514.1757813114673,"[74, 0, 180]",180,l,0.33434171008411795,1,colour,0.14,3.9
80,19,1,1,7,37,337,514.6848728507757,515.5036737946793,"[77, 0, 177]",177,l,0.3025102950632572,1,colour,0.14,3.9
80,19,1,1,7,38,338,516.0124817648903,516.9117210120894,"[97, 0, 157]",157,l,0.38292851217556745,1,colour,0.14,3.9
80,19,1,1,7,39,339,517.4208090067841,518.2557021011598,"[95, 0, 159]",159,l,0.3180396397365257,1,colour,0.14,3.9
80,19,1,1,7,40,340,518.7652875232743,519.5997273010435,"[80, 0, 174]",174,l,0.31790061213541776,1,colour,0.14,3.9
80,19,1,1,7,41,341,520.1080984961009,520.8876578140771,"[52, 0, 202]",202,a,0.2628039309056476,0,colour,0.14,3.9
80,19,1,1,7,42,342,521.3967076055706,522.4076880299253,"[43, 0, 211]",211,a,0.49509661830961704,1,colour,0.14,3.9
80,19,1,1,7,43,343,522.9169213536661,523.775700415601,"[25, 0, 229]",229,a,0.3421048071468249,1,colour,0.14,3.9
80,19,1,1,7,44,344,524.2847045209492,525.0316919935867,"[90, 0, 164]",164,l,0.23076417134143412,1,colour,0.14,3.9
80,19,1,1,7,45,345,525.540804012795,526.4156732559204,"[83, 0, 171]",171,l,0.3573434934951365,1,colour,0.14,3.9
80,19,1,1,7,46,346,526.9256277115783,528.8396885623224,"[59, 0, 195]",195,a,1.3968316670507193,0,colour,0.14,3.9
80,19,1,1,7,47,347,529.3488529630704,530.183673196123,"[70, 0, 184]",184,l,0.3183594427537173,1,colour,0.14,3.9
80,19,1,1,7,48,348,530.6930045874324,531.2876552146627,"[3, 0, 251]",251,a,0.07751360349357128,1,colour,0.14,3.9
80,19,1,1,7,49,349,531.7972256705398,532.6157603746979,"[5, 0, 249]",249,a,0.3006414963165298,1,colour,0.14,3.9
80,19,1,1,7,50,350,533.123335213284,534.1837062791456,"[65, 0, 189]",189,l,0.543244282132946,1,colour,0.14,3.9
80,19,1,1,8,1,351,539.1082473698771,540.7916787446011,"[78, 0, 176]",176,l,1.1659438281785697,1,colour,0.06,3.9
80,19,1,1,8,2,352,541.3008628375828,541.9358495885972,"[73, 0, 181]",181,l,0.11825578240677714,1,colour,0.06,3.9
80,19,1,1,8,3,353,542.4449616079219,543.3036611129064,"[99, 0, 155]",155,l,0.34235489927232265,1,colour,0.06,3.9
80,19,1,1,8,4,354,543.812705784454,544.6396943912841,"[82, 0, 172]",172,l,0.310941748553887,1,colour,0.06,3.9
80,19,1,1,8,5,355,545.1484791245311,545.8797135479981,"[19, 0, 235]",235,a,0.21497606998309493,1,colour,0.06,3.9
80,19,1,1,8,6,356,546.3887613703264,547.2556768950308,"[97, 0, 157]",157,l,0.3499218609649688,1,colour,0.06,3.9
80,19,1,1,8,7,357,547.7648424773943,548.615672940854,"[79, 0, 175]",175,l,0.3344401716021821,1,colour,0.06,3.9
80,19,1,1,8,8,358,549.124838129268,550.1197059231345,"[67, 0, 187]",187,a,0.4788166033104062,0,colour,0.06,3.9
80,19,1,1,8,9,359,550.6280192227568,551.375677414937,"[90, 0, 164]",164,l,0.23069012828636914,1,colour,0.06,3.9
80,19,1,1,8,10,360,551.883695330238,552.9277143073268,"[69, 0, 185]",185,l,0.5259942247066647,1,colour,0.06,3.9
80,19,1,1,8,11,361,553.4369771694764,554.2796853486216,"[84, 0, 170]",170,l,0.32646754872985184,1,colour,0.06,3.9
80,19,1,1,8,12,362,554.7888202108443,555.5756463798461,"[50, 0, 204]",204,a,0.2706331938970834,1,colour,0.06,3.9
80,19,1,1,8,13,363,556.0851364912232,557.1196614184882,"[52, 0, 202]",202,a,0.5183528260095045,0,colour,0.06,3.9
80,19,1,1,8,14,364,557.6290837883716,558.5036316532642,"[83, 0, 171]",171,l,0.35810046538244933,1,colour,0.06,3.9
80,19,1,1,8,15,365,559.0126349709462,560.2638027240755,"[59, 0, 195]",195,l,0.7346214982680976,1,colour,0.06,3.9
80,19,1,1,8,16,366,560.7729084418388,561.7996328568552,"[87, 0, 167]",167,l,0.5104892984963953,1,colour,0.06,3.9
80,19,1,1,8,17,367,562.3084849377628,563.1836609868333,"[92, 0, 162]",162,l,0.3587369204033166,1,colour,0.06,3.9
80,19,1,1,8,18,368,563.6928612275515,564.5596893185284,"[80, 0, 174]",174,l,0.35050947905983776,1,colour,0.06,3.9
80,19,1,1,8,19,369,565.0682999718701,565.8796402926091,"[54, 0, 200]",200,a,0.29522690246813,0,colour,0.06,3.9
80,19,1,1,8,20,370,566.388706231839,567.2878162976122,"[91, 0, 163]",163,l,0.3828131153713912,1,colour,0.06,3.9
80,19,1,1,8,21,371,567.7962564156624,568.6236459576758,"[89, 0, 165]",165,l,0.3104415643028915,1,colour,0.06,3.9
80,19,1,1,8,22,372,569.1327012630645,569.967680609785,"[85, 0, 169]",169,l,0.3184677503304556,1,colour,0.06,3.9
80,19,1,1,8,23,373,570.4766169737559,571.3356603062712,"[88, 0, 166]",166,l,0.3421634901314974,1,colour,0.06,3.9
80,19,1,1,8,24,374,571.8447085224325,572.7036494550994,"[75, 0, 179]",179,l,0.34140257991384715,1,colour,0.06,3.9
80,19,1,1,8,25,375,573.213495209231,574.27961918246,"[74, 0, 180]",180,l,0.549407183076255,1,colour,0.06,3.9
80,19,1,1,8,26,376,574.7886599155609,575.5756416537333,"[53, 0, 201]",201,a,0.27002745890058577,0,colour,0.06,3.9
80,19,1,1,8,27,377,576.085294029559,577.0796927529154,"[55, 0, 199]",199,a,0.4782971205422655,0,colour,0.06,3.9
80,19,1,1,8,28,378,577.5887382121291,578.4076596730156,"[76, 0, 178]",178,a,0.30262766126543283,0,colour,0.06,3.9
80,19,1,1,8,29,379,578.9167775999522,579.9036585922586,"[64, 0, 190]",190,a,0.4703969651600346,0,colour,0.06,3.9
80,19,1,1,8,30,380,580.4129057006212,581.3036225159885,"[56, 0, 198]",198,a,0.37384288071189076,0,colour,0.06,3.9
80,19,1,1,8,31,381,581.8127093290677,582.7276579085737,"[71, 0, 183]",183,l,0.39878081053029746,1,colour,0.06,3.9
80,19,1,1,8,32,382,583.2360291036312,584.1996597958496,"[62, 0, 192]",192,a,0.4470828620251268,0,colour,0.06,3.9
80,19,1,1,8,33,383,584.7096815991681,585.5036529208301,"[96, 0, 158]",158,l,0.2764321812428534,1,colour,0.06,3.9
80,19,1,1,8,34,384,586.0128003862919,586.7996840567794,"[68, 0, 186]",186,a,0.270681636990048,0,colour,0.06,3.9
80,19,1,1,8,35,385,587.3091812572675,588.183648383827,"[36, 0, 218]",218,a,0.35756129038054496,1,colour,0.06,3.9
80,19,1,1,8,36,386,588.6927761568222,589.5357426988194,"[41, 0, 213]",213,a,0.3266325701260939,1,colour,0.06,3.9
80,19,1,1,8,37,387,590.0456329575973,590.7836423185654,"[58, 0, 196]",196,a,0.22166357364039868,0,colour,0.06,3.9
80,19,1,1,8,38,388,591.2927807255182,592.0637014269596,"[94, 0, 160]",160,l,0.2546249326551333,1,colour,0.06,3.9
80,19,1,1,8,39,389,592.571321557858,593.167720467085,"[61, 0, 193]",193,a,0.07861755357589573,0,colour,0.06,3.9
80,19,1,1,8,40,390,593.6767336309422,594.343618356972,"[93, 0, 161]",161,l,0.14788835565559566,1,colour,0.06,3.9
80,19,1,1,8,41,391,594.8523711886955,595.5916514904238,"[70, 0, 184]",184,l,0.22308968973811716,1,colour,0.06,3.9
80,19,1,1,8,42,392,596.1008182542864,596.8796272956533,"[66, 0, 188]",188,l,0.26191029441542923,1,colour,0.06,3.9
80,19,1,1,8,43,393,597.3884293581359,597.9677432313329,"[63, 0, 191]",191,l,0.06311774731148034,1,colour,0.06,3.9
80,19,1,1,8,44,394,598.4769194474211,599.5196446406189,"[51, 0, 203]",203,a,0.5233869645744562,0,colour,0.06,3.9
80,19,1,1,8,45,395,600.0279866911005,600.6316032207105,"[95, 0, 159]",159,l,0.08687256404664367,1,colour,0.06,3.9
80,19,1,1,8,46,396,601.1407132706372,601.8156269396422,"[65, 0, 189]",189,a,0.15853676781989634,0,colour,0.06,3.9
80,19,1,1,8,47,397,602.3247444727458,603.0076201308984,"[98, 0, 156]",156,l,0.16654247394762933,1,colour,0.06,3.9
80,19,1,1,8,48,398,603.5173288267106,604.2476176259806,"[81, 0, 173]",173,l,0.2133971416624263,1,colour,0.06,3.9
80,19,1,1,8,49,399,604.7566422114614,605.3276549940929,"[86, 0, 168]",168,l,0.05469456466380507,1,colour,0.06,3.9
80,19,1,1,8,50,400,605.8370289208833,606.6237144868355,"[60, 0, 194]",194,a,0.2699215143220499,0,colour,0.06,3.9
80,19,1,1,9,1,401,611.18775462138,612.1517035411671,"[76, 0, 178]",178,l,0.44746213569305837,1,colour,0.06,3.9
80,19,1,1,9,2,402,612.6604764589574,614.7756704832427,"[92, 0, 162]",162,l,1.5972283487208188,1,colour,0.06,3.9
80,19,1,1,9,3,403,615.2850641023833,616.4555985984625,"[59, 0, 195]",195,l,0.6539748505456373,1,colour,0.06,3.9
80,19,1,1,9,4,404,616.9653321065707,617.8556070268387,"[65, 0, 189]",189,l,0.3738708437886089,1,colour,0.06,3.9
80,19,1,1,9,5,405,618.3647107753204,619.2156306417892,"[53, 0, 201]",201,a,0.3346465468639508,0,colour,0.06,3.9
80,19,1,1,9,6,406,619.7248033132637,620.5436909033451,"[86, 0, 168]",168,l,0.3025926088448614,1,colour,0.06,3.9
80,19,1,1,9,7,407,621.0518159447238,621.8316210225457,"[54, 0, 200]",200,a,0.2638720410177484,0,colour,0.06,3.9
80,19,1,1,9,8,408,622.3404219035292,623.1677141655236,"[91, 0, 163]",163,l,0.3109460809500888,1,colour,0.06,3.9
80,19,1,1,9,9,409,623.6773106151959,624.6316311837872,"[75, 0, 179]",179,l,0.4358810964040458,1,colour,0.06,3.9
80,19,1,1,9,10,410,625.1410169259179,625.9116280644666,"[57, 0, 197]",197,a,0.25396878528408706,0,colour,0.06,3.9
80,19,1,1,9,11,411,626.4206309884321,627.511605063919,"[68, 0, 186]",186,l,0.5746798820327967,1,colour,0.06,3.9
80,19,1,1,9,12,412,628.0202870033681,628.7276275823824,"[0, 0, 254]",254,a,0.1908250441774726,1,colour,0.06,3.9
80,19,1,1,9,13,413,629.2370137184625,630.0875984220766,"[85, 0, 169]",169,l,0.3328825110802427,1,colour,0.06,3.9
80,19,1,1,9,14,414,630.5955371742602,631.5116566576762,"[56, 0, 198]",198,l,0.39977487770374864,1,colour,0.06,3.9
80,19,1,1,9,15,415,632.0213736242149,633.0956671434687,"[51, 0, 203]",203,a,0.5575255290605128,0,colour,0.06,3.9
80,19,1,1,9,16,416,633.6051580425119,634.4395993956132,"[13, 0, 241]",241,a,0.31758947391062975,1,colour,0.06,3.9
80,19,1,1,9,17,417,634.9487216548296,635.479610202834,"[96, 0, 158]",158,l,0.01429424388334155,1,colour,0.06,3.9
80,19,1,1,9,18,418,635.9887919327011,636.8316489856225,"[88, 0, 166]",166,l,0.3259204967180267,1,colour,0.06,3.9
80,19,1,1,9,19,419,637.3408070848091,638.1756288931938,"[73, 0, 181]",181,l,0.3182263228809461,1,colour,0.06,3.9
80,19,1,1,9,20,420,638.6846948324237,639.4956287040841,"[81, 0, 173]",173,l,0.2948409335222095,1,colour,0.06,3.9
80,19,1,1,9,21,421,640.0047474186867,640.8396101869876,"[84, 0, 170]",170,l,0.31860756559763104,1,colour,0.06,3.9
80,19,1,1,9,22,422,641.3485749078682,642.199651525123,"[58, 0, 196]",196,l,0.3332038893131539,1,colour,0.06,3.9
80,19,1,1,9,23,423,642.708460676833,643.5516355632572,"[93, 0, 161]",161,l,0.32686493918299675,1,colour,0.06,3.9
80,19,1,1,9,24,424,644.0609464747831,645.2396615445614,"[52, 0, 202]",202,l,0.6602637822506949,1,colour,0.06,3.9
80,19,1,1,9,25,425,645.7491741051199,646.5836276675109,"[66, 0, 188]",188,l,0.317323234048672,1,colour,0.06,3.9
80,19,1,1,9,26,426,647.0927341728238,647.9356065856991,"[79, 0, 175]",175,l,0.3264718810096383,1,colour,0.06,3.9
80,19,1,1,9,27,427,648.4446863095509,649.2716142641148,"[63, 0, 191]",191,l,0.30870824842713773,1,colour,0.06,3.9
80,19,1,1,9,28,428,649.7813993659802,650.5915904443245,"[98, 0, 156]",156,l,0.2934352974407375,1,colour,0.06,3.9
80,19,1,1,9,29,429,651.1002558423206,651.9676723390585,"[94, 0, 160]",160,l,0.3504732452565804,1,colour,0.06,3.9
80,19,1,1,9,30,430,652.476449589245,653.2476262906566,"[83, 0, 171]",171,l,0.2522657955996692,1,colour,0.06,3.9
80,19,1,1,9,31,431,653.7554799721111,654.6316536329687,"[71, 0, 183]",183,l,0.3597290182951838,1,colour,0.06,3.9
80,19,1,1,9,32,432,655.1400657879421,656.0396283826558,"[60, 0, 194]",194,l,0.3833802534500137,1,colour,0.06,3.9
80,19,1,1,9,33,433,656.5485619897954,657.3436408061534,"[64, 0, 190]",190,l,0.278284044819884,1,colour,0.06,3.9
80,19,1,1,9,34,434,657.8517851460492,658.6396168036154,"[89, 0, 165]",165,l,0.2708257845370099,1,colour,0.06,3.9
80,19,1,1,9,35,435,659.1491994687822,659.9996006401489,"[97, 0, 157]",157,l,0.3335737105226144,1,colour,0.06,3.9
80,19,1,1,9,36,436,660.5092002407182,661.3836130164564,"[87, 0, 167]",167,l,0.35751166578847915,1,colour,0.06,3.9
80,19,1,1,9,37,437,661.8926927403081,662.7275992254727,"[67, 0, 187]",187,l,0.31911050679627806,1,colour,0.06,3.9
80,19,1,1,9,38,438,663.236003503669,664.0395606411621,"[70, 0, 184]",184,l,0.28747010708320886,1,colour,0.06,3.9
80,19,1,1,9,39,439,664.5487112572882,665.3996181269176,"[90, 0, 164]",164,l,0.3337340059224516,1,colour,0.06,3.9
80,19,1,1,9,40,440,665.9086194754345,666.5196080129826,"[50, 0, 204]",204,a,0.09468489175196737,1,colour,0.06,3.9
80,19,1,1,9,41,441,667.0290248689707,667.8555971806636,"[78, 0, 176]",176,l,0.30900954047683626,1,colour,0.06,3.9
80,19,1,1,9,42,442,668.3641609663609,669.2156239463948,"[80, 0, 174]",174,l,0.3348907313775271,1,colour,0.06,3.9
80,19,1,1,9,43,443,669.7248202486662,670.5198545604944,"[77, 0, 177]",177,l,0.2780768817756325,1,colour,0.06,3.9
80,19,1,1,9,44,444,671.0289685489843,672.0075996508822,"[99, 0, 155]",155,l,0.46224947459995747,1,colour,0.06,3.9
80,19,1,1,9,45,445,672.5165974547854,673.2716564056464,"[22, 0, 232]",232,a,0.23878287430852652,1,colour,0.06,3.9
80,19,1,1,9,46,446,673.7805852865567,674.5916581858182,"[74, 0, 180]",180,l,0.2945699675474316,1,colour,0.06,3.9
80,19,1,1,9,47,447,675.1003432760481,675.8955977477599,"[61, 0, 193]",193,l,0.27864677691832185,1,colour,0.06,3.9
80,19,1,1,9,48,448,676.404489607201,677.2395674153231,"[69, 0, 185]",185,l,0.31874698703177273,1,colour,0.06,3.9
80,19,1,1,9,49,449,677.7486077545909,678.6636185618117,"[55, 0, 199]",199,a,0.3978702388703823,0,colour,0.06,3.9
80,19,1,1,9,50,450,679.1727640578756,680.3436073292978,"[62, 0, 192]",192,l,0.6546172132948413,1,colour,0.06,3.9
80,19,1,1,10,1,451,685.195431466098,686.0796025621239,"[99, 0, 155]",155,l,0.3667197832837701,1,colour,0.06,3.9
80,19,1,1,10,2,452,686.5887516029179,687.7277469177498,"[79, 0, 175]",175,l,0.622616050648503,1,colour,0.06,3.9
80,19,1,1,10,3,453,688.2371176937595,689.1836357807042,"[60, 0, 194]",194,l,0.4297241030726582,1,colour,0.06,3.9
80,19,1,1,10,4,454,689.6931570058223,691.0795840513892,"[83, 0, 171]",171,l,0.8700627475045621,1,colour,0.06,3.9
80,19,1,1,10,5,455,691.5887933506165,692.3035701344488,"[96, 0, 158]",158,l,0.19747867714613676,1,colour,0.06,3.9
80,19,1,1,10,6,456,692.8123816492734,693.5755813953001,"[65, 0, 189]",189,l,0.24524903658311814,1,colour,0.06,3.9
80,19,1,1,10,7,457,694.0851396420039,694.8555908791022,"[85, 0, 169]",169,l,0.2532011796720326,1,colour,0.06,3.9
80,19,1,1,10,8,458,695.3644153908826,696.7036144027952,"[56, 0, 198]",198,a,0.8221407574601471,0,colour,0.06,3.9
80,19,1,1,10,9,459,697.2126078744186,698.0235728599364,"[86, 0, 168]",168,l,0.2946345582604408,1,colour,0.06,3.9
80,19,1,1,10,10,460,698.5333162141033,699.0795899591176,"[97, 0, 157]",157,l,0.029283625772222877,1,colour,0.06,3.9
80,19,1,1,10,11,461,699.5887961075641,700.4156185113825,"[63, 0, 191]",191,l,0.30919189122505486,1,colour,0.06,3.9
80,19,1,1,10,12,462,700.9256749730557,702.2155542357359,"[76, 0, 178]",178,l,0.7728005280951038,1,colour,0.06,3.9
80,19,1,1,10,13,463,702.7247505380074,703.623577428516,"[84, 0, 170]",170,l,0.3824795278487727,1,colour,0.06,3.9
80,19,1,1,10,14,464,704.132530727773,704.9436020517023,"[89, 0, 165]",165,l,0.2943785584066063,1,colour,0.06,3.9
80,19,1,1,10,15,465,705.4524348342093,706.2316396908136,"[32, 0, 222]",222,a,0.26241756801027805,1,colour,0.06,3.9
80,19,1,1,10,16,466,706.7408115746221,707.575571942958,"[70, 0, 184]",184,l,0.31751070462632924,1,colour,0.06,3.9
80,19,1,1,10,17,467,708.085245192633,708.92760245502,"[61, 0, 193]",193,a,0.3252363862702623,0,colour,0.06,3.9
80,19,1,1,10,18,468,709.4370720863808,710.2715977225453,"[95, 0, 159]",159,l,0.3184760210569948,1,colour,0.06,3.9
80,19,1,1,10,19,469,710.7806010403438,711.5995772457682,"[71, 0, 183]",183,l,0.3026701966300607,1,colour,0.06,3.9
80,19,1,1,10,20,470,712.1084872219944,713.0475537441671,"[91, 0, 163]",163,l,0.4228633070597425,1,colour,0.06,3.9
80,19,1,1,10,21,471,713.5566145634511,714.3515831030672,"[67, 0, 187]",187,l,0.27795518352650106,1,colour,0.06,3.9
80,19,1,1,10,22,472,714.8597715535434,715.8157466688426,"[59, 0, 195]",195,l,0.4390200483612716,1,colour,0.06,3.9
80,19,1,1,10,23,473,716.3248807433993,717.1435859828489,"[75, 0, 179]",179,l,0.3024413720704615,1,colour,0.06,3.9
80,19,1,1,10,24,474,717.6546959824627,718.2395938030677,"[54, 0, 200]",200,a,0.06793802755419165,0,colour,0.06,3.9
80,19,1,1,10,25,475,718.7486089362064,719.4955995595083,"[74, 0, 180]",180,l,0.23139708174858242,1,colour,0.06,3.9
80,19,1,1,10,26,476,720.0049203170929,720.7995741737541,"[87, 0, 167]",167,l,0.27841007546521723,1,colour,0.06,3.9
80,19,1,1,10,27,477,721.308673196123,722.2397414952284,"[88, 0, 166]",166,l,0.4147804072126746,1,colour,0.06,3.9
80,19,1,1,10,28,478,722.7485427700449,723.5836319997907,"[64, 0, 190]",190,l,0.31880567013286054,1,colour,0.06,3.9
80,19,1,1,10,29,479,724.0920102840755,724.7355659408495,"[53, 0, 201]",201,a,0.12740364170167595,0,colour,0.06,3.9
80,19,1,1,10,30,480,725.2446425139206,726.1755717854248,"[73, 0, 181]",181,l,0.41211879649199545,1,colour,0.06,3.9
80,19,1,1,10,31,481,726.6850957674906,727.5035662747687,"[98, 0, 156]",156,l,0.30173441860824823,1,colour,0.06,3.9
80,19,1,1,10,32,482,728.0140417886432,728.7515639620833,"[50, 0, 204]",204,a,0.22029377752915025,1,colour,0.06,3.9
80,19,1,1,10,33,483,729.2606897659134,730.151565301232,"[55, 0, 199]",199,a,0.3724821431096643,0,colour,0.06,3.9
80,19,1,1,10,34,484,730.6598939609248,731.4555962354643,"[51, 0, 203]",203,a,0.2791804381413385,0,colour,0.06,3.9
80,19,1,1,10,35,485,731.9646893501049,732.759561003535,"[68, 0, 186]",186,l,0.2783655709354207,1,colour,0.06,3.9
80,19,1,1,10,36,486,733.2684205675032,733.9996490832418,"[58, 0, 196]",196,l,0.21411748579703271,1,colour,0.06,3.9
80,19,1,1,10,37,487,734.5096689172788,735.1435391152045,"[66, 0, 188]",188,l,0.11768628132995218,1,colour,0.06,3.9
80,19,1,1,10,38,488,735.6524723283947,736.191544600646,"[92, 0, 162]",162,l,0.022859211079776287,1,colour,0.06,3.9
80,19,1,1,10,39,489,736.700877567404,737.4875879457686,"[90, 0, 164]",164,l,0.26982265908736736,1,colour,0.06,3.9
80,19,1,1,10,40,490,737.9965837805066,738.5755498876097,"[82, 0, 172]",172,l,0.06241788307670504,1,colour,0.06,3.9
80,19,1,1,10,41,491,739.0853019064525,739.9196002936224,"[69, 0, 185]",185,l,0.3180073444964364,1,colour,0.06,3.9
80,19,1,1,10,42,492,740.4290640172549,741.0796695159515,"[78, 0, 176]",176,l,0.13439361902419478,1,colour,0.06,3.9
80,19,1,1,10,43,493,741.5888354921481,742.2235560033005,"[26, 0, 228]",228,a,0.11829162249341607,1,colour,0.06,3.9
80,19,1,1,10,44,494,742.7333198374836,743.4235596266808,"[57, 0, 197]",197,l,0.17335955298040062,1,colour,0.06,3.9
80,19,1,1,10,45,495,743.9326976396842,744.5275428267196,"[45, 0, 209]",209,a,0.07855335657950491,1,colour,0.06,3.9
80,19,1,1,10,46,496,745.0371247042203,745.6715372278122,"[52, 0, 202]",202,a,0.1180572840385139,0,colour,0.06,3.9
80,19,1,1,10,47,497,746.1810324591352,746.927571735112,"[94, 0, 160]",160,l,0.23058536532334983,1,colour,0.06,3.9
80,19,1,1,10,48,498,747.4360614777543,748.0235779798822,"[93, 0, 161]",161,l,0.0702325738966465,1,colour,0.06,3.9
80,19,1,1,10,49,499,748.5328861343442,749.1755249177804,"[72, 0, 182]",182,l,0.12507955683395267,1,colour,0.06,3.9
80,19,1,1,10,50,500,749.6842005557846,750.2475802106783,"[80, 0, 174]",174,l,0.04715556604787707,1,colour,0.06,3.9
80,19,1,1,11,1,501,755.707893538638,756.48753005045,"[51, 0, 203]",203,l,0.2622143436456099,1,colour,0.06,3.8
80,19,1,1,11,2,502,756.996605835855,759.5675965631381,"[68, 0, 186]",186,l,2.053839919040911,1,colour,0.06,3.8
80,19,1,1,11,3,503,760.0767743545584,760.6875730584143,"[62, 0, 192]",192,l,0.09169048129115254,1,colour,0.06,3.8
80,19,1,1,11,4,504,761.197314443416,761.9676168067381,"[29, 0, 225]",225,a,0.25322126573882997,1,colour,0.06,3.8
80,19,1,1,11,5,505,762.4766646291828,763.1835644945968,"[66, 0, 188]",188,l,0.1900160846998915,1,colour,0.06,3.8
80,19,1,1,11,6,506,763.6928261752473,764.399544477812,"[93, 0, 161]",161,l,0.18962932797148824,1,colour,0.06,3.8
80,19,1,1,11,7,507,764.9086576785194,765.711593721062,"[75, 0, 179]",179,l,0.2864677691832185,1,colour,0.06,3.8
80,19,1,1,11,8,508,766.2204930635635,766.9515526193427,"[79, 0, 175]",175,l,0.21473818691447377,1,colour,0.06,3.8
80,19,1,1,11,9,509,767.4605567248072,768.2715201349929,"[83, 0, 171]",171,l,0.2916751999873668,1,colour,0.06,3.8
80,19,1,1,11,10,510,768.7803485851036,769.559537687921,"[94, 0, 160]",160,l,0.261549137881957,1,colour,0.06,3.8
80,19,1,1,11,11,511,770.068402371835,770.7515486021293,"[95, 0, 159]",159,l,0.16608955105766654,1,colour,0.06,3.8
80,19,1,1,11,12,512,771.2592191452859,771.9995045417454,"[20, 0, 234]",234,a,0.2234323356533423,1,colour,0.06,3.8
80,19,1,1,11,13,513,772.5087559825042,773.2875453316374,"[74, 0, 180]",180,l,0.26239669416099787,1,colour,0.06,3.8
80,19,1,1,11,14,514,773.7973619411932,774.6395136159845,"[81, 0, 173]",173,l,0.32550656457897276,1,colour,0.06,3.8
80,19,1,1,11,15,515,775.1486031860113,775.92751423351,"[89, 0, 165]",165,l,0.2617740237619728,1,colour,0.06,3.8
80,19,1,1,11,16,516,776.4371146217454,777.335520491004,"[57, 0, 197]",197,a,0.38205535581801087,0,colour,0.06,3.8
80,19,1,1,11,17,517,777.8446581101744,778.6955381983425,"[59, 0, 195]",195,l,0.3326438404619694,1,colour,0.06,3.8
80,19,1,1,11,18,518,779.2046805436257,780.0235649829265,"[78, 0, 176]",176,l,0.30246382125187665,1,colour,0.06,3.8
80,19,1,1,11,19,519,780.5322303809226,781.3915316824568,"[64, 0, 190]",190,l,0.34190709644462913,1,colour,0.06,3.8
80,19,1,1,11,20,520,781.9007012032671,782.7195344425272,"[88, 0, 166]",166,l,0.3020294092129916,1,colour,0.06,3.8
80,19,1,1,11,21,521,783.229027704685,784.039534647367,"[96, 0, 158]",158,l,0.2941300416132435,1,colour,0.06,3.8
80,19,1,1,11,22,522,784.5495194292162,785.3915687040426,"[92, 0, 162]",162,l,0.32583109370898455,1,colour,0.06,3.8
80,19,1,1,11,23,523,785.9006003786344,786.6795500231674,"[55, 0, 199]",199,a,0.26223836815916,0,colour,0.06,3.8
80,19,1,1,11,24,524,787.1896159371827,787.9998085908592,"[84, 0, 170]",170,l,0.2934408112196252,1,colour,0.06,3.8
80,19,1,1,11,25,525,788.5086854840629,789.3195468881167,"[50, 0, 204]",204,a,0.2947775243083015,1,colour,0.06,3.8
80,19,1,1,11,26,526,789.8280236339197,790.5675264585298,"[82, 0, 172]",172,l,0.22129060153383762,1,colour,0.06,3.8
80,19,1,1,11,27,527,791.0767798684537,792.4155428929953,"[58, 0, 196]",196,l,0.8206216937396675,1,colour,0.06,3.8
80,19,1,1,11,28,528,792.924361890764,793.5116468115011,"[72, 0, 182]",182,l,0.07101475179661065,1,colour,0.06,3.8
80,19,1,1,11,29,529,794.0204764432274,794.7115157396765,"[71, 0, 183]",183,l,0.17473722610156983,1,colour,0.06,3.8
80,19,1,1,11,30,530,795.2203886944335,795.7515407252358,"[87, 0, 167]",167,l,0.015140224946662784,1,colour,0.06,3.8
80,19,1,1,11,31,531,796.2602852862328,797.8076432889793,"[85, 0, 169]",169,l,1.0293108011828735,1,colour,0.06,3.8
80,19,1,1,11,32,532,798.3171798741678,798.9675774221541,"[86, 0, 168]",168,l,0.13315221667289734,1,colour,0.06,3.8
80,19,1,1,11,33,533,799.4768674598308,800.1675503256265,"[56, 0, 198]",198,a,0.17363563901744783,0,colour,0.06,3.8
80,19,1,1,11,34,534,800.6773811136372,801.8875416294904,"[65, 0, 189]",189,l,0.6916399113833904,1,colour,0.06,3.8
80,19,1,1,11,35,535,802.3965654271888,804.0155183169991,"[76, 0, 178]",178,l,1.101675656856969,1,colour,0.06,3.8
80,19,1,1,11,36,536,804.5247177699348,805.5034973517759,"[61, 0, 193]",193,a,0.46251059451606125,0,colour,0.06,3.8
80,19,1,1,11,37,537,806.0125042140717,806.8635252990061,"[4, 0, 250]",250,a,0.33387382118962705,1,colour,0.06,3.8
80,19,1,1,11,38,538,807.3721650970401,809.367516139755,"[97, 0, 157]",157,l,1.4783325666794553,1,colour,0.06,3.8
80,19,1,1,11,39,539,809.8762000484858,810.7675328388577,"[73, 0, 181]",181,l,0.37466562481131405,1,colour,0.06,3.8
80,19,1,1,11,40,540,811.2760765383719,812.0875247728545,"[90, 0, 164]",164,l,0.29460108128841966,1,colour,0.06,3.8
80,19,1,1,11,41,541,812.5974260593066,813.4555363708641,"[60, 0, 194]",194,l,0.3413179030176252,1,colour,0.06,3.8
80,19,1,1,11,42,542,813.9645731655182,814.4878262225538,"[98, 0, 156]",156,l,0.007205804926343262,1,colour,0.06,3.8
80,19,1,1,11,43,543,815.0072983587161,815.9194837152027,"[67, 0, 187]",187,l,0.3947131698951125,1,colour,0.06,3.8
80,19,1,1,11,44,544,816.4280640424695,817.3834881673101,"[70, 0, 184]",184,l,0.4376163815613836,1,colour,0.06,3.8
80,19,1,1,11,45,545,817.8925013311673,818.855475088465,"[99, 0, 155]",155,l,0.4464322286657989,1,colour,0.06,3.8
80,19,1,1,11,46,546,819.3646481537726,820.2554992705118,"[54, 0, 200]",200,a,0.37327613634988666,0,colour,0.06,3.8
80,19,1,1,11,47,547,820.7644675360061,821.607510878006,"[80, 0, 174]",174,l,0.3268818745855242,1,colour,0.06,3.8
80,19,1,1,11,48,548,822.116319635883,822.9755366544705,"[69, 0, 185]",185,l,0.34257584693841636,1,colour,0.06,3.8
80,19,1,1,11,49,549,823.4845580890542,824.7754774987698,"[63, 0, 191]",191,l,0.7747287977254018,1,colour,0.06,3.8
80,19,1,1,11,50,550,825.2846415056847,826.2555260520894,"[53, 0, 201]",201,a,0.4532532460289076,0,colour,0.06,3.8
80,19,1,1,12,1,551,832.7078569110017,834.5035418563057,"[66, 0, 188]",188,l,1.2783317001303658,1,colour,0.06,3.8
80,19,1,1,12,2,552,835.0122088296339,835.8395381132141,"[91, 0, 163]",163,l,0.31025212444365025,1,colour,0.06,3.8
80,19,1,1,12,3,553,836.3489722984377,838.1514814120019,"[52, 0, 202]",202,a,1.2858868464827538,0,colour,0.06,3.8
80,19,1,1,12,4,554,838.6595721887425,839.5194674100494,"[58, 0, 196]",196,a,0.3436561662238091,0,colour,0.06,3.8
80,19,1,1,12,5,555,840.0280847587856,840.6794881892856,"[87, 0, 167]",167,l,0.1346149604069069,1,colour,0.06,3.8
80,19,1,1,12,6,556,841.1885781531455,841.9274961166084,"[64, 0, 190]",190,l,0.22275137610267848,1,colour,0.06,3.8
80,19,1,1,12,7,557,842.4352355828742,843.1914796161,"[1, 0, 253]",253,a,0.23985334753524512,1,colour,0.06,3.8
80,19,1,1,12,8,558,843.6992265653098,844.5114723377628,"[57, 0, 197]",197,l,0.2948858318850398,1,colour,0.06,3.8
80,19,1,1,12,9,559,845.0195733545115,845.8875735310139,"[72, 0, 182]",182,l,0.3498344272375107,1,colour,0.06,3.8
80,19,1,1,12,10,560,846.3948305359809,847.2154786172323,"[89, 0, 165]",165,l,0.3023732367437333,1,colour,0.06,3.8
80,19,1,1,12,11,561,847.724639867316,848.551609175629,"[81, 0, 173]",173,l,0.30996067845262587,1,colour,0.06,3.8
80,19,1,1,12,12,562,849.0602269181982,849.7274822532199,"[60, 0, 194]",194,l,0.14830504462588578,1,colour,0.06,3.8
80,19,1,1,12,13,563,850.2370538907126,850.8555176238297,"[73, 0, 181]",181,l,0.10197576752398163,1,colour,0.06,3.8
80,19,1,1,12,14,564,851.3652271073079,852.0314576552482,"[77, 0, 177]",177,l,0.14953738858457655,1,colour,0.06,3.8
80,19,1,1,12,15,565,852.5402400253806,853.5994618488476,"[95, 0, 159]",159,l,0.5429937960579991,1,colour,0.06,3.8
80,19,1,1,12,16,566,854.108577806619,854.9435150118079,"[59, 0, 195]",195,a,0.31807272287551314,0,colour,0.06,3.8
80,19,1,1,12,17,567,855.4518661206821,856.3118625603383,"[50, 0, 204]",204,a,0.3432828002842143,1,colour,0.06,3.8
80,19,1,1,12,18,568,856.8209001426585,857.4475401170785,"[56, 0, 198]",198,l,0.11063131922855973,1,colour,0.06,3.8
80,19,1,1,12,19,569,857.9566245671595,858.5435089465464,"[53, 0, 201]",201,l,0.07066659210249782,1,colour,0.06,3.8
80,19,1,1,12,20,570,859.0517903447617,860.4475259386236,"[79, 0, 175]",175,l,0.879549314151518,1,colour,0.06,3.8
80,19,1,1,12,21,571,860.9566541055683,861.7995930783218,"[61, 0, 193]",193,l,0.3266132716089487,1,colour,0.06,3.8
80,19,1,1,12,22,572,862.3093683341285,863.727451533312,"[78, 0, 176]",176,l,0.9012620399007574,1,colour,0.06,3.8
80,19,1,1,12,23,573,864.2361445004353,865.0474718242185,"[94, 0, 160]",160,l,0.2950654256856069,1,colour,0.06,3.8
80,19,1,1,12,24,574,865.5564771111822,866.455502106226,"[65, 0, 189]",189,l,0.3825618416303769,1,colour,0.06,3.8
80,19,1,1,12,25,575,866.9646767469821,867.7755058556795,"[74, 0, 180]",180,l,0.2933151744073257,1,colour,0.06,3.8
80,19,1,1,12,26,576,868.284662379534,869.0714475885034,"[63, 0, 191]",191,l,0.27080609230324626,1,colour,0.06,3.8
80,19,1,1,12,27,577,869.5808128507342,870.3675133828074,"[85, 0, 169]",169,l,0.2691570593742654,1,colour,0.06,3.8
80,19,1,1,12,28,578,870.8766387928044,871.791441649315,"[54, 0, 200]",200,l,0.3978383372304961,1,colour,0.06,3.8
80,19,1,1,12,29,579,872.3003287825268,873.2794549487298,"[82, 0, 172]",172,l,0.4624495483003557,1,colour,0.06,3.8
80,19,1,1,12,30,580,873.7885618479922,874.4954632888548,"[71, 0, 183]",183,l,0.190666324342601,1,colour,0.06,3.8
80,19,1,1,12,31,581,875.0046253264882,875.8074377013836,"[98, 0, 156]",156,l,0.28579035424627364,1,colour,0.06,3.8
80,19,1,1,12,32,582,876.3164831607137,877.3754485904938,"[69, 0, 185]",185,l,0.5424947934225202,1,colour,0.06,3.8
80,19,1,1,12,33,583,877.8846767942887,878.6715856709052,"[97, 0, 157]",157,l,0.27056545251980424,1,colour,0.06,3.8
80,19,1,1,12,34,584,879.1807614931604,880.01546908624,"[76, 0, 178]",178,l,0.31860126415267587,1,colour,0.06,3.8
80,19,1,1,12,35,585,880.5246433330467,881.3994570439681,"[68, 0, 186]",186,l,0.35762745642568916,1,colour,0.06,3.8
80,19,1,1,12,36,586,881.9081062942278,882.5514709356939,"[9, 0, 245]",245,a,0.1269664727151394,1,colour,0.06,3.8
80,19,1,1,12,37,587,883.0594364694552,884.0634832363576,"[90, 0, 164]",164,l,0.48780337953940034,1,colour,0.06,3.8
80,19,1,1,12,38,588,884.572556658648,885.4474715879187,"[99, 0, 155]",155,l,0.35729071812238544,1,colour,0.06,3.8
80,19,1,1,12,39,589,885.9565643087262,886.815437893616,"[84, 0, 170]",170,l,0.3412162907188758,1,colour,0.06,3.8
80,19,1,1,12,40,590,887.324473112938,888.1674865225796,"[70, 0, 184]",184,l,0.32597327209077775,1,colour,0.06,3.8
80,19,1,1,12,41,591,888.6765705787111,889.4634889076697,"[67, 0, 187]",187,l,0.270168061950244,1,colour,0.06,3.8
80,19,1,1,12,42,592,889.9725430315593,890.8554408238269,"[88, 0, 166]",166,l,0.3667071802774444,1,colour,0.06,3.8
80,19,1,1,12,43,593,891.3636454220396,892.1674707686761,"[83, 0, 171]",171,l,0.28775052540004253,1,colour,0.06,3.8
80,19,1,1,12,44,594,892.6765520679764,893.4955085810507,"[96, 0, 158]",158,l,0.30090694839600474,1,colour,0.06,3.8
80,19,1,1,12,45,595,894.0049085016362,894.8394400456455,"[92, 0, 162]",162,l,0.3176245262147859,1,colour,0.06,3.8
80,19,1,1,12,46,596,895.3480018620612,896.1035007388564,"[26, 0, 228]",228,a,0.23880571743939072,1,colour,0.06,3.8
80,19,1,1,12,47,597,896.612505631987,897.2874622301897,"[62, 0, 192]",192,l,0.15877031860873103,1,colour,0.06,3.8
80,19,1,1,12,48,598,897.7971366613638,898.5674906185595,"[80, 0, 174]",174,l,0.2530968104256317,1,colour,0.06,3.8
80,19,1,1,12,49,599,899.0768082253635,900.2074414035305,"[51, 0, 203]",203,a,0.6131137300981209,0,colour,0.06,3.8
80,19,1,1,12,50,600,900.7165026166476,902.3914883594261,"[93, 0, 161]",161,l,1.158143709646538,1,colour,0.06,3.8
80,19,1,1,13,1,601,907.2117926132632,907.9355037919013,"[99, 0, 155]",155,l,0.20554621703922749,1,colour,0.06,3.8
80,19,1,1,13,2,602,908.4445882419823,909.1834420085652,"[95, 0, 159]",159,l,0.2204233529046178,1,colour,0.06,3.8
80,19,1,1,13,3,603,909.6922948771389,910.43147553585,"[92, 0, 162]",162,l,0.2231716096866876,1,colour,0.06,3.8
80,19,1,1,13,4,604,910.9405548658688,911.5515737294918,"[85, 0, 169]",169,l,0.0939255568664521,1,colour,0.06,3.8
80,19,1,1,13,5,605,912.0596593862865,912.7594333974412,"[87, 0, 167]",167,l,0.18360545462928712,1,colour,0.06,3.8
80,19,1,1,13,6,606,913.2680574415717,914.007435417152,"[12, 0, 242]",242,a,0.22240715485531837,1,colour,0.06,3.8
80,19,1,1,13,7,607,914.5165155348368,915.3354602325708,"[77, 0, 177]",177,l,0.30209203076083213,1,colour,0.06,3.8
80,19,1,1,13,8,608,915.8453654574696,916.6394458744908,"[74, 0, 180]",180,l,0.2773486607475206,1,colour,0.06,3.8
80,19,1,1,13,9,609,917.1485181152821,917.8794630619232,"[50, 0, 204]",204,a,0.21434631024021655,1,colour,0.06,3.8
80,19,1,1,13,10,610,918.3884624412749,919.1514885012293,"[97, 0, 157]",157,l,0.24545344267971814,1,colour,0.06,3.8
80,19,1,1,13,11,611,919.6614019969711,920.5274746913929,"[64, 0, 190]",190,l,0.3485544278519228,1,colour,0.06,3.8
80,19,1,1,13,12,612,921.0364870677004,921.6954381613759,"[67, 0, 187]",187,l,0.14226384204812348,1,colour,0.06,3.8
80,19,1,1,13,13,613,922.2044001254253,923.0475628026761,"[82, 0, 172]",172,l,0.32653844100423157,1,colour,0.06,3.8
80,19,1,1,13,14,614,923.5569127048366,924.2314663985744,"[62, 0, 192]",192,l,0.1583032172638923,1,colour,0.06,3.8
80,19,1,1,13,15,615,924.7408639561618,925.415457822266,"[73, 0, 181]",181,l,0.15676839975640178,1,colour,0.06,3.8
80,19,1,1,13,16,616,925.9252819148824,926.7194682764821,"[84, 0, 170]",170,l,0.27731479005888104,1,colour,0.06,3.8
80,19,1,1,13,17,617,927.2288804062409,928.1274256970501,"[60, 0, 194]",194,l,0.3820967096835375,1,colour,0.06,3.8
80,19,1,1,13,18,618,928.6362439071527,929.4474152679322,"[59, 0, 195]",195,l,0.29425686004105955,1,colour,0.06,3.8
80,19,1,1,13,19,619,929.9564678164897,930.8234585657483,"[68, 0, 186]",186,l,0.3507107342593372,1,colour,0.06,3.8
80,19,1,1,13,20,620,931.3335410213331,932.2154313557548,"[65, 0, 189]",189,l,0.3645938030676916,1,colour,0.06,3.8
80,19,1,1,13,21,621,932.7246040272294,933.5434345096583,"[71, 0, 183]",183,l,0.3026130888611078,1,colour,0.06,3.8
80,19,1,1,13,22,622,934.052764719585,934.8475197947118,"[83, 0, 171]",171,l,0.27872751536779106,1,colour,0.06,3.8
80,19,1,1,13,23,623,935.3570874936413,936.2634687428363,"[89, 0, 165]",165,l,0.3900275849737227,1,colour,0.06,3.8
80,19,1,1,13,24,624,936.7725362573983,937.3274175049737,"[90, 0, 164]",164,l,0.03768829768523574,1,colour,0.06,3.8
80,19,1,1,13,25,625,937.8362699797144,938.6394998313626,"[96, 0, 158]",158,l,0.2871487287338823,1,colour,0.06,3.8
80,19,1,1,13,26,626,939.1485874322243,940.1834557930706,"[5, 0, 249]",249,a,0.5180562600726262,1,colour,0.06,3.8
80,19,1,1,13,27,627,940.6925634799991,942.2394961292157,"[56, 0, 198]",198,l,1.029846431571059,1,colour,0.06,3.8
80,19,1,1,13,28,628,942.7486254776595,943.5194965546252,"[79, 0, 175]",175,l,0.25400698836892843,1,colour,0.06,3.8
80,19,1,1,13,29,629,944.0286274784012,945.5594262294471,"[53, 0, 201]",201,a,1.0144439053256065,0,colour,0.06,3.8
80,19,1,1,13,30,630,946.0685354918242,946.8634162037633,"[75, 0, 179]",179,l,0.2778905928134918,1,colour,0.06,3.8
80,19,1,1,13,31,631,947.3715979588451,948.143418598338,"[80, 0, 174]",174,l,0.2548836894566193,1,colour,0.06,3.8
80,19,1,1,13,32,632,948.6520048332168,949.4554048263235,"[61, 0, 193]",193,l,0.2871999287744984,1,colour,0.06,3.8
80,19,1,1,13,33,633,949.964472734835,951.0314470214071,"[51, 0, 203]",203,l,0.5506363762542605,1,colour,0.06,3.8
80,19,1,1,13,34,634,951.5404294653563,952.3914304641075,"[66, 0, 188]",188,l,0.333947864244692,1,colour,0.06,3.8
80,19,1,1,13,35,635,952.9005263356958,954.9114327168791,"[57, 0, 197]",197,a,1.4944770985748619,0,colour,0.06,3.8
80,19,1,1,13,36,636,955.4206246868707,956.9835589019349,"[91, 0, 163]",163,l,1.0457188159925863,1,colour,0.06,3.8
80,19,1,1,13,37,637,957.4926583181368,958.1114099526312,"[88, 0, 166]",166,l,0.10239797027315944,1,colour,0.06,3.8
80,19,1,1,13,38,638,958.6206440640381,959.3115234590368,"[76, 0, 178]",178,l,0.17442175548058003,1,colour,0.06,3.8
80,19,1,1,13,39,639,959.820601213607,960.5594368632883,"[81, 0, 173]",173,l,0.22233035473618656,1,colour,0.06,3.8
80,19,1,1,13,40,640,961.068822999252,961.8474197577452,"[70, 0, 184]",184,l,0.261596005409956,1,colour,0.06,3.8
80,19,1,1,13,41,641,962.3567653276259,963.0474095966201,"[94, 0, 160]",160,l,0.17507672123610973,1,colour,0.06,3.8
80,19,1,1,13,42,642,963.5559269085061,964.8634355021641,"[58, 0, 196]",196,l,0.7912258218275383,1,colour,0.06,3.8
80,19,1,1,13,43,643,965.3727546844166,966.0234228045447,"[98, 0, 156]",156,l,0.13452949584461749,1,colour,0.06,3.8
80,19,1,1,13,44,644,966.5327888544416,967.3034441038035,"[86, 0, 168]",168,l,0.2532011796720326,1,colour,0.06,3.8
80,19,1,1,13,45,645,967.8126057476038,968.8314540318679,"[54, 0, 200]",200,l,0.5025556662585586,1,colour,0.06,3.8
80,19,1,1,13,46,646,969.3393648209749,970.767440285068,"[55, 0, 199]",199,l,0.911261000088416,1,colour,0.06,3.8
80,19,1,1,13,47,647,971.276532218093,971.8314067703905,"[72, 0, 182]",182,l,0.03792657458689064,1,colour,0.06,3.8
80,19,1,1,13,48,648,972.3403667650418,973.623423434794,"[45, 0, 209]",209,l,0.765774710685946,0,colour,0.06,3.8
80,19,1,1,13,49,649,974.1325838969788,975.0953985404922,"[93, 0, 161]",161,l,0.44604113954119384,1,colour,0.06,3.8
80,19,1,1,13,50,650,975.6044825967401,976.3514460446313,"[52, 0, 202]",202,a,0.23080946365371346,0,colour,0.06,3.8
80,19,1,1,14,1,651,981.0596806539688,981.8954067325685,"[96, 0, 158]",158,l,0.3192105437628925,1,colour,0.06,3.8
80,19,1,1,14,2,652,982.4045041794889,983.2393980616471,"[58, 0, 196]",196,l,0.3181853628484532,1,colour,0.06,3.8
80,19,1,1,14,3,653,983.7486624992453,984.5834287753096,"[68, 0, 186]",186,l,0.31828461203258485,1,colour,0.06,3.8
80,19,1,1,14,4,654,985.092527009896,985.9034163770266,"[90, 0, 164]",164,l,0.2949602687731385,1,colour,0.06,3.8
80,19,1,1,14,5,655,986.4124003963079,987.279465582571,"[79, 0, 175]",175,l,0.3498119779396802,1,colour,0.06,3.8
80,19,1,1,14,6,656,987.7885579095455,988.6394049145747,"[91, 0, 163]",163,l,0.33425151952542365,1,colour,0.06,3.8
80,19,1,1,14,7,657,989.1490970688174,989.9833793082507,"[93, 0, 161]",161,l,0.3174705324927345,1,colour,0.06,3.8
80,19,1,1,14,8,658,990.4924944782397,991.5274266422493,"[86, 0, 168]",168,l,0.5170956698711962,1,colour,0.06,3.8
80,19,1,1,14,9,659,992.0358297388302,992.8874112664489,"[77, 0, 177]",177,l,0.3358316292287782,1,colour,0.06,3.8
80,19,1,1,14,10,660,993.3961719751824,994.8393955409992,"[52, 0, 202]",202,l,0.92681436939165,1,colour,0.06,3.8
80,19,1,1,14,11,661,995.3484713264043,996.3353743741754,"[10, 0, 244]",244,a,0.4701307254144922,1,colour,0.06,3.8
80,19,1,1,14,12,662,996.844467488816,997.7115350380773,"[82, 0, 172]",172,l,0.34816018817946315,1,colour,0.06,3.8
80,19,1,1,14,13,663,998.2205194511916,999.1674313840922,"[59, 0, 195]",195,l,0.43043026875238866,1,colour,0.06,3.8
80,19,1,1,14,14,664,999.676554037258,1000.5994327042717,"[56, 0, 198]",198,l,0.4065679321065545,1,colour,0.06,3.8
80,19,1,1,14,15,665,1001.1094379661372,1002.0553759180475,"[72, 0, 182]",182,l,0.4296071308199316,1,colour,0.06,3.8
80,19,1,1,14,16,666,1002.564354817383,1003.4874028381892,"[92, 0, 162]",162,l,0.4067778519820422,1,colour,0.06,3.8
80,19,1,1,14,17,667,1003.9965140697313,1005.0793997314759,"[88, 0, 166]",166,l,0.5661452409112826,1,colour,0.06,3.8
80,19,1,1,14,18,668,1005.5884987538448,1006.4553815893596,"[62, 0, 192]",192,l,0.35062881431076676,1,colour,0.06,3.8
80,19,1,1,14,19,669,1006.9641068519559,1007.8713923713658,"[55, 0, 199]",199,l,0.3909988090163097,1,colour,0.06,3.8
80,19,1,1,14,20,670,1008.3802444522735,1009.2714393965434,"[65, 0, 189]",189,l,0.3731111149536446,1,colour,0.06,3.8
80,19,1,1,14,21,671,1009.7806317603681,1010.6873922831146,"[98, 0, 156]",156,l,0.3896045944420621,1,colour,0.06,3.8
80,19,1,1,14,22,672,1011.1964373484952,1012.0153765324503,"[81, 0, 173]",173,l,0.30260954436380416,1,colour,0.06,3.8
80,19,1,1,14,23,673,1012.5248843667796,1013.6313940885011,"[78, 0, 176]",176,l,0.5893025933764875,1,colour,0.06,3.8
80,19,1,1,14,24,674,1014.1408448151778,1014.9514104409609,"[80, 0, 174]",174,l,0.2935081588802859,1,colour,0.06,3.8
80,19,1,1,14,25,675,1015.4606626693858,1016.3514377739048,"[99, 0, 155]",155,l,0.3725451583741233,1,colour,0.06,3.8
80,19,1,1,14,26,676,1016.8611122050788,1017.7433948100079,"[57, 0, 197]",197,l,0.3629148378968239,1,colour,0.06,3.8
80,19,1,1,14,27,677,1018.2520535126096,1018.9114142061444,"[3, 0, 251]",251,a,0.14319607545621693,1,colour,0.06,3.8
80,19,1,1,14,28,678,1019.4206880960846,1020.2953797146911,"[61, 0, 193]",193,l,0.3585974989691749,1,colour,0.06,3.8
80,19,1,1,14,29,679,1020.8038789096754,1022.13540107687,"[29, 0, 225]",225,a,0.8155119366711006,1,colour,0.06,3.8
80,19,1,1,14,30,680,1022.6449163943762,1023.7113621396711,"[83, 0, 171]",171,l,0.5474458304233849,1,colour,0.06,3.8
80,19,1,1,14,31,681,1024.2206860480364,1025.2073460929096,"[87, 0, 167]",167,l,0.4695950949098915,1,colour,0.06,3.8
80,19,1,1,14,32,682,1025.717154825572,1026.7115110134473,"[73, 0, 181]",181,l,0.4765106353443116,1,colour,0.06,3.8
80,19,1,1,14,33,683,1027.2206903803162,1028.2953927116469,"[66, 0, 188]",188,l,0.5572726799873635,1,colour,0.06,3.8
80,19,1,1,14,34,684,1028.8039966695942,1029.8313799888128,"[94, 0, 160]",160,l,0.5104270707815886,1,colour,0.06,3.8
80,19,1,1,14,35,685,1030.3408015709138,1031.431436151266,"[74, 0, 180]",180,l,0.5739784424658865,1,colour,0.06,3.8
80,19,1,1,14,36,686,1031.9409786440665,1032.775399123435,"[60, 0, 194]",194,a,0.3180073444964364,0,colour,0.06,3.8
80,19,1,1,14,37,687,1033.2845284718787,1034.047384784324,"[84, 0, 170]",170,l,0.24550739966798574,1,colour,0.06,3.8
80,19,1,1,14,38,688,1034.5565357942833,1035.5034083425999,"[50, 0, 204]",204,l,0.429782786173746,0,colour,0.06,3.8
80,19,1,1,14,39,689,1036.0121017035563,1036.9034860878019,"[95, 0, 159]",159,l,0.3740752497687936,1,colour,0.06,3.8
80,19,1,1,14,40,690,1037.4122243472375,1038.3514361984562,"[70, 0, 184]",184,l,0.4227136456174776,1,colour,0.06,3.8
80,19,1,1,14,41,691,1038.860510408529,1039.8314174042316,"[69, 0, 185]",185,l,0.45256756036542356,1,colour,0.06,3.8
80,19,1,1,14,42,692,1040.3405940141529,1041.367392472108,"[64, 0, 190]",190,l,0.5104585783556104,1,colour,0.06,3.8
80,19,1,1,14,43,693,1041.876537180622,1042.64740195591,"[97, 0, 157]",157,l,0.25438783736899495,1,colour,0.06,3.8
80,19,1,1,14,44,694,1043.1563950337004,1044.6713741756976,"[89, 0, 165]",165,l,0.9986546223517507,1,colour,0.06,3.8
80,19,1,1,14,45,695,1045.1800880166702,1046.0073830356123,"[85, 0, 169]",169,l,0.3109433240024373,1,colour,0.06,3.8
80,19,1,1,14,46,696,1046.516916076187,1047.3354117894778,"[71, 0, 183]",183,l,0.30215898458845913,1,colour,0.06,3.8
80,19,1,1,14,47,697,1047.8442059750669,1048.6873485662509,"[75, 0, 179]",179,l,0.32493312505539507,1,colour,0.06,3.8
80,19,1,1,14,48,698,1049.196386542404,1050.063377685612,"[54, 0, 200]",200,l,0.35020661156158894,1,colour,0.06,3.8
80,19,1,1,14,49,699,1050.5720604127273,1051.3673814444337,"[67, 0, 187]",187,l,0.27864598925225437,1,colour,0.06,3.8
80,19,1,1,14,50,700,1051.876324109966,1052.727386942599,"[63, 0, 191]",191,l,0.33415502728894353,1,colour,0.06,3.8
80,19,1,1,15,1,701,1057.2436693205964,1057.943362987251,"[89, 0, 165]",165,l,0.18096944387070835,1,colour,0.06,3.8
80,19,1,1,15,2,702,1058.4520870682318,1059.023340490763,"[85, 0, 169]",169,l,0.05501357978209853,1,colour,0.06,3.8
80,19,1,1,15,3,703,1059.5324221838964,1060.3353810695698,"[82, 0, 172]",172,l,0.2859155973419547,1,colour,0.06,3.8
80,19,1,1,15,4,704,1060.8444603995886,1061.6874080369016,"[65, 0, 189]",189,l,0.32453218975570053,1,colour,0.06,3.8
80,19,1,1,15,5,705,1062.1961218779907,1063.0714227762073,"[95, 0, 159]",159,l,0.3582863606279716,1,colour,0.06,3.8
80,19,1,1,15,6,706,1063.5805718170013,1064.4153668438084,"[77, 0, 177]",177,l,0.31713812646921724,1,colour,0.06,3.8
80,19,1,1,15,7,707,1064.9242717000889,1065.7593951944727,"[66, 0, 188]",188,l,0.31755008932668716,1,colour,0.06,3.8
80,19,1,1,15,8,708,1066.2684371090727,1067.127366226283,"[71, 0, 183]",183,l,0.3418031211476773,1,colour,0.06,3.8
80,19,1,1,15,9,709,1067.6374191434588,1068.4713772475952,"[70, 0, 184]",184,l,0.31746462476439774,1,colour,0.06,3.8
80,19,1,1,15,10,710,1068.980515260715,1069.7753538311226,"[32, 0, 222]",222,a,0.27810287568718195,1,colour,0.06,3.8
80,19,1,1,15,11,711,1070.2847470563138,1071.1034231511876,"[88, 0, 166]",166,l,0.30208494153339416,1,colour,0.06,3.8
80,19,1,1,15,12,712,1071.6126229980728,1072.4553811955266,"[35, 0, 219]",219,a,0.32567631220445037,1,colour,0.06,3.8
80,19,1,1,15,13,713,1072.965580229531,1073.8713518051663,"[54, 0, 200]",200,l,0.38913552393205464,1,colour,0.06,3.8
80,19,1,1,15,14,714,1074.3810356886825,1075.1593504535267,"[57, 0, 197]",197,l,0.26197330991271883,1,colour,0.06,3.8
80,19,1,1,15,15,715,1075.6684494758956,1076.543368343613,"[81, 0, 173]",173,l,0.3577826317632571,1,colour,0.06,3.8
80,19,1,1,15,16,716,1077.0523370029405,1077.8553667807719,"[76, 0, 178]",178,l,0.2866918675135821,1,colour,0.06,3.8
80,19,1,1,15,17,717,1078.3653775564162,1079.0473560335813,"[78, 0, 176]",176,l,0.16512108407914639,1,colour,0.06,3.8
80,19,1,1,15,18,718,1079.5566055049421,1080.8953326895135,"[51, 0, 203]",203,a,0.8226082525216043,0,colour,0.06,3.8
80,19,1,1,15,19,719,1081.4043360071955,1082.2873275348684,"[67, 0, 187]",187,l,0.36669812188483775,1,colour,0.06,3.8
80,19,1,1,15,20,720,1082.7960780034773,1083.6633475957206,"[69, 0, 185]",185,l,0.350888752611354,1,colour,0.06,3.8
80,19,1,1,15,21,721,1084.1725344457664,1085.0553897026693,"[74, 0, 180]",180,l,0.36630663904361427,1,colour,0.06,3.8
80,19,1,1,15,22,722,1085.5643335497007,1087.5433880358469,"[60, 0, 194]",194,l,1.4619714193977416,1,colour,0.06,3.8
80,19,1,1,15,23,723,1088.0521160553908,1088.9193293276476,"[87, 0, 167]",167,l,0.35076902352739125,1,colour,0.06,3.8
80,19,1,1,15,24,724,1089.4290541710798,1090.5114353162935,"[93, 0, 161]",161,l,0.5662641824455932,1,colour,0.06,3.8
80,19,1,1,15,25,725,1091.0206903015496,1091.8713904020842,"[61, 0, 193]",193,l,0.33349060907494277,1,colour,0.06,3.8
80,19,1,1,15,26,726,1092.3799750616308,1093.703351707547,"[52, 0, 202]",202,l,0.8057953639654443,1,colour,0.06,3.8
80,19,1,1,15,27,727,1094.2124660898698,1095.1913862746442,"[55, 0, 199]",199,a,0.461937548709102,0,colour,0.06,3.8
80,19,1,1,15,28,728,1095.6997535311384,1096.5433608605526,"[91, 0, 163]",163,l,0.3267625393345952,1,colour,0.06,3.8
80,19,1,1,15,29,729,1097.0515760926064,1097.8714097006014,"[79, 0, 175]",175,l,0.3025457413168624,1,colour,0.06,3.8
80,19,1,1,15,30,730,1098.379960489343,1099.199425457511,"[63, 0, 191]",191,a,0.3025394397554919,0,colour,0.06,3.8
80,19,1,1,15,31,731,1099.7093842454487,1100.4553453555563,"[99, 0, 155]",155,l,0.22970511962193996,1,colour,0.06,3.8
80,19,1,1,15,32,732,1100.9644116887357,1101.8153291920898,"[94, 0, 160]",160,l,0.33360797516070306,1,colour,0.06,3.8
80,19,1,1,15,33,733,1102.3247822819976,1103.1913846991956,"[84, 0, 170]",170,l,0.3491255044937134,1,colour,0.06,3.8
80,19,1,1,15,34,734,1103.6998657772783,1104.5196470037336,"[68, 0, 186]",186,l,0.30243900895584375,1,colour,0.06,3.8
80,19,1,1,15,35,735,1105.0291914658155,1105.8393809687113,"[21, 0, 233]",233,a,0.2931312483269721,1,colour,0.06,3.8
80,19,1,1,15,36,736,1106.348409492639,1107.1593339119572,"[92, 0, 162]",162,l,0.2945806012721732,1,colour,0.06,3.8
80,19,1,1,15,37,737,1107.6689665955491,1108.4953593134414,"[64, 0, 190]",190,l,0.30989096767734736,1,colour,0.06,3.8
80,19,1,1,15,38,738,1109.0043567235116,1109.8633433422074,"[62, 0, 192]",192,l,0.3423718346748501,1,colour,0.06,3.8
80,19,1,1,15,39,739,1110.3724352753488,1111.207344911294,"[72, 0, 182]",182,l,0.31826728268060833,1,colour,0.06,3.8
80,19,1,1,15,40,740,1111.7158649801277,1112.455347718671,"[83, 0, 171]",171,l,0.22281045303680003,1,colour,0.06,3.8
80,19,1,1,15,41,741,1112.9647255839081,1113.8073581445497,"[90, 0, 164]",164,l,0.3252974324859679,1,colour,0.06,3.8
80,19,1,1,15,42,742,1114.3166564529529,1115.239315353916,"[98, 0, 156]",156,l,0.4062504922039807,1,colour,0.06,3.8
80,19,1,1,15,43,743,1115.7492119142553,1116.5514874772634,"[75, 0, 179]",179,l,0.2859211111208424,1,colour,0.06,3.8
80,19,1,1,15,44,744,1117.0609378101071,1117.9113303169142,"[97, 0, 157]",157,l,0.3319644561270252,1,colour,0.06,3.8
80,19,1,1,15,45,745,1118.420013437979,1119.2713901657844,"[96, 0, 158]",158,l,0.33493956830352545,1,colour,0.06,3.8
80,19,1,1,15,46,746,1119.7814836490434,1120.5993267596932,"[50, 0, 204]",204,a,0.30148787109646946,1,colour,0.06,3.8
80,19,1,1,15,47,747,1121.1078901515575,1121.991359808133,"[59, 0, 195]",195,l,0.3651688181562349,1,colour,0.06,3.8
80,19,1,1,15,48,748,1122.5006998641184,1123.3753387074685,"[86, 0, 168]",168,l,0.356894115335308,1,colour,0.06,3.8
80,19,1,1,15,49,749,1123.884561003535,1124.8313433611766,"[58, 0, 196]",196,a,0.43035858881194144,0,colour,0.06,3.8
80,19,1,1,15,50,750,1125.3401580266654,1126.175364622497,"[73, 0, 181]",181,l,0.31795259984210134,1,colour,0.06,3.8
80,19,1,1,16,1,751,1130.9964597190265,1131.663397614262,"[75, 0, 179]",179,l,0.1497662131441757,1,colour,0.06,3.8
80,19,1,1,16,2,752,1132.1725462611066,1133.0233562446665,"[95, 0, 159]",159,l,0.3345740792574361,1,colour,0.06,3.8
80,19,1,1,16,3,753,1133.53101851698,1134.5833437045803,"[84, 0, 170]",170,l,0.535875818808563,1,colour,0.06,3.8
80,19,1,1,16,4,754,1135.0920453363797,1135.8393734856509,"[78, 0, 176]",176,l,0.23046366695780307,1,colour,0.06,3.8
80,19,1,1,16,5,755,1136.3487316585379,1137.0794154853793,"[51, 0, 203]",203,a,0.21450306102633476,0,colour,0.06,3.8
80,19,1,1,16,6,756,1137.5880233817734,1138.4793163937284,"[9, 0, 245]",245,a,0.37499133544042706,1,colour,0.06,3.8
80,19,1,1,16,7,757,1138.9883921791334,1140.8153347059852,"[64, 0, 190]",190,l,1.3106995333218947,1,colour,0.06,3.8
80,19,1,1,16,8,758,1141.3238342948025,1142.1993183314335,"[89, 0, 165]",165,l,0.35896298789884895,1,colour,0.06,3.8
80,19,1,1,16,9,759,1142.70839608612,1143.5273474792484,"[57, 0, 197]",197,l,0.30258000595495105,1,colour,0.06,3.8
80,19,1,1,16,10,760,1144.0357025265694,1144.6552930528997,"[60, 0, 194]",194,l,0.10275637009181082,1,colour,0.06,3.8
80,19,1,1,16,11,761,1145.1644290966215,1145.8233254458755,"[86, 0, 168]",168,l,0.1418310054577887,1,colour,0.06,3.8
80,19,1,1,16,12,762,1146.3324130466208,1147.19136736996,"[88, 0, 166]",166,l,0.342201299383305,1,colour,0.06,3.8
80,19,1,1,16,13,763,1147.700629050727,1148.3033196484903,"[68, 0, 186]",186,l,0.08617112447973341,1,colour,0.06,3.8
80,19,1,1,16,14,764,1148.8123875570018,1149.631385029992,"[91, 0, 163]",163,l,0.301990024629049,1,colour,0.06,3.8
80,19,1,1,16,15,765,1150.14040488936,1150.9593113840092,"[70, 0, 184]",184,l,0.30189235089346766,1,colour,0.06,3.8
80,19,1,1,16,16,766,1151.4685021723853,1152.3433103694115,"[85, 0, 169]",169,l,0.3578653392614797,1,colour,0.06,3.8
80,19,1,1,16,17,767,1152.8525602347218,1153.5353303421289,"[58, 0, 196]",196,l,0.1656681359745562,1,colour,0.06,3.8
80,19,1,1,16,18,768,1154.04426237382,1154.6313113808865,"[62, 0, 192]",192,l,0.067921879934147,1,colour,0.06,3.8
80,19,1,1,16,19,769,1155.1403584155487,1155.7113314197632,"[2, 0, 252]",252,a,0.05422588798683137,1,colour,0.06,3.8
80,19,1,1,16,20,770,1156.2208534325473,1156.783359537134,"[98, 0, 156]",156,l,0.04585626826155931,1,colour,0.06,3.8
80,19,1,1,16,21,771,1157.2925932548242,1158.1194184155902,"[66, 0, 188]",188,l,0.3104002104373649,1,colour,0.06,3.8
80,19,1,1,16,22,772,1158.6280586073408,1159.447299477295,"[55, 0, 199]",199,l,0.30044457328040153,1,colour,0.06,3.8
80,19,1,1,16,23,773,1159.9550275219372,1160.6873485662509,"[79, 0, 175]",175,l,0.21508477139286697,1,colour,0.06,3.8
80,19,1,1,16,24,774,1161.1966342715314,1162.0313190214802,"[93, 0, 161]",161,l,0.3171074065612629,1,colour,0.06,3.8
80,19,1,1,16,25,775,1162.5404420683626,1163.3192743466934,"[81, 0, 173]",173,l,0.26215723587665707,1,colour,0.06,3.8
80,19,1,1,16,26,776,1163.8290905625327,1164.6552832067246,"[56, 0, 198]",198,l,0.309787780046463,1,colour,0.06,3.8
80,19,1,1,16,27,777,1165.1643156690989,1165.775336501887,"[59, 0, 195]",195,l,0.0939917229115963,1,colour,0.06,3.8
80,19,1,1,16,28,778,1166.2843807796016,1167.1433488875628,"[90, 0, 164]",164,l,0.34267509600613266,1,colour,0.06,3.8
80,19,1,1,16,29,779,1167.6519134610426,1168.471326835337,"[83, 0, 171]",171,l,0.3024098643800244,1,colour,0.06,3.8
80,19,1,1,16,30,780,1168.9803482700372,1170.0712809916586,"[24, 0, 230]",230,a,0.5746164728188887,1,colour,0.06,3.8
80,19,1,1,16,31,781,1170.5813083088724,1171.4232603037963,"[65, 0, 189]",189,l,0.3250638818135485,1,colour,0.06,3.8
80,19,1,1,16,32,782,1171.9330233503133,1172.7358739282936,"[82, 0, 172]",172,l,0.28609676635824144,1,colour,0.06,3.8
80,19,1,1,16,33,783,1173.2449225384044,1174.0633107317844,"[92, 0, 162]",162,l,0.2995820506475866,1,colour,0.06,3.8
80,19,1,1,16,34,784,1174.5723900618032,1175.407286307076,"[80, 0, 174]",174,l,0.31728227413259447,1,colour,0.06,3.8
80,19,1,1,16,35,785,1175.916451101657,1176.6792550325627,"[52, 0, 202]",202,l,0.246080445474945,1,colour,0.06,3.8
80,19,1,1,16,36,786,1177.1890342266997,1178.0554145149654,"[99, 0, 155]",155,l,0.34909675375092775,1,colour,0.06,3.8
80,19,1,1,16,37,787,1178.5651239984436,1179.527316365391,"[53, 0, 201]",201,l,0.445747330551967,1,colour,0.06,3.8
80,19,1,1,16,38,788,1180.0356848035008,1180.7912687510252,"[97, 0, 157]",157,l,0.2380688317352906,1,colour,0.06,3.8
80,19,1,1,16,39,789,1181.3003472932614,1181.975263325381,"[61, 0, 193]",193,l,0.15858954330906272,1,colour,0.06,3.8
80,19,1,1,16,40,790,1182.4850826918846,1183.3033074392006,"[50, 0, 204]",204,l,0.3011168682714924,0,colour,0.06,3.8
80,19,1,1,16,41,791,1183.8123922831146,1184.5832995938836,"[94, 0, 160]",160,l,0.25447763432748616,1,colour,0.06,3.8
80,19,1,1,16,42,792,1185.093198911054,1185.911293295445,"[87, 0, 167]",167,l,0.3012109973933548,1,colour,0.06,3.8
80,19,1,1,16,43,793,1186.420833425247,1186.96728558233,"[63, 0, 191]",191,l,0.029728277819231153,1,colour,0.06,3.8
80,19,1,1,16,44,794,1187.4763412816683,1188.1353656307328,"[71, 0, 183]",183,l,0.14117643353529274,1,colour,0.06,3.8
80,19,1,1,16,45,795,1188.6444307822967,1189.6313657315914,"[69, 0, 185]",185,l,0.4685356493573636,1,colour,0.06,3.8
80,19,1,1,16,46,796,1190.1404403354973,1190.9832839975134,"[76, 0, 178]",178,l,0.3251694324426353,1,colour,0.06,3.8
80,19,1,1,16,47,797,1191.4927461458137,1192.3112938468112,"[67, 0, 187]",187,l,0.30136577889788896,1,colour,0.06,3.8
80,19,1,1,16,48,798,1192.8207965611946,1193.631318470114,"[96, 0, 158]",158,l,0.29404654633253813,1,colour,0.06,3.8
80,19,1,1,16,49,799,1194.140435609268,1194.9593133532908,"[72, 0, 182]",182,l,0.3015276496298611,1,colour,0.06,3.8
80,19,1,1,16,50,800,1195.4686494708294,1196.335308601847,"[73, 0, 181]",181,l,0.3496292334748432,1,colour,0.06,3.8
