id,age,condition,counterbalance,block,trialinblock,trial,tstart,tend,trialstim,trialintensity,response,RT,accuracy,trialtype,colourfreq,credits
57,20,0,1,Practice,1,NA,5.120004061609507e-06,0.807946065266151,"[29, 0, 225]",225,a,0.2526470342418179,1,colour,0.5,4
57,20,0,1,Practice,2,NA,1.328921084466856,2.239996329357382,"[23, 0, 231]",231,a,0.3877470000879839,1,colour,0.5,4
57,20,0,1,Practice,3,NA,2.750809352088254,3.551999001239892,"[28, 0, 226]",226,a,0.2779315087245777,1,colour,0.5,4
57,20,0,1,Practice,4,NA,4.063286607561167,5.19994068692904,"[80, 0, 174]",174,l,0.6133195330039598,1,colour,0.5,4
57,20,0,1,Practice,5,NA,5.719801517727319,6.295991285005584,"[27, 0, 227]",227,a,0.053180930961389095,1,colour,0.5,4
57,20,0,1,Practice,6,NA,6.813264158379752,9.391946966410615,"[85, 0, 169]",169,l,2.055288397183176,1,colour,0.5,4
57,20,0,1,Practice,7,NA,9.907145062694326,10.975958895171061,"[64, 0, 190]",190,a,0.5459558389266022,0,colour,0.5,4
57,20,0,1,Practice,8,NA,11.485189841303509,12.543951954052318,"[3, 0, 251]",251,a,0.5354066925356165,1,colour,0.5,4
57,20,0,1,Practice,9,NA,13.063296059845015,14.079990374448244,"[55, 0, 199]",199,a,0.4933341682772152,0,colour,0.5,4
57,20,0,1,Practice,10,NA,14.594579192053061,15.583950488944538,"[51, 0, 203]",203,a,0.4661785347852856,0,colour,0.5,4
57,20,0,1,1,1,1,4.669562217313796,5.47197121148929,"[24, 0, 230]",230,a,0.2781938097323291,1,colour,0.5,4.0
57,20,0,1,1,2,2,5.982885846286081,6.847940267820377,"[58, 0, 196]",196,a,0.34177501348312944,0,colour,0.5,4.0
57,20,0,1,1,3,3,7.35788761859294,8.263980720483232,"[32, 0, 222]",222,a,0.38283377996413037,1,colour,0.5,4.0
57,20,0,1,1,4,4,8.779801880009472,9.775920140731614,"[65, 0, 189]",189,a,0.4728778433636762,0,colour,0.5,4.0
57,20,0,1,1,5,5,10.295424147741869,11.21596428292105,"[57, 0, 197]",197,a,0.3972343394998461,0,colour,0.5,4.0
57,20,0,1,1,6,6,11.732882695505396,12.791946493729483,"[20, 0, 234]",234,a,0.5358225931995548,1,colour,0.5,4.0
57,20,0,1,1,7,7,13.310929443396162,14.351959852967411,"[49, 0, 205]",205,a,0.5175473835552111,1,colour,0.5,4.0
57,20,0,1,1,8,8,14.857884073979221,15.7278832232696,"[13, 0, 241]",241,a,0.34690406086156145,1,colour,0.5,4.0
57,20,0,1,1,9,9,16.24848527094582,17.031988903007004,"[90, 0, 164]",164,l,0.26023052557138726,1,colour,0.5,4.0
57,20,0,1,1,10,10,17.545328049454838,18.391941058682278,"[44, 0, 210]",210,a,0.3232950043166056,1,colour,0.5,4.0
57,20,0,1,1,11,11,18.904651628050487,19.8319383332273,"[29, 0, 225]",225,a,0.40396791259991005,1,colour,0.5,4.0
57,20,0,1,1,12,12,20.342228329449426,21.14390595286386,"[92, 0, 162]",162,l,0.27840412309160456,1,colour,0.5,4.0
57,20,0,1,1,13,13,21.654757966287434,22.463927708857227,"[37, 0, 217]",217,a,0.28596555901458487,1,colour,0.5,4.0
57,20,0,1,1,14,14,22.982762572704814,23.911906258494128,"[21, 0, 233]",233,a,0.406145483313594,1,colour,0.5,4.0
57,20,0,1,1,15,15,24.420414892374538,25.19194602110656,"[76, 0, 178]",178,l,0.2483505758573301,1,colour,0.5,4.0
57,20,0,1,1,16,16,25.701464080484584,26.599951635755133,"[97, 0, 157]",157,l,0.3750699075171724,1,colour,0.5,4.0
57,20,0,1,1,17,17,27.107826178718824,28.087953926355112,"[89, 0, 165]",165,l,0.45704920071875677,1,colour,0.5,4.0
57,20,0,1,1,18,18,28.607701329747215,29.60789116320666,"[71, 0, 183]",183,l,0.47698328678961843,1,colour,0.5,4.0
57,20,0,1,1,19,19,30.12338503729552,30.91988910891814,"[12, 0, 242]",242,a,0.27329831261886284,1,colour,0.5,4.0
57,20,0,1,1,20,20,31.435879621945787,32.27993460587459,"[77, 0, 177]",177,l,0.320795662002638,1,colour,0.5,4.0
57,20,0,1,1,21,21,32.79521659127204,33.58390834747115,"[10, 0, 244]",244,a,0.26527489617001265,1,colour,0.5,4.0
57,20,0,1,1,22,22,34.09207236667862,34.92786487005651,"[23, 0, 231]",231,a,0.3123717048438266,1,colour,0.5,4.0
57,20,0,1,1,23,23,35.43589064961998,36.22389593342086,"[47, 0, 207]",207,a,0.26466089132009074,1,colour,0.5,4.0
57,20,0,1,1,24,24,36.73271806817502,37.47192985768197,"[94, 0, 160]",160,l,0.2160076058935374,1,colour,0.5,4.0
57,20,0,1,1,25,25,37.98272555123549,38.72786865098169,"[36, 0, 218]",218,a,0.22172860277350992,1,colour,0.5,4.0
57,20,0,1,1,26,26,39.248308434383944,39.97584664920578,"[75, 0, 179]",179,l,0.2042741667246446,1,colour,0.5,4.0
57,20,0,1,1,27,27,40.482665686751716,41.24792089062976,"[81, 0, 173]",173,l,0.24178635625867173,1,colour,0.5,4.0
57,20,0,1,1,28,28,41.76396575436229,42.62383992865216,"[67, 0, 187]",187,l,0.3365349018131383,1,colour,0.5,4.0
57,20,0,1,1,29,29,43.138959649717435,43.95982659776928,"[73, 0, 181]",181,l,0.29776004422456026,1,colour,0.5,4.0
57,20,0,1,1,30,30,44.46706783748232,45.21585597546073,"[34, 0, 220]",220,a,0.22552290838211775,1,colour,0.5,4.0
57,20,0,1,1,31,31,45.732700738997664,46.63187712972285,"[51, 0, 203]",203,a,0.3759139180765487,0,colour,0.5,4.0
57,20,0,1,1,32,32,47.13892617286183,47.99986372952117,"[68, 0, 186]",186,l,0.33809610456228256,1,colour,0.5,4.0
57,20,0,1,1,33,33,48.51392479444621,49.29592236201279,"[39, 0, 215]",215,a,0.2585476245149039,1,colour,0.5,4.0
57,20,0,1,1,34,34,49.81079947442049,50.71182890725322,"[15, 0, 239]",239,a,0.3776661357260309,1,colour,0.5,4.0
57,20,0,1,1,35,35,51.232630240672734,52.04788607469527,"[72, 0, 182]",182,l,0.29188544768840075,1,colour,0.5,4.0
57,20,0,1,1,36,36,52.560724643815774,53.38388219609624,"[83, 0, 171]",171,l,0.2997284830198623,1,colour,0.5,4.0
57,20,0,1,1,37,37,53.90452126524178,54.69586556951981,"[48, 0, 206]",206,a,0.2679940040688962,1,colour,0.5,4.0
57,20,0,1,1,38,38,55.21708280360326,56.06386871082941,"[31, 0, 223]",223,a,0.32353524991776794,1,colour,0.5,4.0
57,20,0,1,1,39,39,56.576369360729586,57.51979269558797,"[54, 0, 200]",200,a,0.42016322526615113,0,colour,0.5,4.0
57,20,0,1,1,40,40,58.02957975130994,58.86382877494907,"[7, 0, 247]",247,a,0.3110850122757256,1,colour,0.5,4.0
57,20,0,1,1,41,41,59.373309419024736,60.04780691181077,"[70, 0, 184]",184,l,0.15130512457108125,1,colour,0.5,4.0
57,20,0,1,1,42,42,60.56077702523908,61.30384337872965,"[43, 0, 211]",211,a,0.21977709932252765,1,colour,0.5,4.0
57,20,0,1,1,43,43,61.81075575761497,62.71983775147237,"[17, 0, 237]",237,a,0.38573681365232915,1,colour,0.5,4.0
57,20,0,1,1,44,44,63.23267671442591,63.95983289927244,"[99, 0, 155]",155,l,0.20386732451152056,1,colour,0.5,4.0
57,20,0,1,1,45,45,64.4669985207147,65.29590306361206,"[78, 0, 176]",176,l,0.30562986101722345,1,colour,0.5,4.0
57,20,0,1,1,46,46,65.81072109920206,66.58385557215661,"[35, 0, 219]",219,a,0.24987239408073947,1,colour,0.5,4.0
57,20,0,1,1,47,47,67.09203337598592,67.75978784338804,"[86, 0, 168]",168,l,0.14199934777570888,1,colour,0.5,4.0
57,20,0,1,1,48,48,68.25401761586545,68.9118034648709,"[42, 0, 212]",212,a,0.13458875461947173,1,colour,0.5,4.0
57,20,0,1,1,49,49,69.42582081299042,70.19983277324354,"[11, 0, 243]",243,a,0.250791629019659,1,colour,0.5,4.0
57,20,0,1,1,50,50,70.70708661602112,71.35183106554905,"[87, 0, 167]",167,l,0.12035557930357754,1,colour,0.5,4.0
57,20,0,1,2,1,51,78.23325842391932,78.91178180335555,"[42, 0, 212]",212,a,0.15445116080809385,1,colour,0.5,4.0
57,20,0,1,2,2,52,79.42157476680586,80.07983835012419,"[40, 0, 214]",214,a,0.1350290736882016,1,colour,0.5,4.0
57,20,0,1,2,3,53,80.59342758834828,81.17574204388075,"[98, 0, 156]",156,l,0.058998419845011085,1,colour,0.5,4.0
57,20,0,1,2,4,54,81.6882379676099,82.48796645062976,"[80, 0, 174]",174,l,0.2764159920043312,1,colour,0.5,4.0
57,20,0,1,2,5,55,82.98826577310683,83.55183398001827,"[8, 0, 246]",246,a,0.04017930990085006,1,colour,0.5,4.0
57,20,0,1,2,6,56,84.06638853310142,84.81582100200467,"[4, 0, 250]",250,a,0.226167633139994,1,colour,0.5,4.0
57,20,0,1,2,7,57,85.33200568082975,85.9278046117397,"[96, 0, 158]",158,l,0.07242460618726909,1,colour,0.5,4.0
57,20,0,1,2,8,58,86.44140487769619,87.12775199400494,"[57, 0, 197]",197,a,0.16296294546918944,0,colour,0.5,4.0
57,20,0,1,2,9,59,87.64457155141281,88.36781370168319,"[2, 0, 252]",252,a,0.19998400984331965,1,colour,0.5,4.0
57,20,0,1,2,10,60,88.87901978206355,89.45576329581672,"[58, 0, 196]",196,a,0.054197839519474655,0,colour,0.5,4.0
57,20,0,1,2,11,61,89.97262460080674,90.53581944236066,"[73, 0, 181]",181,l,0.042779476556461304,1,colour,0.5,4.0
57,20,0,1,2,12,62,91.03548624925315,92.97577536321478,"[12, 0, 242]",242,a,1.4169927705661394,1,colour,0.5,4.0
57,20,0,1,2,13,63,93.48857100319583,94.34373399999458,"[17, 0, 237]",237,a,0.33185089961625636,1,colour,0.5,4.0
57,20,0,1,2,14,64,94.86356292938581,95.69578364974586,"[44, 0, 210]",210,a,0.30886923865182325,1,colour,0.5,4.0
57,20,0,1,2,15,65,96.20734576618997,96.99973848671652,"[64, 0, 190]",190,l,0.26926769979763776,1,colour,0.5,4.0
57,20,0,1,2,16,66,97.49591149191838,98.3277675115387,"[88, 0, 166]",166,l,0.3086026053642854,1,colour,0.5,4.0
57,20,0,1,2,17,67,98.83966518420493,99.59175374585902,"[5, 0, 249]",249,a,0.22917464206693694,1,colour,0.5,4.0
57,20,0,1,2,18,68,100.10526815347839,100.91972763231024,"[41, 0, 213]",213,a,0.30291429767385125,1,colour,0.5,4.0
57,20,0,1,2,19,69,101.43721396982437,102.2957687623566,"[19, 0, 235]",235,a,0.34784180647693574,1,colour,0.5,4.0
57,20,0,1,2,20,70,102.8154326705262,103.63973198039457,"[47, 0, 207]",207,a,0.3010447140550241,1,colour,0.5,4.0
57,20,0,1,2,21,71,104.15917572902981,104.94374746951507,"[30, 0, 224]",224,a,0.26134628924774006,1,colour,0.5,4.0
57,20,0,1,2,22,72,105.45602165831951,106.21576224028831,"[86, 0, 168]",168,l,0.2364804723765701,1,colour,0.5,4.0
57,20,0,1,2,23,73,106.73721735691652,107.52772867836757,"[28, 0, 226]",226,a,0.267183470481541,1,colour,0.5,4.0
57,20,0,1,2,24,74,108.03414087370038,108.84776264359243,"[78, 0, 176]",176,l,0.29564706422388554,1,colour,0.5,4.0
57,20,0,1,2,25,75,109.3569959528395,110.20783255901188,"[90, 0, 164]",164,l,0.3261669242638163,1,colour,0.5,4.0
57,20,0,1,2,26,76,110.70914563926635,111.59975116851274,"[32, 0, 222]",222,a,0.36731666896957904,1,colour,0.5,4.0
57,20,0,1,2,27,77,112.11531239020405,112.82372862793272,"[9, 0, 245]",245,l,0.18514706968562678,0,colour,0.5,4.0
57,20,0,1,2,28,78,113.33416119613685,114.07167984469561,"[49, 0, 205]",205,a,0.21431052655680105,1,colour,0.5,4.0
57,20,0,1,2,29,79,114.58406509784982,115.30373782815877,"[55, 0, 199]",199,a,0.19631337164901197,0,colour,0.5,4.0
57,20,0,1,2,30,80,115.81843534711516,116.57571242674021,"[92, 0, 162]",162,l,0.23398821929004043,1,colour,0.5,4.0
57,20,0,1,2,31,81,117.08405958407093,117.83169375534635,"[46, 0, 208]",208,a,0.22440950776217505,1,colour,0.5,4.0
57,20,0,1,2,32,82,118.3496148980339,119.15971411555074,"[3, 0, 251]",251,a,0.28708762425230816,1,colour,0.5,4.0
57,20,0,1,2,33,83,119.6777912210091,120.47975792689249,"[52, 0, 202]",202,a,0.27871880546445027,0,colour,0.5,4.0
57,20,0,1,2,34,84,120.99132122495212,121.91166955744848,"[61, 0, 193]",193,l,0.3973170469980687,1,colour,0.5,4.0
57,20,0,1,2,35,85,122.42870888055768,123.21568977274,"[97, 0, 157]",157,l,0.2635648198192939,1,colour,0.5,4.0
57,20,0,1,2,36,86,123.72564106195932,124.51964185282122,"[13, 0, 241]",241,a,0.2707780965138227,1,colour,0.5,4.0
57,20,0,1,2,37,87,125.02764360781293,125.96776336827315,"[59, 0, 195]",195,l,0.4168116017244756,1,colour,0.5,4.0
57,20,0,1,2,38,88,126.48078665084904,127.31169941095868,"[95, 0, 159]",159,l,0.30766761663835496,1,colour,0.5,4.0
57,20,0,1,2,39,89,127.82445881713647,128.7836788931745,"[72, 0, 182]",182,a,0.4360442492761649,0,colour,0.5,4.0
57,20,0,1,2,40,90,129.2932635124307,130.1437436885899,"[20, 0, 234]",234,a,0.32720234349835664,1,colour,0.5,4.0
57,20,0,1,2,41,91,130.65259890636662,131.39966318348888,"[60, 0, 194]",194,a,0.2237734476220794,0,colour,0.5,4.0
57,20,0,1,2,42,92,131.91825307550607,132.51970565575175,"[89, 0, 165]",165,l,0.07822988589759916,1,colour,0.5,4.0
57,20,0,1,2,43,93,133.02763454936212,133.58365077263443,"[7, 0, 247]",247,a,0.032753750623669475,1,colour,0.5,4.0
57,20,0,1,2,44,94,134.09006651258096,134.69569779146696,"[68, 0, 186]",186,l,0.08236250467598438,1,colour,0.5,4.0
57,20,0,1,2,45,95,135.20270272396738,135.9356279547792,"[70, 0, 184]",184,l,0.20963991509051993,1,colour,0.5,4.0
57,20,0,1,2,46,96,136.4434694147203,137.83165437082062,"[39, 0, 215]",215,a,0.8648811296443455,1,colour,0.5,4.0
57,20,0,1,2,47,97,138.3497172978241,139.15972986933775,"[11, 0, 243]",243,a,0.2867162281181663,1,colour,0.5,4.0
57,20,0,1,2,48,98,139.6778680208372,140.57567461760482,"[51, 0, 203]",203,a,0.3869163803756237,0,colour,0.5,4.0
57,20,0,1,2,49,99,141.08730802009813,141.88765168946702,"[15, 0, 239]",239,a,0.2770449629169889,1,colour,0.5,4.0
57,20,0,1,2,50,100,142.3873917515739,143.1836319467984,"[75, 0, 179]",179,l,0.2730119870393537,1,colour,0.5,4.0
57,20,0,1,3,1,101,148.0116018948611,148.69571748370072,"[77, 0, 177]",177,l,0.16010717314202338,1,colour,0.5,4.0
57,20,0,1,3,2,102,149.21547040092992,149.831620893965,"[13, 0, 241]",241,a,0.09281988511793315,1,colour,0.5,4.0
57,20,0,1,3,3,103,150.34039931185544,151.07967175357044,"[14, 0, 240]",240,a,0.2270510281668976,1,colour,0.5,4.0
57,20,0,1,3,4,104,151.58482758235186,152.31963499990525,"[10, 0, 244]",244,a,0.21184584265574813,1,colour,0.5,4.0
57,20,0,1,3,5,105,152.83595713070827,153.51168066391256,"[20, 0, 234]",234,a,0.14979236474027857,1,colour,0.5,4.0
57,20,0,1,3,6,106,154.02626396768028,154.75168408249738,"[81, 0, 173]",173,l,0.21100340754492208,1,colour,0.5,4.0
57,20,0,1,3,7,107,155.2560033838963,155.96760661783628,"[9, 0, 245]",245,a,0.18838959804270416,1,colour,0.5,4.0
57,20,0,1,3,8,108,156.47464108874556,157.2155928867869,"[39, 0, 215]",215,a,0.2178559218882583,1,colour,0.5,4.0
57,20,0,1,3,9,109,157.72466550715035,158.5116408855538,"[4, 0, 250]",250,a,0.26386729307705536,1,colour,0.5,4.0
57,20,0,1,3,10,110,159.021530734899,159.7675895249704,"[92, 0, 162]",162,l,0.22280183125985786,1,colour,0.5,4.0
57,20,0,1,3,11,111,160.28717466408852,161.10359667404555,"[98, 0, 156]",156,l,0.293103217438329,1,colour,0.5,4.0
57,20,0,1,3,12,112,161.61528915329836,162.4556549883564,"[73, 0, 181]",181,l,0.3170687039382756,1,colour,0.5,4.0
57,20,0,1,3,13,113,162.97470134706236,163.79180707246996,"[40, 0, 214]",214,a,0.2942725440952927,1,colour,0.5,4.0
57,20,0,1,3,14,114,164.30575077154208,165.0796055875253,"[65, 0, 189]",189,l,0.25071522302459925,1,colour,0.5,4.0
57,20,0,1,3,15,115,165.58690747938817,166.44763590418734,"[99, 0, 155]",155,l,0.33747973665595055,1,colour,0.5,4.0
57,20,0,1,3,16,116,166.96193406399107,167.75157813809346,"[55, 0, 199]",199,a,0.26632488769246265,0,colour,0.5,4.0
57,20,0,1,3,17,117,168.2588729407289,169.03158757463098,"[61, 0, 193]",193,a,0.24976763129234314,0,colour,0.5,4.0
57,20,0,1,3,18,118,169.54014228843153,170.32759421959054,"[68, 0, 186]",186,a,0.2643143074819818,0,colour,0.5,4.0
57,20,0,1,3,19,119,170.83702169457683,171.62355439079693,"[83, 0, 171]",171,l,0.2632572266738862,1,colour,0.5,4.0
57,20,0,1,3,20,120,172.133910553006,172.98356522939866,"[45, 0, 209]",209,a,0.338853862893302,1,colour,0.5,4.0
57,20,0,1,3,21,121,173.4963841062854,174.3596138425637,"[21, 0, 233]",233,a,0.33987352839903906,1,colour,0.5,4.0
57,20,0,1,3,22,122,174.87132758949883,175.63166209013434,"[85, 0, 169]",169,l,0.2369156713830307,1,colour,0.5,4.0
57,20,0,1,3,23,123,176.15264853084227,176.98359437397448,"[80, 0, 174]",174,l,0.30754079844336957,1,colour,0.5,4.0
57,20,0,1,3,24,124,177.4964553922764,178.31962042761734,"[67, 0, 187]",187,l,0.29988011345267296,1,colour,0.5,4.0
57,20,0,1,3,25,125,178.84016891237115,179.58357672969578,"[52, 0, 202]",202,a,0.22006500023417175,0,colour,0.5,4.0
57,20,0,1,3,26,126,180.09008187253494,180.87956131930696,"[47, 0, 207]",207,a,0.2662551770918071,1,colour,0.5,4.0
57,20,0,1,3,27,127,181.38705934619065,182.19954684155528,"[86, 0, 168]",168,l,0.28921163198538125,1,colour,0.5,4.0
57,20,0,1,3,28,128,182.71518131846096,183.46362405415857,"[8, 0, 246]",246,a,0.22514599846908823,1,colour,0.5,4.0
57,20,0,1,3,29,129,183.98078428773442,184.8155650025583,"[96, 0, 158]",158,l,0.31148909754119813,1,colour,0.5,4.0
57,20,0,1,3,30,130,185.32474947499577,186.1915698988596,"[97, 0, 157]",157,l,0.3434791821055114,1,colour,0.5,4.0
57,20,0,1,3,31,131,186.70043575041927,187.5195067638997,"[33, 0, 221]",221,a,0.30823948001489043,1,colour,0.5,4.0
57,20,0,1,3,32,132,188.0337111884728,188.81550356268417,"[22, 0, 232]",232,a,0.2708332348265685,1,colour,0.5,4.0
57,20,0,1,3,33,133,189.33387841522926,190.11955016560387,"[64, 0, 190]",190,l,0.26244748069439083,1,colour,0.5,4.0
57,20,0,1,3,34,134,190.63064715079963,191.43957743549254,"[42, 0, 212]",212,a,0.28549294464755803,1,colour,0.5,4.0
57,20,0,1,3,35,135,191.9587663662387,192.75953381316504,"[49, 0, 205]",205,a,0.2774222667212598,1,colour,0.5,4.0
57,20,0,1,3,36,136,193.2712180216913,194.0315544916084,"[53, 0, 201]",201,a,0.23699837893946096,0,colour,0.5,4.0
57,20,0,1,3,37,137,194.55260315985652,195.16757644928293,"[11, 0, 243]",243,a,0.09208575746743008,1,colour,0.5,4.0
57,20,0,1,3,38,138,195.6775529445731,196.36751792387804,"[26, 0, 228]",228,a,0.16666390973841771,1,colour,0.5,4.0
57,20,0,1,3,39,139,196.88065305852797,197.59153988782782,"[30, 0, 224]",224,a,0.18759915052214637,1,colour,0.5,4.0
57,20,0,1,3,40,140,198.09644365566783,198.6795469833305,"[94, 0, 160]",160,l,0.05988378409529105,1,colour,0.5,4.0
57,20,0,1,3,41,141,199.19005398830632,201.61557547887787,"[2, 0, 252]",252,a,1.9022818609373644,1,colour,0.5,4.0
57,20,0,1,3,42,142,202.11509301833576,202.76756313734222,"[89, 0, 165]",165,l,0.12968104833271354,1,colour,0.5,4.0
57,20,0,1,3,43,143,203.28703366743866,204.05553139967378,"[79, 0, 175]",175,l,0.2451226197881624,1,colour,0.5,4.0
57,20,0,1,3,44,144,204.57152978965314,205.37550156196812,"[46, 0, 208]",208,a,0.28073293034685776,1,colour,0.5,4.0
57,20,0,1,3,45,145,205.88404130964773,206.66359388560522,"[36, 0, 218]",218,a,0.2563196417177096,1,colour,0.5,4.0
57,20,0,1,3,46,146,207.18082619289635,207.98358177090995,"[29, 0, 225]",225,a,0.27952973294304684,1,colour,0.5,4.0
57,20,0,1,3,47,147,208.49337709741667,209.23965368390782,"[74, 0, 180]",180,l,0.22299875383032486,1,colour,0.5,4.0
57,20,0,1,3,48,148,209.75895446672803,210.52750418655341,"[69, 0, 185]",185,l,0.24522186879767105,1,colour,0.5,4.0
57,20,0,1,3,49,149,211.0402198759257,211.85545522999018,"[17, 0, 237]",237,a,0.2921008811099455,1,colour,0.5,4.0
57,20,0,1,3,50,150,212.36834027286386,213.135552887863,"[34, 0, 220]",220,a,0.24395014229230583,1,colour,0.5,4.0
57,20,0,1,4,1,151,217.58973213791614,218.51945832092315,"[42, 0, 212]",212,a,0.405769361066632,1,colour,0.5,4.0
57,20,0,1,4,2,152,219.02128064312274,219.7674871251802,"[92, 0, 162]",162,l,0.22276362823322415,1,colour,0.5,4.0
57,20,0,1,4,3,153,220.28698443679605,221.04749853094108,"[30, 0, 224]",224,a,0.23727485834388062,1,colour,0.5,4.0
57,20,0,1,4,4,154,221.56821479374776,222.6155045867199,"[81, 0, 173]",173,l,0.5225330712273717,1,colour,0.5,4.0
57,20,0,1,4,5,155,223.1321205261047,223.9754236593726,"[41, 0, 213]",213,a,0.32000009453622624,1,colour,0.5,4.0
57,20,0,1,4,6,156,224.49148309533484,225.27147559652803,"[34, 0, 220]",220,a,0.2565709149930626,1,colour,0.5,4.0
57,20,0,1,4,7,157,225.78836131998105,226.55150551302359,"[93, 0, 161]",161,l,0.2397659298731014,1,colour,0.5,4.0
57,20,0,1,4,8,158,227.06958064925857,227.86345107731177,"[43, 0, 211]",211,a,0.27057566004805267,1,colour,0.5,4.0
57,20,0,1,4,9,159,228.38209650153294,229.26344272779534,"[57, 0, 197]",197,a,0.3580660305451602,0,colour,0.5,4.0
57,20,0,1,4,10,160,229.77473978640046,230.51149831351358,"[3, 0, 251]",251,a,0.21339641156373546,1,colour,0.5,4.0
57,20,0,1,4,11,161,231.0247224571649,231.57545209501404,"[98, 0, 156]",156,l,0.027355706901289523,1,colour,0.5,4.0
57,20,0,1,4,12,162,232.0871875034063,233.5114415998105,"[54, 0, 200]",200,a,0.913338280050084,0,colour,0.5,4.0
57,20,0,1,4,13,163,234.02781453664647,234.71151383104734,"[35, 0, 219]",219,a,0.16023911139927804,1,colour,0.5,4.0
57,20,0,1,4,14,164,235.23138056951575,235.8874598868424,"[83, 0, 171]",171,l,0.13286922604311258,1,colour,0.5,4.0
57,20,0,1,4,15,165,236.40330231405096,236.9834431373747,"[36, 0, 218]",218,a,0.05694963660789654,1,colour,0.5,4.0
57,20,0,1,4,16,166,237.4969232804724,238.4874320026138,"[2, 0, 252]",252,a,0.4671533019281924,1,colour,0.5,4.0
57,20,0,1,4,17,167,238.9969488804345,239.72742715041386,"[29, 0, 225]",225,a,0.20700548391323537,1,colour,0.5,4.0
57,20,0,1,4,18,168,240.2469622711651,240.95141051756218,"[95, 0, 159]",159,l,0.18109637079760432,1,colour,0.5,4.0
57,20,0,1,4,19,169,241.46575160644716,242.16755203087814,"[27, 0, 227]",227,a,0.17856709629995748,1,colour,0.5,4.0
57,20,0,1,4,20,170,242.68443539121654,243.47145645564888,"[56, 0, 198]",198,a,0.26369557646103203,0,colour,0.5,4.0
57,20,0,1,4,21,171,243.98134236654732,244.71141733892728,"[28, 0, 226]",226,a,0.206844401138369,1,colour,0.5,4.0
57,20,0,1,4,22,172,245.23131361586275,245.89547621406382,"[64, 0, 190]",190,a,0.14098243921762332,0,colour,0.5,4.0
57,20,0,1,4,23,173,246.40314516978106,247.1114038694068,"[4, 0, 250]",250,a,0.1856448901235126,1,colour,0.5,4.0
57,20,0,1,4,24,174,247.6219522281317,248.33558258379344,"[33, 0, 221]",221,a,0.19048131041927263,1,colour,0.5,4.0
57,20,0,1,4,25,175,248.85628269898007,249.59942309535109,"[44, 0, 210]",210,a,0.2199409389286302,1,colour,0.5,4.0
57,20,0,1,4,26,176,250.10824838088593,250.84742866276065,"[90, 0, 164]",164,l,0.2158677908591926,1,colour,0.5,4.0
57,20,0,1,4,27,177,251.358177882561,252.12739201943623,"[52, 0, 202]",202,a,0.24582839058712125,0,colour,0.5,4.0
57,20,0,1,4,28,178,252.64027509302832,253.43145122536225,"[82, 0, 172]",172,l,0.2802492883056402,1,colour,0.5,4.0
57,20,0,1,4,29,179,253.94035212916788,254.79947130201617,"[74, 0, 180]",180,l,0.3359201092389412,1,colour,0.5,4.0
57,20,0,1,4,30,180,255.3060327647836,256.15142052120063,"[8, 0, 246]",246,a,0.3190493519650772,1,colour,0.5,4.0
57,20,0,1,4,31,181,256.67126953665866,257.48740719031775,"[25, 0, 229]",229,a,0.29370107455179095,1,colour,0.5,4.0
57,20,0,1,4,32,182,257.9994151397259,258.79146915324964,"[62, 0, 192]",192,a,0.27385717909783125,0,colour,0.5,4.0
57,20,0,1,4,33,183,259.30743603553856,260.199372368108,"[55, 0, 199]",199,a,0.36905155749991536,0,colour,0.5,4.0
57,20,0,1,4,34,184,260.71361617726507,261.56740622932557,"[75, 0, 179]",179,l,0.33078200346790254,1,colour,0.5,4.0
57,20,0,1,4,35,185,262.0886132234009,262.8634569849819,"[65, 0, 189]",189,l,0.25156947353389114,1,colour,0.5,4.0
57,20,0,1,4,36,186,263.3653116024798,264.0234188292525,"[61, 0, 193]",193,a,0.13485775096341968,0,colour,0.5,4.0
57,20,0,1,4,37,187,264.53720971627627,265.5915095617529,"[49, 0, 205]",205,a,0.5307794041000307,1,colour,0.5,4.0
57,20,0,1,4,38,188,266.1000717586139,266.88743901305133,"[45, 0, 209]",209,a,0.2644096180447377,1,colour,0.5,4.0
57,20,0,1,4,39,189,267.3965864639613,268.1754706844804,"[60, 0, 194]",194,a,0.2555906340130605,0,colour,0.5,4.0
57,20,0,1,4,40,190,268.6935229777009,269.53536809567595,"[99, 0, 155]",155,l,0.31861178984399885,1,colour,0.5,4.0
57,20,0,1,4,41,191,270.0527977194288,270.8633526159683,"[85, 0, 169]",169,l,0.2872467377455905,1,colour,0.5,4.0
57,20,0,1,4,42,192,271.3809988547,272.199356614321,"[73, 0, 181]",181,l,0.2950748070143163,1,colour,0.5,4.0
57,20,0,1,4,43,193,272.7119655716233,273.5194453240256,"[13, 0, 241]",241,a,0.2842401227680966,1,colour,0.5,4.0
57,20,0,1,4,44,194,274.0400198025163,274.8953769650543,"[19, 0, 235]",235,a,0.34444686002098024,1,colour,0.5,4.0
57,20,0,1,4,45,195,275.4026189924334,276.2474270086386,"[78, 0, 176]",176,l,0.3216908724280074,1,colour,0.5,4.0
57,20,0,1,4,46,196,276.76194926642347,277.5354701016331,"[1, 0, 253]",253,a,0.24861366458935663,1,colour,0.5,4.0
57,20,0,1,4,47,197,278.0448093552259,278.87148473376874,"[14, 0, 240]",240,a,0.30336485675070435,1,colour,0.5,4.0
57,20,0,1,4,48,198,279.38853429682786,280.33537423965754,"[0, 0, 254]",254,a,0.4234868857311085,1,colour,0.5,4.0
57,20,0,1,4,49,199,280.8416832475341,281.6793508484261,"[16, 0, 238]",238,a,0.31432163302088156,1,colour,0.5,4.0
57,20,0,1,4,50,200,282.1989619812812,282.9834175374126,"[87, 0, 167]",167,l,0.26665571774356067,1,colour,0.5,4.0
57,20,0,1,5,1,201,291.9326071613468,292.74332550365943,"[80, 0, 174]",174,l,0.2871919932658784,1,colour,0.5,3.9
57,20,0,1,5,2,202,293.2615951994667,293.8953411251423,"[35, 0, 219]",219,a,0.11044328077696264,1,colour,0.5,3.9
57,20,0,1,5,3,203,294.40219245798653,295.0792916928185,"[37, 0, 217]",217,a,0.15378595609217882,1,colour,0.5,3.9
57,20,0,1,5,4,204,295.58978136855876,296.3673469950445,"[43, 0, 211]",211,a,0.25449377490440384,1,colour,0.5,3.9
57,20,0,1,5,5,205,296.8865083566052,297.80732772807823,"[48, 0, 206]",206,a,0.39749388355994597,1,colour,0.5,3.9
57,20,0,1,5,6,206,298.3240460672532,299.095403116371,"[11, 0, 243]",243,a,0.24825802218401805,1,colour,0.5,3.9
57,20,0,1,5,7,207,299.6052906026598,300.34328462253325,"[58, 0, 196]",196,l,0.21516162622720003,1,colour,0.5,3.9
57,20,0,1,5,8,208,300.85528430115664,301.655314863543,"[22, 0, 232]",232,a,0.27685985568678007,1,colour,0.5,3.9
57,20,0,1,5,9,209,302.1678611994139,302.90335233241785,"[13, 0, 241]",241,a,0.212206604948733,1,colour,0.5,3.9
57,20,0,1,5,10,210,303.41780409187777,304.19131980708335,"[59, 0, 195]",195,l,0.2501409965916537,1,colour,0.5,3.9
57,20,0,1,5,11,211,304.6991762331454,305.5033587127109,"[15, 0, 239]",239,a,0.280840843974147,1,colour,0.5,3.9
57,20,0,1,5,12,212,306.0116290701553,306.8712913556956,"[20, 0, 234]",234,a,0.3363249822286889,1,colour,0.5,3.9
57,20,0,1,5,13,213,307.38922273839125,308.2472773474292,"[19, 0, 235]",235,a,0.3347866224939935,1,colour,0.5,3.9
57,20,0,1,5,14,214,308.7518672205624,309.5352952342946,"[10, 0, 244]",244,a,0.2601588456891477,1,colour,0.5,3.9
57,20,0,1,5,15,215,310.0486895191134,310.83929339423776,"[45, 0, 209]",209,a,0.26733155630063266,1,colour,0.5,3.9
57,20,0,1,5,16,216,311.34564178664004,312.0552631910541,"[96, 0, 158]",158,l,0.18642943003214896,1,colour,0.5,3.9
57,20,0,1,5,17,217,312.55508202221245,313.2952929972671,"[42, 0, 212]",212,a,0.2169571669655852,1,colour,0.5,3.9
57,20,0,1,5,18,218,313.8050757206511,314.5272733931779,"[14, 0, 240]",240,a,0.19741377542959526,1,colour,0.5,3.9
57,20,0,1,5,19,219,315.0410209572874,315.8553039933904,"[9, 0, 245]",245,a,0.2911166616831906,1,colour,0.5,3.9
57,20,0,1,5,20,220,316.3568648023647,317.1352866484667,"[85, 0, 169]",169,l,0.2579509489587508,1,colour,0.5,3.9
57,20,0,1,5,21,221,317.650914429978,318.2712778861751,"[18, 0, 236]",236,a,0.09711949422489852,1,colour,0.5,3.9
57,20,0,1,5,22,222,318.79155382997124,319.479246715724,"[71, 0, 183]",183,l,0.1644292315468192,1,colour,0.5,3.9
57,20,0,1,5,23,223,319.9946897837799,320.65553777996683,"[90, 0, 164]",164,l,0.13761072960915044,1,colour,0.5,3.9
57,20,0,1,5,24,224,321.1665122793056,321.79929485934554,"[60, 0, 194]",194,a,0.10947835975093767,0,colour,0.5,3.9
57,20,0,1,5,25,225,322.307137894677,323.01521975779906,"[92, 0, 162]",162,l,0.1851159559446387,1,colour,0.5,3.9
57,20,0,1,5,26,226,323.5259532237542,324.24724465823965,"[49, 0, 205]",205,a,0.19818886299617589,1,colour,0.5,3.9
57,20,0,1,5,27,227,324.7602884207736,325.4872307476471,"[39, 0, 215]",215,a,0.2037617739988491,1,colour,0.5,3.9
57,20,0,1,5,28,228,325.9946220424026,326.6232877575094,"[99, 0, 155]",155,l,0.10542175313457847,1,colour,0.5,3.9
57,20,0,1,5,29,229,327.13522599625867,328.55122233822476,"[50, 0, 204]",204,a,0.8929122811532579,1,colour,0.5,3.9
57,20,0,1,5,30,230,329.07274834701093,329.8632005917025,"[98, 0, 156]",156,l,0.26727090415079147,1,colour,0.5,3.9
57,20,0,1,5,31,231,330.3695974270813,331.39925043360563,"[54, 0, 200]",200,a,0.5063609954668209,0,colour,0.5,3.9
57,20,0,1,5,32,232,331.91645595943555,332.8632273731637,"[97, 0, 157]",157,l,0.4234408058109693,1,colour,0.5,3.9
57,20,0,1,5,33,233,333.3695903378539,334.087226494099,"[89, 0, 165]",165,l,0.19451152940746397,1,colour,0.5,3.9
57,20,0,1,5,34,234,334.6039637378417,335.35925229254644,"[76, 0, 178]",178,l,0.23210130643565208,1,colour,0.5,3.9
57,20,0,1,5,35,235,335.8696041224175,336.66324100020574,"[32, 0, 222]",222,a,0.27035943896044046,1,colour,0.5,3.9
57,20,0,1,5,36,236,337.18205932254205,338.78319603885757,"[25, 0, 229]",229,a,1.077927412756253,1,colour,0.5,3.9
57,20,0,1,5,37,237,339.2914289809996,340.06330669362796,"[70, 0, 184]",184,l,0.24855104315793142,1,colour,0.5,3.9
57,20,0,1,5,38,238,340.5726699717925,341.39132705383236,"[91, 0, 163]",163,l,0.29547259071841836,1,colour,0.5,3.9
57,20,0,1,5,39,239,341.89146844431525,342.7272739445907,"[31, 0, 223]",223,a,0.31246465240838006,1,colour,0.5,3.9
57,20,0,1,5,40,240,343.23525482579134,344.12719824753003,"[61, 0, 193]",193,l,0.36896648694528267,1,colour,0.5,3.9
57,20,0,1,5,41,241,344.6414542658604,345.3752518640249,"[28, 0, 226]",226,a,0.21049771015532315,1,colour,0.5,3.9
57,20,0,1,5,42,242,345.89153854874894,346.59919860353693,"[78, 0, 176]",176,l,0.18447950191330165,1,colour,0.5,3.9
57,20,0,1,5,43,243,347.1102089427877,347.9271740654367,"[84, 0, 170]",170,l,0.2937168283970095,1,colour,0.5,3.9
57,20,0,1,5,44,244,348.43834666890325,349.1992542145308,"[7, 0, 247]",247,a,0.23762774374336004,1,colour,0.5,3.9
57,20,0,1,5,45,245,349.7196030196501,350.5031858145958,"[51, 0, 203]",203,a,0.26032504840986803,0,colour,0.5,3.9
57,20,0,1,5,46,246,351.0164745489019,351.8551980490447,"[53, 0, 201]",201,a,0.31544960592873394,0,colour,0.5,3.9
57,20,0,1,5,47,247,352.37579733977327,353.2152384260553,"[82, 0, 172]",172,l,0.3162298134411685,1,colour,0.5,3.9
57,20,0,1,5,48,248,353.73515715211397,354.583176189044,"[6, 0, 248]",248,a,0.3247549888328649,1,colour,0.5,3.9
57,20,0,1,5,49,249,355.09460045967717,355.91918767039897,"[94, 0, 160]",160,l,0.3013645164319314,1,colour,0.5,3.9
57,20,0,1,5,50,250,356.4383104351582,357.1832062000758,"[41, 0, 213]",213,a,0.22170103364624083,1,colour,0.5,3.9
57,20,0,1,6,1,251,361.64341364626307,362.7031442245352,"[92, 0, 162]",162,l,0.535677264269907,1,colour,0.5,3.9
57,20,0,1,6,2,252,363.22456625814084,363.93515534041217,"[79, 0, 175]",175,l,0.18743294780142605,1,colour,0.5,3.9
57,20,0,1,6,3,253,364.4433323565754,365.0311937293154,"[71, 0, 183]",183,l,0.06460362620418891,1,colour,0.5,3.9
57,20,0,1,6,4,254,365.55264608899597,366.7831850111834,"[30, 0, 224]",224,a,0.7071689297445118,1,colour,0.5,3.9
57,20,0,1,6,5,255,367.3047563121072,370.0311744309147,"[44, 0, 210]",210,a,2.2031615537707694,1,colour,0.5,3.9
57,20,0,1,6,6,256,370.53898950322764,371.47122644999763,"[0, 0, 254]",254,a,0.4089910155744292,1,colour,0.5,3.9
57,20,0,1,6,7,257,371.99210458324524,372.8231638537836,"[76, 0, 178]",178,l,0.30772945034550503,1,colour,0.5,3.9
57,20,0,1,6,8,258,373.33578541415045,374.0791333670495,"[35, 0, 219]",219,a,0.21997362811816856,1,colour,0.5,3.9
57,20,0,1,6,9,259,374.58586772781564,375.43913081492065,"[22, 0, 232]",232,a,0.3299167253426276,1,colour,0.5,3.9
57,20,0,1,6,10,260,375.94521651248215,376.75919550005347,"[95, 0, 159]",159,l,0.2906625580508262,1,colour,0.5,3.9
57,20,0,1,6,11,261,377.27339047240093,378.04717085167067,"[50, 0, 204]",204,a,0.25064393709180877,1,colour,0.5,3.9
57,20,0,1,6,12,262,378.5546094078454,379.3351485662861,"[21, 0, 233]",233,a,0.2571888582315296,1,colour,0.5,3.9
57,20,0,1,6,13,263,379.8514750293689,380.5991182590951,"[20, 0, 234]",234,a,0.22443550149910152,1,colour,0.5,3.9
57,20,0,1,6,14,264,381.11712604778586,381.8391768160509,"[12, 0, 242]",242,a,0.19888675690162927,1,colour,0.5,3.9
57,20,0,1,6,15,265,382.35141674027545,383.0311444986728,"[38, 0, 216]",216,a,0.15637233818415552,1,colour,0.5,3.9
57,20,0,1,6,16,266,383.53896272170823,384.2551097489195,"[13, 0, 241]",241,a,0.19286328688031062,1,colour,0.5,3.9
57,20,0,1,6,17,267,384.7734326138161,385.46315498440526,"[48, 0, 206]",206,a,0.1667198357754387,1,colour,0.5,3.9
57,20,0,1,6,18,268,385.9765051585855,386.7671385720605,"[39, 0, 215]",215,a,0.2674847621237859,1,colour,0.5,3.9
57,20,0,1,6,19,269,387.2732565649785,387.9990886419546,"[89, 0, 165]",165,l,0.20257433044025674,1,colour,0.5,3.9
57,20,0,1,6,20,270,388.50768904178403,389.3751057474292,"[24, 0, 230]",230,a,0.3443487925105728,1,colour,0.5,3.9
57,20,0,1,6,21,271,389.8827097186586,390.8551535445149,"[56, 0, 198]",198,a,0.44921364850597456,0,colour,0.5,3.9
57,20,0,1,6,22,272,391.3670204972732,392.1351113872952,"[87, 0, 167]",167,l,0.2448347188765183,1,colour,0.5,3.9
57,20,0,1,6,23,273,392.6389301113668,393.40712221962167,"[88, 0, 166]",166,l,0.244796909741126,1,colour,0.5,3.9
57,20,0,1,6,24,274,393.9202518404345,394.9191124459612,"[63, 0, 191]",191,l,0.47599000891204923,1,colour,0.5,3.9
57,20,0,1,6,25,275,395.43578116060235,396.2310847917106,"[42, 0, 212]",212,a,0.27198680775472894,1,colour,0.5,3.9
57,20,0,1,6,26,276,396.74832733900985,397.4311507214443,"[17, 0, 237]",237,a,0.15951010375283659,1,colour,0.5,3.9
57,20,0,1,6,27,277,397.951486529666,398.70306781854015,"[4, 0, 250]",250,a,0.2406902847578749,1,colour,0.5,3.9
57,20,0,1,6,28,278,399.2204127656296,399.91110438946635,"[78, 0, 176]",176,l,0.16756384627660736,1,colour,0.5,3.9
57,20,0,1,6,29,279,400.42347310110927,401.19908525486244,"[15, 0, 239]",239,a,0.25257299130316824,1,colour,0.5,3.9
57,20,0,1,6,30,280,401.7205632145051,402.3750376122189,"[96, 0, 158]",158,l,0.1315273951040581,1,colour,0.5,3.9
57,20,0,1,6,31,281,402.89243887912016,403.68707573012216,"[65, 0, 189]",189,a,0.27130348613718525,0,colour,0.5,3.9
57,20,0,1,6,32,282,404.20526350609725,404.91913607669994,"[84, 0, 170]",170,l,0.19071052846265957,1,colour,0.5,3.9
57,20,0,1,6,33,283,405.43959988467395,406.17510716529796,"[29, 0, 225]",225,a,0.2124653613427654,1,colour,0.5,3.9
57,20,0,1,6,34,284,406.68961445696186,407.5590830966248,"[3, 0, 251]",251,a,0.34637552045751363,1,colour,0.5,3.9
57,20,0,1,6,35,285,408.08014554943657,408.87905562197557,"[27, 0, 227]",227,a,0.2756783197983168,1,colour,0.5,3.9
57,20,0,1,6,36,286,409.3927212661947,410.1270249555819,"[77, 0, 177]",177,l,0.2111503118649125,1,colour,0.5,3.9
57,20,0,1,6,37,287,410.6426566755981,411.47903561464045,"[69, 0, 185]",185,l,0.31301012815674767,1,colour,0.5,3.9
57,20,0,1,6,38,288,411.9864107617177,412.70303906785557,"[2, 0, 252]",252,a,0.19336504576494917,1,colour,0.5,3.9
57,20,0,1,6,39,289,413.22211535886163,414.27105693897465,"[52, 0, 202]",202,a,0.5258441286277957,0,colour,0.5,3.9
57,20,0,1,6,40,290,414.7847158878576,415.4870613941457,"[81, 0, 173]",173,l,0.1790538890636526,1,colour,0.5,3.9
57,20,0,1,6,41,291,415.99594221182633,416.74309707339853,"[74, 0, 180]",180,l,0.22387624118709937,1,colour,0.5,3.9
57,20,0,1,6,42,292,417.2615416364861,417.9911160315387,"[51, 0, 203]",203,a,0.203087116999086,0,colour,0.5,3.9
57,20,0,1,6,43,293,418.4991611095029,419.27102779439883,"[14, 0, 240]",240,a,0.24744315625866875,1,colour,0.5,3.9
57,20,0,1,6,44,294,419.7814843871747,420.4792230849853,"[98, 0, 156]",156,l,0.17453215119894594,1,colour,0.5,3.9
57,20,0,1,6,45,295,421.00028711318737,421.6790267137112,"[97, 0, 157]",157,l,0.1554570416919887,1,colour,0.5,3.9
57,20,0,1,6,46,296,422.1877043072018,423.11105492251227,"[72, 0, 182]",182,l,0.4001066533382982,1,colour,0.5,3.9
57,20,0,1,6,47,297,423.6252337471815,424.2790291555575,"[59, 0, 195]",195,a,0.13051284960238263,0,colour,0.5,3.9
57,20,0,1,6,48,298,424.7971054733498,425.4870543049183,"[16, 0, 238]",238,a,0.1759184866095893,1,colour,0.5,3.9
57,20,0,1,6,49,299,426.0065358627471,426.61503039696254,"[6, 0, 248]",248,a,0.08526475069811568,1,colour,0.5,3.9
57,20,0,1,6,50,300,427.13156284112483,427.91103113425197,"[45, 0, 209]",209,a,0.2562538695638068,1,colour,0.5,3.9
57,20,0,1,7,1,301,432.46939428168116,433.78304204531014,"[49, 0, 205]",205,a,0.7894841729430482,1,colour,0.5,3.9
57,20,0,1,7,2,302,434.29837247368414,435.02298835635884,"[39, 0, 215]",215,a,0.20129354554228485,1,colour,0.5,3.9
57,20,0,1,7,3,303,435.53269782452844,436.37501752609387,"[73, 0, 181]",181,l,0.31893159222090617,1,colour,0.5,3.9
57,20,0,1,7,4,304,436.8921529474319,437.7350362416473,"[30, 0, 224]",224,a,0.3196251538465731,1,colour,0.5,3.9
57,20,0,1,7,5,305,438.25337367883185,439.2070562899462,"[80, 0, 174]",174,l,0.43039650772698224,1,colour,0.5,3.9
57,20,0,1,7,6,306,439.7220728235552,440.4550189281581,"[88, 0, 166]",166,l,0.20970726263476536,1,colour,0.5,3.9
57,20,0,1,7,7,307,440.9721385957091,441.63905338494806,"[38, 0, 216]",216,a,0.1436920949490741,1,colour,0.5,3.9
57,20,0,1,7,8,308,442.1595774512389,442.91900138161145,"[7, 0, 247]",247,a,0.2360854455619119,1,colour,0.5,3.9
57,20,0,1,7,9,309,443.4252280757646,444.12699226645054,"[46, 0, 208]",208,a,0.17856670246692374,1,colour,0.5,3.9
57,20,0,1,7,10,310,444.64394927583635,445.3109963971074,"[85, 0, 169]",169,l,0.14375314093194902,1,colour,0.5,3.9
57,20,0,1,7,11,311,445.83150234649656,446.5909802336828,"[66, 0, 188]",188,a,0.23634459573077038,0,colour,0.5,3.9
57,20,0,1,7,12,312,447.09710098349024,447.8870089339907,"[77, 0, 177]",177,l,0.26658009947277606,1,colour,0.5,3.9
57,20,0,1,7,13,313,448.3939898419194,449.0710126707563,"[18, 0, 236]",236,a,0.15372491005109623,1,colour,0.5,3.9
57,20,0,1,7,14,314,449.58146296197083,450.34300735540455,"[4, 0, 250]",250,a,0.23825356387533247,1,colour,0.5,3.9
57,20,0,1,7,15,315,450.86334749596426,451.58299698942574,"[25, 0, 229]",229,a,0.19709476077696308,1,colour,0.5,3.9
57,20,0,1,7,16,316,452.0971187065006,452.6949805991608,"[44, 0, 210]",210,a,0.0745281339623034,1,colour,0.5,3.9
57,20,0,1,7,17,317,453.1941287117661,453.84696943918243,"[5, 0, 249]",249,a,0.12951208872254938,1,colour,0.5,3.9
57,20,0,1,7,18,318,454.3659665672458,455.0549748962512,"[40, 0, 214]",214,a,0.1656875672051683,1,colour,0.5,3.9
57,20,0,1,7,19,319,455.56911394256167,456.1189377362025,"[99, 0, 155]",155,l,0.02643135201651603,1,colour,0.5,3.9
57,20,0,1,7,20,320,456.63158883491997,457.21496706665494,"[17, 0, 237]",237,a,0.05998933466617018,1,colour,0.5,3.9
57,20,0,1,7,21,321,457.7253279549768,458.295013760915,"[84, 0, 170]",170,l,0.0463016350986436,1,colour,0.5,3.9
57,20,0,1,7,22,322,458.80348261643667,460.0469274552306,"[47, 0, 207]",207,a,0.7271231018239632,1,colour,0.5,3.9
57,20,0,1,7,23,323,460.5525807106751,461.1430150747765,"[74, 0, 180]",180,l,0.06706555315759033,1,colour,0.5,3.9
57,20,0,1,7,24,324,461.6619294953416,462.65496749198064,"[60, 0, 194]",194,a,0.4696656410815194,0,colour,0.5,3.9
57,20,0,1,7,25,325,463.1619369784021,463.91097284515854,"[50, 0, 204]",204,a,0.22563082206761464,1,colour,0.5,3.9
57,20,0,1,7,26,326,464.42763801518595,465.2949345980305,"[89, 0, 165]",165,l,0.34404553164495155,1,colour,0.5,3.9
57,20,0,1,7,27,327,465.8025740153389,466.54299451608676,"[81, 0, 173]",173,l,0.21702451450983062,1,colour,0.5,3.9
57,20,0,1,7,28,328,467.0432713893242,467.726980923675,"[92, 0, 162]",162,l,0.16043918475043029,1,colour,0.5,3.9
57,20,0,1,7,29,329,468.2463273925241,468.89491852914216,"[20, 0, 234]",234,a,0.12531527318060398,1,colour,0.5,3.9
57,20,0,1,7,30,330,469.4026252939948,469.9429322097567,"[87, 0, 167]",167,l,0.017054289230145514,1,colour,0.5,3.9
57,20,0,1,7,31,331,470.44950548780616,471.2550041983486,"[69, 0, 185]",185,a,0.28232445917092264,0,colour,0.5,3.9
57,20,0,1,7,32,332,471.76254397281446,472.4869263052242,"[36, 0, 218]",218,a,0.2012072933721356,1,colour,0.5,3.9
57,20,0,1,7,33,333,472.9938753116876,473.6469562847051,"[54, 0, 200]",200,a,0.12775790167506784,0,colour,0.5,3.9
57,20,0,1,7,34,334,474.16783047950594,475.1028912970796,"[70, 0, 184]",184,a,0.4241150689776987,0,colour,0.5,3.9
57,20,0,1,7,35,335,475.62416721408954,476.3509145875578,"[48, 0, 206]",206,a,0.2035971466684714,1,colour,0.5,3.9
57,20,0,1,7,36,336,476.8462238900247,477.56690368271666,"[37, 0, 217]",217,a,0.1974724583560601,1,colour,0.5,3.9
57,20,0,1,7,37,337,478.0806114684092,478.9988960516057,"[97, 0, 157]",157,l,0.3970445060986094,1,colour,0.5,3.9
57,20,0,1,7,38,338,479.5159987837542,480.2468953174539,"[32, 0, 222]",222,a,0.21989879751345143,1,colour,0.5,3.9
57,20,0,1,7,39,339,480.7536875735386,481.3189930320368,"[96, 0, 158]",158,l,0.04204298584954813,1,colour,0.5,3.9
57,20,0,1,7,40,340,481.8317288075341,482.40695837995736,"[94, 0, 160]",160,l,0.05195607204223052,1,colour,0.5,3.9
57,20,0,1,7,41,341,482.9255376381916,483.5589326476911,"[58, 0, 196]",196,a,0.11029834568034858,0,colour,0.5,3.9
57,20,0,1,7,42,342,484.0678607268492,484.598913853406,"[8, 0, 246]",246,a,0.007055344700347632,1,colour,0.5,3.9
57,20,0,1,7,43,343,485.1154254237772,486.0309125237982,"[55, 0, 199]",199,a,0.3923329347744584,0,colour,0.5,3.9
57,20,0,1,7,44,344,486.5371986886021,487.2148989313864,"[10, 0, 244]",244,a,0.1544287116266787,1,colour,0.5,3.9
57,20,0,1,7,45,345,487.72475254698656,488.55895549070556,"[13, 0, 241]",241,a,0.3137576464796439,1,colour,0.5,3.9
57,20,0,1,7,46,346,489.06579067592975,489.75888554379344,"[19, 0, 235]",235,a,0.17001159477513283,1,colour,0.5,3.9
57,20,0,1,7,47,347,490.2687663346878,491.0469286367879,"[53, 0, 201]",201,a,0.2548423279658891,0,colour,0.5,3.9
57,20,0,1,7,48,348,491.5655705163954,492.2628685013042,"[24, 0, 230]",230,a,0.1739165709586814,1,colour,0.5,3.9
57,20,0,1,7,49,349,492.78434094710974,493.502876252227,"[31, 0, 223]",223,a,0.19528622314101085,1,colour,0.5,3.9
57,20,0,1,7,50,350,494.01868756563636,494.7908827175852,"[78, 0, 176]",176,l,0.24872197199147195,1,colour,0.5,3.9
57,20,0,1,8,1,351,499.8464944617008,500.8468634947785,"[2, 0, 252]",252,a,0.4763578604324721,1,colour,0.5,3.9
57,20,0,1,8,2,352,501.3628933923319,502.19883122463943,"[31, 0, 223]",223,a,0.3126466089161113,1,colour,0.5,3.9
57,20,0,1,8,3,353,502.6997622749768,503.63893759442726,"[37, 0, 217]",217,a,0.4158951237332076,1,colour,0.5,3.9
57,20,0,1,8,4,354,504.1403983666096,505.1508588978322,"[41, 0, 213]",213,a,0.4877470788778737,1,colour,0.5,3.9
57,20,0,1,8,5,355,505.6716141513316,506.630867310334,"[60, 0, 194]",194,a,0.4358402374200523,0,colour,0.5,3.9
57,20,0,1,8,6,356,507.14046256343136,507.91891000949545,"[75, 0, 179]",179,l,0.25568830769043416,1,colour,0.5,3.9
57,20,0,1,8,7,357,508.4372663512477,509.1428516290034,"[53, 0, 201]",201,a,0.18233028810936958,0,colour,0.5,3.9
57,20,0,1,8,8,358,509.65604387118947,510.4388854492572,"[95, 0, 159]",159,l,0.25960194843355566,1,colour,0.5,3.9
57,20,0,1,8,9,359,510.9528701082454,512.0229021041887,"[58, 0, 196]",196,a,0.5467348648817278,0,colour,0.5,3.9
57,20,0,1,8,10,360,512.5310649418971,513.4069115123712,"[44, 0, 210]",210,a,0.35259236849378794,1,colour,0.5,3.9
57,20,0,1,8,11,361,513.9248212336097,514.806883470621,"[33, 0, 221]",221,a,0.35886002267943695,1,colour,0.5,3.9
57,20,0,1,8,12,362,515.3154629966593,516.1268658420886,"[23, 0, 231]",231,a,0.2882876709336415,1,colour,0.5,3.9
57,20,0,1,8,13,363,516.6435566120781,517.4468647550675,"[27, 0, 227]",227,a,0.27995351050049067,1,colour,0.5,3.9
57,20,0,1,8,14,364,517.9560551351751,518.6868705367087,"[65, 0, 189]",189,a,0.20764508866705,0,colour,0.5,3.9
57,20,0,1,8,15,365,519.2061181504396,519.9589010613272,"[82, 0, 172]",172,l,0.22970987780718133,1,colour,0.5,3.9
57,20,0,1,8,16,366,520.4716640121187,521.2548785617109,"[6, 0, 248]",248,a,0.2602344639599323,1,colour,0.5,3.9
57,20,0,1,8,17,367,521.7685548397712,522.5027947262279,"[12, 0, 242]",242,a,0.21087146934587508,1,colour,0.5,3.9
57,20,0,1,8,18,368,523.0185690182261,523.7988265773165,"[73, 0, 181]",181,l,0.25697027414571494,1,colour,0.5,3.9
57,20,0,1,8,19,369,524.3154661473818,525.1908172604744,"[72, 0, 182]",182,l,0.35202916973503307,1,colour,0.5,3.9
57,20,0,1,8,20,370,525.7061331165605,526.4148498582654,"[79, 0, 175]",175,l,0.18564449634868652,1,colour,0.5,3.9
57,20,0,1,8,21,371,526.9248291105032,527.6788668125519,"[61, 0, 193]",193,a,0.23075002327095717,0,colour,0.5,3.9
57,20,0,1,8,22,372,528.1930444556638,528.854884548171,"[98, 0, 156]",156,l,0.138526419934351,1,colour,0.5,3.9
57,20,0,1,8,23,373,529.3649516279111,530.0228386950912,"[4, 0, 250]",250,a,0.1346639790572226,1,colour,0.5,3.9
57,20,0,1,8,24,374,530.5367390711908,531.294810142892,"[91, 0, 163]",163,l,0.23472864844370633,1,colour,0.5,3.9
57,20,0,1,8,25,375,531.7941169751575,532.6947722549667,"[49, 0, 205]",205,a,0.37548423279076815,1,colour,0.5,3.9
57,20,0,1,8,26,376,533.2022663434036,533.934828448866,"[92, 0, 162]",162,l,0.20925237139454111,1,colour,0.5,3.9
57,20,0,1,8,27,377,534.4522726449068,535.1908645218937,"[56, 0, 198]",198,a,0.21585203701397404,0,colour,0.5,3.9
57,20,0,1,8,28,378,535.702279340243,536.5027773970505,"[9, 0, 245]",245,a,0.27721786103211343,1,colour,0.5,3.9
57,20,0,1,8,29,379,537.0147727433359,537.8628579462529,"[93, 0, 161]",161,l,0.3248475424479693,1,colour,0.5,3.9
57,20,0,1,8,30,380,538.3760430992697,539.206786899711,"[66, 0, 188]",188,a,0.30752977076917887,0,colour,0.5,3.9
57,20,0,1,8,31,381,539.7091409130953,540.5507958037779,"[5, 0, 249]",249,a,0.3183916303096339,1,colour,0.5,3.9
57,20,0,1,8,32,382,541.0685641345335,541.8307662496227,"[17, 0, 237]",237,a,0.23897705768467858,1,colour,0.5,3.9
57,20,0,1,8,33,383,542.3497066639829,543.038803608215,"[80, 0, 174]",174,l,0.1658195054042153,1,colour,0.5,3.9
57,20,0,1,8,34,384,543.5528052024893,544.3507972216466,"[10, 0, 244]",244,a,0.2746814973070286,1,colour,0.5,3.9
57,20,0,1,8,35,385,544.8652848210186,545.7028133944841,"[18, 0, 236]",236,a,0.3142078116652556,1,colour,0.5,3.9
57,20,0,1,8,36,386,546.2090290610213,546.9107830116991,"[84, 0, 170]",170,l,0.1784158597001806,1,colour,0.5,3.9
57,20,0,1,8,37,387,547.4277664087713,548.1348093079869,"[51, 0, 203]",203,a,0.18366621143650264,0,colour,0.5,3.9
57,20,0,1,8,38,388,548.6465344764292,549.3987778192386,"[47, 0, 207]",207,a,0.22815970267402008,1,colour,0.5,3.9
57,20,0,1,8,39,389,549.9129215916619,550.9188060343149,"[48, 0, 206]",206,a,0.48294767999323085,1,colour,0.5,3.9
57,20,0,1,8,40,390,551.4284453980508,552.1027597527718,"[88, 0, 166]",166,l,0.15091127925552428,1,colour,0.5,3.9
57,20,0,1,8,41,391,552.6160512439674,553.3987482808298,"[14, 0, 240]",240,a,0.25949797325301915,1,colour,0.5,3.9
57,20,0,1,8,42,392,553.9035850949585,554.6387469733017,"[69, 0, 185]",185,l,0.21186080877669156,1,colour,0.5,3.9
57,20,0,1,8,43,393,555.1535583134973,555.8067472001421,"[63, 0, 191]",191,a,0.12988230329938233,0,colour,0.5,3.9
57,20,0,1,8,44,394,556.3254394919495,557.0947666623979,"[29, 0, 225]",225,a,0.25546027126256377,1,colour,0.5,3.9
57,20,0,1,8,45,395,557.6129268691875,558.2867682157084,"[7, 0, 247]",247,a,0.15056705847382545,1,colour,0.5,3.9
57,20,0,1,8,46,396,558.8003976261825,559.4947591005475,"[11, 0, 243]",243,a,0.17106828175019473,1,colour,0.5,3.9
57,20,0,1,8,47,397,560.0035438199993,560.830691419018,"[39, 0, 215]",215,a,0.3042726701241918,1,colour,0.5,3.9
57,20,0,1,8,48,398,561.347303419956,562.5827854945092,"[24, 0, 230]",230,a,0.712327909306623,1,colour,0.5,3.9
57,20,0,1,8,49,399,563.0972715184907,563.8548439820879,"[68, 0, 186]",186,l,0.234332833904773,1,colour,0.5,3.9
57,20,0,1,8,50,400,564.3629122969578,565.1347167543136,"[97, 0, 157]",157,a,0.24858097539981827,0,colour,0.5,3.9
57,20,0,1,9,1,401,570.3307532527251,571.7026940593496,"[47, 0, 207]",207,a,0.8479997384711169,1,colour,0.5,3.9
57,20,0,1,9,2,402,572.2223067676532,572.9587084709783,"[23, 0, 231]",231,a,0.21323808579472825,1,colour,0.5,3.9
57,20,0,1,9,3,403,573.4721976725268,574.166728500335,"[7, 0, 247]",247,a,0.17133806576021016,1,colour,0.5,3.9
57,20,0,1,9,4,404,574.6752678541816,575.4627390837413,"[48, 0, 206]",206,a,0.26409966172650456,1,colour,0.5,3.9
57,20,0,1,9,5,405,575.9721543495543,576.6546898310771,"[70, 0, 184]",184,l,0.1591686398605816,1,colour,0.5,3.9
57,20,0,1,9,6,406,577.1753501678468,577.8707762060221,"[91, 0, 163]",163,l,0.1724987278576009,1,colour,0.5,3.9
57,20,0,1,9,7,407,578.3784845462651,579.1667430726229,"[56, 0, 198]",198,a,0.2649330383865163,0,colour,0.5,3.9
57,20,0,1,9,8,408,579.675269823405,580.4707085434347,"[2, 0, 252]",252,a,0.27210653672227636,1,colour,0.5,3.9
57,20,0,1,9,9,409,580.9877746480051,581.8467000489472,"[10, 0, 244]",244,a,0.3356089714798145,1,colour,0.5,3.9
57,20,0,1,9,10,410,582.362735854229,583.1586905115983,"[17, 0, 237]",237,a,0.27277252910425887,1,colour,0.5,3.9
57,20,0,1,9,11,411,583.6755336997448,584.4626737054205,"[54, 0, 200]",200,a,0.26414219703292474,0,colour,0.5,3.9
57,20,0,1,9,12,412,584.9721610448905,585.8306792098447,"[18, 0, 236]",236,a,0.33524860301986337,1,colour,0.5,3.9
57,20,0,1,9,13,413,586.3471549403039,587.1507068735082,"[92, 0, 162]",162,l,0.2803044266765937,1,colour,0.5,3.9
57,20,0,1,9,14,414,587.6596148665412,588.4546715566539,"[42, 0, 212]",212,a,0.27182572503807023,1,colour,0.5,3.9
57,20,0,1,9,15,415,588.9721137834713,589.7746677126852,"[21, 0, 233]",233,a,0.2792304105241783,1,colour,0.5,3.9
57,20,0,1,9,16,416,590.2722396564204,591.0707586405333,"[85, 0, 169]",169,l,0.27525020990287885,1,colour,0.5,3.9
57,20,0,1,9,17,417,591.5847602348076,592.3586717645521,"[89, 0, 165]",165,l,0.25062503246590495,1,colour,0.5,3.9
57,20,0,1,9,18,418,592.8660910223261,593.598695663095,"[3, 0, 251]",251,a,0.2093516203458421,1,colour,0.5,3.9
57,20,0,1,9,19,419,594.1160378532368,594.790653893433,"[1, 0, 253]",253,l,0.15168439754052088,0,colour,0.5,3.9
57,20,0,1,9,20,420,595.3034676503157,596.0706668745843,"[15, 0, 239]",239,l,0.24393202544888481,0,colour,0.5,3.9
57,20,0,1,9,21,421,596.5847369979601,597.4307588453521,"[66, 0, 188]",188,l,0.3228176638367586,1,colour,0.5,3.9
57,20,0,1,9,22,422,597.9441476163338,598.6787868619431,"[46, 0, 208]",208,a,0.21145672351121902,1,colour,0.5,3.9
57,20,0,1,9,23,423,599.1950577928219,599.8787137642503,"[94, 0, 160]",160,l,0.16032300039660186,1,colour,0.5,3.9
57,20,0,1,9,24,424,600.3981835066807,601.2311044840026,"[78, 0, 176]",176,l,0.3096277847071178,1,colour,0.5,3.9
57,20,0,1,9,25,425,601.7418726083706,602.5586624698481,"[4, 0, 250]",250,a,0.293417505978141,1,colour,0.5,3.9
57,20,0,1,9,26,426,603.0700123037095,603.9506633930141,"[25, 0, 229]",229,a,0.3573051214334555,1,colour,0.5,3.9
57,20,0,1,9,27,427,604.4616414369084,605.2626896955771,"[86, 0, 168]",168,l,0.27770622924435884,1,colour,0.5,3.9
57,20,0,1,9,28,428,605.7741230246611,606.5026092251064,"[0, 0, 254]",254,a,0.2040803948766552,1,colour,0.5,3.9
57,20,0,1,9,29,429,607.0115270642564,607.7426311544259,"[88, 0, 166]",166,l,0.20846152998274192,1,colour,0.5,3.9
57,20,0,1,9,30,430,608.2615857471828,609.0306435274542,"[77, 0, 177]",177,l,0.24576773843728006,1,colour,0.5,3.9
57,20,0,1,9,31,431,609.5428409164306,610.1746530616656,"[41, 0, 213]",213,a,0.10861662629758939,1,colour,0.5,3.9
57,20,0,1,9,32,432,610.6836248576292,611.3987541884999,"[64, 0, 190]",190,l,0.19199446408310905,1,colour,0.5,3.9
57,20,0,1,9,33,433,611.9179127931711,612.8546470594592,"[75, 0, 179]",179,l,0.4133575784508139,1,colour,0.5,3.9
57,20,0,1,9,34,434,613.3709857317735,614.0226480739657,"[6, 0, 248]",248,a,0.12834000505972654,1,colour,0.5,3.9
57,20,0,1,9,35,435,614.5428176795249,615.270605986123,"[72, 0, 182]",182,l,0.20439153263578191,1,colour,0.5,3.9
57,20,0,1,9,36,436,615.777212741028,616.5747167858062,"[52, 0, 202]",202,a,0.2741970675997436,0,colour,0.5,3.9
57,20,0,1,9,37,437,617.0897352886968,617.8787464533816,"[12, 0, 242]",242,a,0.26574396586511284,1,colour,0.5,3.9
57,20,0,1,9,38,438,618.3865591626382,619.2145937012974,"[57, 0, 197]",197,a,0.30469329690095037,0,colour,0.5,3.9
57,20,0,1,9,39,439,619.7302900119103,620.4305985503015,"[44, 0, 210]",210,a,0.17690979526378214,1,colour,0.5,3.9
57,20,0,1,9,40,440,620.9491214886657,621.6226020728354,"[84, 0, 170]",170,l,0.15019960078643635,1,colour,0.5,3.9
57,20,0,1,9,41,441,622.1365851564333,622.8146264692186,"[68, 0, 186]",186,l,0.15508091944502667,1,colour,0.5,3.9
57,20,0,1,9,42,442,623.3241157779121,624.1345883607282,"[98, 0, 156]",156,l,0.2874251496978104,1,colour,0.5,3.9
57,20,0,1,9,43,443,624.6521412581205,625.3666195627302,"[95, 0, 159]",159,l,0.19113588135223836,1,colour,0.5,3.9
57,20,0,1,9,44,444,625.8865804302623,626.5345902512199,"[50, 0, 204]",204,a,0.1247166283428669,1,colour,0.5,3.9
57,20,0,1,9,45,445,627.0427660858259,627.7346372763277,"[40, 0, 214]",214,a,0.16914710437413305,1,colour,0.5,3.9
57,20,0,1,9,46,446,628.2459985316964,628.8705532895983,"[20, 0, 234]",234,a,0.10121194075327367,1,colour,0.5,3.9
57,20,0,1,9,47,447,629.3865942148841,630.1025833101012,"[51, 0, 203]",203,a,0.1927494655828923,0,colour,0.5,3.9
57,20,0,1,9,48,448,630.6208904212108,631.2305968173896,"[90, 0, 164]",164,l,0.08668889530235901,1,colour,0.5,3.9
57,20,0,1,9,49,449,631.7459701748448,632.3345715829637,"[31, 0, 223]",223,a,0.06382223719265312,1,colour,0.5,3.9
57,20,0,1,9,50,450,632.8412890083855,633.5185957996873,"[45, 0, 209]",209,a,0.15403526020236313,1,colour,0.5,3.9
57,20,0,1,10,1,451,638.6841360687977,639.7266284321668,"[94, 0, 160]",160,l,0.5248811768833548,1,colour,0.5,3.8
57,20,0,1,10,2,452,640.2409002042841,640.8225837196806,"[34, 0, 220]",220,a,0.0583891412243247,1,colour,0.5,3.8
57,20,0,1,10,3,453,641.3345960013685,642.118655742961,"[3, 0, 251]",251,a,0.2607653674785979,1,colour,0.5,3.8
57,20,0,1,10,4,454,642.6314966751379,643.8385506020277,"[28, 0, 226]",226,a,0.6961329905316234,1,colour,0.5,3.8
57,20,0,1,10,5,455,644.3534627666231,646.0226303509553,"[92, 0, 162]",162,l,1.1458665148238651,1,colour,0.5,3.8
57,20,0,1,10,6,456,646.5409410066786,647.2945541434456,"[27, 0, 227]",227,a,0.2304266762221232,1,colour,0.5,3.8
57,20,0,1,10,7,457,647.8066199881141,648.3906165569206,"[57, 0, 197]",197,a,0.05934342835098505,0,colour,0.5,3.8
57,20,0,1,10,8,458,648.9017363851308,649.5905407023383,"[61, 0, 193]",193,a,0.1657931178342551,0,colour,0.5,3.8
57,20,0,1,10,9,459,650.1055702328449,651.15851131198,"[97, 0, 157]",157,l,0.5297471355297603,1,colour,0.5,3.8
57,20,0,1,10,10,460,651.6680214944645,652.7585870090406,"[93, 0, 161]",161,l,0.5672297866549343,1,colour,0.5,3.8
57,20,0,1,10,11,461,653.2773978483165,654.2145393506507,"[69, 0, 185]",185,a,0.4141960751148872,0,colour,0.5,3.8
57,20,0,1,10,12,462,654.7304845714825,655.6785903331474,"[31, 0, 223]",223,a,0.42477869836147875,1,colour,0.5,3.8
57,20,0,1,10,13,463,656.1992888728855,657.3185306576779,"[1, 0, 253]",253,a,0.5960872257128358,1,colour,0.5,3.8
57,20,0,1,10,14,464,657.8398416268756,658.4065011256025,"[62, 0, 192]",192,a,0.04356007796013728,0,colour,0.5,3.8
57,20,0,1,10,15,465,658.9191057505668,659.5825594273047,"[91, 0, 163]",163,l,0.14010219497140497,1,colour,0.5,3.8
57,20,0,1,10,16,466,660.0910251320456,660.6865404943819,"[75, 0, 179]",179,l,0.07214024988934398,1,colour,0.5,3.8
57,20,0,1,10,17,467,661.2023577154614,661.7666675330838,"[16, 0, 238]",238,a,0.041448279400356114,1,colour,0.5,3.8
57,20,0,1,10,18,468,662.2804473924916,662.8865386826801,"[87, 0, 167]",167,l,0.08284496515989304,1,colour,0.5,3.8
57,20,0,1,10,19,469,663.4055306907394,664.038499165792,"[18, 0, 236]",236,a,0.10977177449967712,1,colour,0.5,3.8
57,20,0,1,10,20,470,664.5461503984407,665.1426287125796,"[49, 0, 205]",205,a,0.07329461048357189,1,colour,0.5,3.8
57,20,0,1,10,21,471,665.6556421489804,666.2144968153443,"[13, 0, 241]",241,a,0.03579896246083081,1,colour,0.5,3.8
57,20,0,1,10,22,472,666.7336014632019,667.2944954605191,"[99, 0, 155]",155,l,0.047132648702245206,1,colour,0.5,3.8
57,20,0,1,10,23,473,667.7907736224006,668.390532274032,"[19, 0, 235]",235,a,0.07750166597543284,1,colour,0.5,3.8
57,20,0,1,10,24,474,668.896050834388,669.4385211424087,"[84, 0, 170]",170,l,0.01919601997360587,1,colour,0.5,3.8
57,20,0,1,10,25,475,669.9585611728253,670.5744958386058,"[12, 0, 242]",242,a,0.09256112872390077,1,colour,0.5,3.8
57,20,0,1,10,26,476,671.0840591901797,671.7184852866922,"[32, 0, 222]",222,a,0.11111754388548434,1,colour,0.5,3.8
57,20,0,1,10,27,477,672.2246111565037,672.8944888439146,"[67, 0, 187]",187,l,0.1465084826340899,1,colour,0.5,3.8
57,20,0,1,10,28,478,673.4121591071598,674.0945433520828,"[74, 0, 180]",180,l,0.15905875695170835,1,colour,0.5,3.8
57,20,0,1,10,29,479,674.6152663102839,675.2785195197212,"[8, 0, 246]",246,a,0.1399159061256796,1,colour,0.5,3.8
57,20,0,1,10,30,480,675.7871195257176,676.4785819048411,"[29, 0, 225]",225,a,0.1680971127934754,1,colour,0.5,3.8
57,20,0,1,10,31,481,676.9909218657995,677.7025136782322,"[89, 0, 165]",165,l,0.1891725625609979,1,colour,0.5,3.8
57,20,0,1,10,32,482,678.2090200025705,678.878585370665,"[86, 0, 168]",168,l,0.1462363355094567,1,colour,0.5,3.8
57,20,0,1,10,33,483,679.3964899718994,680.1984980315319,"[2, 0, 252]",252,a,0.27860183344455436,1,colour,0.5,3.8
57,20,0,1,10,34,484,680.7090066118399,681.3825238237041,"[11, 0, 243]",243,a,0.15022086846875027,1,colour,0.5,3.8
57,20,0,1,10,35,485,681.8964391658665,682.5905324315536,"[44, 0, 210]",210,a,0.17072287941118702,1,colour,0.5,3.8
57,20,0,1,10,36,486,683.0996664917911,683.8385151559487,"[59, 0, 195]",195,a,0.21559406840242445,0,colour,0.5,3.8
57,20,0,1,10,37,487,684.3496664917911,685.1025647993665,"[73, 0, 181]",181,l,0.2296011765138246,1,colour,0.5,3.8
57,20,0,1,10,38,488,685.6152371657663,686.3025299046421,"[35, 0, 219]",219,a,0.16402475239010528,1,colour,0.5,3.8
57,20,0,1,10,39,489,686.8183431873331,687.5025426652282,"[79, 0, 175]",175,l,0.1608724145917222,1,colour,0.5,3.8
57,20,0,1,10,40,490,688.0215090733836,688.6864648760529,"[5, 0, 249]",249,a,0.14171577914385125,1,colour,0.5,3.8
57,20,0,1,10,41,491,689.1933248735149,689.9184850503807,"[60, 0, 194]",194,l,0.20185280579607934,1,colour,0.5,3.8
57,20,0,1,10,42,492,690.4295887309709,691.2064344082028,"[58, 0, 196]",196,l,0.2535698137944564,1,colour,0.5,3.8
57,20,0,1,10,43,493,691.7264980693581,692.3024798862753,"[25, 0, 229]",229,a,0.05261143064126372,1,colour,0.5,3.8
57,20,0,1,10,44,494,692.8203155645751,693.3504435485811,"[36, 0, 218]",218,a,0.007208944414742291,1,colour,0.5,3.8
57,20,0,1,10,45,495,693.8671599184745,694.4464508236852,"[48, 0, 206]",206,a,0.05611310922540724,1,colour,0.5,3.8
57,20,0,1,10,46,496,694.9607852172339,695.5264230811736,"[53, 0, 201]",201,a,0.042238726920913905,0,colour,0.5,3.8
57,20,0,1,10,47,497,696.0389335771906,697.2384603326791,"[0, 0, 254]",254,a,0.6762308059842326,1,colour,0.5,3.8
57,20,0,1,10,48,498,697.7577520570485,699.7504564666888,"[7, 0, 247]",247,a,1.4693946755141951,1,colour,0.5,3.8
57,20,0,1,10,49,499,700.2583270711475,701.2144621569314,"[76, 0, 178]",178,a,0.4328978191479109,0,colour,0.5,3.8
57,20,0,1,10,50,500,701.7270002221339,702.5984609313309,"[71, 0, 183]",183,l,0.3481797258136794,1,colour,0.5,3.8
57,20,0,1,11,1,501,708.1639700078522,709.126435763028,"[93, 0, 161]",161,l,0.438428588793613,1,colour,0.5,3.8
57,20,0,1,11,2,502,709.6335159199662,710.1584939828026,"[13, 0, 241]",241,a,0.0018057806883007288,1,colour,0.5,3.8
57,20,0,1,11,3,503,710.6803976892261,711.7504139313824,"[31, 0, 223]",223,a,0.5466147420811467,1,colour,0.5,3.8
57,20,0,1,11,4,504,712.2584771262482,712.990431528422,"[43, 0, 211]",211,a,0.20754544582450762,1,colour,0.5,3.8
57,20,0,1,11,5,505,713.509589345369,714.1983928748523,"[19, 0, 235]",235,a,0.16553593683056533,1,colour,0.5,3.8
57,20,0,1,11,6,506,714.7126484993496,715.294398180733,"[74, 0, 180]",180,l,0.05673420324455947,1,colour,0.5,3.8
57,20,0,1,11,7,507,715.8082954059937,716.6144093029434,"[83, 0, 171]",171,l,0.282879387261346,1,colour,0.5,3.8
57,20,0,1,11,8,508,717.1207888090867,717.9425190660404,"[71, 0, 183]",183,l,0.31093810801394284,1,colour,0.5,3.8
57,20,0,1,11,9,509,718.4521363744279,719.2144227724057,"[91, 0, 163]",163,l,0.23907591286115348,1,colour,0.5,3.8
57,20,0,1,11,10,510,719.7334352604812,720.4224183834158,"[7, 0, 247]",247,a,0.16581517312442884,1,colour,0.5,3.8
57,20,0,1,11,11,511,720.9364668452763,721.6624407065683,"[90, 0, 164]",164,l,0.20271257014246657,1,colour,0.5,3.8
57,20,0,1,11,12,512,722.1708087376901,722.8863523938344,"[21, 0, 233]",233,a,0.19302791415248066,1,colour,0.5,3.8
57,20,0,1,11,13,513,723.4051462977659,724.0783767902176,"[86, 0, 168]",168,l,0.1498920076410286,1,colour,0.5,3.8
57,20,0,1,11,14,514,724.5927163037704,725.2703822819749,"[2, 0, 252]",252,a,0.1544641577056609,1,colour,0.5,3.8
57,20,0,1,11,15,515,725.7801405870123,726.4546782519901,"[63, 0, 191]",191,l,0.15113301418023184,1,colour,0.5,3.8
57,20,0,1,11,16,516,726.9676373377442,727.7584365601651,"[81, 0, 173]",173,l,0.2674796421197243,1,colour,0.5,3.8
57,20,0,1,11,17,517,728.280398555682,728.9983230066719,"[76, 0, 178]",178,l,0.1948313317843713,1,colour,0.5,3.8
57,20,0,1,11,18,518,729.514543525409,730.2064895465155,"[1, 0, 253]",253,a,0.16868236690061167,1,colour,0.5,3.8
57,20,0,1,11,19,519,730.7176349746878,731.3984182385029,"[79, 0, 175]",175,l,0.15745108050759882,1,colour,0.5,3.8
57,20,0,1,11,20,520,731.9052116760868,732.5983660146012,"[98, 0, 156]",156,l,0.16988871508510783,1,colour,0.5,3.8
57,20,0,1,11,21,521,733.1082944608061,733.7903762325295,"[36, 0, 218]",218,a,0.15881536062806845,1,colour,0.5,3.8
57,20,0,1,11,22,522,734.3114788575913,735.0303709864966,"[18, 0, 236]",236,l,0.19564225926296785,0,colour,0.5,3.8
57,20,0,1,11,23,523,735.5457778208074,736.2063643037109,"[26, 0, 228]",228,l,0.137366151669994,0,colour,0.5,3.8
57,20,0,1,11,24,524,736.7176235531806,737.3583988297614,"[51, 0, 203]",203,l,0.12180099153192714,1,colour,0.5,3.8
57,20,0,1,11,25,525,737.8698018327705,738.5343661532388,"[87, 0, 167]",167,a,0.14144402591045946,0,colour,0.5,3.8
57,20,0,1,11,26,526,739.0415502853575,739.7823662068113,"[52, 0, 202]",202,a,0.2175223350059241,0,colour,0.5,3.8
57,20,0,1,11,27,527,740.2914616701892,740.9183373583946,"[23, 0, 231]",231,l,0.10352735727792606,0,colour,0.5,3.8
57,20,0,1,11,28,528,741.4320368733606,742.1743423176813,"[97, 0, 157]",157,l,0.21898468252038583,1,colour,0.5,3.8
57,20,0,1,11,29,529,742.6820884670597,743.3584137958824,"[64, 0, 190]",190,a,0.15312744671246037,0,colour,0.5,3.8
57,20,0,1,11,30,530,743.8714299892308,744.5823447816074,"[24, 0, 230]",230,a,0.18772242416162044,1,colour,0.5,3.8
57,20,0,1,11,31,531,745.0901996322791,745.7983472675551,"[16, 0, 238]",238,a,0.1851451004622504,1,colour,0.5,3.8
57,20,0,1,11,32,532,746.3090515889926,747.0303749249433,"[15, 0, 239]",239,a,0.19812348467530683,1,colour,0.5,3.8
57,20,0,1,11,33,533,747.5433032907895,748.1583648015512,"[5, 0, 249]",249,a,0.09181282267672941,1,colour,0.5,3.8
57,20,0,1,11,34,534,748.6682388971094,749.2143117080559,"[28, 0, 226]",226,a,0.02270281850360334,1,colour,0.5,3.8
57,20,0,1,11,35,535,749.7309142567101,750.3743542906013,"[29, 0, 225]",225,a,0.12029295787215233,1,colour,0.5,3.8
57,20,0,1,11,36,536,750.8872094012331,751.4783467791858,"[96, 0, 158]",158,l,0.06618333968799561,1,colour,0.5,3.8
57,20,0,1,11,37,537,751.9990118421265,752.53432637488,"[58, 0, 196]",196,a,0.012703874032013118,0,colour,0.5,3.8
57,20,0,1,11,38,538,753.0451661790721,753.590341022762,"[70, 0, 184]",184,a,0.020357863628305495,0,colour,0.5,3.8
57,20,0,1,11,39,539,754.1091774619417,754.7263255651342,"[89, 0, 165]",165,l,0.09386199980508536,1,colour,0.5,3.8
57,20,0,1,11,40,540,755.234130397439,755.8703142254963,"[60, 0, 194]",194,a,0.11293395841494203,0,colour,0.5,3.8
57,20,0,1,11,41,541,756.3903408651822,757.4303090739995,"[67, 0, 187]",187,a,0.5168577603762969,0,colour,0.5,3.8
57,20,0,1,11,42,542,757.9391524763778,758.5582898921566,"[41, 0, 213]",213,a,0.09591078298399225,1,colour,0.5,3.8
57,20,0,1,11,43,543,759.0641463717911,759.8222627357463,"[22, 0, 232]",232,a,0.2348676758701913,1,colour,0.5,3.8
57,20,0,1,11,44,544,760.3297532795114,761.038371559931,"[6, 0, 248]",248,a,0.1853317831410095,1,colour,0.5,3.8
57,20,0,1,11,45,545,761.5485178025556,762.1982955950662,"[45, 0, 209]",209,a,0.1264574245433323,1,colour,0.5,3.8
57,20,0,1,11,46,546,762.7047263011336,763.3823127226206,"[53, 0, 201]",201,a,0.15486706147203222,0,colour,0.5,3.8
57,20,0,1,11,47,547,763.8922037534649,764.5663207917241,"[35, 0, 219]",219,a,0.15084393171127886,1,colour,0.5,3.8
57,20,0,1,11,48,548,765.0797272857162,765.7823067361605,"[11, 0, 243]",243,a,0.17923781485296786,1,colour,0.5,3.8
57,20,0,1,11,49,549,766.2984366704477,766.9262965780799,"[69, 0, 185]",185,l,0.10463209333829582,1,colour,0.5,3.8
57,20,0,1,11,50,550,767.4390729196602,768.0943070449284,"[32, 0, 222]",222,a,0.1319740156759508,1,colour,0.5,3.8
57,20,0,1,12,1,551,772.9695171613712,774.5022941488423,"[57, 0, 197]",197,a,1.0087563625420444,0,colour,0.5,3.8
57,20,0,1,12,2,552,775.0064984474448,775.7742470859084,"[84, 0, 170]",170,l,0.2538841023342684,1,colour,0.5,3.8
57,20,0,1,12,3,553,776.2939720401191,776.9182936415891,"[38, 0, 216]",216,a,0.10098469204967842,1,colour,0.5,3.8
57,20,0,1,12,4,554,777.4346827261033,778.0303056081757,"[60, 0, 194]",194,l,0.07229739415924996,1,colour,0.5,3.8
57,20,0,1,12,5,555,778.5441213074955,779.2623261763365,"[79, 0, 175]",175,a,0.19484590407228097,0,colour,0.5,3.8
57,20,0,1,12,6,556,779.7786242825678,780.5663014932652,"[99, 0, 155]",155,l,0.2644060733728111,1,colour,0.5,3.8
57,20,0,1,12,7,557,781.075467061135,781.7182883640635,"[97, 0, 157]",157,l,0.11963484238367528,1,colour,0.5,3.8
57,20,0,1,12,8,558,782.2317653563805,782.8223312648479,"[31, 0, 223]",223,a,0.06764096120605245,1,colour,0.5,3.8
57,20,0,1,12,9,559,783.342780894367,783.9822521492024,"[17, 0, 237]",237,a,0.11354166176170111,1,colour,0.5,3.8
57,20,0,1,12,10,560,784.5017281931359,785.1342965213698,"[16, 0, 238]",238,a,0.10717357706744224,1,colour,0.5,3.8
57,20,0,1,12,11,561,785.6445376807242,786.3182569352211,"[85, 0, 169]",169,l,0.15045914484653622,1,colour,0.5,3.8
57,20,0,1,12,12,562,786.8319741731975,787.5502893187222,"[25, 0, 229]",229,a,0.1950637005502358,1,colour,0.5,3.8
57,20,0,1,12,13,563,788.0663771115942,788.6862128150533,"[50, 0, 204]",204,a,0.09650824632262811,1,colour,0.5,3.8
57,20,0,1,12,14,564,789.2069948500721,789.8462613053271,"[56, 0, 198]",198,a,0.11586298595648259,0,colour,0.5,3.8
57,20,0,1,12,15,565,790.3631415148848,791.0622622158844,"[32, 0, 222]",222,a,0.1757597669493407,1,colour,0.5,3.8
57,20,0,1,12,16,566,791.5819702347508,792.2222429647227,"[91, 0, 163]",163,l,0.11709335865452886,1,colour,0.5,3.8
57,20,0,1,12,17,567,792.7402361811255,793.3742924568942,"[46, 0, 208]",208,a,0.11116874380968511,1,colour,0.5,3.8
57,20,0,1,12,18,568,793.8807873597252,794.5342645411147,"[6, 0, 248]",248,a,0.13023321941727772,1,colour,0.5,3.8
57,20,0,1,12,19,569,795.0526626305073,795.7822204840486,"[64, 0, 190]",190,l,0.20622645789990202,1,colour,0.5,3.8
57,20,0,1,12,20,570,796.3026252152049,797.0062526879483,"[74, 0, 180]",180,l,0.18028938176576048,1,colour,0.5,3.8
57,20,0,1,12,21,571,797.5233432109235,798.2702058393043,"[89, 0, 165]",165,l,0.22376399533823133,1,colour,0.5,3.8
57,20,0,1,12,22,572,798.7889067956712,799.4862311682664,"[19, 0, 235]",235,a,0.17402566608507186,1,colour,0.5,3.8
57,20,0,1,12,23,573,800.0077107032994,800.6702069420717,"[29, 0, 225]",225,a,0.13929559983080253,1,colour,0.5,3.8
57,20,0,1,12,24,574,801.1794871188467,801.8301865093526,"[14, 0, 240]",240,a,0.1273549979669042,1,colour,0.5,3.8
57,20,0,1,12,25,575,802.35142934334,803.2782288619201,"[23, 0, 231]",231,a,0.4035027813515626,1,colour,0.5,3.8
57,20,0,1,12,26,576,803.7889690232696,804.4862268359866,"[15, 0, 239]",239,a,0.1740682014496997,1,colour,0.5,3.8
57,20,0,1,12,27,577,805.0076098788995,805.6622701715678,"[30, 0, 224]",224,a,0.13179954222869128,1,colour,0.5,3.8
57,20,0,1,12,28,578,806.179503660358,806.8302613399574,"[90, 0, 164]",164,l,0.1273987147724256,1,colour,0.5,3.8
57,20,0,1,12,29,579,807.3513903526473,808.2061472949572,"[24, 0, 230]",230,a,0.33149328810395673,1,colour,0.5,3.8
57,20,0,1,12,30,580,808.7263881865074,809.478297154652,"[21, 0, 233]",233,a,0.22857008944265544,1,colour,0.5,3.8
57,20,0,1,12,31,581,809.9920277834171,810.6622114885831,"[37, 0, 217]",217,a,0.1468428572989069,1,colour,0.5,3.8
57,20,0,1,12,32,582,811.1795052357484,812.0382333202288,"[65, 0, 189]",189,l,0.3354348918655887,1,colour,0.5,3.8
57,20,0,1,12,33,583,812.5545294572366,813.238200788619,"[73, 0, 181]",181,l,0.16043485247064382,1,colour,0.5,3.8
57,20,0,1,12,34,584,813.7576398111414,814.3981689343927,"[34, 0, 220]",220,a,0.11707957409089431,1,colour,0.5,3.8
57,20,0,1,12,35,585,814.9144375022152,815.5741744608385,"[10, 0, 244]",244,a,0.13644219061825424,1,colour,0.5,3.8
57,20,0,1,12,36,586,816.0863171053352,816.8142857930507,"[49, 0, 205]",205,a,0.20466171053703874,1,colour,0.5,3.8
57,20,0,1,12,37,587,817.3091086965287,818.0861733517959,"[61, 0, 193]",193,l,0.25434017524821684,1,colour,0.5,3.8
57,20,0,1,12,38,588,818.6059475366492,819.2382098470698,"[51, 0, 203]",203,a,0.10908884677337483,0,colour,0.5,3.8
57,20,0,1,12,39,589,819.7485215046909,820.3901526071713,"[18, 0, 236]",236,a,0.11907361284829676,1,colour,0.5,3.8
57,20,0,1,12,40,590,820.9047457570559,821.5501770728151,"[36, 0, 218]",218,a,0.12222988909343258,1,colour,0.5,3.8
57,20,0,1,12,41,591,822.0610149077838,822.8062076320639,"[63, 0, 191]",191,l,0.22200508217792958,1,colour,0.5,3.8
57,20,0,1,12,42,592,823.3266222093953,823.8941694353707,"[41, 0, 213]",213,a,0.04420755960745737,1,colour,0.5,3.8
57,20,0,1,12,43,593,824.4047622985672,825.0061534389388,"[93, 0, 161]",161,l,0.0782476089661941,1,colour,0.5,3.8
57,20,0,1,12,44,594,825.5141847323393,826.2062055840506,"[22, 0, 232]",232,a,0.16880170203512534,1,colour,0.5,3.8
57,20,0,1,12,45,595,826.7172163171344,827.4702095414395,"[94, 0, 160]",160,l,0.22964922565734014,1,colour,0.5,3.8
57,20,0,1,12,46,596,827.982840160199,828.6941208348726,"[0, 0, 254]",254,a,0.18796739593381062,1,colour,0.5,3.8
57,20,0,1,12,47,597,829.2015944432933,829.8541516020778,"[55, 0, 199]",199,l,0.12931634759297594,1,colour,0.5,3.8
57,20,0,1,12,48,598,830.373555178463,831.038107289758,"[83, 0, 171]",171,a,0.14161849941592664,0,colour,0.5,3.8
57,20,0,1,12,49,599,831.5453965785564,834.3662079944042,"[67, 0, 187]",187,a,2.297580844606273,0,colour,0.5,3.8
57,20,0,1,12,50,600,834.873483892472,835.558174495527,"[92, 0, 162]",162,l,0.16169121902203187,1,colour,0.5,3.8
57,20,0,1,13,1,601,846.0287617346039,847.1500822348753,"[11, 0, 243]",243,a,0.5971116173313931,1,colour,0.5,3.8
57,20,0,1,13,2,602,847.6702140312409,848.3661300130188,"[6, 0, 248]",248,a,0.17252354009542614,1,colour,0.5,3.8
57,20,0,1,13,3,603,848.8734358433867,849.4701425877283,"[46, 0, 208]",208,a,0.07372941565699875,1,colour,0.5,3.8
57,20,0,1,13,4,604,849.9827814772725,850.5421993423952,"[96, 0, 158]",158,l,0.03602778655476868,1,colour,0.5,3.8
57,20,0,1,13,5,605,851.0608695789124,851.6461299972725,"[73, 0, 181]",181,a,0.061952653457410634,0,colour,0.5,3.8
57,20,0,1,13,6,606,852.1546303604264,852.8780761287198,"[57, 0, 197]",197,l,0.20020810788264498,1,colour,0.5,3.8
57,20,0,1,13,7,607,853.3889679205022,854.0861190011492,"[89, 0, 165]",165,l,0.17405677994247526,1,colour,0.5,3.8
57,20,0,1,13,8,608,854.5920479482738,855.2701073779608,"[76, 0, 178]",178,l,0.1547886862535961,1,colour,0.5,3.8
57,20,0,1,13,9,609,855.7795238252729,856.4381020909641,"[98, 0, 156]",156,l,0.1351688887225464,1,colour,0.5,3.8
57,20,0,1,13,10,610,856.951511341962,857.5101297011133,"[23, 0, 231]",231,a,0.03542874788399786,1,colour,0.5,3.8
57,20,0,1,13,11,611,858.0294946806971,858.6460957327508,"[64, 0, 190]",190,a,0.09319640119792894,0,colour,0.5,3.8
57,20,0,1,13,12,612,859.154603578907,860.2540873265243,"[4, 0, 250]",250,a,0.5755674917018041,1,colour,0.5,3.8
57,20,0,1,13,13,613,860.7640181357856,861.4620809682528,"[9, 0, 245]",245,a,0.17493820562958717,1,colour,0.5,3.8
57,20,0,1,13,14,614,861.9826853790437,862.7900765162194,"[54, 0, 200]",200,a,0.2841286645270884,0,colour,0.5,3.8
57,20,0,1,13,15,615,863.3108581574052,863.966125759529,"[75, 0, 179]",179,l,0.13201615714933723,1,colour,0.5,3.8
57,20,0,1,13,16,616,864.4826731698122,865.2460859653656,"[88, 0, 166]",166,l,0.24008297530235723,1,colour,0.5,3.8
57,20,0,1,13,17,617,865.7639952927129,866.4381186324754,"[0, 0, 254]",254,a,0.15088016545632854,1,colour,0.5,3.8
57,20,0,1,13,18,618,866.9514038221678,867.60606332717,"[1, 0, 253]",253,a,0.13144823221955448,1,colour,0.5,3.8
57,20,0,1,13,19,619,868.1232318314724,868.7823480899096,"[42, 0, 212]",212,a,0.13606016064295545,1,colour,0.5,3.8
57,20,0,1,13,20,620,869.2951362468302,870.0060344976955,"[25, 0, 229]",229,a,0.18762475054245442,1,colour,0.5,3.8
57,20,0,1,13,21,621,870.5139673296944,871.2540727542364,"[7, 0, 247]",247,a,0.21685279795201495,1,colour,0.5,3.8
57,20,0,1,13,22,622,871.7639058898785,872.4300786745152,"[37, 0, 217]",217,a,0.15535267273662612,1,colour,0.5,3.8
57,20,0,1,13,23,623,872.9271023855545,873.6060601763893,"[45, 0, 209]",209,a,0.15556849993299693,1,colour,0.5,3.8
57,20,0,1,13,24,624,874.1147141391994,874.8141117134364,"[58, 0, 196]",196,a,0.17616739688673988,0,colour,0.5,3.8
57,20,0,1,13,25,625,875.3335030806484,876.0381033513113,"[19, 0, 235]",235,l,0.18143389624310657,0,colour,0.5,3.8
57,20,0,1,13,26,626,876.5521191239823,877.2540735419025,"[47, 0, 207]",207,a,0.19107956148218364,1,colour,0.5,3.8
57,20,0,1,13,27,627,877.7741053015925,878.4620490667876,"[50, 0, 204]",204,a,0.16449539753375575,1,colour,0.5,3.8
57,20,0,1,13,28,628,878.9772652799729,879.6380187533214,"[78, 0, 176]",176,l,0.13743428693851456,1,colour,0.5,3.8
57,20,0,1,13,29,629,880.14916063688,880.8860971821123,"[29, 0, 225]",225,a,0.21403837943216786,1,colour,0.5,3.8
57,20,0,1,13,30,630,881.3991527599865,882.0220671521965,"[31, 0, 223]",223,a,0.0997704669716768,1,colour,0.5,3.8
57,20,0,1,13,31,631,882.5415412269067,883.1900362652377,"[69, 0, 185]",185,l,0.12550353119149804,1,colour,0.5,3.8
57,20,0,1,13,32,632,883.6978592144442,884.3820555416169,"[44, 0, 210]",210,a,0.1610260142479092,1,colour,0.5,3.8
57,20,0,1,13,33,633,884.902707213827,885.5500372577226,"[51, 0, 203]",203,a,0.12411483266623691,0,colour,0.5,3.8
57,20,0,1,13,34,634,886.0607545760577,886.7180166107719,"[13, 0, 241]",241,a,0.1339806574396789,1,colour,0.5,3.8
57,20,0,1,13,35,635,887.2327157051186,887.9740967945545,"[62, 0, 192]",192,a,0.21814854902913794,0,colour,0.5,3.8
57,20,0,1,13,36,636,888.4826404806809,889.1580422422267,"[61, 0, 193]",193,a,0.15210423665121198,0,colour,0.5,3.8
57,20,0,1,13,37,637,889.6704235569923,890.2540136774187,"[90, 0, 164]",164,l,0.06034379539778456,1,colour,0.5,3.8
57,20,0,1,13,38,638,890.7640504310839,891.3660232809489,"[52, 0, 202]",202,a,0.07893053669249639,0,colour,0.5,3.8
57,20,0,1,13,39,639,891.8734807417495,892.4140235708328,"[35, 0, 219]",219,a,0.017410325352102518,1,colour,0.5,3.8
57,20,0,1,13,40,640,892.9091375260032,893.4700212833704,"[30, 0, 224]",224,a,0.037636250781361014,1,colour,0.5,3.8
57,20,0,1,13,41,641,893.9871819108375,894.5180672592833,"[82, 0, 172]",172,l,0.0077300017001107335,1,colour,0.5,3.8
57,20,0,1,13,42,642,895.0341357537545,895.6623804482515,"[99, 0, 155]",155,l,0.10503657249500975,1,colour,0.5,3.8
57,20,0,1,13,43,643,896.1746530616656,896.8300218820223,"[81, 0, 173]",173,l,0.13207720313221216,1,colour,0.5,3.8
57,20,0,1,13,44,644,897.3465196678299,897.9020183783723,"[32, 0, 222]",222,a,0.03176598658319563,1,colour,0.5,3.8
57,20,0,1,13,45,645,898.4094624483841,899.4620132268756,"[38, 0, 216]",216,a,0.5292501028161496,1,colour,0.5,3.8
57,20,0,1,13,46,646,899.9719523068634,900.6460551666678,"[5, 0, 249]",249,a,0.1508112425217405,1,colour,0.5,3.8
57,20,0,1,13,47,647,901.1594742637826,901.701994590112,"[95, 0, 159]",159,l,0.019240918336436152,1,colour,0.5,3.8
57,20,0,1,13,48,648,902.221934977686,903.1100525861839,"[70, 0, 184]",184,l,0.3653738300781697,1,colour,0.5,3.8
57,20,0,1,13,49,649,903.6284199556685,904.4380067804013,"[67, 0, 187]",187,a,0.28644329332746565,0,colour,0.5,3.8
57,20,0,1,13,50,650,904.956323737686,905.6859918678529,"[20, 0, 234]",234,a,0.20655216794693843,1,colour,0.5,3.8
57,20,0,1,14,1,651,910.9868246931583,912.0139563020784,"[94, 0, 160]",160,l,0.5029038214124739,1,colour,0.5,3.8
57,20,0,1,14,2,652,912.5345717404853,913.0939616425894,"[22, 0, 232]",232,a,0.0361364878481254,1,colour,0.5,3.8
57,20,0,1,14,3,653,913.6002103921492,914.4780218568048,"[3, 0, 251]",251,a,0.35448991518933326,1,colour,0.5,3.8
57,20,0,1,14,4,654,914.9907954414375,916.1499542351812,"[7, 0, 247]",247,a,0.636010536167305,1,colour,0.5,3.8
57,20,0,1,14,5,655,916.6626644107164,917.2059673076728,"[88, 0, 166]",166,l,0.0199403875740245,1,colour,0.5,3.8
57,20,0,1,14,6,656,917.7251637214795,918.4539531827904,"[67, 0, 187]",187,l,0.20558015775168315,1,colour,0.5,3.8
57,20,0,1,14,7,657,918.9751979860011,919.8539405009942,"[19, 0, 235]",235,a,0.35545877466211095,1,colour,0.5,3.8
57,20,0,1,14,8,658,920.3534277143772,921.0059565163101,"[70, 0, 184]",184,a,0.12929232302121818,0,colour,0.5,3.8
57,20,0,1,14,9,659,921.5271851718426,922.237982992141,"[11, 0, 243]",243,a,0.18746681849006563,1,colour,0.5,3.8
57,20,0,1,14,10,660,922.7459772640723,923.5179766748915,"[45, 0, 209]",209,a,0.24875584268011153,1,colour,0.5,3.8
57,20,0,1,14,11,661,924.0271993502975,924.7420655925525,"[5, 0, 249]",249,a,0.19157935114344582,1,colour,0.5,3.8
57,20,0,1,14,12,662,925.2616940546432,925.9579688294907,"[6, 0, 248]",248,a,0.1731001296429895,1,colour,0.5,3.8
57,20,0,1,14,13,663,926.4646606550086,927.1259497579304,"[99, 0, 155]",155,l,0.1379604642279446,1,colour,0.5,3.8
57,20,0,1,14,14,664,927.6365418334608,928.422028476547,"[85, 0, 169]",169,l,0.26218911819159985,1,colour,0.5,3.8
57,20,0,1,14,15,665,928.9333775227424,929.5899251220981,"[98, 0, 156]",156,l,0.1332646466908045,1,colour,0.5,3.8
57,20,0,1,14,16,666,930.1052779995953,930.7819881152827,"[78, 0, 176]",176,l,0.15377807919867337,1,colour,0.5,3.8
57,20,0,1,14,17,667,931.2927782949992,931.9179801407154,"[10, 0, 244]",244,a,0.10202601901255548,1,colour,0.5,3.8
57,20,0,1,14,18,668,932.4334365995601,933.0939521903056,"[54, 0, 200]",200,a,0.13717041054042056,0,colour,0.5,3.8
57,20,0,1,14,19,669,933.6052972980542,934.2540085574728,"[30, 0, 224]",224,a,0.1255507926689461,1,colour,0.5,3.8
57,20,0,1,14,20,670,934.7615396672627,935.3739954975317,"[50, 0, 204]",204,a,0.08913861308246851,1,colour,0.5,3.8
57,20,0,1,14,21,671,935.8864504613448,936.4859448427451,"[96, 0, 158]",158,l,0.07637999457074329,1,colour,0.5,3.8
57,20,0,1,14,22,672,936.9958276028628,937.6699596071849,"[97, 0, 157]",157,l,0.1508612608886324,1,colour,0.5,3.8
57,20,0,1,14,23,673,938.1833621627884,938.8539054487483,"[64, 0, 190]",190,a,0.14730838243849576,0,colour,0.5,3.8
57,20,0,1,14,24,674,939.37088136276,939.9979390075314,"[83, 0, 171]",171,l,0.10382589203072712,1,colour,0.5,3.8
57,20,0,1,14,25,675,940.5115160365822,941.2059759722906,"[51, 0, 203]",203,a,0.1711608354235068,0,colour,0.5,3.8
57,20,0,1,14,26,676,941.7145704643917,942.3658846474136,"[61, 0, 193]",193,a,0.1283455188968219,0,colour,0.5,3.8
57,20,0,1,14,27,677,942.8870250816108,943.4779222139623,"[31, 0, 223]",223,a,0.06759763817535713,1,colour,0.5,3.8
57,20,0,1,14,28,678,943.9963514170959,944.6298933309154,"[82, 0, 172]",172,l,0.11008842615410686,1,colour,0.5,3.8
57,20,0,1,14,29,679,945.1371058198856,945.7819526692037,"[16, 0, 238]",238,a,0.12194513890426606,1,colour,0.5,3.8
57,20,0,1,14,30,680,946.2933730013901,946.9259184866096,"[47, 0, 207]",207,a,0.10935272311326116,1,colour,0.5,3.8
57,20,0,1,14,31,681,947.4339663214632,948.1418874957017,"[71, 0, 183]",183,l,0.1846193170058541,1,colour,0.5,3.8
57,20,0,1,14,32,682,948.6526615277398,949.277898031869,"[92, 0, 162]",162,l,0.10229816613718867,1,colour,0.5,3.8
57,20,0,1,14,33,683,949.7933848167886,950.5178967242828,"[73, 0, 181]",181,l,0.20137625304050744,1,colour,0.5,3.8
57,20,0,1,14,34,684,951.0276384878089,951.6539671249338,"[91, 0, 163]",163,l,0.10290665709180757,1,colour,0.5,3.8
57,20,0,1,14,35,685,952.1682692231843,952.7498605787405,"[25, 0, 229]",229,a,0.05831076600588858,1,colour,0.5,3.8
57,20,0,1,14,36,686,953.2590308727231,953.8139399968786,"[48, 0, 206]",206,a,0.0315863931318745,1,colour,0.5,3.8
57,20,0,1,14,37,687,954.324070091825,954.9499343853677,"[27, 0, 227]",227,a,0.10260418389225379,1,colour,0.5,3.8
57,20,0,1,14,38,688,955.4522663434036,956.2618685280904,"[20, 0, 234]",234,a,0.286323958192952,1,colour,0.5,3.8
57,20,0,1,14,39,689,956.7804060387425,957.3898879431072,"[40, 0, 214]",214,a,0.08631986222462729,1,colour,0.5,3.8
57,20,0,1,14,40,690,957.907235253253,958.6859528771602,"[56, 0, 198]",198,a,0.2555181665229611,0,colour,0.5,3.8
57,20,0,1,14,41,691,959.2041536500328,959.8858608748997,"[33, 0, 221]",221,a,0.15842151531251147,1,colour,0.5,3.8
57,20,0,1,14,42,692,960.407306933077,961.1098911096342,"[65, 0, 189]",189,l,0.17950799269601703,1,colour,0.5,3.8
57,20,0,1,14,43,693,961.6277598708984,962.2298713543569,"[46, 0, 208]",208,a,0.07864342350512743,1,colour,0.5,3.8
57,20,0,1,14,44,694,962.73716891394,963.414029872336,"[55, 0, 199]",199,a,0.15314910822780803,0,colour,0.5,3.8
57,20,0,1,14,45,695,963.9246436093817,964.549880901177,"[38, 0, 216]",216,a,0.10186690551927313,1,colour,0.5,3.8
57,20,0,1,14,46,696,965.0652916739346,965.669843028998,"[24, 0, 230]",230,a,0.08131133153801784,1,colour,0.5,3.8
57,20,0,1,14,47,697,966.1903521291679,966.8538262858638,"[86, 0, 168]",168,l,0.14060001546749845,1,colour,0.5,3.8
57,20,0,1,14,48,698,967.3622348830104,967.96583667706,"[0, 0, 254]",254,a,0.08026842918479815,1,colour,0.5,3.8
57,20,0,1,14,49,699,968.4872232645866,969.0778817266691,"[12, 0, 242]",242,a,0.06752517068525776,1,colour,0.5,3.8
57,20,0,1,14,50,700,969.5964968248154,970.261885857326,"[42, 0, 212]",212,a,0.14201510162092745,1,colour,0.5,3.8
57,20,0,1,15,1,701,979.1582368017989,980.0218611710588,"[45, 0, 209]",209,a,0.33948047074954957,1,colour,0.5,3.7
57,20,0,1,15,2,702,980.5340719507658,981.1018566655111,"[27, 0, 227]",227,a,0.04449939902406186,1,colour,0.5,3.7
57,20,0,1,15,3,703,981.6029917276464,982.1818131692125,"[50, 0, 204]",204,a,0.055660974816419184,1,colour,0.5,3.7
57,20,0,1,15,4,704,982.6969194995472,983.3098215565551,"[54, 0, 200]",200,a,0.08980775624513626,0,colour,0.5,3.7
57,20,0,1,15,5,705,983.824130744033,984.3978534642956,"[61, 0, 193]",193,a,0.0504433122696355,0,colour,0.5,3.7
57,20,0,1,15,6,706,984.9178249656688,985.5098083233461,"[25, 0, 229]",229,a,0.06868780200602487,1,colour,0.5,3.7
57,20,0,1,15,7,707,986.0271583903814,986.6618523016805,"[5, 0, 249]",249,a,0.1113696048851125,1,colour,0.5,3.7
57,20,0,1,15,8,708,987.1834838609793,987.8938575098873,"[55, 0, 199]",199,a,0.18720372987445444,0,colour,0.5,3.7
57,20,0,1,15,9,709,988.4021782795899,989.0538303818321,"[98, 0, 156]",156,l,0.12839317420730367,1,colour,0.5,3.7
57,20,0,1,15,10,710,989.5741362578701,990.1657777578221,"[75, 0, 179]",179,l,0.0685649222577922,1,colour,0.5,3.7
57,20,0,1,15,11,711,990.6848768917844,991.3338150061318,"[1, 0, 253]",253,a,0.1258048228919506,1,colour,0.5,3.7
57,20,0,1,15,12,712,991.8411192610511,992.4858893105411,"[43, 0, 211]",211,a,0.12145716458326206,1,colour,0.5,3.7
57,20,0,1,15,13,713,992.9973525718669,994.677820759418,"[29, 0, 225]",225,a,1.1572013825643808,1,colour,0.5,3.7
57,20,0,1,15,14,714,995.1848123011878,997.7018327196711,"[18, 0, 236]",236,a,1.993671299831476,1,colour,0.5,3.7
57,20,0,1,15,15,715,998.2160489597009,998.9017741942662,"[92, 0, 162]",162,l,0.1624426757916808,1,colour,0.5,3.7
57,20,0,1,15,16,716,999.4198954104213,999.9577892360394,"[77, 0, 177]",177,l,0.01532885298365727,1,colour,0.5,3.7
57,20,0,1,15,17,717,1000.4661458455957,1001.9097905215458,"[32, 0, 222]",222,a,0.9204723938019015,1,colour,0.5,3.7
57,20,0,1,15,18,718,1002.4191455289838,1003.1817792985239,"[67, 0, 187]",187,l,0.239308281627018,1,colour,0.5,3.7
57,20,0,1,15,19,719,1003.7003908520564,1004.2377718910575,"[37, 0, 217]",217,a,0.014139833976514637,1,colour,0.5,3.7
57,20,0,1,15,20,720,1004.7472883751034,1005.4297655674745,"[86, 0, 168]",168,l,0.1592560734716244,1,colour,0.5,3.7
57,20,0,1,15,21,721,1005.9366996078752,1006.5497891352279,"[57, 0, 197]",197,a,0.08990385453216732,0,colour,0.5,3.7
57,20,0,1,15,22,722,1007.0616584510426,1007.6778022486833,"[33, 0, 221]",221,a,0.09286005730973557,1,colour,0.5,3.7
57,20,0,1,15,23,723,1008.1866964570945,1008.8138072710135,"[34, 0, 220]",220,a,0.10397712863050401,1,colour,0.5,3.7
57,20,0,1,15,24,724,1009.3272177034523,1010.2137520538527,"[46, 0, 208]",208,a,0.36319901631213725,1,colour,0.5,3.7
57,20,0,1,15,25,725,1010.7335321464343,1011.4217539663659,"[22, 0, 232]",232,a,0.16495698416838422,1,colour,0.5,3.7
57,20,0,1,15,26,726,1011.9365913004149,1012.6217564870021,"[82, 0, 172]",172,l,0.16185033245710656,1,colour,0.5,3.7
57,20,0,1,15,27,727,1013.1397556110751,1013.8217621583608,"[20, 0, 234]",234,a,0.15910759381949902,1,colour,0.5,3.7
57,20,0,1,15,28,728,1014.3428994418355,1015.0377465274651,"[36, 0, 218]",218,a,0.17157949297688901,1,colour,0.5,3.7
57,20,0,1,15,29,729,1015.5459349650773,1016.2298008560319,"[7, 0, 247]",247,a,0.16051834769314155,1,colour,0.5,3.7
57,20,0,1,15,30,730,1016.7490961250151,1017.4217724771006,"[35, 0, 219]",219,a,0.14944381162058562,1,colour,0.5,3.7
57,20,0,1,15,31,731,1017.9366421064478,1018.5657883128733,"[51, 0, 203]",203,a,0.10588649066630751,0,colour,0.5,3.7
57,20,0,1,15,32,732,1019.0750038990518,1019.7257603970938,"[28, 0, 226]",226,a,0.12753104680450633,1,colour,0.5,3.7
57,20,0,1,15,33,733,1020.2468114283984,1020.9417447661399,"[69, 0, 185]",185,l,0.17163541895570233,1,colour,0.5,3.7
57,20,0,1,15,34,734,1021.449950926879,1022.1497840939555,"[63, 0, 191]",191,l,0.17652973451185971,1,colour,0.5,3.7
57,20,0,1,15,35,735,1022.6686217146926,1023.4057740871795,"[52, 0, 202]",202,a,0.2137867123237811,0,colour,0.5,3.7
57,20,0,1,15,36,736,1023.9185488533112,1024.6377659046557,"[66, 0, 188]",188,a,0.1958041297039017,0,colour,0.5,3.7
57,20,0,1,15,37,737,1025.1420284922933,1025.8777051264187,"[64, 0, 190]",190,a,0.21242676448309794,0,colour,0.5,3.7
57,20,0,1,15,38,738,1026.392061575316,1027.125744170684,"[76, 0, 178]",178,l,0.2103901904192753,1,colour,0.5,3.7
57,20,0,1,15,39,739,1027.642001316999,1028.32576717122,"[12, 0, 242]",242,a,0.16081058088457212,1,colour,0.5,3.7
57,20,0,1,15,40,740,1028.8451928030117,1029.493693749013,"[96, 0, 158]",158,l,0.12522587028797716,1,colour,0.5,3.7
57,20,0,1,15,41,741,1030.0014119353727,1030.9337288327515,"[38, 0, 216]",216,a,0.4093399625271559,1,colour,0.5,3.7
57,20,0,1,15,42,742,1031.4545069292653,1032.0697492150357,"[48, 0, 206]",206,a,0.09193767159013078,1,colour,0.5,3.7
57,20,0,1,15,43,743,1032.579766276409,1033.229786283744,"[10, 0, 244]",244,a,0.1270997861865908,1,colour,0.5,3.7
57,20,0,1,15,44,744,1033.7513741262374,1034.34975235007,"[97, 0, 157]",157,l,0.0750684897066094,1,colour,0.5,3.7
57,20,0,1,15,45,745,1034.8607414216385,1035.405711465748,"[58, 0, 196]",196,a,0.021712691406719387,0,colour,0.5,3.7
57,20,0,1,15,46,746,1035.9232198586105,1036.5576951857656,"[73, 0, 181]",181,a,0.11176345020066947,0,colour,0.5,3.7
57,20,0,1,15,47,747,1037.0514389531454,1037.7177511590417,"[26, 0, 228]",228,a,0.14302885939832777,1,colour,0.5,3.7
57,20,0,1,15,48,748,1038.2389538208372,1038.9177564365673,"[71, 0, 183]",183,l,0.1556386043666862,1,colour,0.5,3.7
57,20,0,1,15,49,749,1039.4263410826097,1040.0297530432,"[85, 0, 169]",169,l,0.08000494667794555,1,colour,0.5,3.7
57,20,0,1,15,50,750,1040.5357741501648,1041.253690330428,"[0, 0, 254]",254,a,0.19462810759432614,1,colour,0.5,3.7
57,20,0,1,16,1,751,1045.410030373314,1046.2536820597015,"[63, 0, 191]",191,l,0.3195664708619006,1,colour,0.5,3.7
57,20,0,1,16,2,752,1046.7701664547785,1047.3016984972055,"[3, 0, 251]",251,a,0.008298714295960963,1,colour,0.5,3.7
57,20,0,1,16,3,753,1047.817017504014,1048.4377121841535,"[33, 0, 221]",221,a,0.09773310524178669,1,colour,0.5,3.7
57,20,0,1,16,4,754,1048.9576521778363,1049.5576747058076,"[91, 0, 163]",163,l,0.07661669555818662,1,colour,0.5,3.7
57,20,0,1,16,5,755,1050.0684278640547,1050.7497550282278,"[26, 0, 228]",228,a,0.1580658730235882,1,colour,0.5,3.7
57,20,0,1,16,6,756,1051.2559895993327,1051.8776818895712,"[50, 0, 204]",204,a,0.09858026646543294,1,colour,0.5,3.7
57,20,0,1,16,7,757,1052.3964946980122,1053.0536740252282,"[34, 0, 220]",220,a,0.1337817655876279,1,colour,0.5,3.7
57,20,0,1,16,8,758,1053.5684412547853,1054.2296425302047,"[83, 0, 171]",171,l,0.1379163535311818,1,colour,0.5,3.7
57,20,0,1,16,9,759,1054.740274384094,1055.389678417414,"[98, 0, 156]",156,l,0.12607775768265128,1,colour,0.5,3.7
57,20,0,1,16,10,760,1055.8964872149518,1056.5176919247024,"[77, 0, 177]",177,l,0.09778745583025739,1,colour,0.5,3.7
57,20,0,1,16,11,761,1057.0391450721072,1057.6296546606463,"[11, 0, 243]",243,a,0.06728019885485992,1,colour,0.5,3.7
57,20,0,1,16,12,762,1058.1484828290995,1058.8136280713952,"[6, 0, 248]",248,a,0.14193712023552507,1,colour,0.5,3.7
57,20,0,1,16,13,763,1059.3203777921153,1059.9656787450658,"[35, 0, 219]",219,a,0.12196207424858585,1,colour,0.5,3.7
57,20,0,1,16,14,764,1060.4766563951853,1061.1416866346262,"[19, 0, 235]",235,a,0.14180045592365786,1,colour,0.5,3.7
57,20,0,1,16,15,765,1061.6485281212954,1062.3336157203885,"[23, 0, 231]",231,a,0.16178180341375992,1,colour,0.5,3.7
57,20,0,1,16,16,766,1062.8517231519218,1063.5177076785476,"[45, 0, 209]",209,a,0.14280357991810888,1,colour,0.5,3.7
57,20,0,1,16,17,767,1064.0391553120571,1064.6456376906717,"[47, 0, 207]",207,a,0.08337862556800246,1,colour,0.5,3.7
57,20,0,1,16,18,768,1065.1642157673487,1065.8056105626165,"[88, 0, 166]",166,l,0.11825520230922848,1,colour,0.5,3.7
57,20,0,1,16,19,769,1066.320350616821,1067.2616912977537,"[55, 0, 199]",199,a,0.4181171989184804,0,colour,0.5,3.7
57,20,0,1,16,20,770,1067.7735141398152,1068.8536592954188,"[10, 0, 244]",244,l,0.5571146578295156,0,colour,0.5,3.7
57,20,0,1,16,21,771,1069.3679865997983,1070.021683546831,"[27, 0, 227]",227,a,0.13043053587898612,1,colour,0.5,3.7
57,20,0,1,16,22,772,1070.5398890458746,1072.3816782378126,"[85, 0, 169]",169,l,1.3187543618259951,1,colour,0.5,3.7
57,20,0,1,16,23,773,1072.8992740643444,1076.7576043650624,"[53, 0, 201]",201,a,3.335097366478294,0,colour,0.5,3.7
57,20,0,1,16,24,774,1077.2742943473277,1078.4296166939894,"[13, 0, 241]",241,a,0.6320803539128974,1,colour,0.5,3.7
57,20,0,1,16,25,775,1078.945967181644,1079.6456097276532,"[67, 0, 187]",187,l,0.1767309894785285,1,colour,0.5,3.7
57,20,0,1,16,26,776,1080.164826621418,1080.925666819443,"[4, 0, 250]",250,a,0.23762498679570854,1,colour,0.5,3.7
57,20,0,1,16,27,777,1081.446013261564,1082.5096480282955,"[52, 0, 202]",202,a,0.540236811270006,0,colour,0.5,3.7
57,20,0,1,16,28,778,1083.026211586257,1083.725856889214,"[57, 0, 197]",197,a,0.1763749533565715,0,colour,0.5,3.7
57,20,0,1,16,29,779,1084.2488527286332,1085.1016034229542,"[44, 0, 210]",210,a,0.3294362340820953,1,colour,0.5,3.7
57,20,0,1,16,30,780,1085.6082464116625,1086.3576056253514,"[80, 0, 174]",174,l,0.22603687649825588,1,colour,0.5,3.7
57,20,0,1,16,31,781,1086.8738982177456,1087.5496347478474,"[8, 0, 246]",246,a,0.15251304808771238,1,colour,0.5,3.7
57,20,0,1,16,32,782,1088.0614146607695,1088.6935970206396,"[15, 0, 239]",239,a,0.10889271181076765,1,colour,0.5,3.7
57,20,0,1,16,33,783,1089.2019902578322,1090.2535650876234,"[5, 0, 249]",249,a,0.5283312617102638,1,colour,0.5,3.7
57,20,0,1,16,34,784,1090.764472239418,1091.4775862639071,"[7, 0, 247]",247,a,0.18977908429224044,1,colour,0.5,3.7
57,20,0,1,16,35,785,1091.9989051100565,1092.6696004202822,"[94, 0, 160]",160,l,0.1473824253771454,1,colour,0.5,3.7
57,20,0,1,16,36,786,1093.1862852826016,1093.8536029755487,"[24, 0, 230]",230,a,0.14410720783052966,1,colour,0.5,3.7
57,20,0,1,16,37,787,1094.3739186977036,1095.1095846979879,"[66, 0, 188]",188,l,0.21251222892897204,1,colour,0.5,3.7
57,20,0,1,16,38,788,1095.6238060579635,1096.277578229492,"[65, 0, 189]",189,l,0.1304919758113101,1,colour,0.5,3.7
57,20,0,1,16,39,789,1096.795714017877,1097.445611933188,"[75, 0, 179]",179,l,0.1267465070122853,1,colour,0.5,3.7
57,20,0,1,16,40,790,1097.9519914393313,1098.6296239407384,"[95, 0, 159]",159,l,0.1549690673709847,1,colour,0.5,3.7
57,20,0,1,16,41,791,1099.1394023318426,1099.8136044406565,"[79, 0, 175]",175,l,0.15126219543162733,1,colour,0.5,3.7
57,20,0,1,16,42,792,1100.3269368917681,1101.0295789635857,"[49, 0, 205]",205,a,0.17935439303983003,1,colour,0.5,3.7
57,20,0,1,16,43,793,1101.545683297969,1102.2295905426727,"[70, 0, 184]",184,l,0.1605947536882013,1,colour,0.5,3.7
57,20,0,1,16,44,794,1102.748836187122,1103.5095452346723,"[76, 0, 178]",178,l,0.2373906488646753,1,colour,0.5,3.7
57,20,0,1,16,45,795,1104.0300807225285,1104.8296008614125,"[20, 0, 234]",234,a,0.2762954753707163,1,colour,0.5,3.7
57,20,0,1,16,46,796,1105.342546162603,1106.1176022067666,"[2, 0, 252]",252,a,0.2517849068972282,1,colour,0.5,3.7
57,20,0,1,16,47,797,1106.6238076333539,1107.4055566845345,"[64, 0, 190]",190,a,0.25896470673615113,0,colour,0.5,3.7
57,20,0,1,16,48,798,1107.9207094886806,1108.6135609601624,"[89, 0, 165]",165,l,0.1696236571879126,1,colour,0.5,3.7
57,20,0,1,16,49,799,1109.1237599780434,1110.4695912043098,"[60, 0, 194]",194,a,0.8226459472789429,0,colour,0.5,3.7
57,20,0,1,16,50,800,1110.9831174273277,1111.853512391157,"[43, 0, 211]",211,a,0.34707892820006236,1,colour,0.5,3.7
