id,age,condition,counterbalance,block,trialinblock,trial,tstart,tend,trialstim,trialintensity,response,RT,accuracy,trialtype,colourfreq,credits
51,18,0,2,Practice,1,NA,5.120004061609507e-06,0.6411302122141933,"[18, 0, 236]",236,a,0.08655358296527993,1,colour,0.5,4
51,18,0,2,Practice,2,NA,1.157305667482433,2.6891065719973994,"[38, 0, 216]",216,a,1.0097591119265417,1,colour,0.5,4
51,18,0,2,Practice,3,NA,3.20420091979031,4.257099567839759,"[67, 0, 187]",187,l,0.5307347631896846,1,colour,0.5,4
51,18,0,2,Practice,4,NA,4.766804525919724,5.3931359718117164,"[50, 0, 204]",204,a,0.10403916719951667,1,colour,0.5,4
51,18,0,2,Practice,5,NA,5.907912879672949,6.601101666252362,"[24, 0, 230]",230,a,0.1712797201180365,1,colour,0.5,4
51,18,0,2,Practice,6,NA,7.1107254920498235,11.785157753081876,"[54, 0, 200]",200,a,4.152225446945522,0,colour,0.5,4
51,18,0,2,Practice,7,NA,12.298651116580004,13.001107495161705,"[78, 0, 176]",176,l,0.18048429675400257,1,colour,0.5,4
51,18,0,2,Practice,8,NA,13.517528710392071,14.169126169770607,"[43, 0, 211]",211,a,0.1294532668107422,1,colour,0.5,4
51,18,0,2,Practice,9,NA,14.689465759613086,15.80110576224979,"[21, 0, 233]",233,a,0.5896655577380443,1,colour,0.5,4
51,18,0,2,Practice,10,NA,16.31455659036874,16.91313370325952,"[98, 0, 156]",156,l,0.07661251413810533,1,colour,0.5,4
51,18,0,2,1,1,1,5.732143314293353,6.639973092445871,"[90, 0, 164]",164,l,0.38478722269064747,1,colour,0.5,4.0
51,18,0,2,1,2,2,7.154972523334436,8.103963548754109,"[63, 0, 191]",191,a,0.4268212328606751,0,colour,0.5,4.0
51,18,0,2,1,3,3,8.623796652551391,9.615996137159527,"[20, 0, 234]",234,a,0.4700619874347467,1,colour,0.5,4.0
51,18,0,2,1,4,4,10.123889403301291,11.12798579633818,"[71, 0, 183]",183,l,0.4820069450797746,1,colour,0.5,4.0
51,18,0,2,1,5,5,11.639745055566891,12.551996543610585,"[31, 0, 223]",223,a,0.3900033201207407,1,colour,0.5,4.0
51,18,0,2,1,6,6,13.061638880171813,14.031965729096555,"[13, 0, 241]",241,a,0.4480755302356556,1,colour,0.5,4.0
51,18,0,2,1,7,7,14.546147141678375,15.495950277720112,"[78, 0, 176]",176,l,0.427514008115395,1,colour,0.5,4.0
51,18,0,2,1,8,8,16.015032710885862,16.91201872502279,"[15, 0, 239]",239,a,0.37544519375660457,1,colour,0.5,4.0
51,18,0,2,1,9,9,17.42134086471924,18.271983404905768,"[89, 0, 165]",165,l,0.3283412030286854,1,colour,0.5,4.0
51,18,0,2,1,10,10,18.78088334162021,19.567999297374627,"[33, 0, 221]",221,a,0.2649394678155659,1,colour,0.5,4.0
51,18,0,2,1,11,11,20.077794446217013,21.015992907618056,"[3, 0, 251]",251,a,0.4161814811232034,1,colour,0.5,4.0
51,18,0,2,1,12,12,21.53103920619469,22.54404360978515,"[57, 0, 197]",197,a,0.49077868489257526,0,colour,0.5,4.0
51,18,0,2,1,13,13,23.062361193879042,23.968009458607412,"[53, 0, 201]",201,a,0.3832512229855638,0,colour,0.5,4.0
51,18,0,2,1,14,14,24.48436450769077,25.431986524170497,"[40, 0, 214]",214,a,0.42529547317826655,1,colour,0.5,4.0
51,18,0,2,1,15,15,25.93773490456806,26.83993977306818,"[25, 0, 229]",229,a,0.380056343623437,1,colour,0.5,4.0
51,18,0,2,1,16,16,27.359744126079022,28.15192573008244,"[26, 0, 228]",228,a,0.27000038990809117,1,colour,0.5,4.0
51,18,0,2,1,17,17,28.672325184525107,29.9279966664908,"[58, 0, 196]",196,l,0.7334686063404661,1,colour,0.5,4.0
51,18,0,2,1,18,18,30.437984406060423,31.37600130442297,"[69, 0, 185]",185,l,0.4156832658336498,1,colour,0.5,4.0
51,18,0,2,1,19,19,31.89121892604453,32.81599826393358,"[43, 0, 211]",211,a,0.40262923763657454,1,colour,0.5,4.0
51,18,0,2,1,20,20,33.32886383678124,34.39997156431491,"[59, 0, 195]",195,l,0.5488280519202817,1,colour,0.5,4.0
51,18,0,2,1,21,21,34.90701609215466,35.62399160634959,"[42, 0, 212]",212,a,0.19467850934597664,1,colour,0.5,4.0
51,18,0,2,1,22,22,36.14165264903568,37.05598679513787,"[67, 0, 187]",187,l,0.3923155904485611,1,colour,0.5,4.0
51,18,0,2,1,23,23,37.56360515671258,38.51197548072378,"[83, 0, 171]",171,l,0.42607804533327,1,colour,0.5,4.0
51,18,0,2,1,24,24,39.01677784285857,40.807994917806354,"[56, 0, 198]",198,a,1.2696608945843764,0,colour,0.5,4.0
51,18,0,2,1,25,25,41.31385869512451,42.69594846603286,"[49, 0, 205]",205,a,0.8598211229837034,1,colour,0.5,4.0
51,18,0,2,1,26,26,43.204662507385365,44.215985582079156,"[10, 0, 244]",244,a,0.48924229133990593,1,colour,0.5,4.0
51,18,0,2,1,27,27,44.736034907371504,45.61596226639813,"[34, 0, 220]",220,a,0.3577276341675315,1,colour,0.5,4.0
51,18,0,2,1,28,28,46.126736122736474,47.08798757652403,"[48, 0, 206]",206,a,0.4389922581758583,1,colour,0.5,4.0
51,18,0,2,1,29,29,47.595684707310284,48.58397802653781,"[68, 0, 186]",186,l,0.466052240532008,1,colour,0.5,4.0
51,18,0,2,1,30,30,49.09578769806831,49.91201675578486,"[19, 0, 235]",235,a,0.29388439751346596,1,colour,0.5,4.0
51,18,0,2,1,31,31,50.423942218054435,51.43194792725262,"[64, 0, 190]",190,l,0.4858016520302044,1,colour,0.5,4.0
51,18,0,2,1,32,32,51.93970964879554,52.887949215917615,"[94, 0, 160]",160,l,0.42590120843669865,1,colour,0.5,4.0
51,18,0,2,1,33,33,53.39295440877322,54.208004685191554,"[85, 0, 169]",169,l,0.2927650869532954,1,colour,0.5,4.0
51,18,0,2,1,34,34,54.721176276449114,55.695961069111945,"[55, 0, 199]",199,a,0.45256773858272936,0,colour,0.5,4.0
51,18,0,2,1,35,35,56.20575779333012,57.055976555129746,"[82, 0, 172]",172,l,0.32806432923825923,1,colour,0.5,4.0
51,18,0,2,1,36,36,57.56515533485799,58.439959150287905,"[97, 0, 157]",157,l,0.3526096044079168,1,colour,0.5,4.0
51,18,0,2,1,37,37,58.95581755947205,59.695968946034554,"[9, 0, 245]",245,a,0.21783350787882227,1,colour,0.5,4.0
51,18,0,2,1,38,38,60.20601182404789,61.01595076608646,"[35, 0, 219]",219,a,0.28777348178846296,1,colour,0.5,4.0
51,18,0,2,1,39,39,61.53416398096306,62.34395444304391,"[38, 0, 216]",216,a,0.28752535876992624,1,colour,0.5,4.0
51,18,0,2,1,40,40,62.862551263999194,63.711969336727634,"[99, 0, 155]",155,l,0.3274633201363031,1,colour,0.5,4.0
51,18,0,2,1,41,41,64.22193699014315,64.83196045155637,"[12, 0, 242]",242,a,0.08836054876155686,1,colour,0.5,4.0
51,18,0,2,1,42,42,65.34700359936687,66.0159767599398,"[95, 0, 159]",159,l,0.14657611883012578,1,colour,0.5,4.0
51,18,0,2,1,43,43,66.53460981472745,67.07998974424845,"[76, 0, 178]",178,l,0.0230967092938954,1,colour,0.5,4.0
51,18,0,2,1,44,44,67.59721046700724,68.15196984085196,"[87, 0, 167]",167,l,0.03247182130871806,1,colour,0.5,4.0
51,18,0,2,1,45,45,68.65981742083386,69.18397456069943,"[4, 0, 250]",250,a,0.0025942641077563167,1,colour,0.5,4.0
51,18,0,2,1,46,46,69.70679065467266,71.11198067948862,"[72, 0, 182]",182,l,0.88298202920123,1,colour,0.5,4.0
51,18,0,2,1,47,47,71.62876620233874,72.41596486578055,"[44, 0, 210]",210,a,0.26490205245499965,1,colour,0.5,4.0
51,18,0,2,1,48,48,72.92658590983774,74.78393486101413,"[5, 0, 249]",249,a,1.335990481529734,1,colour,0.5,4.0
51,18,0,2,1,49,49,75.30094133151579,75.9519814986852,"[21, 0, 233]",233,a,0.12877979001495987,1,colour,0.5,4.0
51,18,0,2,1,50,50,76.45726356534578,76.9839661323931,"[14, 0, 240]",240,a,0.004552860642434098,1,colour,0.5,4.0
51,18,0,2,2,1,51,84.26960654383583,85.35996428603539,"[5, 0, 249]",249,a,0.5672872236609692,1,colour,0.5,4.0
51,18,0,2,2,2,52,85.87992145134194,86.71201265978743,"[96, 0, 158]",158,l,0.3097638774634106,1,colour,0.5,4.0
51,18,0,2,2,3,53,87.22373922978295,88.12795665173326,"[11, 0, 243]",243,a,0.38196098324260674,1,colour,0.5,4.0
51,18,0,2,2,4,54,88.6457516020746,89.69595634295547,"[18, 0, 236]",236,a,0.5279337298852624,1,colour,0.5,4.0
51,18,0,2,2,5,55,90.20836859896372,91.14396176858281,"[82, 0, 172]",172,l,0.413661260085064,1,colour,0.5,4.0
51,18,0,2,2,6,56,91.66164329124149,92.59198097881745,"[17, 0, 237]",237,a,0.40853220263670664,1,colour,0.5,4.0
51,18,0,2,2,7,57,93.09921534046589,94.1199540933012,"[49, 0, 205]",205,a,0.49848388953250833,1,colour,0.5,4.0
51,18,0,2,2,8,58,94.63062633735535,95.64796344163187,"[9, 0, 245]",245,a,0.4950357671332313,1,colour,0.5,4.0
51,18,0,2,2,9,59,96.1620877465466,97.00800216458447,"[0, 0, 254]",254,a,0.3237887362483889,1,colour,0.5,4.0
51,18,0,2,2,10,60,97.52147426038573,98.47194575321919,"[66, 0, 188]",188,l,0.4281926049152389,1,colour,0.5,4.0
51,18,0,2,2,11,61,98.99029484498897,99.99195766312187,"[67, 0, 187]",187,l,0.4794382809632225,1,colour,0.5,4.0
51,18,0,2,2,12,62,100.50605676189298,101.51198375149397,"[48, 0, 206]",206,a,0.4836626739852363,1,colour,0.5,4.0
51,18,0,2,2,13,63,102.0218210418534,102.96796968016133,"[3, 0, 251]",251,a,0.4245526794838952,1,colour,0.5,4.0
51,18,0,2,2,14,64,103.47504256491084,104.35197590607277,"[20, 0, 234]",234,a,0.3550274254666874,1,colour,0.5,4.0
51,18,0,2,2,15,65,104.86572605720721,105.71994511361117,"[81, 0, 173]",173,l,0.3319177192461211,1,colour,0.5,4.0
51,18,0,2,2,16,66,106.22528507563402,107.02398207527585,"[50, 0, 204]",204,a,0.27679620395065285,1,colour,0.5,4.0
51,18,0,2,2,17,67,107.53788110023015,108.34394380920276,"[26, 0, 228]",228,a,0.2837972118140897,1,colour,0.5,4.0
51,18,0,2,2,18,68,108.85047358021257,109.51197429918102,"[28, 0, 226]",226,a,0.13926594180520624,1,colour,0.5,4.0
51,18,0,2,2,19,69,110.0225020017242,111.2319694312464,"[65, 0, 189]",189,l,0.6879829291428905,1,colour,0.5,4.0
51,18,0,2,2,20,70,111.74127502941701,112.4399729348952,"[29, 0, 225]",225,a,0.17674118364811875,1,colour,0.5,4.0
51,18,0,2,2,21,71,112.96021130630106,114.13597772091452,"[47, 0, 207]",207,a,0.6535367574542761,1,colour,0.5,4.0
51,18,0,2,2,22,72,114.64777242629498,115.44795501332555,"[86, 0, 168]",168,l,0.27801830832322594,1,colour,0.5,4.0
51,18,0,2,2,23,73,115.96041295549367,116.74410087501747,"[95, 0, 159]",159,l,0.26141139467654284,1,colour,0.5,4.0
51,18,0,2,2,24,74,117.25740046623105,118.01593146764208,"[32, 0, 222]",222,a,0.2364596703700954,1,colour,0.5,4.0
51,18,0,2,2,25,75,118.5231323523767,119.1519469977793,"[30, 0, 224]",224,a,0.1066712405445287,1,colour,0.5,4.0
51,18,0,2,2,26,76,119.66387758003839,120.27997414793936,"[78, 0, 176]",176,l,0.09440096601611003,1,colour,0.5,4.0
51,18,0,2,2,27,77,120.78888983849902,121.36796369370131,"[15, 0, 239]",239,l,0.056840259581804276,0,colour,0.5,4.0
51,18,0,2,2,28,78,121.88271500155679,123.43208104722726,"[70, 0, 184]",184,l,1.0270205977576552,1,colour,0.5,4.0
51,18,0,2,2,29,79,123.94552360457601,124.48795402083488,"[19, 0, 235]",235,a,0.02027716524025891,1,colour,0.5,4.0
51,18,0,2,2,30,80,125.00803721688862,125.74396617965249,"[33, 0, 221]",221,a,0.21386078250361606,1,colour,0.5,4.0
51,18,0,2,2,31,81,126.25809717994707,127.22394560513203,"[52, 0, 202]",202,a,0.44384010952489916,0,colour,0.5,4.0
51,18,0,2,2,32,82,127.74259638300282,128.65593055391219,"[25, 0, 229]",229,a,0.39109742452274077,1,colour,0.5,4.0
51,18,0,2,2,33,83,129.16461623835494,130.03194052293838,"[94, 0, 160]",160,l,0.34522380893758964,1,colour,0.5,4.0
51,18,0,2,2,34,84,130.53965025680372,131.3839262751717,"[74, 0, 180]",180,l,0.32199909967312124,1,colour,0.5,4.0
51,18,0,2,2,35,85,131.8991706783272,132.5359244729334,"[10, 0, 244]",244,a,0.11442961439024657,1,colour,0.5,4.0
51,18,0,2,2,36,86,133.05551614907745,134.18396392685827,"[91, 0, 163]",163,l,0.6062787729169941,1,colour,0.5,4.0
51,18,0,2,2,37,87,134.6962466075056,135.65597545236233,"[54, 0, 200]",200,a,0.4374369600118371,0,colour,0.5,4.0
51,18,0,2,2,38,88,136.16516525977931,136.9759450631973,"[16, 0, 238]",238,a,0.2885808662394993,1,colour,0.5,4.0
51,18,0,2,2,39,89,137.4933193859324,138.31995543238008,"[40, 0, 214]",214,a,0.30428350930742454,1,colour,0.5,4.0
51,18,0,2,2,40,90,138.83724468435685,139.80797404397163,"[90, 0, 164]",164,l,0.44855365935654845,1,colour,0.5,4.0
51,18,0,2,2,41,91,140.32173246587627,141.32797177541943,"[92, 0, 162]",162,l,0.484024618534022,1,colour,0.5,4.0
51,18,0,2,2,42,92,141.83742467201955,142.7119634290284,"[41, 0, 213]",213,a,0.35225317371077836,1,colour,0.5,4.0
51,18,0,2,2,43,93,143.22815857661772,144.43192665955576,"[71, 0, 183]",183,l,0.6814482350309845,1,colour,0.5,4.0
51,18,0,2,2,44,94,144.9470726011932,145.50397410383448,"[53, 0, 201]",201,a,0.03458165473421104,0,colour,0.5,4.0
51,18,0,2,2,45,95,146.0096504104149,147.12796137787518,"[84, 0, 170]",170,l,0.5960679195413832,1,colour,0.5,4.0
51,18,0,2,2,46,96,147.63478141346422,150.50396307614574,"[93, 0, 161]",161,l,2.346914983994793,1,colour,0.5,4.0
51,18,0,2,2,47,97,151.0100300780323,151.57596837889287,"[12, 0, 242]",242,a,0.04361884680110961,1,colour,0.5,4.0
51,18,0,2,2,48,98,152.08834952107281,153.2159666774678,"[64, 0, 190]",190,l,0.6053347238630522,1,colour,0.5,4.0
51,18,0,2,2,49,99,153.7290102687548,154.7359632273874,"[89, 0, 165]",165,l,0.4846614676353056,1,colour,0.5,4.0
51,18,0,2,2,50,100,155.2446981425892,156.09594287342043,"[72, 0, 182]",182,l,0.3289559967670357,1,colour,0.5,4.0
51,18,0,2,3,1,101,160.52565690572374,161.19194167297974,"[10, 0, 244]",244,a,0.14328592871606816,1,colour,0.5,4.0
51,18,0,2,3,2,102,161.69842497016361,162.80793859781988,"[48, 0, 206]",206,a,0.587943662671023,1,colour,0.5,4.0
51,18,0,2,3,3,103,163.3235150132241,164.3359239215497,"[66, 0, 188]",188,l,0.49019421731645707,1,colour,0.5,4.0
51,18,0,2,3,4,104,164.85490395473607,165.78390650408983,"[59, 0, 195]",195,l,0.40673587066703476,1,colour,0.5,4.0
51,18,0,2,3,5,105,166.2924401639466,167.095918848805,"[96, 0, 158]",158,l,0.2812825046130456,1,colour,0.5,4.0
51,18,0,2,3,6,106,167.60515001007298,168.43995206106047,"[63, 0, 191]",191,l,0.31257278767589014,1,colour,0.5,4.0
51,18,0,2,3,7,107,168.94900047773262,169.89592184203502,"[55, 0, 199]",199,l,0.424722033290891,1,colour,0.5,4.0
51,18,0,2,3,8,108,170.40222160695703,171.25592393729312,"[88, 0, 166]",166,l,0.33151442086091265,1,colour,0.5,4.0
51,18,0,2,3,9,109,171.76169161616417,172.6159390294779,"[71, 0, 183]",183,l,0.3319823100027861,1,colour,0.5,4.0
51,18,0,2,3,10,110,173.1211880130577,174.14393813781498,"[42, 0, 212]",212,a,0.5004594214551616,1,colour,0.5,4.0
51,18,0,2,3,11,111,174.65258089303097,175.47990144396317,"[44, 0, 210]",210,a,0.30562061673845164,1,colour,0.5,4.0
51,18,0,2,3,12,112,175.99638409916952,176.96794959400722,"[90, 0, 164]",164,l,0.449259825370973,1,colour,0.5,4.0
51,18,0,2,3,13,113,177.48084667454532,178.3919627043506,"[21, 0, 233]",233,a,0.3889056711050216,1,colour,0.5,4.0
51,18,0,2,3,14,114,178.9029472683469,179.7999356455548,"[0, 0, 254]",254,a,0.37482921849004924,1,colour,0.5,4.0
51,18,0,2,3,15,115,180.30932867755473,181.18394817301305,"[54, 0, 200]",200,a,0.35251626289391425,0,colour,0.5,4.0
51,18,0,2,3,16,116,181.6999794806179,182.56795361124387,"[49, 0, 205]",205,a,0.34646481793606654,1,colour,0.5,4.0
51,18,0,2,3,17,117,183.0751222005929,183.7760343087284,"[40, 0, 214]",214,a,0.17812594646238722,1,colour,0.5,4.0
51,18,0,2,3,18,118,184.29400255133805,186.1679686561547,"[3, 0, 251]",251,a,1.3518364845658652,1,colour,0.5,4.0
51,18,0,2,3,19,119,186.68476953900245,188.07991215657967,"[41, 0, 213]",213,a,0.8728924804163398,1,colour,0.5,4.0
51,18,0,2,3,20,120,188.591284658949,189.78393801178026,"[87, 0, 167]",167,l,0.6707056894665584,1,colour,0.5,4.0
51,18,0,2,3,21,121,190.29436961587635,191.91196476810728,"[94, 0, 160]",160,l,1.095275698156911,1,colour,0.5,4.0
51,18,0,2,3,22,122,192.41967647121055,193.47993137626327,"[29, 0, 225]",225,a,0.5380382448201999,1,colour,0.5,4.0
51,18,0,2,3,23,123,193.99787559427205,194.9519476279238,"[18, 0, 236]",236,a,0.4319298103218898,1,colour,0.5,4.0
51,18,0,2,3,24,124,195.46670405578334,196.66395122926042,"[19, 0, 235]",235,a,0.6749391409393866,1,colour,0.5,4.0
51,18,0,2,3,25,125,197.16992843423213,198.30393022937642,"[45, 0, 209]",209,a,0.6116811595420586,1,colour,0.5,4.0
51,18,0,2,3,26,126,198.81071442496614,199.80791733013757,"[85, 0, 169]",169,l,0.4749523741629673,1,colour,0.5,4.0
51,18,0,2,3,27,127,200.32643932032806,201.14392474704073,"[92, 0, 162]",162,l,0.2952289880049648,1,colour,0.5,4.0
51,18,0,2,3,28,128,201.65470175415976,202.70397741213674,"[27, 0, 227]",227,a,0.5276923022320261,1,colour,0.5,4.0
51,18,0,2,3,29,129,203.21734789566835,204.20792434058967,"[22, 0, 232]",232,a,0.4684267385164276,1,colour,0.5,4.0
51,18,0,2,3,30,130,204.7174390710279,205.80792796397873,"[60, 0, 194]",194,l,0.5682891680917237,1,colour,0.5,4.0
51,18,0,2,3,31,131,206.32697652638308,207.2079467898293,"[8, 0, 246]",246,a,0.35886072933499236,1,colour,0.5,4.0
51,18,0,2,3,32,132,207.71775572327897,208.58398708500317,"[20, 0, 234]",234,a,0.3441076491581043,1,colour,0.5,4.0
51,18,0,2,3,33,133,209.09283030788356,210.0639428797149,"[15, 0, 239]",239,a,0.44903927156701684,1,colour,0.5,4.0
51,18,0,2,3,34,134,210.57723853248172,212.00795332767302,"[1, 0, 253]",253,a,0.9084674149489729,1,colour,0.5,4.0
51,18,0,2,3,35,135,212.51491790475848,214.11994424715522,"[83, 0, 171]",171,l,1.0827573006245075,1,colour,0.5,4.0
51,18,0,2,3,36,136,214.64017868008523,215.8959600451053,"[61, 0, 193]",193,a,0.7336103909183294,0,colour,0.5,4.0
51,18,0,2,3,37,137,216.40581624009064,217.02392614913697,"[75, 0, 179]",179,l,0.09578297191183083,1,colour,0.5,4.0
51,18,0,2,3,38,138,217.5309131754475,218.20793103598407,"[34, 0, 220]",220,a,0.15487248642602935,1,colour,0.5,4.0
51,18,0,2,3,39,139,218.7185473538848,219.27993003718439,"[97, 0, 157]",157,l,0.03912427536852192,1,colour,0.5,4.0
51,18,0,2,3,40,140,219.7966872031102,220.36794321369962,"[35, 0, 219]",219,a,0.04895703651709482,1,colour,0.5,4.0
51,18,0,2,3,41,141,220.87504248615005,221.52794042526511,"[39, 0, 215]",215,a,0.13091640498896595,1,colour,0.5,4.0
51,18,0,2,3,42,142,222.04695472306048,222.79194057021232,"[91, 0, 163]",163,l,0.22268372231337707,1,colour,0.5,4.0
51,18,0,2,3,43,143,223.29703713535855,223.9919651461969,"[79, 0, 175]",175,l,0.17268063061055727,1,colour,0.5,4.0
51,18,0,2,3,44,144,224.5002526522585,225.1359324286168,"[24, 0, 230]",230,a,0.11338395305210724,1,colour,0.5,4.0
51,18,0,2,3,45,145,225.64099709223956,226.30398773090565,"[68, 0, 186]",186,l,0.14133520908944774,1,colour,0.5,4.0
51,18,0,2,3,46,146,226.81288884916285,227.43189318264194,"[37, 0, 217]",217,a,0.09696411628101487,1,colour,0.5,4.0
51,18,0,2,3,47,147,227.93802831989888,228.7519332919328,"[80, 0, 174]",174,l,0.2917091856361367,1,colour,0.5,4.0
51,18,0,2,3,48,148,229.2662076521956,229.85593976991368,"[82, 0, 172]",172,a,0.06739612211822532,0,colour,0.5,4.0
51,18,0,2,3,49,149,230.3757090706349,231.04792200903466,"[93, 0, 161]",161,l,0.1501998965832172,1,colour,0.5,4.0
51,18,0,2,3,50,150,231.56328417215263,233.63995852012886,"[86, 0, 168]",168,l,1.5542981800681446,1,colour,0.5,4.0
51,18,0,2,4,1,151,244.9229416520975,246.12791214711615,"[55, 0, 199]",199,a,0.6819657487794757,0,colour,0.5,4.0
51,18,0,2,4,2,152,246.64267369497975,247.32792136311764,"[97, 0, 157]",157,l,0.16304400481749326,1,colour,0.5,4.0
51,18,0,2,4,3,153,247.84671589480422,249.38392430593376,"[86, 0, 168]",168,l,1.0157613261253573,1,colour,0.5,4.0
51,18,0,2,4,4,154,249.89292624878,251.09594129803008,"[0, 0, 254]",254,a,0.6808456505386857,1,colour,0.5,4.0
51,18,0,2,4,5,155,251.61185366412974,252.80791024091013,"[84, 0, 170]",170,l,0.6738237688550726,1,colour,0.5,4.0
51,18,0,2,4,6,156,253.31501935950655,254.35190146917012,"[42, 0, 212]",212,a,0.5146827786520589,1,colour,0.5,4.0
51,18,0,2,4,7,157,254.86201917794824,256.1199241610011,"[77, 0, 177]",177,l,0.7356280643725768,1,colour,0.5,4.0
51,18,0,2,4,8,158,256.6277997040743,257.56792525431956,"[17, 0, 237]",237,a,0.41783878540445585,1,colour,0.5,4.0
51,18,0,2,4,9,159,258.0811732517177,258.91192144503293,"[53, 0, 201]",201,a,0.30865992690087296,0,colour,0.5,4.0
51,18,0,2,4,10,160,259.42490005171567,260.27190818030795,"[91, 0, 163]",163,l,0.32501792984839994,1,colour,0.5,4.0
51,18,0,2,4,11,161,260.78434209786064,261.6639157831087,"[73, 0, 181]",181,l,0.3572739234950859,1,colour,0.5,4.0
51,18,0,2,4,12,162,262.17508821167576,263.1359316409216,"[23, 0, 231]",231,a,0.4388398397277342,1,colour,0.5,4.0
51,18,0,2,4,13,163,263.64391943012015,264.5759159973677,"[2, 0, 252]",252,a,0.4096101593459025,1,colour,0.5,4.0
51,18,0,2,4,14,164,265.08161081469734,266.10391904415155,"[61, 0, 193]",193,l,0.5000872368982527,1,colour,0.5,4.0
51,18,0,2,4,15,165,266.6130879777338,267.519888242241,"[90, 0, 164]",164,a,0.3846607980958652,0,colour,0.5,4.0
51,18,0,2,4,16,166,268.0349727438879,269.49592310233857,"[51, 0, 203]",203,a,0.9387439382117009,0,colour,0.5,4.0
51,18,0,2,4,17,167,270.0038967130822,270.98394880315755,"[87, 0, 167]",167,l,0.45792995289957616,1,colour,0.5,4.0
51,18,0,2,4,18,168,271.5039725284587,272.71193940442754,"[99, 0, 155]",155,l,0.6856805049756076,1,colour,0.5,4.0
51,18,0,2,4,19,169,273.2228652853519,274.07990467350464,"[1, 0, 253]",253,a,0.3347305679344572,1,colour,0.5,4.0
51,18,0,2,4,20,170,274.59799264531466,275.67193527691416,"[5, 0, 249]",249,a,0.5518244328704895,1,colour,0.5,4.0
51,18,0,2,4,21,171,276.1918849591457,277.16790249002224,"[68, 0, 186]",186,l,0.45412382442737,1,colour,0.5,4.0
51,18,0,2,4,22,172,277.6763999160321,278.671941972294,"[44, 0, 210]",210,a,0.4733848667819984,1,colour,0.5,4.0
51,18,0,2,4,23,173,279.1920617960277,280.1999245390907,"[75, 0, 179]",179,l,0.4858241012552753,1,colour,0.5,4.0
51,18,0,2,4,24,174,280.7078465559898,281.6559167693049,"[45, 0, 209]",209,a,0.42601660534273833,1,colour,0.5,4.0
51,18,0,2,4,25,175,282.16106807904725,283.09593027034134,"[94, 0, 160]",160,l,0.41249626337958034,1,colour,0.5,4.0
51,18,0,2,4,26,176,283.61432741134195,284.9359342403186,"[66, 0, 188]",188,a,0.7994512148870854,0,colour,0.5,4.0
51,18,0,2,4,27,177,285.4425349036319,286.50390715000685,"[82, 0, 172]",172,l,0.5390846938389586,1,colour,0.5,4.0
51,18,0,2,4,28,178,287.02083445743483,288.03993284137687,"[25, 0, 229]",229,a,0.49684667139081284,1,colour,0.5,4.0
51,18,0,2,4,29,179,288.5521434481925,289.50394141461584,"[81, 0, 173]",173,l,0.4294639400468441,1,colour,0.5,4.0
51,18,0,2,4,30,180,290.0210487097065,291.8959108143463,"[65, 0, 189]",189,l,1.3525237459689379,1,colour,0.5,4.0
51,18,0,2,4,31,181,292.4118598081259,293.47192999937397,"[38, 0, 216]",216,a,0.5377302571869222,1,colour,0.5,4.0
51,18,0,2,4,32,182,293.989990795817,295.1039119549241,"[40, 0, 214]",214,a,0.591579649655614,1,colour,0.5,4.0
51,18,0,2,4,33,183,295.6152840634604,296.68794354452984,"[62, 0, 192]",192,l,0.5504388823756017,1,colour,0.5,4.0
51,18,0,2,4,34,184,297.1935395065084,298.1278999378992,"[92, 0, 162]",162,l,0.41212604807515163,1,colour,0.5,4.0
51,18,0,2,4,35,185,298.6467196757294,299.759914582668,"[35, 0, 219]",219,a,0.5913472804822959,1,colour,0.5,4.0
51,18,0,2,4,36,186,300.2718967587716,301.3759079628944,"[39, 0, 215]",215,a,0.5819241192511981,1,colour,0.5,4.0
51,18,0,2,4,37,187,301.8813585956668,303.02394859836204,"[58, 0, 196]",196,a,0.6203040255350061,0,colour,0.5,4.0
51,18,0,2,4,38,188,303.5377653094911,304.3520314383786,"[7, 0, 247]",247,a,0.29200260096695274,1,colour,0.5,4.0
51,18,0,2,4,39,189,304.8659919033089,305.70390021831554,"[47, 0, 207]",207,a,0.3156369101488963,1,colour,0.5,4.0
51,18,0,2,4,40,190,306.2098254356097,307.07192062583636,"[50, 0, 204]",204,a,0.33989900998130906,1,colour,0.5,4.0
51,18,0,2,4,41,191,307.584928377124,308.4479231118021,"[41, 0, 213]",213,a,0.34071151445095893,1,colour,0.5,4.0
51,18,0,2,4,42,192,308.9600833063305,309.7519088734698,"[22, 0, 232]",232,a,0.26957661152118817,1,colour,0.5,4.0
51,18,0,2,4,43,193,310.257056638613,311.0559119643731,"[46, 0, 208]",208,a,0.276650480896933,1,colour,0.5,4.0
51,18,0,2,4,44,194,311.5696231247566,312.4878977008484,"[76, 0, 178]",178,l,0.39596496817830484,1,colour,0.5,4.0
51,18,0,2,4,45,195,313.0072688231885,313.5438931605895,"[3, 0, 251]",251,a,0.014534495596308261,1,colour,0.5,4.0
51,18,0,2,4,46,196,314.0542018847191,314.83194430386357,"[48, 0, 206]",206,a,0.2555072481482057,1,colour,0.5,4.0
51,18,0,2,4,47,197,315.35119806007424,315.9279167157365,"[31, 0, 223]",223,a,0.054377540058339946,1,colour,0.5,4.0
51,18,0,2,4,48,198,316.4450106200675,318.183891459179,"[13, 0, 241]",241,a,1.2166858404088998,1,colour,0.5,4.0
51,18,0,2,4,49,199,318.6952127615659,320.3439040307421,"[12, 0, 242]",242,a,1.1264230150991352,1,colour,0.5,4.0
51,18,0,2,4,50,200,320.85159761691466,321.8399468622956,"[34, 0, 220]",220,a,0.46606051130220294,1,colour,0.5,4.0
51,18,0,2,5,1,201,328.13266823234153,329.93589682492893,"[20, 0, 234]",234,a,1.2801308986818185,1,colour,0.5,4.0
51,18,0,2,5,2,202,330.44623863212473,331.535925260614,"[91, 0, 163]",163,l,0.5673813528846949,1,colour,0.5,4.0
51,18,0,2,5,3,203,332.05570558903855,333.03990881676145,"[75, 0, 179]",179,l,0.46209448130684905,1,colour,0.5,4.0
51,18,0,2,5,4,204,333.55579164439405,334.6239159879042,"[32, 0, 222]",222,a,0.5459931478544604,1,colour,0.5,4.0
51,18,0,2,5,5,205,335.13407308129536,336.39990224740177,"[72, 0, 182]",182,l,0.7436723704740871,1,colour,0.5,4.0
51,18,0,2,5,6,206,336.91534987514024,338.00791000459867,"[68, 0, 186]",186,l,0.5702627307764487,1,colour,0.5,4.0
51,18,0,2,5,7,207,338.52488378586713,339.5119132530381,"[63, 0, 191]",191,l,0.4649116622895235,1,colour,0.5,4.0
51,18,0,2,5,8,208,340.0250580627617,341.01589602149033,"[15, 0, 239]",239,a,0.4688820245937677,1,colour,0.5,4.0
51,18,0,2,5,9,209,341.52512285043485,342.4639022347983,"[82, 0, 172]",172,l,0.4167297148524085,1,colour,0.5,4.0
51,18,0,2,5,10,210,342.9783975427126,343.9759021339851,"[51, 0, 203]",203,a,0.47522097719775047,0,colour,0.5,4.0
51,18,0,2,5,11,211,344.49413070884475,345.25592748190684,"[74, 0, 180]",180,l,0.23956672205531504,1,colour,0.5,4.0
51,18,0,2,5,12,212,345.7755069488194,346.67990317688964,"[26, 0, 228]",228,a,0.3824918877653545,1,colour,0.5,4.0
51,18,0,2,5,13,213,347.19744055188494,348.2718936080055,"[53, 0, 201]",201,a,0.5520540451398119,0,colour,0.5,4.0
51,18,0,2,5,14,214,348.7912796964956,349.8880350743566,"[73, 0, 181]",181,l,0.5743051668978296,1,colour,0.5,4.0
51,18,0,2,5,15,215,350.40067733648175,351.2559081834479,"[98, 0, 156]",156,l,0.33274676524160895,1,colour,0.5,4.0
51,18,0,2,5,16,216,351.7759925610444,352.8399405607488,"[4, 0, 250]",250,a,0.5417242502444424,1,colour,0.5,4.0
51,18,0,2,5,17,217,353.3541912902583,354.36791288755194,"[40, 0, 214]",214,a,0.4915510170540074,1,colour,0.5,4.0
51,18,0,2,5,18,218,354.88541363488184,355.8798800975055,"[38, 0, 216]",216,a,0.47314225760055706,1,colour,0.5,4.0
51,18,0,2,5,19,219,356.3856942502025,357.1919184360595,"[37, 0, 217]",217,a,0.28400437484378926,1,colour,0.5,4.0
51,18,0,2,5,20,220,357.6983036655729,358.7278917458898,"[76, 0, 178]",178,l,0.5073005277808988,1,colour,0.5,4.0
51,18,0,2,5,21,221,359.24525543478376,360.0478987721144,"[83, 0, 171]",171,l,0.28036760017857887,1,colour,0.5,4.0
51,18,0,2,5,22,222,360.5578557916888,361.2719089680031,"[55, 0, 199]",199,a,0.19208188218181022,0,colour,0.5,4.0
51,18,0,2,5,23,223,361.7923497762822,362.92789426651143,"[69, 0, 185]",185,l,0.6136184883944225,1,colour,0.5,4.0
51,18,0,2,5,24,224,363.43312670855084,364.1519308500865,"[65, 0, 189]",189,l,0.19657054591516498,1,colour,0.5,4.0
51,18,0,2,5,25,225,364.66746000395506,365.67191519076005,"[21, 0, 233]",233,a,0.48197740662726574,1,colour,0.5,4.0
51,18,0,2,5,26,226,366.1833278654376,367.04788026135066,"[97, 0, 157]",157,l,0.34224278799956664,1,colour,0.5,4.0
51,18,0,2,5,27,227,367.5584489238827,368.247896172732,"[77, 0, 177]",177,l,0.16741727165936027,1,colour,0.5,4.0
51,18,0,2,5,28,228,368.7616156038712,369.39191819974803,"[22, 0, 232]",232,a,0.10800086488598026,1,colour,0.5,4.0
51,18,0,2,5,29,229,369.90240257921687,370.8078948809125,"[59, 0, 195]",195,a,0.38325437376624905,0,colour,0.5,4.0
51,18,0,2,5,30,230,371.324319246909,372.35189674301364,"[31, 0, 223]",223,a,0.5053742266318295,1,colour,0.5,4.0
51,18,0,2,5,31,231,372.871391926863,373.9358724064805,"[64, 0, 190]",190,l,0.542287056290661,1,colour,0.5,4.0
51,18,0,2,5,32,232,374.44960089608503,375.2479213788756,"[60, 0, 194]",194,l,0.2760061487206258,1,colour,0.5,4.0
51,18,0,2,5,33,233,375.7621504468407,376.3678900444793,"[41, 0, 213]",213,a,0.08337485126685351,1,colour,0.5,4.0
51,18,0,2,5,34,234,376.8873261514236,377.67989214918634,"[35, 0, 219]",219,a,0.2703048329130979,1,colour,0.5,4.0
51,18,0,2,5,35,235,378.1999674683175,378.84790097764926,"[16, 0, 238]",238,a,0.1257487506227335,1,colour,0.5,4.0
51,18,0,2,5,36,236,379.3562251113908,379.94388874951983,"[5, 0, 249]",249,a,0.06539971636084374,1,colour,0.5,4.0
51,18,0,2,5,37,237,380.4500900529092,381.1918885037594,"[86, 0, 168]",168,l,0.21961329829355236,1,colour,0.5,4.0
51,18,0,2,5,38,238,381.70018388672906,382.28786603562185,"[49, 0, 205]",205,a,0.06536584558489267,1,colour,0.5,4.0
51,18,0,2,5,39,239,382.79404567748134,383.3359054107714,"[3, 0, 251]",251,a,0.01959817459282931,1,colour,0.5,4.0
51,18,0,2,5,40,240,383.84106971745496,384.45588234714523,"[27, 0, 227]",227,a,0.09274169249692932,1,colour,0.5,4.0
51,18,0,2,5,41,241,384.9660142343928,386.0478908951918,"[1, 0, 253]",253,a,0.5596391267172294,1,colour,0.5,4.0
51,18,0,2,5,42,242,386.5599234835827,387.4638927824999,"[36, 0, 218]",218,a,0.3816908048320329,1,colour,0.5,4.0
51,18,0,2,5,43,243,387.98192482817103,388.95186492025096,"[13, 0, 241]",241,a,0.44760921646957286,1,colour,0.5,4.0
51,18,0,2,5,44,244,389.4664338773873,390.7039281813777,"[89, 0, 165]",165,l,0.7152213237714022,1,colour,0.5,4.0
51,18,0,2,5,45,245,391.21654484351166,392.5199102976185,"[43, 0, 211]",211,a,0.781112953874981,1,colour,0.5,4.0
51,18,0,2,5,46,246,393.0293848557485,394.1039284964645,"[18, 0, 236]",236,a,0.5524872758251149,1,colour,0.5,4.0
51,18,0,2,5,47,247,394.6231133296096,396.1278896978911,"[67, 0, 187]",187,l,0.9825640403578291,1,colour,0.5,4.0
51,18,0,2,5,48,248,396.6389380649489,397.6319118509564,"[11, 0, 243]",243,a,0.4707492488378193,1,colour,0.5,4.0
51,18,0,2,5,49,249,398.1390304218512,399.10388359801436,"[24, 0, 230]",230,a,0.4425352974794805,1,colour,0.5,4.0
51,18,0,2,5,50,250,399.62346148953657,400.6318752232619,"[52, 0, 202]",202,a,0.4860895535093732,0,colour,0.5,4.0
51,18,0,2,6,1,251,406.6544733234332,409.11988950254454,"[32, 0, 222]",222,a,1.9428604174026987,1,colour,0.5,3.9
51,18,0,2,6,2,252,409.63996639705147,410.61591146024875,"[89, 0, 165]",165,l,0.4537555783317657,1,colour,0.5,3.9
51,18,0,2,6,3,253,411.124363987823,412.3198695739411,"[81, 0, 173]",173,l,0.6739052949851612,1,colour,0.5,3.9
51,18,0,2,6,4,254,412.82766004624136,413.7918964594428,"[9, 0, 245]",245,a,0.44192050374113023,1,colour,0.5,3.9
51,18,0,2,6,5,255,414.3120785108622,415.3678738967865,"[95, 0, 159]",159,l,0.5334341841808055,1,colour,0.5,3.9
51,18,0,2,6,6,256,415.874851076951,416.7598850442155,"[31, 0, 223]",223,a,0.36304337467299774,1,colour,0.5,3.9
51,18,0,2,6,7,257,417.26633840909926,418.32789497543126,"[13, 0, 241]",241,a,0.5402552043815376,1,colour,0.5,3.9
51,18,0,2,6,8,258,418.8437785907736,419.81586632548715,"[62, 0, 192]",192,a,0.4498458683374338,0,colour,0.5,3.9
51,18,0,2,6,9,259,420.32826991689217,421.2959359417291,"[61, 0, 193]",193,a,0.44544621382374316,0,colour,0.5,3.9
51,18,0,2,6,10,260,421.8127695137955,422.73586988585885,"[74, 0, 180]",180,l,0.40088213644048665,1,colour,0.5,3.9
51,18,0,2,6,11,261,423.25042584606854,424.3198628785467,"[86, 0, 168]",168,l,0.5472274614585331,1,colour,0.5,3.9
51,18,0,2,6,12,262,424.8286202429881,425.5918793665187,"[42, 0, 212]",212,a,0.24111217404424679,1,colour,0.5,3.9
51,18,0,2,6,13,263,426.1100031783426,426.6639063308103,"[36, 0, 218]",218,a,0.031718787606223486,1,colour,0.5,3.9
51,18,0,2,6,14,264,427.1725514490972,428.20787747291615,"[64, 0, 190]",190,a,0.5130845512758242,0,colour,0.5,3.9
51,18,0,2,6,15,265,428.7195528429147,429.4158841273311,"[45, 0, 209]",209,a,0.17414140570326708,1,colour,0.5,3.9
51,18,0,2,6,16,266,429.92286367058114,430.7439137981273,"[40, 0, 214]",214,a,0.2988500088395085,1,colour,0.5,3.9
51,18,0,2,6,17,267,431.251029218256,432.52790576680854,"[97, 0, 157]",157,l,0.7546177467738744,1,colour,0.5,3.9
51,18,0,2,6,18,268,433.04813114128774,434.07190093352983,"[77, 0, 177]",177,l,0.5016783750470495,1,colour,0.5,3.9
51,18,0,2,6,19,269,434.57942634743813,435.63989904937625,"[49, 0, 205]",205,a,0.5382513155491324,1,colour,0.5,3.9
51,18,0,2,6,20,270,436.1576821843337,437.16787413309794,"[11, 0, 243]",243,a,0.48805366389569826,1,colour,0.5,3.9
51,18,0,2,6,21,271,437.673357455089,438.7358667350927,"[47, 0, 207]",207,a,0.5403008905268507,1,colour,0.5,3.9
51,18,0,2,6,22,272,439.25162550121604,440.1998701883422,"[91, 0, 163]",163,l,0.42598312842892483,1,colour,0.5,3.9
51,18,0,2,6,23,273,440.7048631719663,441.5838720819447,"[83, 0, 171]",171,l,0.3568080035765888,1,colour,0.5,3.9
51,18,0,2,6,24,274,442.0955943196459,444.5918915757502,"[63, 0, 191]",191,a,1.973943143588258,0,colour,0.5,3.9
51,18,0,2,6,25,275,445.11149112881685,446.0799113688845,"[16, 0, 238]",238,a,0.4462150013569044,1,colour,0.5,3.9
51,18,0,2,6,26,276,446.5960911564616,447.6878572922433,"[5, 0, 249]",249,a,0.5695660170749761,1,colour,0.5,3.9
51,18,0,2,6,27,277,448.20543641493714,449.1279129348113,"[2, 0, 252]",252,a,0.40015233965823427,1,colour,0.5,3.9
51,18,0,2,6,28,278,449.6430419410608,450.67990002610895,"[80, 0, 174]",174,l,0.5145677755936049,1,colour,0.5,3.9
51,18,0,2,6,29,279,451.1900118272024,452.2398924327572,"[70, 0, 184]",184,l,0.5276135330204852,1,colour,0.5,3.9
51,18,0,2,6,30,280,452.752648122565,453.69593192449247,"[37, 0, 217]",217,a,0.42109392322890926,1,colour,0.5,3.9
51,18,0,2,6,31,281,454.20591690714355,455.4238953503809,"[28, 0, 226]",226,a,0.6956952230102615,1,colour,0.5,3.9
51,18,0,2,6,32,282,455.94041660250514,457.1758617253654,"[46, 0, 208]",208,a,0.7132264933898114,1,colour,0.5,3.9
51,18,0,2,6,33,283,457.69055710709654,458.2238959805254,"[7, 0, 247]",247,a,0.011103308585006744,1,colour,0.5,3.9
51,18,0,2,6,34,284,458.73751891938446,460.5598774035898,"[53, 0, 201]",201,a,1.3001083470444428,0,colour,0.5,3.9
51,18,0,2,6,35,285,461.0659274701029,462.599838995724,"[55, 0, 199]",199,a,1.0117736346001038,0,colour,0.5,3.9
51,18,0,2,6,36,286,463.11293181777,463.6799130230356,"[48, 0, 206]",206,a,0.044766120408894494,1,colour,0.5,3.9
51,18,0,2,6,37,287,464.19106221468246,465.95987456791045,"[69, 0, 185]",185,l,1.2467091206490295,1,colour,0.5,3.9
51,18,0,2,6,38,288,466.47245302695956,467.83987163768325,"[33, 0, 221]",221,a,0.8451054581819335,1,colour,0.5,3.9
51,18,0,2,6,39,289,468.347747574604,469.22389794976334,"[54, 0, 200]",200,a,0.35396916106401477,0,colour,0.5,3.9
51,18,0,2,6,40,290,469.7384259468963,470.4238543903775,"[51, 0, 203]",203,a,0.16315940170898102,0,colour,0.5,3.9
51,18,0,2,6,41,291,470.94165012841404,471.4959294038854,"[15, 0, 239]",239,a,0.03222960596031044,1,colour,0.5,3.9
51,18,0,2,6,42,292,472.0042208484083,473.0798904950352,"[88, 0, 166]",166,l,0.553415964866872,1,colour,0.5,3.9
51,18,0,2,6,43,293,473.5981277345272,474.72788859512366,"[14, 0, 240]",240,a,0.6075898865092313,1,colour,0.5,3.9
51,18,0,2,6,44,294,475.2387754852971,476.4158644350391,"[92, 0, 162]",162,l,0.6546422833926044,1,colour,0.5,3.9
51,18,0,2,6,45,295,476.92647011909867,477.93588107109827,"[66, 0, 188]",188,l,0.4870934671635041,1,colour,0.5,3.9
51,18,0,2,6,46,296,478.4422225836897,479.8158552977984,"[73, 0, 181]",181,l,0.8515483861556277,1,colour,0.5,3.9
51,18,0,2,6,47,297,480.3329905559658,481.15987078698527,"[67, 0, 187]",187,l,0.30468641384504735,1,colour,0.5,3.9
51,18,0,2,6,48,298,481.6769123097765,482.7278641766752,"[41, 0, 213]",213,a,0.5287127574265469,1,colour,0.5,3.9
51,18,0,2,6,49,299,483.23942651285324,484.1998567975679,"[27, 0, 227]",227,a,0.4380478152743308,1,colour,0.5,3.9
51,18,0,2,6,50,300,484.70836525128107,485.664010700013,"[0, 0, 254]",254,a,0.4331058347161161,1,colour,0.5,3.9
51,18,0,2,7,1,301,492.80195568208,493.3519061953266,"[36, 0, 218]",218,a,0.026847305489354767,1,colour,0.5,3.9
51,18,0,2,7,2,302,493.86539601419645,494.9038913173863,"[99, 0, 155]",155,l,0.516340476780897,1,colour,0.5,3.9
51,18,0,2,7,3,303,495.41235723572026,496.37586779060075,"[14, 0, 240]",240,a,0.4412623869575327,1,colour,0.5,3.9
51,18,0,2,7,4,304,496.88126328492945,498.30388218016014,"[69, 0, 185]",185,l,0.9004420134442626,1,colour,0.5,3.9
51,18,0,2,7,5,305,498.81881741413963,499.7839191071689,"[1, 0, 253]",253,a,0.44280902048922144,1,colour,0.5,3.9
51,18,0,2,7,6,306,500.30325557105243,501.19184872529877,"[82, 0, 172]",172,l,0.3661630294373026,1,colour,0.5,3.9
51,18,0,2,7,7,307,501.70966730640794,502.67989608764765,"[75, 0, 179]",179,l,0.4479664348618826,1,colour,0.5,3.9
51,18,0,2,7,8,308,503.194187777146,504.18387216072006,"[24, 0, 230]",230,a,0.4673594156629406,1,colour,0.5,3.9
51,18,0,2,7,9,309,504.69436678018246,505.5998586880305,"[20, 0, 234]",234,a,0.383329598364071,1,colour,0.5,3.9
51,18,0,2,7,10,310,506.11630786632304,507.0238938537659,"[40, 0, 214]",214,a,0.38531694567063823,1,colour,0.5,3.9
51,18,0,2,7,11,311,507.53830212168396,508.51186796074035,"[38, 0, 216]",216,a,0.4513133388099959,1,colour,0.5,3.9
51,18,0,2,7,12,312,509.02276666628313,509.95989189713146,"[21, 0, 233]",233,a,0.4148357090743957,1,colour,0.5,3.9
51,18,0,2,7,13,313,510.47605671855854,511.35988551682385,"[42, 0, 212]",212,a,0.3617838549107546,1,colour,0.5,3.9
51,18,0,2,7,14,314,511.8666949185572,512.783897445639,"[88, 0, 166]",166,l,0.3948586545593571,1,colour,0.5,3.9
51,18,0,2,7,15,315,513.2887403739151,514.2478796311916,"[87, 0, 167]",167,l,0.43680208013392985,1,colour,0.5,3.9
51,18,0,2,7,16,316,514.7576342138782,515.6398565139971,"[15, 0, 239]",239,a,0.3601210367778549,1,colour,0.5,3.9
51,18,0,2,7,17,317,516.148358666178,517.0318759321817,"[10, 0, 244]",244,a,0.36132541806728113,1,colour,0.5,3.9
51,18,0,2,7,18,318,517.5390768169163,518.4558681686904,"[98, 0, 156]",156,l,0.3945301869243849,1,colour,0.5,3.9
51,18,0,2,7,19,319,518.9611175461177,519.8479017653444,"[83, 0, 171]",171,l,0.3645911897474434,1,colour,0.5,3.9
51,18,0,2,7,20,320,520.3674371214875,521.1838729484152,"[0, 0, 254]",254,a,0.29411558515857905,1,colour,0.5,3.9
51,18,0,2,7,21,321,521.6956916783965,522.5678614512581,"[85, 0, 169]",169,l,0.34989954956108704,1,colour,0.5,3.9
51,18,0,2,7,22,322,523.0864460629818,524.151857594712,"[93, 0, 161]",161,l,0.5432555237930501,1,colour,0.5,3.9
51,18,0,2,7,23,323,524.6646995368064,525.51988587917,"[47, 0, 207]",207,a,0.3329956759698689,1,colour,0.5,3.9
51,18,0,2,7,24,324,526.0397965706215,527.2558684050018,"[63, 0, 191]",191,a,0.6939024356688606,0,colour,0.5,3.9
51,18,0,2,7,25,325,527.7743364382914,528.7038663475541,"[78, 0, 176]",176,l,0.4074341597734019,1,colour,0.5,3.9
51,18,0,2,7,26,326,529.2118206598243,530.1518839823984,"[54, 0, 200]",200,a,0.41773914234363474,0,colour,0.5,3.9
51,18,0,2,7,27,327,530.6651481274748,531.4638258286723,"[23, 0, 231]",231,a,0.27657368092332035,1,colour,0.5,3.9
51,18,0,2,7,28,328,531.9777339120774,532.8078870039899,"[41, 0, 213]",213,a,0.30789783474756405,1,colour,0.5,3.9
51,18,0,2,7,29,329,533.3215213643853,534.127876700979,"[52, 0, 202]",202,a,0.28398389485664666,0,colour,0.5,3.9
51,18,0,2,7,30,330,534.6341544105089,535.4078748735337,"[5, 0, 249]",249,a,0.25146875048812944,1,colour,0.5,3.9
51,18,0,2,7,31,331,535.9155850012467,536.6478791585687,"[22, 0, 232]",232,a,0.2101275155437179,1,colour,0.5,3.9
51,18,0,2,7,32,332,537.1656433889293,537.831889953115,"[39, 0, 215]",215,a,0.1440161193459062,1,colour,0.5,3.9
51,18,0,2,7,33,333,538.3375792566076,539.0158936584048,"[11, 0, 243]",243,a,0.15600321850797627,1,colour,0.5,3.9
51,18,0,2,7,34,334,539.5252299765707,542.0718686381588,"[70, 0, 184]",184,l,2.0246055336174322,1,colour,0.5,3.9
51,18,0,2,7,35,335,542.587958234988,543.6478508016589,"[56, 0, 198]",198,l,0.5377089895046083,1,colour,0.5,3.9
51,18,0,2,7,36,336,544.1662105272699,545.0318916860269,"[95, 0, 159]",159,l,0.34351451696420554,1,colour,0.5,3.9
51,18,0,2,7,37,337,545.5415170872147,546.4318344995845,"[31, 0, 223]",223,a,0.3684678166755475,1,colour,0.5,3.9
51,18,0,2,7,38,338,546.9476472226233,547.9438792972069,"[94, 0, 160]",160,l,0.4740087189566111,1,colour,0.5,3.9
51,18,0,2,7,39,339,548.4634185918258,549.3518356968707,"[17, 0, 237]",237,a,0.3661527894291794,1,colour,0.5,3.9
51,18,0,2,7,40,340,549.8697740071802,550.7998580578715,"[60, 0, 194]",194,a,0.4078760550619336,0,colour,0.5,3.9
51,18,0,2,7,41,341,551.3073929240927,552.9038901358581,"[55, 0, 199]",199,a,1.0743159976846073,0,colour,0.5,3.9
51,18,0,2,7,42,342,553.4169010379119,554.3198219185579,"[51, 0, 203]",203,a,0.38067350041819736,0,colour,0.5,3.9
51,18,0,2,7,43,343,554.8389244378777,555.7198848551634,"[96, 0, 158]",158,l,0.3587638431927189,1,colour,0.5,3.9
51,18,0,2,7,44,344,556.2296965455462,557.0558816382254,"[45, 0, 209]",209,a,0.30397906628786586,1,colour,0.5,3.9
51,18,0,2,7,45,345,557.5735151116824,558.3438811876695,"[50, 0, 204]",204,a,0.24811436345044058,1,colour,0.5,3.9
51,18,0,2,7,46,346,558.85482518551,559.7678529441764,"[30, 0, 224]",224,a,0.3907902245846344,1,colour,0.5,3.9
51,18,0,2,7,47,347,560.2768241670274,561.0798542612029,"[12, 0, 242]",242,a,0.28082249239378143,1,colour,0.5,3.9
51,18,0,2,7,48,348,561.5893965608557,565.0238871583715,"[65, 0, 189]",189,a,2.91223455267027,0,colour,0.5,3.9
51,18,0,2,7,49,349,565.5428841269459,566.4318797918822,"[92, 0, 162]",162,l,0.36678727545950096,1,colour,0.5,3.9
51,18,0,2,7,50,350,566.9492415115383,567.799850968644,"[27, 0, 227]",227,a,0.3283790122513892,1,colour,0.5,3.9
51,18,0,2,8,1,351,588.9970788436622,590.1918487252988,"[95, 0, 159]",159,l,0.6717257507989416,1,colour,0.5,3.9
51,18,0,2,8,2,352,590.701142901933,591.7998564824957,"[51, 0, 203]",203,a,0.5764713203243446,0,colour,0.5,3.9
51,18,0,2,8,3,353,592.3105838649935,593.2398947958427,"[7, 0, 247]",247,a,0.4069666644791141,1,colour,0.5,3.9
51,18,0,2,8,4,354,593.7482228680456,595.2718943956861,"[69, 0, 185]",185,l,1.0014501412515529,1,colour,0.5,3.9
51,18,0,2,8,5,355,595.7796832926251,596.8318840454158,"[72, 0, 182]",182,l,0.5299525848677149,1,colour,0.5,3.9
51,18,0,2,8,6,356,597.3422857172118,598.6318334755779,"[2, 0, 252]",252,a,0.7676036396005657,1,colour,0.5,3.9
51,18,0,2,8,7,357,599.1392513695027,600.2798567818099,"[88, 0, 166]",166,l,0.619031508860644,1,colour,0.5,3.9
51,18,0,2,8,8,358,600.7956580833124,602.495876234665,"[52, 0, 202]",202,a,1.177892395746312,0,colour,0.5,3.9
51,18,0,2,8,9,359,603.0146242925111,604.0238603768375,"[77, 0, 177]",177,l,0.4871576640580315,1,colour,0.5,3.9
51,18,0,2,8,10,360,604.5303310709569,605.1118849748891,"[28, 0, 226]",226,a,0.059291951401974075,1,colour,0.5,3.9
51,18,0,2,8,11,361,605.6241645047849,606.5198535837844,"[9, 0, 245]",245,a,0.37349880645342637,1,colour,0.5,3.9
51,18,0,2,8,12,362,607.0305246462958,607.9278733926621,"[50, 0, 204]",204,a,0.37508443075057585,1,colour,0.5,3.9
51,18,0,2,8,13,363,608.4369147201214,609.5278474775987,"[68, 0, 186]",186,l,0.5687401218456216,1,colour,0.5,3.9
51,18,0,2,8,14,364,610.0464777754678,610.9518574371759,"[96, 0, 158]",158,l,0.38324807221943047,1,colour,0.5,3.9
51,18,0,2,8,15,365,611.4683723877679,612.4078366704634,"[1, 0, 253]",253,a,0.41716176400950644,1,colour,0.5,3.9
51,18,0,2,8,16,366,612.9216254185158,613.7998332455754,"[64, 0, 190]",190,l,0.3560191298893187,1,colour,0.5,3.9
51,18,0,2,8,17,367,614.3123459323397,615.2318630928057,"[10, 0, 244]",244,a,0.3971677740919404,1,colour,0.5,3.9
51,18,0,2,8,18,368,615.7500168369297,616.5758454989118,"[65, 0, 189]",189,l,0.3036005802132422,1,colour,0.5,3.9
51,18,0,2,8,19,369,617.0938393415272,617.9838664893323,"[94, 0, 160]",160,l,0.36779552142252214,1,colour,0.5,3.9
51,18,0,2,8,20,370,618.5002195691923,619.2158430098061,"[90, 0, 164]",164,l,0.19344104499032255,1,colour,0.5,3.9
51,18,0,2,8,21,371,619.7347206430131,620.4238732949889,"[27, 0, 227]",227,a,0.16685682866955176,1,colour,0.5,3.9
51,18,0,2,8,22,372,620.9379318276042,622.1998304098815,"[5, 0, 249]",249,a,0.7396118174219737,1,colour,0.5,3.9
51,18,0,2,8,23,373,622.71927163683,623.7038821013994,"[29, 0, 225]",225,a,0.46240995202970225,1,colour,0.5,3.9
51,18,0,2,8,24,374,624.2194786029431,625.2158327698126,"[74, 0, 180]",180,l,0.47415129124419764,1,colour,0.5,3.9
51,18,0,2,8,25,375,625.7351609629259,626.5758533758344,"[30, 0, 224]",224,a,0.3184422757476568,1,colour,0.5,3.9
51,18,0,2,8,26,376,627.0946514521347,628.0078595922969,"[39, 0, 215]",215,a,0.3909828153118724,1,colour,0.5,3.9
51,18,0,2,8,27,377,628.5166149875004,629.3038719401666,"[87, 0, 167]",167,a,0.265022569350549,0,colour,0.5,3.9
51,18,0,2,8,28,378,629.8136032859329,630.359863855294,"[33, 0, 221]",221,a,0.02407069064793177,1,colour,0.5,3.9
51,18,0,2,8,29,379,630.8761468305456,631.4718528055528,"[25, 0, 229]",229,a,0.07364173319365364,1,colour,0.5,3.9
51,18,0,2,8,30,380,631.985648248985,634.5198673683917,"[45, 0, 209]",209,a,2.0118866684206296,1,colour,0.5,3.9
51,18,0,2,8,31,381,635.0328065904614,635.5998610511015,"[4, 0, 250]",250,a,0.044848828081740066,1,colour,0.5,3.9
51,18,0,2,8,32,382,636.1109783412248,636.6958787552721,"[97, 0, 157]",157,l,0.06299134758592118,1,colour,0.5,3.9
51,18,0,2,8,33,383,637.2048165012093,637.8718444560072,"[18, 0, 236]",236,a,0.14479947918152902,1,colour,0.5,3.9
51,18,0,2,8,34,384,638.3923356765881,639.0398343798443,"[14, 0, 240]",240,a,0.12559515064640436,1,colour,0.5,3.9
51,18,0,2,8,35,385,639.5487484950136,641.3598673999077,"[66, 0, 188]",188,a,1.2888998815760715,0,colour,0.5,3.9
51,18,0,2,8,36,386,641.8770006888371,642.943872601827,"[42, 0, 212]",212,a,0.5445595481432974,1,colour,0.5,3.9
51,18,0,2,8,37,387,643.4552695226594,644.4078335196973,"[84, 0, 170]",170,l,0.43023154605180025,1,colour,0.5,3.9
51,18,0,2,8,38,388,644.9241783287871,645.8558306745399,"[35, 0, 219]",219,a,0.40948255320836324,1,colour,0.5,3.9
51,18,0,2,8,39,389,646.3617649502994,647.3358270354074,"[8, 0, 246]",246,a,0.45186905562877655,1,colour,0.5,3.9
51,18,0,2,8,40,390,647.8463145656569,648.6078234372253,"[43, 0, 211]",211,a,0.23928394056565594,1,colour,0.5,3.9
51,18,0,2,8,41,391,649.1275588671851,650.1118700087391,"[76, 0, 178]",178,l,0.46191843210544903,1,colour,0.5,3.9
51,18,0,2,8,42,392,650.6277162086917,651.5278715021996,"[98, 0, 156]",156,l,0.3779110640316503,1,colour,0.5,3.9
51,18,0,2,8,43,393,652.0340661102236,653.0478452090465,"[85, 0, 169]",169,l,0.4915226601297036,1,colour,0.5,3.9
51,18,0,2,8,44,394,653.5655003440334,654.4238673873042,"[47, 0, 207]",207,a,0.33608461073890794,1,colour,0.5,3.9
51,18,0,2,8,45,395,654.9405516917031,655.6798598538153,"[6, 0, 248]",248,a,0.21709228956024162,1,colour,0.5,3.9
51,18,0,2,8,46,396,656.1906912116829,657.7998612086521,"[70, 0, 184]",184,l,1.0870155644079205,1,colour,0.5,3.9
51,18,0,2,8,47,397,658.3157924793486,659.3598772460537,"[99, 0, 155]",155,l,0.5217688572447514,1,colour,0.5,3.9
51,18,0,2,8,48,398,659.8784732793138,662.5999280049436,"[3, 0, 251]",251,a,2.1992211300093913,1,colour,0.5,3.9
51,18,0,2,8,49,399,663.113066906968,664.3998124505015,"[58, 0, 196]",196,a,0.7644292402401334,0,colour,0.5,3.9
51,18,0,2,8,50,400,664.9101377161569,666.119960788681,"[26, 0, 228]",228,a,0.6876930584112415,1,colour,0.5,3.9
51,18,0,2,9,1,401,671.441115482361,672.6238108310063,"[90, 0, 164]",164,l,0.6598134823725559,1,colour,0.5,3.9
51,18,0,2,9,2,402,673.1295308544941,674.1358434194117,"[21, 0, 233]",233,a,0.48413528928358573,1,colour,0.5,3.9
51,18,0,2,9,3,403,674.6452325129358,675.7758570779843,"[41, 0, 213]",213,a,0.6082550925202668,1,colour,0.5,3.9
51,18,0,2,9,4,404,676.2860287436779,677.3118193601404,"[69, 0, 185]",185,l,0.503489279319183,1,colour,0.5,3.9
51,18,0,2,9,5,405,677.8173838144285,678.8158226085798,"[61, 0, 193]",193,l,0.47616030008066446,1,colour,0.5,3.9
51,18,0,2,9,6,406,679.3331051651767,680.1918223376124,"[11, 0, 243]",243,a,0.33645049374899827,1,colour,0.5,3.9
51,18,0,2,9,7,407,680.7082608820638,681.6558486339345,"[40, 0, 214]",214,a,0.4254821562208235,1,colour,0.5,3.9
51,18,0,2,9,8,408,682.1614382943662,683.3518404230272,"[84, 0, 170]",170,l,0.6680948838184122,1,colour,0.5,3.9
51,18,0,2,9,9,409,683.8647800389444,684.759848416521,"[20, 0, 234]",234,a,0.37302619115507696,1,colour,0.5,3.9
51,18,0,2,9,10,410,685.271150420449,686.3038585493923,"[96, 0, 158]",158,l,0.5105556656053523,1,colour,0.5,3.9
51,18,0,2,9,11,411,686.8181041588978,687.743841330448,"[49, 0, 205]",205,a,0.40339999440766405,1,colour,0.5,3.9
51,18,0,2,9,12,412,688.2557116542594,689.3358132508001,"[15, 0, 239]",239,a,0.5578152255475288,1,colour,0.5,3.9
51,18,0,2,9,13,413,689.8495803373225,690.7998564824957,"[50, 0, 204]",204,a,0.4278964326658752,1,colour,0.5,3.9
51,18,0,2,9,14,414,691.3183902880701,692.1838556191797,"[35, 0, 219]",219,a,0.343309717005468,1,colour,0.5,3.9
51,18,0,2,9,15,415,692.6936058695719,693.8238527362264,"[46, 0, 208]",208,a,0.6080278433364583,1,colour,0.5,3.9
51,18,0,2,9,16,416,694.3342729187862,695.3038191647938,"[85, 0, 169]",169,l,0.44776124105555937,1,colour,0.5,3.9
51,18,0,2,9,17,417,695.8188390756841,697.3278599231271,"[57, 0, 197]",197,a,0.9867817379854387,0,colour,0.5,3.9
51,18,0,2,9,18,418,697.8345543218165,698.8400090899668,"[75, 0, 179]",179,l,0.48311089562776033,1,colour,0.5,3.9
51,18,0,2,9,19,419,699.3503209648625,700.1838863391749,"[17, 0, 237]",237,a,0.3113140556233702,1,colour,0.5,3.9
51,18,0,2,9,20,420,700.6942005771416,701.7518454642559,"[91, 0, 163]",163,l,0.5353817530267406,1,colour,0.5,3.9
51,18,0,2,9,21,421,702.2568120601936,703.2318434004992,"[26, 0, 228]",228,a,0.45277490159787703,1,colour,0.5,3.9
51,18,0,2,9,22,422,703.7412892078719,704.8318304823479,"[94, 0, 160]",160,l,0.5684199249808444,1,colour,0.5,3.9
51,18,0,2,9,23,423,705.3508479309094,706.2638244895934,"[22, 0, 232]",232,a,0.3907858922757441,1,colour,0.5,3.9
51,18,0,2,9,24,424,706.772860697034,708.2878483125533,"[56, 0, 198]",198,a,0.9927949798875488,0,colour,0.5,3.9
51,18,0,2,9,25,425,708.8041368016566,710.4958163700649,"[10, 0, 244]",244,a,1.1693423912802245,1,colour,0.5,3.9
51,18,0,2,9,26,426,711.007536244666,712.1438132886105,"[36, 0, 218]",218,a,0.6141501805977896,1,colour,0.5,3.9
51,18,0,2,9,27,427,712.6638145646721,713.7838619994873,"[23, 0, 231]",231,a,0.598264792948612,1,colour,0.5,3.9
51,18,0,2,9,28,428,714.2889932230901,715.311819753988,"[54, 0, 200]",200,a,0.5006319260282908,0,colour,0.5,3.9
51,18,0,2,9,29,429,715.8204376969079,716.7998596332618,"[19, 0, 235]",235,a,0.45723993457795586,1,colour,0.5,3.9
51,18,0,2,9,30,430,717.3049550168798,718.2158457667247,"[18, 0, 236]",236,a,0.3887374988262309,1,colour,0.5,3.9
51,18,0,2,9,31,431,718.7268397830194,719.8318419038842,"[81, 0, 173]",173,l,0.5827791590854758,1,colour,0.5,3.9
51,18,0,2,9,32,432,720.3519609399227,721.3118225109065,"[24, 0, 230]",230,a,0.43753857229603454,1,colour,0.5,3.9
51,18,0,2,9,33,433,721.8208472968254,722.8158458455,"[62, 0, 192]",192,a,0.47265349462395534,0,colour,0.5,3.9
51,18,0,2,9,34,434,723.3210022752464,724.3998148135724,"[43, 0, 211]",211,a,0.5565950903837802,1,colour,0.5,3.9
51,18,0,2,9,35,435,724.9148292106256,726.1038115241827,"[63, 0, 191]",191,a,0.666767228700337,0,colour,0.5,3.9
51,18,0,2,9,36,436,726.6179913613887,728.1758562115283,"[60, 0, 194]",194,a,1.035543426842196,0,colour,0.5,3.9
51,18,0,2,9,37,437,728.6964561336208,730.0478227598214,"[51, 0, 203]",203,a,0.8291566613333998,0,colour,0.5,3.9
51,18,0,2,9,38,438,730.5558806536137,731.7758440810721,"[76, 0, 178]",178,a,0.6976294010819402,0,colour,0.5,3.9
51,18,0,2,9,39,439,732.2904677828046,733.3998199335765,"[37, 0, 217]",217,a,0.5870803520811023,1,colour,0.5,3.9
51,18,0,2,9,40,440,733.9155369520158,735.1678418377269,"[45, 0, 209]",209,a,0.7300681393098785,1,colour,0.5,3.9
51,18,0,2,9,41,441,735.6813060566055,736.6958173152816,"[3, 0, 251]",251,a,0.4922426107514184,1,colour,0.5,3.9
51,18,0,2,9,42,442,737.2127469857951,738.3598414060689,"[16, 0, 238]",238,a,0.6248190769692883,1,colour,0.5,3.9
51,18,0,2,9,43,443,738.8691485796153,739.9518511356437,"[98, 0, 156]",156,l,0.5606083819147898,1,colour,0.5,3.9
51,18,0,2,9,44,444,740.4629735457565,741.3678341183404,"[33, 0, 221]",221,a,0.3826817215740448,1,colour,0.5,3.9
51,18,0,2,9,45,445,741.8849890687998,742.8957934482169,"[83, 0, 171]",171,l,0.4885274607222527,1,colour,0.5,3.9
51,18,0,2,9,46,446,743.4163543795585,744.4318281980377,"[73, 0, 181]",181,l,0.49325873363704886,1,colour,0.5,3.9
51,18,0,2,9,47,447,744.947706693376,745.807823594776,"[93, 0, 161]",161,l,0.3378699150052853,1,colour,0.5,3.9
51,18,0,2,9,48,448,746.3227836410515,746.9918434477586,"[38, 0, 216]",216,a,0.14678446340258233,1,colour,0.5,3.9
51,18,0,2,9,49,449,747.5104512964026,748.415834896572,"[72, 0, 182]",182,a,0.3833477152802516,0,colour,0.5,3.9
51,18,0,2,9,50,450,748.93239868409,749.5998492357321,"[92, 0, 162]",162,l,0.14511652528017294,1,colour,0.5,3.9
51,18,0,2,10,1,451,755.7446231149079,757.0238446230069,"[70, 0, 184]",184,l,0.756097426492488,1,colour,0.5,3.9
51,18,0,2,10,2,452,757.5425225762447,758.3277973016084,"[38, 0, 216]",216,a,0.2633152466150932,1,colour,0.5,3.9
51,18,0,2,10,3,453,758.8394230470149,760.3278095108399,"[59, 0, 195]",195,a,0.966140265139984,0,colour,0.5,3.9
51,18,0,2,10,4,454,760.8395526223612,761.7918464409886,"[41, 0, 213]",213,a,0.43003107838740107,1,colour,0.5,3.9
51,18,0,2,10,5,455,762.3085173546278,763.2638658434298,"[27, 0, 227]",227,a,0.43336222850484774,1,colour,0.5,3.9
51,18,0,2,10,6,456,763.7772552315582,764.7278184905299,"[90, 0, 164]",164,l,0.4282879156671697,1,colour,0.5,3.9
51,18,0,2,10,7,457,765.2461289853818,766.1838386838062,"[13, 0, 241]",241,a,0.41532604745589197,1,colour,0.5,3.9
51,18,0,2,10,8,458,766.6995730314666,767.6318082694343,"[17, 0, 237]",237,a,0.41014500231540296,1,colour,0.5,3.9
51,18,0,2,10,9,459,768.1370387422503,769.0398178383184,"[85, 0, 169]",169,l,0.3805703127582092,1,colour,0.5,3.9
51,18,0,2,10,10,460,769.5590471760661,770.5117978561466,"[28, 0, 226]",226,a,0.4307715090253623,1,colour,0.5,3.9
51,18,0,2,10,11,461,771.0279599206551,771.7838092241145,"[79, 0, 175]",175,l,0.23369920320692472,1,colour,0.5,3.9
51,18,0,2,10,12,462,772.2936165821884,773.2318398558855,"[33, 0, 221]",221,a,0.41594477962644305,1,colour,0.5,3.9
51,18,0,2,10,13,463,773.7469948559738,774.6318240232795,"[0, 0, 254]",254,a,0.36268851935165003,1,colour,0.5,3.9
51,18,0,2,10,14,464,775.1376263605925,775.9758150940033,"[89, 0, 165]",165,l,0.3160122454719385,1,colour,0.5,3.9
51,18,0,2,10,15,465,776.4814654067304,777.2558175988524,"[47, 0, 207]",207,a,0.2520595195965143,1,colour,0.5,3.9
51,18,0,2,10,16,466,777.7628254990123,778.4958159762173,"[56, 0, 198]",198,a,0.21068205081974156,0,colour,0.5,3.9
51,18,0,2,10,17,467,779.0129339051491,779.7678419164877,"[21, 0, 233]",233,a,0.23273664340376854,1,colour,0.5,3.9
51,18,0,2,10,18,468,780.2786275882099,781.5518354605592,"[69, 0, 185]",185,l,0.7508951136696851,1,colour,0.5,3.9
51,18,0,2,10,19,469,782.0600540435553,782.9918458108441,"[40, 0, 214]",214,a,0.4096129162644502,1,colour,0.5,3.9
51,18,0,2,10,20,470,783.497563865094,784.3518313645618,"[53, 0, 201]",201,a,0.331809805429657,0,colour,0.5,3.9
51,18,0,2,10,21,471,784.8571473019838,785.5838098542736,"[76, 0, 178]",178,l,0.2044265935983276,1,colour,0.5,3.9
51,18,0,2,10,22,472,786.0914971389138,787.0718190135522,"[7, 0, 247]",247,a,0.4575042052892968,1,colour,0.5,3.9
51,18,0,2,10,23,473,787.5916887450294,788.2958213325182,"[15, 0, 239]",239,a,0.18205298569228034,1,colour,0.5,3.9
51,18,0,2,10,24,474,788.8105907573045,789.3358112815622,"[3, 0, 251]",251,a,0.0030030763300601393,1,colour,0.5,3.9
51,18,0,2,10,25,475,789.8575785634312,790.6318126017431,"[93, 0, 161]",161,l,0.2520500672981143,1,colour,0.5,3.9
51,18,0,2,10,26,476,791.1388512218837,791.8158143378096,"[87, 0, 167]",167,l,0.15471691722632386,1,colour,0.5,3.9
51,18,0,2,10,27,477,792.326473191104,793.0798814365844,"[58, 0, 196]",196,a,0.23145112981728744,0,colour,0.5,3.9
51,18,0,2,10,28,478,793.5922161049239,796.1757998915418,"[62, 0, 192]",192,a,2.0615888617176097,0,colour,0.5,3.9
51,18,0,2,10,29,479,796.6862307079427,797.4478384348913,"[99, 0, 155]",155,l,0.23940170054265764,1,colour,0.5,3.9
51,18,0,2,10,30,480,797.9675652002334,799.5198378299392,"[14, 0, 240]",240,a,1.030149704834912,1,colour,0.5,3.9
51,18,0,2,10,31,481,800.0303265417169,801.103806010331,"[72, 0, 182]",182,l,0.5512962852808414,1,colour,0.5,3.9
51,18,0,2,10,32,482,801.6240506832692,802.615824420267,"[67, 0, 187]",187,l,0.4695495936903171,1,colour,0.5,3.9
51,18,0,2,10,33,483,803.124196997087,803.8158119747386,"[5, 0, 249]",249,a,0.1694176158780465,1,colour,0.5,3.9
51,18,0,2,10,34,484,804.3273916401522,805.4317896011344,"[30, 0, 224]",224,a,0.5821655469044344,1,colour,0.5,3.9
51,18,0,2,10,35,485,805.9369381539582,807.2798386648938,"[75, 0, 179]",179,l,0.8207598629815038,1,colour,0.5,3.9
51,18,0,2,10,36,486,807.7965083970048,808.7998438794166,"[81, 0, 173]",173,l,0.4811176406365121,1,colour,0.5,3.9
51,18,0,2,10,37,487,809.3121446769946,810.2958268463699,"[22, 0, 232]",232,a,0.46138398299808614,1,colour,0.5,3.9
51,18,0,2,10,38,488,810.8122756308148,811.631834263273,"[25, 0, 229]",229,a,0.29722303070593625,1,colour,0.5,3.9
51,18,0,2,10,39,489,812.1405809938587,813.0638113351306,"[39, 0, 215]",215,a,0.40091837028739974,1,colour,0.5,3.9
51,18,0,2,10,40,490,813.5780585200118,814.4798274008936,"[86, 0, 168]",168,l,0.37947738988441415,1,colour,0.5,3.9
51,18,0,2,10,41,491,815.0001992861216,815.9198034865694,"[97, 0, 157]",157,l,0.3974367709743092,1,colour,0.5,3.9
51,18,0,2,10,42,492,816.4377614891855,817.3438067507668,"[29, 0, 225]",225,a,0.383816785964882,1,colour,0.5,3.9
51,18,0,2,10,43,493,817.8597888276126,818.7678064703359,"[94, 0, 160]",160,l,0.385998299359926,1,colour,0.5,3.9
51,18,0,2,10,44,494,819.2816940737684,820.1838296253409,"[48, 0, 206]",206,l,0.3798964421148412,0,colour,0.5,3.9
51,18,0,2,10,45,495,820.7037151106633,821.4878004208731,"[78, 0, 176]",176,l,0.26183084075455554,1,colour,0.5,3.9
51,18,0,2,10,46,496,822.000699076787,822.7998367901891,"[23, 0, 231]",231,a,0.27689072700741235,1,colour,0.5,3.9
51,18,0,2,10,47,497,823.3133396059857,824.1118010856735,"[42, 0, 212]",212,a,0.27623930560366716,1,colour,0.5,3.9
51,18,0,2,10,48,498,824.6258844305994,825.4157907858171,"[49, 0, 205]",205,a,0.26799295646196697,1,colour,0.5,3.9
51,18,0,2,10,49,499,825.9229503167153,826.7918586502201,"[91, 0, 163]",163,l,0.3467184547916986,1,colour,0.5,3.9
51,18,0,2,10,50,500,827.2978512151894,828.1277999009908,"[82, 0, 172]",172,l,0.30752643790037837,1,colour,0.5,3.9
51,18,0,2,11,1,501,833.4851502306265,834.8318241808156,"[91, 0, 163]",163,l,0.8235884655150585,1,colour,0.5,3.9
51,18,0,2,11,2,502,835.345490836582,836.2158268621133,"[79, 0, 175]",175,l,0.34798466993379407,1,colour,0.5,3.9
51,18,0,2,11,3,503,836.7362062304164,837.6798114107514,"[95, 0, 159]",159,l,0.42141215087031014,1,colour,0.5,3.9
51,18,0,2,11,4,504,838.1894990396104,839.1278219563683,"[64, 0, 190]",190,a,0.4160700226784684,0,colour,0.5,3.9
51,18,0,2,11,5,505,839.642689448825,840.4718232670857,"[40, 0, 214]",214,a,0.30700498569058254,1,colour,0.5,3.9
51,18,0,2,11,6,506,840.9866068703268,841.8238200470078,"[41, 0, 213]",213,a,0.31503905181307346,1,colour,0.5,3.9
51,18,0,2,11,7,507,842.3305585564522,843.2238223313179,"[90, 0, 164]",164,l,0.3710931946261553,1,colour,0.5,3.9
51,18,0,2,11,8,508,843.7367780949135,844.5598049359251,"[15, 0, 239]",239,a,0.3009547222754918,1,colour,0.5,3.9
51,18,0,2,11,9,509,845.0650487995008,845.9597875279287,"[93, 0, 161]",161,l,0.3725598774035461,1,colour,0.5,3.9
51,18,0,2,11,10,510,846.471397913323,847.2878120787063,"[82, 0, 172]",172,l,0.2940895913197892,1,colour,0.5,3.9
51,18,0,2,11,11,511,847.7995760640915,848.7598074565321,"[49, 0, 205]",205,a,0.43801394451293163,1,colour,0.5,3.9
51,18,0,2,11,12,512,849.2684663594409,850.1518272685644,"[22, 0, 232]",232,a,0.36113479657797143,1,colour,0.5,3.9
51,18,0,2,11,13,513,850.6591711194342,851.8638127529703,"[60, 0, 194]",194,l,0.682959816273069,1,colour,0.5,3.9
51,18,0,2,11,14,514,852.3781083809299,853.2478051942744,"[30, 0, 224]",224,l,0.34742777157225646,0,colour,0.5,3.9
51,18,0,2,11,15,515,853.7532006886031,855.1038316103222,"[92, 0, 162]",162,l,0.8283677876461297,1,colour,0.5,3.9
51,18,0,2,11,16,516,855.6126551408961,856.6158275710332,"[39, 0, 215]",215,a,0.4808734560647281,1,colour,0.5,3.9
51,18,0,2,11,17,517,857.1284914947028,858.1837788191915,"[77, 0, 177]",177,l,0.533138799626613,1,colour,0.5,3.9
51,18,0,2,11,18,518,858.691057685457,859.8158044916636,"[88, 0, 166]",166,l,0.6025143921287963,1,colour,0.5,3.9
51,18,0,2,11,19,519,860.3317849931336,861.3197888354916,"[29, 0, 225]",225,a,0.46577615443675313,1,colour,0.5,3.9
51,18,0,2,11,20,520,861.8319647838653,862.743801945835,"[98, 0, 156]",156,l,0.3896858801745111,1,colour,0.5,3.9
51,18,0,2,11,21,521,863.2539346207632,865.2878053833265,"[3, 0, 251]",251,a,1.5116052654047962,1,colour,0.5,3.9
51,18,0,2,11,22,522,865.8010533807246,868.391810285917,"[6, 0, 248]",248,a,2.068591838789871,1,colour,0.5,3.9
51,18,0,2,11,23,523,868.9105902453011,870.0238079953124,"[36, 0, 218]",218,a,0.5909684005455347,1,colour,0.5,3.9
51,18,0,2,11,24,524,870.5357708729571,871.5518216759519,"[13, 0, 241]",241,a,0.4937140196998371,1,colour,0.5,3.9
51,18,0,2,11,25,525,872.0672031375434,873.4398094887729,"[71, 0, 183]",183,l,0.8503503063839162,1,colour,0.5,3.9
51,18,0,2,11,26,526,873.9579013990588,874.9917898846907,"[51, 0, 203]",203,a,0.5117186930729076,0,colour,0.5,3.9
51,18,0,2,11,27,527,875.5049721097894,876.3837896105833,"[12, 0, 242]",242,a,0.3565590928628808,1,colour,0.5,3.9
51,18,0,2,11,28,528,876.8956418174785,877.671797430783,"[23, 0, 231]",231,a,0.2538932669267524,1,colour,0.5,3.9
51,18,0,2,11,29,529,878.176995608228,878.9838070185797,"[59, 0, 195]",195,a,0.2845904178102501,0,colour,0.5,3.9
51,18,0,2,11,30,530,879.4896558297332,880.2398097250843,"[66, 0, 188]",188,a,0.2279124228080036,0,colour,0.5,3.9
51,18,0,2,11,31,531,880.755353845103,881.5037897838774,"[9, 0, 245]",245,a,0.22622597392182797,1,colour,0.5,3.9
51,18,0,2,11,32,532,882.0210947896994,882.6078092587704,"[67, 0, 187]",187,a,0.06448481191182509,0,colour,0.5,3.9
51,18,0,2,11,33,533,883.1148935650708,883.6558100370166,"[53, 0, 201]",201,a,0.018649399411515333,0,colour,0.5,3.9
51,18,0,2,11,34,534,884.1618648296717,884.7518096242566,"[8, 0, 246]",246,a,0.0677588543476304,1,colour,0.5,3.9
51,18,0,2,11,35,535,885.2713311958069,886.7278255797573,"[61, 0, 193]",193,a,0.9342710283381166,0,colour,0.5,3.9
51,18,0,2,11,36,536,887.2401984511671,888.2478134650446,"[83, 0, 171]",171,l,0.48535109210934024,1,colour,0.5,3.9
51,18,0,2,11,37,537,888.7559517034533,889.6478228385822,"[86, 0, 168]",168,l,0.369687164115021,1,colour,0.5,3.9
51,18,0,2,11,38,538,890.1622953034239,891.1679343915457,"[43, 0, 211]",211,a,0.4833991909545148,1,colour,0.5,3.9
51,18,0,2,11,39,539,891.6780706110876,893.3357963154122,"[16, 0, 238]",238,a,1.1354661148652667,1,colour,0.5,3.9
51,18,0,2,11,40,540,893.8501628356607,894.7677852026536,"[99, 0, 155]",155,l,0.39569518361531664,1,colour,0.5,3.9
51,18,0,2,11,41,541,895.2877510325634,896.1677847300452,"[17, 0, 237]",237,a,0.35786548029864207,1,colour,0.5,3.9
51,18,0,2,11,42,542,896.6784451587155,897.7518423134898,"[37, 0, 217]",217,a,0.5510532822518144,1,colour,0.5,3.9
51,18,0,2,11,43,543,898.2723587402143,899.0158231599635,"[45, 0, 209]",209,a,0.22131235025881324,1,colour,0.5,3.9
51,18,0,2,11,44,544,899.522473841731,900.3278134493012,"[52, 0, 202]",202,a,0.28308671349077486,0,colour,0.5,3.9
51,18,0,2,11,45,545,900.8350745924836,901.6558053108602,"[44, 0, 210]",210,a,0.2985534427425591,1,colour,0.5,3.9
51,18,0,2,11,46,546,902.1633543555217,903.2078120944643,"[14, 0, 240]",240,a,0.5222375340817962,1,colour,0.5,3.9
51,18,0,2,11,47,547,903.7259445708914,904.7678009564988,"[24, 0, 230]",230,a,0.5199169929983327,1,colour,0.5,3.9
51,18,0,2,11,48,548,905.2728605001175,906.0878292504058,"[89, 0, 165]",165,l,0.29275012081780005,1,colour,0.5,3.9
51,18,0,2,11,49,549,906.6011256908532,907.7677718118939,"[84, 0, 170]",170,l,0.6442754669842543,1,colour,0.5,3.9
51,18,0,2,11,50,550,908.2730995646853,909.1118101441389,"[47, 0, 207]",207,a,0.3165439376607537,1,colour,0.5,3.9
51,18,0,2,12,1,551,913.9759367924271,918.3998124505015,"[77, 0, 177]",177,l,3.900934714896721,1,colour,0.5,3.8
51,18,0,2,12,2,552,918.9146590691234,920.0477869198221,"[97, 0, 157]",157,l,0.6109446673799539,1,colour,0.5,3.8
51,18,0,2,12,3,553,920.5553359644837,921.2078262729192,"[9, 0, 245]",245,a,0.13014486052270513,1,colour,0.5,3.8
51,18,0,2,12,4,554,921.7273246075492,922.6638082631252,"[14, 0, 240]",240,a,0.41430519841378555,1,colour,0.5,3.8
51,18,0,2,12,5,555,923.1805362844461,924.3358191584848,"[65, 0, 189]",189,a,0.6330213153414661,0,colour,0.5,3.8
51,18,0,2,12,6,556,924.8526015305688,925.6798590661201,"[61, 0, 193]",193,a,0.3049754968669731,0,colour,0.5,3.8
51,18,0,2,12,7,557,926.1965098936198,927.0638176366629,"[18, 0, 236]",236,a,0.3451123504928546,1,colour,0.5,3.8
51,18,0,2,12,8,558,927.571538398217,928.431812444207,"[1, 0, 253]",253,a,0.3379987026710296,1,colour,0.5,3.8
51,18,0,2,12,9,559,928.9465846259118,929.9837849632022,"[92, 0, 162]",162,l,0.514842286313069,1,colour,0.5,3.8
51,18,0,2,12,10,560,930.4936368258786,931.4637793548318,"[20, 0, 234]",234,a,0.44802866254758555,1,colour,0.5,3.8
51,18,0,2,12,11,561,931.9781958935346,932.8717968006385,"[67, 0, 187]",187,l,0.371403545330395,1,colour,0.5,3.8
51,18,0,2,12,12,562,933.3845611550496,934.2638075542054,"[54, 0, 200]",200,l,0.3569875973917078,1,colour,0.5,3.8
51,18,0,2,12,13,563,934.7752296811814,935.6237887756288,"[80, 0, 174]",174,l,0.3264499541837722,1,colour,0.5,3.8
51,18,0,2,12,14,564,936.134704022712,937.4478081087436,"[57, 0, 197]",197,a,0.7908055058069294,0,colour,0.5,3.8
51,18,0,2,12,15,565,937.9630186411378,938.6077612095542,"[96, 0, 158]",158,l,0.12255780970735941,1,colour,0.5,3.8
51,18,0,2,12,16,566,939.1192991272837,939.7437905242987,"[17, 0, 237]",237,a,0.102308213696233,1,colour,0.5,3.8
51,18,0,2,12,17,567,940.2600305703381,940.895813534371,"[4, 0, 250]",250,a,0.11388650065055117,1,colour,0.5,3.8
51,18,0,2,12,18,568,941.4164437826112,942.1358166378777,"[16, 0, 238]",238,a,0.19713335194683168,1,colour,0.5,3.8
51,18,0,2,12,19,569,942.6508593918406,944.5677976481966,"[8, 0, 246]",246,a,1.395308426770498,1,colour,0.5,3.8
51,18,0,2,12,20,570,945.0728871241154,946.0638022766652,"[91, 0, 163]",163,l,0.4686378400219837,1,colour,0.5,3.8
51,18,0,2,12,21,571,946.573010201013,947.3837766136567,"[84, 0, 170]",170,l,0.2884709831851069,1,colour,0.5,3.8
51,18,0,2,12,22,572,947.9013061117439,948.7358072643401,"[5, 0, 249]",249,a,0.3122612554288935,1,colour,0.5,3.8
51,18,0,2,12,23,573,949.2451187701954,950.0798223596648,"[40, 0, 214]",214,a,0.3123782277107239,1,colour,0.5,3.8
51,18,0,2,12,24,574,950.5889400932647,951.5837771650404,"[90, 0, 164]",164,l,0.4725160423258785,1,colour,0.5,3.8
51,18,0,2,12,25,575,952.0891309116851,952.8798182636674,"[36, 0, 218]",218,a,0.26857742403808516,1,colour,0.5,3.8
51,18,0,2,12,26,576,953.3860494993714,954.4558020025579,"[51, 0, 203]",203,a,0.5474980337312445,0,colour,0.5,3.8
51,18,0,2,12,27,577,954.9642872193363,955.5197976576455,"[24, 0, 230]",230,a,0.033198467310285196,1,colour,0.5,3.8
51,18,0,2,12,28,578,956.0267925608787,956.9437694141525,"[89, 0, 165]",165,l,0.39468614997167606,1,colour,0.5,3.8
51,18,0,2,12,29,579,957.4488388039172,958.2718018418673,"[72, 0, 182]",182,l,0.3007388946280116,1,colour,0.5,3.8
51,18,0,2,12,30,580,958.7771134469658,959.6797846292175,"[28, 0, 226]",226,a,0.38045806661830284,1,colour,0.5,3.8
51,18,0,2,12,31,581,960.19920695154,960.9757820109226,"[50, 0, 204]",204,a,0.25440172220987733,1,colour,0.5,3.8
51,18,0,2,12,32,582,961.4961054530722,962.2958091232867,"[7, 0, 247]",247,l,0.27732907769677695,0,colour,0.5,3.8
51,18,0,2,12,33,583,962.8087668561202,963.671799400021,"[85, 0, 169]",169,a,0.34110378513287287,0,colour,0.5,3.8
51,18,0,2,12,34,584,964.1838036315021,964.9278170726757,"[19, 0, 235]",235,a,0.2223154762177728,1,colour,0.5,3.8
51,18,0,2,12,35,585,965.43392936686,966.4397858580196,"[0, 0, 254]",254,a,0.48371229859185405,1,colour,0.5,3.8
51,18,0,2,12,36,586,966.9497164899076,967.8397861730919,"[78, 0, 176]",176,l,0.36790461678174324,1,colour,0.5,3.8
51,18,0,2,12,37,587,968.3559895914368,969.2477630527574,"[66, 0, 188]",188,l,0.3694914226362016,1,colour,0.5,3.8
51,18,0,2,12,38,588,969.7623591852607,970.5918080803822,"[38, 0, 216]",216,a,0.3071471641305834,1,colour,0.5,3.8
51,18,0,2,12,39,589,971.1061627852469,971.9437761095323,"[71, 0, 183]",183,l,0.31525645483634435,1,colour,0.5,3.8
51,18,0,2,12,40,590,972.4501042313641,973.2957764340681,"[49, 0, 205]",205,a,0.3234181270818226,1,colour,0.5,3.8
51,18,0,2,12,41,591,973.8095557298075,974.7997643225099,"[70, 0, 184]",184,l,0.4682290277996799,1,colour,0.5,3.8
51,18,0,2,12,42,592,975.3096536005614,976.1117975410598,"[13, 0, 241]",241,a,0.28010136021475773,1,colour,0.5,3.8
51,18,0,2,12,43,593,976.6223362712917,977.623753329477,"[99, 0, 155]",155,l,0.47919291486323345,1,colour,0.5,3.8
51,18,0,2,12,44,594,978.1380682558956,978.9678830340272,"[47, 0, 207]",207,a,0.30756188405212015,1,colour,0.5,3.8
51,18,0,2,12,45,595,979.481885640489,980.5998515988031,"[21, 0, 233]",233,a,0.5958004980639089,1,colour,0.5,3.8
51,18,0,2,12,46,596,981.1069189697155,982.0958026642184,"[79, 0, 175]",175,l,0.46701007419324014,1,colour,0.5,3.8
51,18,0,2,12,47,597,982.6070542558446,983.4478088964388,"[52, 0, 202]",202,a,0.3183839865378104,0,colour,0.5,3.8
51,18,0,2,12,48,598,983.9667605727009,984.8477737653593,"[39, 0, 215]",215,a,0.3590836462099105,1,colour,0.5,3.8
51,18,0,2,12,49,599,985.3572884957975,986.1039670933824,"[32, 0, 222]",222,a,0.22483215265674517,1,colour,0.5,3.8
51,18,0,2,12,50,600,986.6229171942541,987.5359091129358,"[33, 0, 221]",221,a,0.3910852152912412,1,colour,0.5,3.8
51,18,0,2,13,1,601,1012.5930975324445,1013.9117922635342,"[20, 0, 234]",234,l,0.7955911294848192,0,colour,0.5,3.8
51,18,0,2,13,2,602,1014.4223077568458,1015.2637815603666,"[6, 0, 248]",248,a,0.3199558262276696,1,colour,0.5,3.8
51,18,0,2,13,3,603,1015.782258652107,1016.6557706524036,"[84, 0, 170]",170,l,0.3525804598029936,1,colour,0.5,3.8
51,18,0,2,13,4,604,1017.1723167168384,1017.9677518832759,"[45, 0, 209]",209,a,0.2731161062110914,1,colour,0.5,3.8
51,18,0,2,13,5,605,1018.4849418860395,1019.5837421127362,"[67, 0, 187]",187,a,0.5765256710728863,0,colour,0.5,3.8
51,18,0,2,13,6,606,1020.0945439321513,1021.0717705704883,"[16, 0, 238]",238,a,0.45500997808994725,1,colour,0.5,3.8
51,18,0,2,13,7,607,1021.5789777567552,1022.3357616569556,"[50, 0, 204]",204,a,0.23448886458936613,1,colour,0.5,3.8
51,18,0,2,13,8,608,1022.8447041290492,1023.647757853978,"[53, 0, 201]",201,a,0.28074136009672657,0,colour,0.5,3.8
51,18,0,2,13,9,609,1024.1572840059525,1024.94379146953,"[2, 0, 252]",252,a,0.2648989016743144,1,colour,0.5,3.8
51,18,0,2,13,10,610,1025.4543073566892,1026.063786128987,"[43, 0, 211]",211,a,0.08731488742341753,1,colour,0.5,3.8
51,18,0,2,13,11,611,1026.5793267043773,1027.3917579043919,"[70, 0, 184]",184,l,0.2900857521017315,1,colour,0.5,3.8
51,18,0,2,13,12,612,1027.9075462089822,1028.503756306949,"[13, 0, 241]",241,a,0.07388237313716672,1,colour,0.5,3.8
51,18,0,2,13,13,613,1029.017091344329,1029.567775198957,"[30, 0, 224]",224,a,0.028662148193689063,1,colour,0.5,3.8
51,18,0,2,13,14,614,1030.079616772011,1032.0237532507163,"[9, 0, 245]",245,a,1.4219162738445448,1,colour,0.5,3.8
51,18,0,2,13,15,615,1032.5329903196543,1033.3038022294058,"[78, 0, 176]",176,l,0.24862400026177056,1,colour,0.5,3.8
51,18,0,2,13,16,616,1033.8142495873471,1034.5677614143497,"[97, 0, 157]",157,l,0.23117228678893298,1,colour,0.5,3.8
51,18,0,2,13,17,617,1035.0800566980906,1035.799803707123,"[68, 0, 186]",186,l,0.1974925395770697,1,colour,0.5,3.8
51,18,0,2,13,18,618,1036.314473882696,1036.9277938357554,"[52, 0, 202]",202,l,0.0910052251565503,1,colour,0.5,3.8
51,18,0,2,13,19,619,1037.4395739688189,1038.0717878997093,"[99, 0, 155]",155,l,0.10997245834732894,1,colour,0.5,3.8
51,18,0,2,13,20,620,1038.5803637010977,1039.1438097439968,"[57, 0, 197]",197,a,0.041217567268176936,0,colour,0.5,3.8
51,18,0,2,13,21,621,1039.6584909472585,1040.42375080887,"[81, 0, 173]",173,l,0.2435965551121626,1,colour,0.5,3.8
51,18,0,2,13,22,622,1040.9398660056904,1041.5677625958924,"[76, 0, 178]",178,l,0.10569135149125941,1,colour,0.5,3.8
51,18,0,2,13,23,623,1042.0806317133538,1042.7037513444957,"[17, 0, 237]",237,a,0.10091242320777383,1,colour,0.5,3.8
51,18,0,2,13,24,624,1043.221362368713,1043.9278021065256,"[65, 0, 189]",189,a,0.18426718832051847,0,colour,0.5,3.8
51,18,0,2,13,25,625,1044.4401934886992,1045.0877752934903,"[88, 0, 166]",166,l,0.12535923685936723,1,colour,0.5,3.8
51,18,0,2,13,26,626,1045.5965043009928,1046.1917927991599,"[51, 0, 203]",203,a,0.07301197331980802,0,colour,0.5,3.8
51,18,0,2,13,27,627,1046.705941522523,1047.3997817305062,"[8, 0, 246]",246,a,0.17152705545595381,1,colour,0.5,3.8
51,18,0,2,13,28,628,1047.909179094815,1048.623782080249,"[33, 0, 221]",221,a,0.19256276823580265,1,colour,0.5,3.8
51,18,0,2,13,29,629,1049.1436596886342,1049.9517830002733,"[98, 0, 156]",156,l,0.28592161754204426,1,colour,0.5,3.8
51,18,0,2,13,30,630,1050.4718555624713,1051.6477736078232,"[95, 0, 159]",159,l,0.6536352189723402,1,colour,0.5,3.8
51,18,0,2,13,31,631,1052.1595072670607,1053.0237756999413,"[32, 0, 222]",222,a,0.3423530649015447,1,colour,0.5,3.8
51,18,0,2,13,32,632,1053.5345282885828,1054.2717423711001,"[90, 0, 164]",164,l,0.21482649307290558,1,colour,0.5,3.8
51,18,0,2,13,33,633,1054.7847867500823,1055.487744100872,"[59, 0, 195]",195,a,0.18100456742104143,0,colour,0.5,3.8
51,18,0,2,13,34,634,1056.0035320116149,1056.615763374124,"[24, 0, 230]",230,a,0.08994853612966835,1,colour,0.5,3.8
51,18,0,2,13,35,635,1057.1286970823567,1057.7037686737167,"[25, 0, 229]",229,a,0.052905343429301865,1,colour,0.5,3.8
51,18,0,2,13,36,636,1058.2225403623306,1058.783836399496,"[40, 0, 214]",214,a,0.039169567680801265,1,colour,0.5,3.8
51,18,0,2,13,37,637,1059.3006408269575,1059.8558243730076,"[38, 0, 216]",216,a,0.0328503073687898,1,colour,0.5,3.8
51,18,0,2,13,38,638,1060.3633048884658,1060.9757469586184,"[46, 0, 208]",208,a,0.09018051146995276,1,colour,0.5,3.8
51,18,0,2,13,39,639,1061.4883478669071,1063.0077611307788,"[26, 0, 228]",228,a,0.997158794401912,1,colour,0.5,3.8
51,18,0,2,13,40,640,1063.5197988391883,1064.295792581761,"[83, 0, 171]",171,l,0.25377275003120303,1,colour,0.5,3.8
51,18,0,2,13,41,641,1064.801203042225,1065.391755541321,"[14, 0, 240]",240,a,0.06837246654322371,1,colour,0.5,3.8
51,18,0,2,13,42,642,1065.9106217529916,1066.5917868126999,"[93, 0, 161]",161,l,0.15900865792355035,1,colour,0.5,3.8
51,18,0,2,13,43,643,1067.098222848348,1067.727784225921,"[27, 0, 227]",227,a,0.1072340465761954,1,colour,0.5,3.8
51,18,0,2,13,44,644,1068.2389810729364,1068.9437639003008,"[47, 0, 207]",207,a,0.1826599024789175,1,colour,0.5,3.8
51,18,0,2,13,45,645,1069.4577472083183,1070.0957723380707,"[91, 0, 163]",163,l,0.11569504183717072,1,colour,0.5,3.8
51,18,0,2,13,46,646,1070.614067472925,1071.303751423271,"[77, 0, 177]",177,l,0.1673920655011898,1,colour,0.5,3.8
51,18,0,2,13,47,647,1071.8173751498107,1072.543741529851,"[39, 0, 215]",215,a,0.20420879671291914,1,colour,0.5,3.8
51,18,0,2,13,48,648,1073.0518076944136,1073.639758052479,"[71, 0, 183]",183,l,0.06577426397416275,1,colour,0.5,3.8
51,18,0,2,13,49,649,1074.1456273436343,1074.7597570442304,"[37, 0, 217]",217,a,0.0918705049843993,1,colour,0.5,3.8
51,18,0,2,13,50,650,1075.2707140389975,1076.2877774202498,"[28, 0, 226]",226,a,0.49477976717753336,1,colour,0.5,3.8
51,18,0,2,14,1,651,1081.567400257496,1082.8958029005153,"[5, 0, 249]",249,a,0.8052793491078774,1,colour,0.5,3.8
51,18,0,2,14,2,652,1083.4123005218862,1083.9997759015823,"[30, 0, 224]",224,a,0.06536860250344034,1,colour,0.5,3.8
51,18,0,2,14,3,653,1084.505934669607,1085.3597724830033,"[17, 0, 237]",237,a,0.33154199010459706,1,colour,0.5,3.8
51,18,0,2,14,4,654,1085.8653912880545,1089.5197815099527,"[0, 0, 254]",254,a,3.1321845893544378,1,colour,0.5,3.8
51,18,0,2,14,5,655,1090.0377198202623,1090.6317617955938,"[6, 0, 248]",248,a,0.07188439200399444,1,colour,0.5,3.8
51,18,0,2,14,6,656,1091.147110567952,1091.8557975914737,"[41, 0, 213]",213,a,0.18644594482611865,1,colour,0.5,3.8
51,18,0,2,14,7,657,1092.3659239648696,1093.4317852688255,"[87, 0, 167]",167,l,0.543646612946759,1,colour,0.5,3.8
51,18,0,2,14,8,658,1093.9442313955951,1094.575760428168,"[47, 0, 207]",207,a,0.10922139388276264,1,colour,0.5,3.8
51,18,0,2,14,9,659,1095.0849573248124,1098.3597555476154,"[67, 0, 187]",187,l,2.7525524179509375,1,colour,0.5,3.8
51,18,0,2,14,10,660,1098.8665704632003,1099.4317533672875,"[72, 0, 182]",182,l,0.04304028690967243,1,colour,0.5,3.8
51,18,0,2,14,11,661,1099.944718583196,1100.495795102368,"[15, 0, 239]",239,a,0.028814172779675573,1,colour,0.5,3.8
51,18,0,2,14,12,662,1101.0071896601294,1101.9677731509582,"[90, 0, 164]",164,l,0.4389887135475874,1,colour,0.5,3.8
51,18,0,2,14,13,663,1102.4761264293193,1103.031781409125,"[22, 0, 232]",232,a,0.03367305183201097,1,colour,0.5,3.8
51,18,0,2,14,14,664,1103.5387432292919,1104.4077756243205,"[94, 0, 160]",160,l,0.3467054578795796,1,colour,0.5,3.8
51,18,0,2,14,15,665,1104.9138359308126,1105.9117430327606,"[59, 0, 195]",195,a,0.47573494630341884,0,colour,0.5,3.8
51,18,0,2,14,16,666,1106.429626598474,1107.3437492492376,"[26, 0, 228]",228,a,0.39200760281528346,1,colour,0.5,3.8
51,18,0,2,14,17,667,1107.8515468107798,1108.7677469995833,"[18, 0, 236]",236,a,0.3939142116578296,1,colour,0.5,3.8
51,18,0,2,14,18,668,1109.273577299973,1110.36775101682,"[62, 0, 192]",192,a,0.5718231489445316,0,colour,0.5,3.8
51,18,0,2,14,19,669,1110.8830852168758,1112.207739626785,"[29, 0, 225]",225,a,0.8024322358251084,1,colour,0.5,3.8
51,18,0,2,14,20,670,1112.7269870814634,1113.9757721647766,"[21, 0, 233]",233,a,0.7266436476784293,1,colour,0.5,3.8
51,18,0,2,14,21,671,1114.4927939952613,1115.3517813461076,"[27, 0, 227]",227,a,0.3370664690010017,1,colour,0.5,3.8
51,18,0,2,14,22,672,1115.8678851214063,1117.407800042769,"[57, 0, 197]",197,l,1.0177443411084823,1,colour,0.5,3.8
51,18,0,2,14,23,673,1117.9148949829105,1118.759743259623,"[40, 0, 214]",214,a,0.32230039191199467,1,colour,0.5,3.8
51,18,0,2,14,24,674,1119.2746355643758,1120.1277282210067,"[89, 0, 165]",165,l,0.33092916560417507,1,colour,0.5,3.8
51,18,0,2,14,25,675,1120.6340945459087,1121.4237622304063,"[9, 0, 245]",245,a,0.2673773750429973,1,colour,0.5,3.8
51,18,0,2,14,26,676,1121.9310737858905,1122.6157637679717,"[95, 0, 159]",159,l,0.16240558032586705,1,colour,0.5,3.8
51,18,0,2,14,27,677,1123.1344035181537,1123.8077704255556,"[85, 0, 169]",169,l,0.15118254254048225,1,colour,0.5,3.8
51,18,0,2,14,28,678,1124.3218683427694,1125.0237705799373,"[36, 0, 218]",218,a,0.1794992877257755,1,colour,0.5,3.8
51,18,0,2,14,29,679,1125.5406762258353,1126.839776720779,"[14, 0, 240]",240,a,0.7767778901034035,1,colour,0.5,3.8
51,18,0,2,14,30,680,1127.3533969027194,1128.2557478881063,"[31, 0, 223]",223,a,0.38014850360923447,1,colour,0.5,3.8
51,18,0,2,14,31,681,1128.7754143950006,1129.6397458432475,"[19, 0, 235]",235,a,0.3422935941343894,1,colour,0.5,3.8
51,18,0,2,14,32,682,1130.1505137919012,1131.1277542148455,"[48, 0, 206]",206,a,0.467347206431441,1,colour,0.5,3.8
51,18,0,2,14,33,683,1131.6382382004667,1132.4397354457178,"[34, 0, 220]",220,a,0.2791695204068674,1,colour,0.5,3.8
51,18,0,2,14,34,684,1132.9509062988946,1134.0477829813608,"[23, 0, 231]",231,a,0.5747009822080145,1,colour,0.5,3.8
51,18,0,2,14,35,685,1134.5603590773535,1136.1677508592838,"[96, 0, 158]",158,a,1.0852735832158942,0,colour,0.5,3.8
51,18,0,2,14,36,686,1136.6855048496218,1137.831744623909,"[51, 0, 203]",203,a,0.6239841232745675,0,colour,0.5,3.8
51,18,0,2,14,37,687,1138.341916289588,1139.1917376607016,"[20, 0, 234]",234,a,0.3276677262329031,1,colour,0.5,3.8
51,18,0,2,14,38,688,1139.7013520342007,1140.5677688974247,"[80, 0, 174]",174,l,0.3441300983831752,1,colour,0.5,3.8
51,18,0,2,14,39,689,1141.076476637245,1141.7117684752302,"[71, 0, 183]",183,l,0.11331542384868953,1,colour,0.5,3.8
51,18,0,2,14,40,690,1142.2172088679945,1142.9197392896604,"[98, 0, 156]",156,l,0.18038937986420933,1,colour,0.5,3.8
51,18,0,2,14,41,691,1143.4361033971945,1143.959808795611,"[73, 0, 181]",181,l,0.0014907073928043246,1,colour,0.5,3.8
51,18,0,2,14,42,692,1144.4673649295,1145.1037284226477,"[56, 0, 198]",198,a,0.11411256829160266,0,colour,0.5,3.8
51,18,0,2,14,43,693,1145.6237450587068,1146.5997716480488,"[70, 0, 184]",184,l,0.45387373215635307,1,colour,0.5,3.8
51,18,0,2,14,44,694,1147.1082324463787,1148.2717758480285,"[7, 0, 247]",247,a,0.6413476152520161,1,colour,0.5,3.8
51,18,0,2,14,45,695,1148.780172843297,1149.751721008899,"[52, 0, 202]",202,a,0.4493110253679333,0,colour,0.5,3.8
51,18,0,2,14,46,696,1150.2646432955808,1151.25573646657,"[55, 0, 199]",199,a,0.46948421523848083,0,colour,0.5,3.8
51,18,0,2,14,47,697,1151.7647360463307,1152.591730886561,"[61, 0, 193]",193,a,0.3046458477037959,0,colour,0.5,3.8
51,18,0,2,14,48,698,1153.108746809361,1154.1917605037743,"[54, 0, 200]",200,a,0.5609860802942421,0,colour,0.5,3.8
51,18,0,2,14,49,699,1154.7025910739612,1155.5757482189365,"[92, 0, 162]",162,l,0.35094442320405506,1,colour,0.5,3.8
51,18,0,2,14,50,700,1156.0932824431657,1156.8557278807275,"[86, 0, 168]",168,l,0.23917642059677746,1,colour,0.5,3.8
51,18,0,2,15,1,701,1162.0772982001654,1163.6557383570325,"[73, 0, 181]",181,l,1.0553885429399088,1,colour,0.5,3.8
51,18,0,2,15,2,702,1164.1720626861206,1164.8157489593577,"[30, 0, 224]",224,a,0.12152002529182937,1,colour,0.5,3.8
51,18,0,2,15,3,703,1165.3284144584031,1166.1597305777832,"[99, 0, 155]",155,l,0.30908724990149494,1,colour,0.5,3.8
51,18,0,2,15,4,704,1166.6722472030087,1167.5357425160473,"[42, 0, 212]",212,a,0.3411801912880037,1,colour,0.5,3.8
51,18,0,2,15,5,705,1168.047593147552,1169.0797227166186,"[61, 0, 193]",193,a,0.510094471872435,0,colour,0.5,3.8
51,18,0,2,15,6,706,1169.5943968306383,1170.663733432375,"[55, 0, 199]",199,a,0.5470588953467086,0,colour,0.5,3.8
51,18,0,2,15,7,707,1171.1726278552378,1171.951764489495,"[18, 0, 236]",236,a,0.2569018570939079,1,colour,0.5,3.8
51,18,0,2,15,8,708,1172.469614184447,1173.35172935843,"[79, 0, 175]",175,l,0.3598760645108996,1,colour,0.5,3.8
51,18,0,2,15,9,709,1173.860342181346,1174.7357537012722,"[66, 0, 188]",188,l,0.3532306996785337,1,colour,0.5,3.8
51,18,0,2,15,10,710,1175.2510745105537,1176.079768796597,"[81, 0, 173]",173,l,0.30653473347774707,1,colour,0.5,3.8
51,18,0,2,15,11,711,1176.5948989843891,1177.447753364133,"[59, 0, 195]",195,a,0.33368766351486556,0,colour,0.5,3.8
51,18,0,2,15,12,712,1177.967035477268,1178.8077467947878,"[24, 0, 230]",230,a,0.31851946958340704,1,colour,0.5,3.8
51,18,0,2,15,13,713,1179.326509818784,1180.1357335363573,"[88, 0, 166]",166,l,0.28727959882235155,1,colour,0.5,3.8
51,18,0,2,15,14,714,1180.6555638832215,1181.3517455061228,"[71, 0, 183]",183,l,0.1752095162664773,1,colour,0.5,3.8
51,18,0,2,15,15,715,1181.8580110064213,1182.6957283060765,"[27, 0, 227]",227,a,0.31555144555750303,1,colour,0.5,3.8
51,18,0,2,15,16,716,1183.201753954112,1183.9677353417355,"[21, 0, 233]",233,a,0.24366075200669002,1,colour,0.5,3.8
51,18,0,2,15,17,717,1184.4831687910046,1185.5277041176305,"[33, 0, 221]",221,a,0.5222958233061945,1,colour,0.5,3.8
51,18,0,2,15,18,718,1186.0457834248373,1186.5917785419297,"[22, 0, 232]",232,a,0.02372134917823132,1,colour,0.5,3.8
51,18,0,2,15,19,719,1187.1084018002002,1187.7517269165837,"[25, 0, 229]",229,a,0.12116320074710529,1,colour,0.5,3.8
51,18,0,2,15,20,720,1188.264637387896,1189.375733882931,"[47, 0, 207]",207,a,0.5887916132778628,1,colour,0.5,3.8
51,18,0,2,15,21,721,1189.8898282555456,1190.8317442300613,"[67, 0, 187]",187,l,0.41967095735890325,1,colour,0.5,3.8
51,18,0,2,15,22,722,1191.3431443016598,1192.2077502606262,"[14, 0, 240]",240,a,0.3427012248139363,1,colour,0.5,3.8
51,18,0,2,15,23,723,1192.7181995878054,1193.5517669313413,"[91, 0, 163]",163,a,0.31136683098156936,0,colour,0.5,3.8
51,18,0,2,15,24,724,1194.0627692184062,1195.0957361042238,"[32, 0, 222]",222,a,0.5110716039635008,1,colour,0.5,3.8
51,18,0,2,15,25,725,1195.609845836836,1197.303734487883,"[76, 0, 178]",178,l,1.1720197568938602,1,colour,0.5,3.8
51,18,0,2,15,26,726,1197.800574463894,1198.87171842526,"[9, 0, 245]",245,a,0.5489001257519703,1,colour,0.5,3.8
51,18,0,2,15,27,727,1199.3788653530937,1200.4877523716423,"[44, 0, 210]",210,a,0.5865951337182196,1,colour,0.5,3.8
51,18,0,2,15,28,728,1201.0039573653776,1201.9677262832847,"[40, 0, 214]",214,a,0.4414360730734188,1,colour,0.5,3.8
51,18,0,2,15,29,729,1202.4728555376496,1203.5037330700434,"[39, 0, 215]",215,a,0.5095265458221547,1,colour,0.5,3.8
51,18,0,2,15,30,730,1204.0198218791775,1205.0397335552552,"[77, 0, 177]",177,l,0.4976832004613243,1,colour,0.5,3.8
51,18,0,2,15,31,731,1205.5512502053025,1206.5597171082482,"[85, 0, 169]",169,l,0.4862856888648821,1,colour,0.5,3.8
51,18,0,2,15,32,732,1207.0670093652734,1208.3917299413297,"[63, 0, 191]",191,l,0.8025444819650147,1,colour,0.5,3.8
51,18,0,2,15,33,733,1208.9106969775894,1209.9837380955141,"[5, 0, 249]",249,a,0.5506598300271435,1,colour,0.5,3.8
51,18,0,2,15,34,734,1210.4891036575282,1211.4157411612105,"[56, 0, 198]",198,a,0.40433222806314006,0,colour,0.5,3.8
51,18,0,2,15,35,735,1211.9267442359705,1212.9117509096832,"[96, 0, 158]",158,l,0.4627994657785166,1,colour,0.5,3.8
51,18,0,2,15,36,736,1213.4269496266934,1214.351710059971,"[31, 0, 223]",223,a,0.40267964992381167,1,colour,0.5,3.8
51,18,0,2,15,37,737,1214.86467685127,1215.7997367532807,"[28, 0, 226]",226,a,0.4128763248445466,1,colour,0.5,3.8
51,18,0,2,15,38,738,1216.317862534328,1217.0237213491782,"[1, 0, 253]",253,a,0.18353936077619437,1,colour,0.5,3.8
51,18,0,2,15,39,739,1217.5367259496998,1218.5117442930787,"[54, 0, 200]",200,a,0.45266935086692683,0,colour,0.5,3.8
51,18,0,2,15,40,740,1219.0212751711952,1219.8957418543869,"[82, 0, 172]",172,l,0.35233942601189483,1,colour,0.5,3.8
51,18,0,2,15,41,741,1220.41193148811,1221.359739399937,"[60, 0, 194]",194,a,0.4255865254235687,0,colour,0.5,3.8
51,18,0,2,15,42,742,1221.8653389065148,1223.8477343807608,"[58, 0, 196]",196,a,1.460308783207438,0,colour,0.5,3.8
51,18,0,2,15,43,743,1224.3654076326638,1225.695747998383,"[94, 0, 160]",160,l,0.8082591885322472,1,colour,0.5,3.8
51,18,0,2,15,44,744,1226.2092957126297,1226.9197424404265,"[46, 0, 208]",208,a,0.18826354446355253,1,colour,0.5,3.8
51,18,0,2,15,45,745,1227.43438347138,1228.1677126562136,"[38, 0, 216]",216,a,0.2117997859895695,1,colour,0.5,3.8
51,18,0,2,15,46,746,1228.6836722838343,1229.7517816611944,"[78, 0, 176]",176,l,0.544747806576197,1,colour,0.5,3.8
51,18,0,2,15,47,747,1230.263300280465,1231.1519363639236,"[90, 0, 164]",164,l,0.3667664016102208,1,colour,0.5,3.8
51,18,0,2,15,48,748,1231.6696182804444,1233.215717766754,"[43, 0, 211]",211,a,1.0241896321531385,1,colour,0.5,3.8
51,18,0,2,15,49,749,1233.7322559542663,1234.703740316807,"[3, 0, 251]",251,a,0.44919326539093163,1,colour,0.5,3.8
51,18,0,2,15,50,750,1235.2169382957509,1236.3117012063158,"[0, 0, 254]",254,a,0.5783097938110586,1,colour,0.5,3.8
51,18,0,2,16,1,751,1241.0546355092374,1243.319699826272,"[56, 0, 198]",198,l,1.7419382661901182,1,colour,0.5,3.8
51,18,0,2,16,2,752,1243.8369032198098,1244.647701927839,"[27, 0, 227]",227,a,0.28674475583829917,1,colour,0.5,3.8
51,18,0,2,16,3,753,1245.167005702504,1246.2477169727645,"[62, 0, 192]",192,l,0.5586367884534411,1,colour,0.5,3.8
51,18,0,2,16,4,754,1246.7607452040393,1247.6237147325592,"[5, 0, 249]",249,a,0.34069654828635976,1,colour,0.5,3.8
51,18,0,2,16,5,755,1248.1359021024691,1249.1597120670194,"[16, 0, 238]",238,a,0.5015870027709752,1,colour,0.5,3.8
51,18,0,2,16,6,756,1249.6672532347584,1250.8877199974959,"[77, 0, 177]",177,l,0.6982867301849183,1,colour,0.5,3.8
51,18,0,2,16,7,757,1251.40175293012,1252.0797164150717,"[2, 0, 252]",252,a,0.1558456800703425,1,colour,0.5,3.8
51,18,0,2,16,8,758,1252.5768584710167,1253.4717165347975,"[20, 0, 234]",234,a,0.372777280426817,1,colour,0.5,3.8
51,18,0,2,16,9,759,1253.983293049445,1255.0157526615221,"[98, 0, 156]",156,l,0.5102945456746966,1,colour,0.5,3.8
51,18,0,2,16,10,760,1255.5303070463415,1256.5917281296279,"[43, 0, 211]",211,a,0.5391835492046084,1,colour,0.5,3.8
51,18,0,2,16,11,761,1257.1085691847838,1258.287729764881,"[33, 0, 221]",221,a,0.6570931875321548,1,colour,0.5,3.8
51,18,0,2,16,12,762,1258.796092101693,1259.6477204386028,"[46, 0, 208]",208,a,0.32935496282880194,1,colour,0.5,3.8
51,18,0,2,16,13,763,1260.155628277047,1260.983737307819,"[49, 0, 205]",205,a,0.30591954590636306,1,colour,0.5,3.8
51,18,0,2,16,14,764,1261.4999931077036,1262.3597583045484,"[53, 0, 201]",201,a,0.3374902473879047,0,colour,0.5,3.8
51,18,0,2,16,15,765,1262.875175212277,1264.9117264912347,"[80, 0, 174]",174,l,1.5145142125256825,1,colour,0.5,3.8
51,18,0,2,16,16,766,1265.4222002368624,1266.4397539564816,"[63, 0, 191]",191,l,0.495333120925352,1,colour,0.5,3.8
51,18,0,2,16,17,767,1266.953606901443,1268.1277223133075,"[19, 0, 235]",235,a,0.6518010777945165,1,colour,0.5,3.8
51,18,0,2,16,18,768,1268.6412842060236,1269.5677239989745,"[12, 0, 242]",242,a,0.4044944926572498,1,colour,0.5,3.8
51,18,0,2,16,19,769,1270.0789137567772,1271.543709628313,"[22, 0, 232]",232,a,0.9426280482148286,1,colour,0.5,3.8
51,18,0,2,16,20,770,1272.0634391505882,1272.6797125553858,"[35, 0, 219]",219,a,0.09405319993675221,1,colour,0.5,3.8
51,18,0,2,16,21,771,1273.1884604674997,1273.9997365169838,"[17, 0, 237]",237,a,0.2892685215047095,1,colour,0.5,3.8
51,18,0,2,16,22,772,1274.516674458253,1275.5757371912478,"[73, 0, 181]",181,l,0.5367330389271956,1,colour,0.5,3.8
51,18,0,2,16,23,773,1276.094920055155,1276.9837014678342,"[95, 0, 159]",159,l,0.36654781705874484,1,colour,0.5,3.8
51,18,0,2,16,24,774,1277.5013585720444,1278.3437472799997,"[8, 0, 246]",246,a,0.32017362309852615,1,colour,0.5,3.8
51,18,0,2,16,25,775,1278.8607978612563,1279.639758052479,"[10, 0, 244]",244,a,0.25676401097734924,1,colour,0.5,3.8
51,18,0,2,16,26,776,1280.1577763135429,1281.0397174075624,"[58, 0, 196]",196,a,0.3597212830063654,0,colour,0.5,3.8
51,18,0,2,16,27,777,1281.5484885566111,1282.3677451091207,"[28, 0, 226]",226,a,0.29697648304863833,1,colour,0.5,3.8
51,18,0,2,16,28,778,1282.8767293288984,1283.7677422734268,"[82, 0, 172]",172,l,0.3689557919569779,1,colour,0.5,3.8
51,18,0,2,16,29,779,1284.2831623319362,1285.4157423427532,"[51, 0, 203]",203,a,0.6103948582604062,0,colour,0.5,3.8
51,18,0,2,16,30,780,1285.9239061811386,1286.7597298688634,"[99, 0, 155]",155,l,0.31372872591600753,1,colour,0.5,3.8
51,18,0,2,16,31,781,1287.2677050549828,1288.1677185638982,"[36, 0, 218]",218,a,0.37772674407460727,1,colour,0.5,3.8
51,18,0,2,16,32,782,1288.6740407780453,1289.5277175083902,"[40, 0, 214]",214,a,0.33137342397822067,1,colour,0.5,3.8
51,18,0,2,16,33,783,1290.0335793164704,1290.9117375189235,"[55, 0, 199]",199,a,0.3559533576044487,0,colour,0.5,3.8
51,18,0,2,16,34,784,1291.4243214918242,1292.3277138062404,"[90, 0, 164]",164,l,0.3811571434052894,1,colour,0.5,3.8
51,18,0,2,16,35,785,1292.8462700610398,1293.7757121426257,"[39, 0, 215]",215,a,0.40714783367002383,1,colour,0.5,3.8
51,18,0,2,16,36,786,1294.2839504179283,1295.7117294844647,"[86, 0, 168]",168,l,0.9055505909054773,1,colour,0.5,3.8
51,18,0,2,16,37,787,1296.221561260987,1297.103703216504,"[78, 0, 176]",176,l,0.35997688911447767,1,colour,0.5,3.8
51,18,0,2,16,38,788,1297.6128008639498,1298.367721478353,"[79, 0, 175]",175,l,0.23262360956869088,1,colour,0.5,3.8
51,18,0,2,16,39,789,1298.878617033144,1299.615738561828,"[72, 0, 182]",182,l,0.214859970001271,1,colour,0.5,3.8
51,18,0,2,16,40,790,1300.1286084669846,1300.991730413938,"[92, 0, 162]",162,l,0.34082060981018003,1,colour,0.5,3.8
51,18,0,2,16,41,791,1301.503792540796,1302.3597476706927,"[11, 0, 243]",243,a,0.33366285120428074,1,colour,0.5,3.8
51,18,0,2,16,42,792,1302.8788876053877,1303.6317326509889,"[59, 0, 195]",195,a,0.23059687767818104,0,colour,0.5,3.8
51,18,0,2,16,43,793,1304.1446439099818,1305.1917014268693,"[81, 0, 173]",173,l,0.524864093560609,1,colour,0.5,3.8
51,18,0,2,16,44,794,1305.7072573622718,1306.4877114116534,"[15, 0, 239]",239,a,0.25821533377165906,1,colour,0.5,3.8
51,18,0,2,16,45,795,1307.004266140706,1307.9837707847328,"[47, 0, 207]",207,a,0.45727262379659805,1,colour,0.5,3.8
51,18,0,2,16,46,796,1308.5043435314583,1309.06375659052,"[1, 0, 253]",253,a,0.03713456499099266,1,colour,0.5,3.8
51,18,0,2,16,47,797,1309.5825294606766,1310.3836974505975,"[4, 0, 250]",250,a,0.27900725582730956,1,colour,0.5,3.8
51,18,0,2,16,48,798,1310.8951782606455,1311.7757070226362,"[88, 0, 166]",166,l,0.3583050125162117,1,colour,0.5,3.8
51,18,0,2,16,49,799,1312.2859342206211,1313.2637350865261,"[64, 0, 190]",190,a,0.45565785487997346,0,colour,0.5,3.8
51,18,0,2,16,50,800,1313.7703920698405,1314.5997346265212,"[57, 0, 197]",197,a,0.3073527517844923,0,colour,0.5,3.8
