id,age,condition,counterbalance,block,trialinblock,trial,tstart,tend,trialstim,trialintensity,response,RT,accuracy,trialtype,colourfreq,credits
90,19,0,1,Practice,1,NA,5.907699232921004e-06,0.7127485318342224,"[27, 0, 227]",227,a,0.07980903176940046,1,colour,0.5,4
90,19,0,1,Practice,2,NA,1.2197186282719485,1.7687078018207103,"[40, 0, 214]",214,a,0.025709110574098304,1,colour,0.5,4
90,19,0,1,Practice,3,NA,2.282194874394918,2.8487669260357507,"[51, 0, 203]",203,a,0.043140357796801254,0,colour,0.5,4
90,19,0,1,Practice,4,NA,3.3604167052253615,6.784757042070851,"[89, 0, 165]",165,l,2.901057910785312,1,colour,0.5,4
90,19,0,1,Practice,5,NA,7.2986233887204435,8.241463281097822,"[25, 0, 229]",229,a,0.4200422912253998,1,colour,0.5,4
90,19,0,1,Practice,6,NA,8.751460480852984,9.58474373005447,"[4, 0, 250]",250,a,0.30991969077149406,1,colour,0.5,4
90,19,0,1,Practice,7,NA,10.095299010135932,10.952792784402845,"[14, 0, 240]",240,a,0.3348797055077739,1,colour,0.5,4
90,19,0,1,Practice,8,NA,11.470423908671364,12.256752397835953,"[91, 0, 163]",163,l,0.26298501691780984,1,colour,0.5,4
90,19,0,1,Practice,9,NA,12.767425437981728,13.560742731264327,"[84, 0, 170]",170,l,0.26996909486479126,1,colour,0.5,4
90,19,0,1,Practice,10,NA,14.080168219661573,15.07279659685446,"[87, 0, 167]",167,l,0.46958659126539715,1,colour,0.5,4
90,19,0,1,1,1,1,4.566327473032288,5.447997113893507,"[22, 0, 232]",232,a,0.3574671896349173,1,colour,0.5,4.0
90,19,0,1,1,2,2,5.957844652031781,6.77599238458788,"[27, 0, 227]",227,a,0.2946939833345823,1,colour,0.5,4.0
90,19,0,1,1,3,3,7.2863278983859345,8.072043956402922,"[97, 0, 157]",157,l,0.26242457347689196,1,colour,0.5,4.0
90,19,0,1,1,4,4,8.583201033761725,9.48798709444236,"[68, 0, 186]",186,l,0.3814067484054249,1,colour,0.5,4.0
90,19,0,1,1,5,5,10.008053764759097,10.864069433533587,"[91, 0, 163]",163,l,0.33284982125042006,1,colour,0.5,4.0
90,19,0,1,1,6,6,11.383037666295422,12.176035943994066,"[57, 0, 197]",197,a,0.26970443010213785,0,colour,0.5,4.0
90,19,0,1,1,7,7,12.695606367866276,13.600008428300498,"[34, 0, 220]",220,a,0.3810101450653747,1,colour,0.5,4.0
90,19,0,1,1,8,8,14.117652549495688,14.992011613736395,"[52, 0, 202]",202,a,0.3509789642703254,0,colour,0.5,4.0
90,19,0,1,1,9,9,15.50836746339337,16.33598326309584,"[96, 0, 158]",158,l,0.3042798105161637,1,colour,0.5,4.0
90,19,0,1,1,10,10,16.85223041116842,17.74405931957881,"[13, 0, 241]",241,a,0.36851576232584193,1,colour,0.5,4.0
90,19,0,1,1,11,11,18.258535340428352,19.184049142582808,"[40, 0, 214]",214,a,0.4021218867856078,1,colour,0.5,4.0
90,19,0,1,1,12,12,19.69622706976952,20.584092308126856,"[64, 0, 190]",190,a,0.3644985291757621,0,colour,0.5,4.0
90,19,0,1,1,13,13,21.102634792943718,21.999989366158843,"[62, 0, 192]",192,a,0.37405048561049625,0,colour,0.5,4.0
90,19,0,1,1,14,14,22.498800540837692,23.30401514575351,"[7, 0, 247]",247,a,0.2820605727902148,1,colour,0.5,4.0
90,19,0,1,1,15,15,23.81419272714993,24.639979504223447,"[17, 0, 237]",237,a,0.3024614217574708,1,colour,0.5,4.0
90,19,0,1,1,16,16,25.15801077641663,25.99999133538222,"[36, 0, 218]",218,a,0.3187568160064984,1,colour,0.5,4.0
90,19,0,1,1,17,17,26.517467678000685,27.359996471146587,"[9, 0, 245]",245,a,0.3191640531877056,1,colour,0.5,4.0
90,19,0,1,1,18,18,27.876997441169806,28.672005517000798,"[93, 0, 161]",161,l,0.271687052823836,1,colour,0.5,4.0
90,19,0,1,1,19,19,29.189587410452077,29.99200255528558,"[95, 0, 159]",159,l,0.27901023253798485,1,colour,0.5,4.0
90,19,0,1,1,20,20,30.504761012038216,31.31203543356969,"[15, 0, 239]",239,a,0.28381791536230594,1,colour,0.5,4.0
90,19,0,1,1,21,21,31.83361526171211,32.63202183798421,"[81, 0, 173]",173,l,0.2750611348019447,1,colour,0.5,4.0
90,19,0,1,1,22,22,33.14613985249889,34.00000866461778,"[8, 0, 246]",246,a,0.33047492752666585,1,colour,0.5,4.0
90,19,0,1,1,23,23,34.52125687408261,35.36800927587319,"[49, 0, 205]",205,a,0.32336678795400076,1,colour,0.5,4.0
90,19,0,1,1,24,24,35.88131242219242,36.696033297339454,"[31, 0, 223]",223,a,0.29189097858034074,1,colour,0.5,4.0
90,19,0,1,1,25,25,37.20899655422545,38.032039403537055,"[10, 0, 244]",244,a,0.2999888541526161,1,colour,0.5,4.0
90,19,0,1,1,26,26,38.552895735861966,39.35223651578417,"[84, 0, 170]",170,l,0.2761264892760664,1,colour,0.5,4.0
90,19,0,1,1,27,27,39.86539472662844,40.69602581427898,"[83, 0, 171]",171,l,0.30750816938234493,1,colour,0.5,4.0
90,19,0,1,1,28,28,41.209258855931694,41.99998700307333,"[82, 0, 172]",172,l,0.26751937036169693,1,colour,0.5,4.0
90,19,0,1,1,29,29,42.5062863790954,43.31199880584609,"[88, 0, 166]",166,l,0.28236737911356613,1,colour,0.5,4.0
90,19,0,1,1,30,30,43.8188334191218,44.688022855698364,"[2, 0, 252]",252,a,0.3458128812198993,1,colour,0.5,4.0
90,19,0,1,1,31,31,45.2095995330601,46.02408449421637,"[87, 0, 167]",167,l,0.29119859662023373,1,colour,0.5,4.0
90,19,0,1,1,32,32,46.53778227462317,47.32003996754065,"[60, 0, 194]",194,l,0.2589366699103266,1,colour,0.5,4.0
90,19,0,1,1,33,33,47.834829096274916,48.640001559630036,"[55, 0, 199]",199,a,0.28062145807780325,0,colour,0.5,4.0
90,19,0,1,1,34,34,49.14857146007125,49.9520499901264,"[94, 0, 160]",160,l,0.2800440792925656,1,colour,0.5,4.0
90,19,0,1,1,35,35,50.4612421678612,51.30399939190829,"[16, 0, 238]",238,a,0.3313299680594355,1,colour,0.5,4.0
90,19,0,1,1,36,36,51.824303157744,52.58403598811128,"[70, 0, 184]",184,l,0.23641456427867524,1,colour,0.5,4.0
90,19,0,1,1,37,37,53.09191074967384,53.92002240198781,"[65, 0, 189]",189,l,0.3050383586669341,1,colour,0.5,4.0
90,19,0,1,1,38,38,54.43683117500041,55.22403006465174,"[12, 0, 242]",242,a,0.2638751097256318,1,colour,0.5,4.0
90,19,0,1,1,39,39,55.73376771964831,56.519989082589746,"[56, 0, 198]",198,l,0.262869226076873,1,colour,0.5,4.0
90,19,0,1,1,40,40,57.030762159702135,57.904010970989475,"[33, 0, 221]",221,l,0.34991282210103236,0,colour,0.5,4.0
90,19,0,1,1,41,41,58.42154245212441,59.216019229148515,"[46, 0, 208]",208,l,0.2712341294682119,0,colour,0.5,4.0
90,19,0,1,1,42,42,59.73530056976597,60.52001980258501,"[76, 0, 178]",178,l,0.26138009285205044,1,colour,0.5,4.0
90,19,0,1,1,43,43,61.03215125593124,61.8320973777445,"[5, 0, 249]",249,a,0.2764774064125959,1,colour,0.5,4.0
90,19,0,1,1,44,44,62.3448786775989,63.144059949729126,"[20, 0, 234]",234,a,0.27623912936542183,1,colour,0.5,4.0
90,19,0,1,1,45,45,63.65739420990576,64.46403335721698,"[4, 0, 250]",250,a,0.28317397652426735,1,colour,0.5,4.0
90,19,0,1,1,46,46,64.98568959155818,65.81604341132334,"[3, 0, 251]",251,a,0.3069280336203519,1,colour,0.5,4.0
90,19,0,1,1,47,47,66.32952930236934,67.1520357328991,"[53, 0, 201]",201,a,0.2991062444052659,0,colour,0.5,4.0
90,19,0,1,1,48,48,67.65848043822916,68.45607569097774,"[44, 0, 210]",210,l,0.2743403959320858,0,colour,0.5,4.0
90,19,0,1,1,49,49,68.97113736139727,69.71201952217962,"[85, 0, 169]",169,l,0.21758831315673888,1,colour,0.5,4.0
90,19,0,1,1,50,50,70.21500980085693,71.00005750157288,"[24, 0, 230]",230,a,0.26176685001701117,1,colour,0.5,4.0
90,19,0,1,2,1,51,77.41995761424187,78.30400136113167,"[24, 0, 230]",230,a,0.3600842988817021,1,colour,0.5,4.0
90,19,0,1,2,2,52,78.81145352552994,79.5680450371292,"[72, 0, 182]",182,l,0.23322795316926204,1,colour,0.5,4.0
90,19,0,1,2,3,53,80.07715253788047,80.81605758980731,"[54, 0, 200]",200,l,0.21563325970782898,1,colour,0.5,4.0
90,19,0,1,2,4,54,81.32730525181978,82.09605677059153,"[79, 0, 175]",175,l,0.24552265580859967,1,colour,0.5,4.0
90,19,0,1,2,5,55,82.60858600877691,83.33609235854237,"[73, 0, 181]",181,l,0.20496868723421358,1,colour,0.5,4.0
90,19,0,1,2,6,56,83.84307820882532,84.5360406858963,"[82, 0, 172]",172,l,0.16965996482758783,1,colour,0.5,4.0
90,19,0,1,2,7,57,85.04633445199579,85.84004086549976,"[35, 0, 219]",219,a,0.27042359361075796,1,colour,0.5,4.0
90,19,0,1,2,8,58,86.35890748587553,87.0720159933262,"[32, 0, 222]",222,a,0.19050192178110592,1,colour,0.5,4.0
90,19,0,1,2,9,59,87.57770963359508,88.39202524081338,"[93, 0, 161]",161,l,0.2910702027147636,1,colour,0.5,4.0
90,19,0,1,2,10,60,88.90600343985716,89.69608134659939,"[10, 0, 244]",244,a,0.2668718868808355,1,colour,0.5,4.0
90,19,0,1,2,11,61,90.20303490149672,90.98403583056643,"[97, 0, 157]",157,l,0.25775552456616424,1,colour,0.5,4.0
90,19,0,1,2,12,62,91.49996475075022,92.28001217773999,"[0, 0, 254]",254,a,0.25688157946569845,1,colour,0.5,4.0
90,19,0,1,2,13,63,92.79744874188327,93.57605311571388,"[92, 0, 162]",162,l,0.25416403939016163,1,colour,0.5,4.0
90,19,0,1,2,14,64,94.09555422261474,94.89605921244947,"[48, 0, 206]",206,a,0.28669141861610115,1,colour,0.5,4.0
90,19,0,1,2,15,65,95.41434490939719,96.25603244663216,"[40, 0, 214]",214,a,0.318568163580494,1,colour,0.5,4.0
90,19,0,1,2,16,66,96.77374785402208,97.56801195401931,"[88, 0, 166]",166,l,0.2710021539533045,1,colour,0.5,4.0
90,19,0,1,2,17,67,98.08635594023508,98.9280627759581,"[18, 0, 236]",236,a,0.3183283111429773,1,colour,0.5,4.0
90,19,0,1,2,18,68,99.44581717415713,100.26411378063494,"[62, 0, 192]",192,l,0.29498936809250154,1,colour,0.5,4.0
90,19,0,1,2,19,69,100.77407592805685,101.58407261583488,"[26, 0, 228]",228,a,0.28665518475463614,1,colour,0.5,4.0
90,19,0,1,2,20,70,102.10231223274604,102.87210193061037,"[91, 0, 163]",163,l,0.24646828099503182,1,colour,0.5,4.0
90,19,0,1,2,21,71,103.38360086662578,104.24007694181637,"[4, 0, 250]",250,a,0.33379072026582435,1,colour,0.5,4.0
90,19,0,1,2,22,72,104.75877066364046,105.56003617084934,"[21, 0, 233]",233,a,0.2780823304201476,1,colour,0.5,4.0
90,19,0,1,2,23,73,106.0713913529471,106.9200255527685,"[52, 0, 202]",202,a,0.3253305060497951,0,colour,0.5,4.0
90,19,0,1,2,24,74,107.41847753952607,108.2240706308221,"[33, 0, 221]",221,a,0.2822827021300327,1,colour,0.5,4.0
90,19,0,1,2,25,75,108.7314066105464,109.58407694814377,"[56, 0, 198]",198,a,0.3293339545780327,0,colour,0.5,4.0
90,19,0,1,2,26,76,110.09091234908556,110.95199209472048,"[66, 0, 188]",188,a,0.3377717195544392,0,colour,0.5,4.0
90,19,0,1,2,27,77,111.46599392453209,112.28810690250248,"[25, 0, 229]",229,a,0.2986198441067245,1,colour,0.5,4.0
90,19,0,1,2,28,78,112.7942160507373,113.60805195305147,"[3, 0, 251]",251,a,0.2904207500105258,1,colour,0.5,4.0
90,19,0,1,2,29,79,114.12245078003616,114.93617955615628,"[77, 0, 177]",177,l,0.2903719130845275,1,colour,0.5,4.0
90,19,0,1,2,30,80,115.45067723855027,116.27207814226858,"[45, 0, 209]",209,a,0.29808854532893747,1,colour,0.5,4.0
90,19,0,1,2,31,81,116.77889660783694,117.60006592987338,"[12, 0, 242]",242,a,0.2978199420904275,1,colour,0.5,4.0
90,19,0,1,2,32,82,118.10713842636324,118.8880412877188,"[5, 0, 249]",249,a,0.2576176783477422,1,colour,0.5,4.0
90,19,0,1,2,33,83,119.40410805412102,120.20805053520598,"[80, 0, 174]",174,l,0.28139969854964875,1,colour,0.5,4.0
90,19,0,1,2,34,84,120.71668778339517,121.56002081083716,"[27, 0, 227]",227,a,0.3202959676855244,1,colour,0.5,4.0
90,19,0,1,2,35,85,122.07839394168695,122.8880645246536,"[89, 0, 165]",165,l,0.28631726454477757,1,colour,0.5,4.0
90,19,0,1,2,36,86,123.40663457868504,124.2240773262165,"[15, 0, 239]",239,a,0.29488184803631157,1,colour,0.5,4.0
90,19,0,1,2,37,87,124.73486970181693,125.60013642840204,"[53, 0, 201]",201,l,0.3419240420043934,1,colour,0.5,4.0
90,19,0,1,2,38,88,126.10995403418201,127.0000720738899,"[63, 0, 191]",191,l,0.36756974330637604,1,colour,0.5,4.0
90,19,0,1,2,39,89,127.51621879113372,128.32809373229975,"[84, 0, 170]",170,l,0.28841016424121335,1,colour,0.5,4.0
90,19,0,1,2,40,90,128.84446218505036,129.6240488117328,"[78, 0, 176]",176,l,0.25610609591240063,1,colour,0.5,4.0
90,19,0,1,2,41,91,130.14331873081392,130.9521354548051,"[31, 0, 223]",223,a,0.2856268518080469,1,colour,0.5,4.0
90,19,0,1,2,42,92,131.47154400779982,132.1521145021834,"[16, 0, 238]",238,a,0.1573203637090046,1,colour,0.5,4.0
90,19,0,1,2,43,93,132.65910704783164,133.46413654496428,"[46, 0, 208]",208,a,0.2821547020575963,1,colour,0.5,4.0
90,19,0,1,2,44,94,133.9716659032565,134.76809891531593,"[81, 0, 173]",173,l,0.27312656136928126,1,colour,0.5,4.0
90,19,0,1,2,45,95,135.2842460263928,136.09605480136815,"[9, 0, 245]",245,a,0.28835305650136434,1,colour,0.5,4.0
90,19,0,1,2,46,96,136.61246185106575,137.48807492217747,"[55, 0, 199]",199,l,0.35233418966527097,1,colour,0.5,4.0
90,19,0,1,2,47,97,138.00330712812138,138.79203886791947,"[74, 0, 180]",180,l,0.2650416827527806,1,colour,0.5,4.0
90,19,0,1,2,48,98,139.30170917516807,140.13612748964806,"[90, 0, 164]",164,l,0.3111173776560463,1,colour,0.5,4.0
90,19,0,1,2,49,99,140.64562923065387,141.4880662575597,"[13, 0, 241]",241,a,0.31910773311392404,1,colour,0.5,4.0
90,19,0,1,2,50,100,142.00501405834802,142.87203103824868,"[7, 0, 247]",247,a,0.3436419999343343,1,colour,0.5,4.0
90,19,0,1,3,1,101,174.97561854560627,175.7760979354207,"[51, 0, 203]",203,a,0.27641281561227515,0,colour,0.5,4.0
90,19,0,1,3,2,102,176.28914626312326,177.17613558712765,"[89, 0, 165]",165,l,0.36369153793202713,1,colour,0.5,4.0
90,19,0,1,3,3,103,177.695489001635,178.48027361294953,"[81, 0, 173]",173,l,0.2615285729407333,1,colour,0.5,4.0
90,19,0,1,3,4,104,178.99237277088105,179.77609517850215,"[34, 0, 220]",220,a,0.260629421682097,1,colour,0.5,4.0
90,19,0,1,3,5,105,180.28932625093148,181.06406738553778,"[22, 0, 232]",232,a,0.25133385925437324,1,colour,0.5,4.0
90,19,0,1,3,6,106,181.5707101956068,182.33603013082757,"[70, 0, 184]",184,l,0.24200875835958868,1,colour,0.5,4.0
90,19,0,1,3,7,107,182.8520894141693,183.6320860349515,"[56, 0, 198]",198,a,0.2567173455026932,0,colour,0.5,4.0
90,19,0,1,3,8,108,184.14895664184587,184.91208245881717,"[80, 0, 174]",174,l,0.2397520185331814,1,colour,0.5,4.0
90,19,0,1,3,9,109,185.43033743576962,186.20808637523442,"[27, 0, 227]",227,a,0.2525551768776495,1,colour,0.5,4.0
90,19,0,1,3,10,110,186.7142238804081,187.57609250032692,"[15, 0, 239]",239,a,0.3383739106648136,1,colour,0.5,4.0
90,19,0,1,3,11,111,188.08932869276032,188.8560735642095,"[1, 0, 253]",253,a,0.24374168246868066,1,colour,0.5,4.0
90,19,0,1,3,12,112,189.37070436668,190.16009225457674,"[5, 0, 249]",249,a,0.2659640709753148,1,colour,0.5,4.0
90,19,0,1,3,13,113,190.66769801906776,191.44813220319338,"[37, 0, 217]",217,a,0.25708362262230366,1,colour,0.5,4.0
90,19,0,1,3,14,114,191.96471333299996,192.7360807794612,"[9, 0, 245]",245,a,0.2480444542306941,1,colour,0.5,4.0
90,19,0,1,3,15,115,193.24604016996454,194.0880837443401,"[44, 0, 210]",210,a,0.3190537761838641,1,colour,0.5,4.0
90,19,0,1,3,16,116,194.60551991465036,195.42411702594836,"[32, 0, 222]",222,a,0.2953292575548403,1,colour,0.5,4.0
90,19,0,1,3,17,117,195.92119882113184,196.7361174071848,"[96, 0, 158]",158,l,0.2914703506685328,1,colour,0.5,4.0
90,19,0,1,3,18,118,197.24953201203607,198.12812807568116,"[14, 0, 240]",240,a,0.3555235577223357,1,colour,0.5,4.0
90,19,0,1,3,19,119,198.64021108590532,199.4801168621052,"[46, 0, 208]",208,a,0.316525676229503,1,colour,0.5,4.0
90,19,0,1,3,20,120,199.99973179062363,200.79208297870355,"[57, 0, 197]",197,a,0.2690057466097642,0,colour,0.5,4.0
90,19,0,1,3,21,121,201.30307700365665,202.1041314091999,"[2, 0, 252]",252,a,0.2901257590856403,1,colour,0.5,4.0
90,19,0,1,3,22,122,202.6188374363701,203.44811211703927,"[61, 0, 193]",193,a,0.3059477499627974,0,colour,0.5,4.0
90,19,0,1,3,23,123,203.96278899954632,204.7521252935694,"[73, 0, 181]",181,l,0.26596446480834857,1,colour,0.5,4.0
90,19,0,1,3,24,124,205.2596885226376,206.0480996714905,"[97, 0, 157]",157,l,0.2653256459743716,1,colour,0.5,4.0
90,19,0,1,3,25,125,206.55668532580603,207.31214728593477,"[86, 0, 168]",168,l,0.22966718798852526,1,colour,0.5,4.0
90,19,0,1,3,26,126,207.8250597366423,208.6321380226873,"[54, 0, 200]",200,a,0.2838718723214697,0,colour,0.5,4.0
90,19,0,1,3,27,127,209.15321372743347,209.98405788597302,"[36, 0, 218]",218,a,0.307405375468079,1,colour,0.5,4.0
90,19,0,1,3,28,128,210.49712945061037,211.34409807404154,"[74, 0, 180]",180,l,0.32360388347296976,1,colour,0.5,4.0
90,19,0,1,3,29,129,211.85665330608026,212.69608095276635,"[60, 0, 194]",194,l,0.31614876523963176,1,colour,0.5,4.0
90,19,0,1,3,30,130,213.21611965997727,214.02414672196028,"[94, 0, 160]",160,l,0.2844646111188922,1,colour,0.5,4.0
90,19,0,1,3,31,131,214.54439928775537,215.368086075905,"[98, 0, 156]",156,l,0.3004016051418148,1,colour,0.5,4.0
90,19,0,1,3,32,132,215.8882421493763,216.7041154190374,"[31, 0, 223]",223,a,0.29247584045515396,1,colour,0.5,4.0
90,19,0,1,3,33,133,217.21658754948294,218.04015933448682,"[68, 0, 186]",186,a,0.3003897897724528,0,colour,0.5,4.0
90,19,0,1,3,34,134,218.56032840488479,219.32009353063768,"[21, 0, 233]",233,a,0.23687497069477104,1,colour,0.5,4.0
90,19,0,1,3,35,135,219.84160325411358,220.5280999550596,"[77, 0, 177]",177,l,0.16318197947111912,1,colour,0.5,4.0
90,19,0,1,3,36,136,221.0448878542229,221.86418246745598,"[82, 0, 172]",172,l,0.2959464148443658,1,colour,0.5,4.0
90,19,0,1,3,37,137,222.37309816502966,223.08012174579198,"[28, 0, 226]",226,a,0.1831980405258946,1,colour,0.5,4.0
90,19,0,1,3,38,138,223.59196844819235,224.3840990822937,"[30, 0, 224]",224,a,0.2693180667993147,1,colour,0.5,4.0
90,19,0,1,3,39,139,224.90456865748274,225.73609692716855,"[40, 0, 214]",214,a,0.3082324528659228,1,colour,0.5,4.0
90,19,0,1,3,40,140,226.248496196029,227.13611724963994,"[83, 0, 171]",171,l,0.36435438139596954,1,colour,0.5,4.0
90,19,0,1,3,41,141,227.65479758067522,228.4800955943938,"[24, 0, 230]",230,a,0.30205772921908647,1,colour,0.5,4.0
90,19,0,1,3,42,142,228.99865343919373,229.8961328617297,"[26, 0, 228]",228,a,0.3742032980080694,1,colour,0.5,4.0
90,19,0,1,3,43,143,230.40499027003534,231.2641964883951,"[41, 0, 213]",213,a,0.3358119399345014,1,colour,0.5,4.0
90,19,0,1,3,44,144,231.7802163870947,232.6321758319391,"[11, 0, 243]",243,a,0.3286825326504186,1,colour,0.5,4.0
90,19,0,1,3,45,145,233.1396216948051,233.99214276458952,"[4, 0, 250]",250,a,0.3291476652084384,1,colour,0.5,4.0
90,19,0,1,3,46,146,234.5017020071682,235.33629400789505,"[79, 0, 175]",175,l,0.3235877357656136,1,colour,0.5,4.0
90,19,0,1,3,47,147,235.8487263598654,236.70408903135103,"[55, 0, 199]",199,l,0.33191522379638627,1,colour,0.5,4.0
90,19,0,1,3,48,148,237.22389733843738,238.0081037832424,"[53, 0, 201]",201,l,0.2607672679005191,1,colour,0.5,4.0
90,19,0,1,3,49,149,238.52090477541788,239.34413903407403,"[42, 0, 212]",212,l,0.29992190026678145,0,colour,0.5,4.0
90,19,0,1,3,50,150,239.86474212317262,240.65612405529828,"[75, 0, 179]",179,l,0.26823735231300816,1,colour,0.5,4.0
90,19,0,1,4,1,151,255.36513419725816,256.1841286995332,"[97, 0, 157]",157,l,0.2946971340861637,1,colour,0.5,4.0
90,19,0,1,4,2,152,256.69423145012115,257.5601444786007,"[78, 0, 176]",176,l,0.34254316851729527,1,colour,0.5,4.0
90,19,0,1,4,3,153,258.06933153633145,258.96815043041715,"[4, 0, 250]",250,a,0.37535805560764857,1,colour,0.5,4.0
90,19,0,1,4,4,154,259.47567269948195,260.34412367406185,"[99, 0, 155]",155,l,0.3451653977681417,1,colour,0.5,4.0
90,19,0,1,4,5,155,260.8508090195537,261.7041449575336,"[36, 0, 218]",218,a,0.32994559800135903,1,colour,0.5,4.0
90,19,0,1,4,6,156,262.21030451808474,263.00818097713636,"[34, 0, 220]",220,a,0.2745767037558835,1,colour,0.5,4.0
90,19,0,1,4,7,157,263.51046863387455,264.39214260704466,"[22, 0, 232]",232,a,0.3583612209476996,1,colour,0.5,4.0
90,19,0,1,4,8,158,264.9011985139514,265.7601822090801,"[92, 0, 162]",162,l,0.3356449490529485,1,colour,0.5,4.0
90,19,0,1,4,9,159,266.2762678801373,267.1521633391385,"[87, 0, 167]",167,l,0.35272409761091694,1,colour,0.5,4.0
90,19,0,1,4,10,160,267.6670741663838,268.5682124218438,"[37, 0, 217]",217,a,0.3778231401229277,1,colour,0.5,4.0
90,19,0,1,4,11,161,269.0889868341037,270.00012484929175,"[6, 0, 248]",248,a,0.38783629063982517,1,colour,0.5,4.0
90,19,0,1,4,12,162,270.5110424680752,271.35214081109734,"[84, 0, 170]",170,l,0.31769697536947206,1,colour,0.5,4.0
90,19,0,1,4,13,163,271.8705387543014,272.7041485021473,"[26, 0, 228]",228,a,0.3103099925501738,1,colour,0.5,4.0
90,19,0,1,4,14,164,273.21432253893,274.00016462779604,"[13, 0, 241]",241,a,0.2624332381237764,1,colour,0.5,4.0
90,19,0,1,4,15,165,274.5113476990082,275.320172693755,"[74, 0, 180]",180,l,0.2855197255848907,1,colour,0.5,4.0
90,19,0,1,4,16,166,275.83953162212856,276.6161903947941,"[47, 0, 207]",207,a,0.2532648880733177,1,colour,0.5,4.0
90,19,0,1,4,17,167,277.1365697791334,278.02412860502955,"[21, 0, 233]",233,a,0.36425119364866987,1,colour,0.5,4.0
90,19,0,1,4,18,168,278.5429176376492,279.4481601662992,"[45, 0, 209]",209,a,0.38256308139534667,1,colour,0.5,4.0
90,19,0,1,4,19,169,279.96500477934023,280.84015389942215,"[53, 0, 201]",201,a,0.35186551249353215,0,colour,0.5,4.0
90,19,0,1,4,20,170,281.35566337319324,282.2401336557232,"[72, 0, 182]",182,l,0.365968757745577,1,colour,0.5,4.0
90,19,0,1,4,21,171,282.75718267500633,283.55215451697586,"[58, 0, 196]",196,l,0.27163427739287727,1,colour,0.5,4.0
90,19,0,1,4,22,172,284.0697470442683,284.83214109466644,"[65, 0, 189]",189,a,0.23898992579779588,0,colour,0.5,4.0
90,19,0,1,4,23,173,285.35110105664353,286.15212080371566,"[80, 0, 174]",174,l,0.2775990809313953,1,colour,0.5,4.0
90,19,0,1,4,24,174,286.6637374997954,287.5602275801939,"[11, 0, 243]",243,a,0.37354478682391346,1,colour,0.5,4.0
90,19,0,1,4,25,175,288.0700940229581,288.89611671402236,"[8, 0, 246]",246,a,0.30266385880531743,1,colour,0.5,4.0
90,19,0,1,4,26,176,289.41396602918394,290.27214667154476,"[48, 0, 206]",206,a,0.33478951471624896,1,colour,0.5,4.0
90,19,0,1,4,27,177,290.7910916673427,291.6881496742426,"[49, 0, 205]",205,a,0.3737724300590344,1,colour,0.5,4.0
90,19,0,1,4,28,178,292.1975580736471,293.0961485368025,"[9, 0, 245]",245,a,0.37532182171707973,1,colour,0.5,4.0
90,19,0,1,4,29,179,293.6038086520857,294.52813933970174,"[68, 0, 186]",186,a,0.4010348707670346,0,colour,0.5,4.0
90,19,0,1,4,30,180,295.03212053590687,295.9201689128531,"[40, 0, 214]",214,a,0.36323979613371193,1,colour,0.5,4.0
90,19,0,1,4,31,181,296.4383679635939,297.2641129929398,"[5, 0, 249]",249,a,0.3027410526701715,1,colour,0.5,4.0
90,19,0,1,4,32,182,297.7822569052223,298.7041650436877,"[10, 0, 244]",244,a,0.398694241681369,1,colour,0.5,4.0
90,19,0,1,4,33,183,299.21976549597457,300.0641520625213,"[15, 0, 239]",239,a,0.3209473896131385,1,colour,0.5,4.0
90,19,0,1,4,34,184,300.579311013018,301.40015068562934,"[66, 0, 188]",188,l,0.2974453941860702,1,colour,0.5,4.0
90,19,0,1,4,35,185,301.9087296445505,302.7441758980858,"[29, 0, 225]",225,a,0.31226268291356973,1,colour,0.5,4.0
90,19,0,1,4,36,186,303.25256502305274,304.1201798617549,"[46, 0, 208]",208,a,0.34423237564624287,1,colour,0.5,4.0
90,19,0,1,4,37,187,304.6277336385392,305.60813584233983,"[69, 0, 185]",185,l,0.457116233126726,1,colour,0.5,4.0
90,19,0,1,4,38,188,306.12788034632104,307.0161583356967,"[23, 0, 231]",231,a,0.3650089541042689,1,colour,0.5,4.0
90,19,0,1,4,39,189,307.5342010294262,308.4641712034354,"[60, 0, 194]",194,l,0.40661724942037836,1,colour,0.5,4.0
90,19,0,1,4,40,190,308.97243390372023,309.848216328799,"[81, 0, 173]",173,l,0.3523601835477166,1,colour,0.5,4.0
90,19,0,1,4,41,191,310.36602625931846,311.23219056180096,"[52, 0, 202]",202,a,0.34273733480949886,0,colour,0.5,4.0
90,19,0,1,4,42,192,311.7412181117397,312.5761665434693,"[88, 0, 166]",166,l,0.3116494641290046,1,colour,0.5,4.0
90,19,0,1,4,43,193,313.08501292407163,313.9201464635844,"[57, 0, 197]",197,a,0.31177943339571357,0,colour,0.5,4.0
90,19,0,1,4,44,194,314.42890974262264,315.36019930202747,"[76, 0, 178]",178,a,0.40799216719460674,0,colour,0.5,4.0
90,19,0,1,4,45,195,315.86652427806985,316.65612366146524,"[75, 0, 179]",179,l,0.2662263726524543,1,colour,0.5,4.0
90,19,0,1,4,46,196,317.1634781519533,318.0161776341847,"[16, 0, 238]",238,a,0.32929811454960145,1,colour,0.5,4.0
90,19,0,1,4,47,197,318.5229905858869,319.344216621801,"[90, 0, 164]",164,l,0.2978439667203929,1,colour,0.5,4.0
90,19,0,1,4,48,198,319.8512528844294,320.664151432371,"[18, 0, 236]",236,a,0.28963660189765505,1,colour,0.5,4.0
90,19,0,1,4,49,199,321.1793958475173,322.0883196583309,"[56, 0, 198]",198,a,0.3859182587475516,0,colour,0.5,4.0
90,19,0,1,4,50,200,322.60148338304134,323.440188321576,"[50, 0, 204]",204,a,0.3161846052389592,1,colour,0.5,4.0
90,19,0,1,5,1,201,334.4020230313472,335.19224547973135,"[89, 0, 165]",165,l,0.27451211295556277,1,colour,0.5,3.9
90,19,0,1,5,2,202,335.7070310638519,336.45616588179837,"[25, 0, 229]",229,a,0.2258326995652169,1,colour,0.5,3.9
90,19,0,1,5,3,203,336.97268045155215,337.72821054712404,"[42, 0, 212]",212,a,0.23223073410918005,1,colour,0.5,3.9
90,19,0,1,5,4,204,338.2384905285726,339.0321685851668,"[26, 0, 228]",228,a,0.27032316278200597,1,colour,0.5,3.9
90,19,0,1,5,5,205,339.5510245716723,340.36016346199904,"[84, 0, 170]",170,l,0.2857765134249348,1,colour,0.5,3.9
90,19,0,1,5,6,206,340.8792805686826,341.9522020148288,"[60, 0, 194]",194,l,0.5495295307773631,1,colour,0.5,3.9
90,19,0,1,5,7,207,342.4731150610314,343.1841542995535,"[98, 0, 156]",156,l,0.18802896031411365,1,colour,0.5,3.9
90,19,0,1,5,8,208,343.69197471032385,344.49625589931384,"[1, 0, 253]",253,a,0.28131462770397775,1,colour,0.5,3.9
90,19,0,1,5,9,209,345.0045422303665,345.72020010548295,"[52, 0, 202]",202,a,0.19223563358536921,0,colour,0.5,3.9
90,19,0,1,5,10,210,346.2391072920291,347.0562597747776,"[85, 0, 169]",169,l,0.29383579205023125,1,colour,0.5,3.9
90,19,0,1,5,11,211,347.5673030305188,348.36015597890946,"[12, 0, 242]",242,a,0.26952247307053767,1,colour,0.5,3.9
90,19,0,1,5,12,212,348.87988709213096,349.6961549958796,"[79, 0, 175]",175,l,0.29290710226632655,1,colour,0.5,3.9
90,19,0,1,5,13,213,350.21003158253734,351.0482296407863,"[68, 0, 186]",186,l,0.31492153988801874,1,colour,0.5,3.9
90,19,0,1,5,14,214,351.5538480564137,352.35220422036946,"[2, 0, 252]",252,a,0.27503395939129405,1,colour,0.5,3.9
90,19,0,1,5,15,215,352.8665679950209,353.69618177742814,"[37, 0, 217]",217,a,0.3063317501801066,1,colour,0.5,3.9
90,19,0,1,5,16,216,354.2103773796698,355.0962170660787,"[65, 0, 189]",189,a,0.3626084603893105,0,colour,0.5,3.9
90,19,0,1,5,17,217,355.61672681357595,356.41627711977344,"[57, 0, 197]",197,a,0.2760256646142807,0,colour,0.5,3.9
90,19,0,1,5,18,218,356.9293522290245,357.81622418682673,"[44, 0, 210]",210,a,0.36350524859153666,1,colour,0.5,3.9
90,19,0,1,5,19,219,358.3323646025092,359.10421608618344,"[74, 0, 180]",180,l,0.24842569752945565,1,colour,0.5,3.9
90,19,0,1,5,20,220,359.61378990107914,360.40020739950705,"[51, 0, 203]",203,a,0.2630641800351441,0,colour,0.5,3.9
90,19,0,1,5,21,221,360.910745744186,361.67219810787356,"[22, 0, 232]",232,a,0.2380671437131241,1,colour,0.5,3.9
90,19,0,1,5,22,222,362.1921438673453,363.02420304200496,"[23, 0, 231]",231,a,0.3088791486516129,1,colour,0.5,3.9
90,19,0,1,5,23,223,363.5359961812792,364.31218785213423,"[69, 0, 185]",185,l,0.252827718592016,1,colour,0.5,3.9
90,19,0,1,5,24,224,364.8299249210686,365.55217105851625,"[55, 0, 199]",199,a,0.19884280054247938,0,colour,0.5,3.9
90,19,0,1,5,25,225,366.0643962472677,366.77620821239543,"[47, 0, 207]",207,a,0.18844604361220263,1,colour,0.5,3.9
90,19,0,1,5,26,226,367.28323029656895,368.03221151442267,"[77, 0, 177]",177,l,0.22557551789213903,1,colour,0.5,3.9
90,19,0,1,5,27,227,368.54902028743527,369.29618823650526,"[82, 0, 172]",172,l,0.2239123045874294,1,colour,0.5,3.9
90,19,0,1,5,28,228,369.81466573665966,370.536208464473,"[71, 0, 183]",183,l,0.19812481859116815,1,colour,0.5,3.9
90,19,0,1,5,29,229,371.0490370258922,371.77620191086316,"[21, 0, 233]",233,a,0.20360912950127386,1,colour,0.5,3.9
90,19,0,1,5,30,230,372.2835457675101,373.05615855625365,"[40, 0, 214]",214,a,0.24920866414322518,1,colour,0.5,3.9
90,19,0,1,5,31,231,373.5650230537867,374.3522101280687,"[70, 0, 184]",184,l,0.2638751097256318,1,colour,0.5,3.9
90,19,0,1,5,32,232,374.8619351799716,375.44021470929147,"[10, 0, 244]",244,a,0.055127860250649974,1,colour,0.5,3.9
90,19,0,1,5,33,233,375.9557844415831,376.74424482122413,"[28, 0, 226]",226,a,0.2650460150616709,1,colour,0.5,3.9
90,19,0,1,5,34,234,377.2527753370232,378.016198508034,"[73, 0, 181]",181,l,0.2401116003165953,1,colour,0.5,3.9
90,19,0,1,5,35,235,378.5341238355322,379.23218701715814,"[27, 0, 227]",227,a,0.17382370884297416,1,colour,0.5,3.9
90,19,0,1,5,36,236,379.7539113869134,380.5122110102966,"[33, 0, 221]",221,a,0.23497072342433967,1,colour,0.5,3.9
90,19,0,1,5,37,237,381.01966081160936,381.66418175853323,"[4, 0, 250]",250,a,0.12117038542055525,1,colour,0.5,3.9
90,19,0,1,5,38,238,382.17595047934446,382.95220280252397,"[39, 0, 215]",215,a,0.2523551029153168,1,colour,0.5,3.9
90,19,0,1,5,39,239,383.45835488001467,384.200209841365,"[90, 0, 164]",164,l,0.2185359075665474,1,colour,0.5,3.9
90,19,0,1,5,40,240,384.7086466217297,385.41623734129826,"[87, 0, 167]",167,l,0.18445441051153466,1,colour,0.5,3.9
90,19,0,1,5,41,241,385.927321950905,386.6965019745403,"[86, 0, 168]",168,l,0.24572548668948002,1,colour,0.5,3.9
90,19,0,1,5,42,242,387.20871810484095,387.9681720919616,"[30, 0, 224]",224,a,0.2362790811166633,1,colour,0.5,3.9
90,19,0,1,5,43,243,388.47443996029324,389.2484658698668,"[15, 0, 239]",239,a,0.2507155204366427,1,colour,0.5,3.9
90,19,0,1,5,44,244,389.7557908218878,390.54424923230545,"[7, 0, 247]",247,a,0.2650574365979992,1,colour,0.5,3.9
90,19,0,1,5,45,245,391.0528195265797,391.83223758704844,"[76, 0, 178]",178,l,0.2562466990784742,1,colour,0.5,3.9
90,19,0,1,5,46,246,392.3496485511714,393.1362444620172,"[59, 0, 195]",195,l,0.26297359535237774,1,colour,0.5,3.9
90,19,0,1,5,47,247,393.6479438658571,394.4402497616247,"[83, 0, 171]",171,l,0.26767415198264644,1,colour,0.5,3.9
90,19,0,1,5,48,248,394.94622224514023,395.6562264553795,"[29, 0, 225]",225,a,0.18661071948008612,1,colour,0.5,3.9
90,19,0,1,5,49,249,396.16508386368514,396.952217374841,"[18, 0, 236]",236,a,0.26386565741267987,1,colour,0.5,3.9
90,19,0,1,5,50,250,397.4620653068123,398.2562612713955,"[45, 0, 209]",209,a,0.2708178338361904,1,colour,0.5,3.9
90,19,0,1,6,1,251,404.32617412498803,405.0802347797144,"[50, 0, 204]",204,a,0.22999368666205555,1,colour,0.5,3.9
90,19,0,1,6,2,252,405.592717150168,406.3761953730136,"[11, 0, 243]",243,a,0.26034585226443596,1,colour,0.5,3.9
90,19,0,1,6,3,253,406.8896599963482,407.64022250744165,"[85, 0, 169]",169,l,0.2272017095820047,1,colour,0.5,3.9
90,19,0,1,6,4,254,408.1553562517802,408.9521886240691,"[22, 0, 232]",232,a,0.2734802354243584,1,colour,0.5,3.9
90,19,0,1,6,5,255,409.4680379872734,410.2642417807074,"[94, 0, 160]",160,l,0.272865441191243,1,colour,0.5,3.9
90,19,0,1,6,6,256,410.78064213503967,411.59223232525983,"[76, 0, 178]",178,l,0.2882037887175102,1,colour,0.5,3.9
90,19,0,1,6,7,257,412.1111800779763,412.8882133985753,"[42, 0, 212]",212,a,0.2537225375708658,1,colour,0.5,3.9
90,19,0,1,6,8,258,413.40821784117725,414.1361987758428,"[41, 0, 213]",213,a,0.20471701939823106,1,colour,0.5,3.9
90,19,0,1,6,9,259,414.64261788118165,415.44025094315293,"[10, 0, 244]",244,a,0.2745290483289864,1,colour,0.5,3.9
90,19,0,1,6,10,260,415.95519130892353,416.68828358201426,"[77, 0, 177]",177,l,0.2096353730885312,1,colour,0.5,3.9
90,19,0,1,6,11,261,417.2053479613096,417.98422684607795,"[16, 0, 238]",238,a,0.25549484632210806,1,colour,0.5,3.9
90,19,0,1,6,12,262,418.50233846291667,419.3044003275281,"[13, 0, 241]",241,a,0.2787550200591795,1,colour,0.5,3.9
90,19,0,1,6,13,263,419.816791719466,420.6322089150199,"[36, 0, 218]",218,a,0.29203197557944804,1,colour,0.5,3.9
90,19,0,1,6,14,264,421.1450347195205,421.9362563561881,"[53, 0, 201]",201,a,0.26790770288789645,0,colour,0.5,3.9
90,19,0,1,6,15,265,422.4576219318842,423.21621930311085,"[1, 0, 253]",253,a,0.23524405280477367,1,colour,0.5,3.9
90,19,0,1,6,16,266,423.7233780519746,424.4963228531997,"[57, 0, 197]",197,a,0.2489436055184342,0,colour,0.5,3.9
90,19,0,1,6,17,267,425.00537600318785,425.76829780772096,"[93, 0, 161]",161,l,0.23960826461552642,1,colour,0.5,3.9
90,19,0,1,6,18,268,426.28673395400983,427.0802536843403,"[62, 0, 192]",192,l,0.2701939811522607,1,colour,0.5,3.9
90,19,0,1,6,19,269,427.5993026555807,428.3282221262052,"[99, 0, 155]",155,l,0.20551101371529512,1,colour,0.5,3.9
90,19,0,1,6,20,270,428.84939274794306,429.61630736716324,"[23, 0, 231]",231,a,0.24384999019093812,1,colour,0.5,3.9
90,19,0,1,6,21,271,430.131655363919,430.9282380375953,"[28, 0, 226]",226,a,0.2732297490874771,1,colour,0.5,3.9
90,19,0,1,6,22,272,431.44601055272506,432.29625479655806,"[38, 0, 216]",216,a,0.32698387317941524,1,colour,0.5,3.9
90,19,0,1,6,23,273,432.80543240197585,433.52030100891716,"[72, 0, 182]",182,l,0.19148929466609843,1,colour,0.5,3.9
90,19,0,1,6,24,274,434.03987694662646,434.6962081651436,"[82, 0, 172]",172,l,0.13147419458255172,1,colour,0.5,3.9
90,19,0,1,6,25,275,435.21333595371107,435.9842185752932,"[2, 0, 252]",252,a,0.24753166624577716,1,colour,0.5,3.9
90,19,0,1,6,26,276,436.4867193029204,437.184210225736,"[63, 0, 191]",191,l,0.17426993677509017,1,colour,0.5,3.9
90,19,0,1,6,27,277,437.70544740752666,438.4082304442418,"[47, 0, 207]",207,a,0.18022056185873225,1,colour,0.5,3.9
90,19,0,1,6,28,278,438.924301542982,439.4962133639201,"[59, 0, 195]",195,a,0.048612065642373636,0,colour,0.5,3.9
90,19,0,1,6,29,279,440.00246587223955,440.6962282512977,"[95, 0, 159]",159,l,0.17041693758801557,1,colour,0.5,3.9
90,19,0,1,6,30,280,441.20572565999464,441.94427743169945,"[34, 0, 220]",220,a,0.21518860713695176,1,colour,0.5,3.9
90,19,0,1,6,31,281,442.4558078754344,443.2322606664384,"[61, 0, 193]",193,a,0.2538127283914946,0,colour,0.5,3.9
90,19,0,1,6,32,282,443.75279365087044,444.4082229611522,"[98, 0, 156]",156,l,0.1321460965264123,1,colour,0.5,3.9
90,19,0,1,6,33,283,444.92478794325143,445.71223889463,"[45, 0, 209]",209,a,0.2640704575460404,1,colour,0.5,3.9
90,19,0,1,6,34,284,446.2217406356067,446.96823353201034,"[91, 0, 163]",163,l,0.22309546719770879,1,colour,0.5,3.9
90,19,0,1,6,35,285,447.48746091566863,448.28833415187546,"[81, 0, 173]",173,l,0.2779141580394935,1,colour,0.5,3.9
90,19,0,1,6,36,286,448.8000418265001,449.56829591727,"[29, 0, 225]",225,a,0.24505043399403803,1,colour,0.5,3.9
90,19,0,1,6,37,287,450.0815041466267,450.8322340424347,"[80, 0, 174]",174,l,0.22745022669550963,1,colour,0.5,3.9
90,19,0,1,6,38,288,451.34801133174915,452.1122540970973,"[46, 0, 208]",208,a,0.24120334250619635,1,colour,0.5,3.9
90,19,0,1,6,39,289,452.62945592877804,453.3762107330258,"[90, 0, 164]",164,l,0.2235097935772501,1,colour,0.5,3.9
90,19,0,1,6,40,290,453.8960076185758,454.6562382707489,"[73, 0, 181]",181,l,0.23677060139016248,1,colour,0.5,3.9
90,19,0,1,6,41,291,455.1773923509463,455.9522453379468,"[18, 0, 236]",236,a,0.2519781919545494,1,colour,0.5,3.9
90,19,0,1,6,42,292,456.45884640031727,457.12032046492095,"[68, 0, 186]",186,l,0.1382511093688663,1,colour,0.5,3.9
90,19,0,1,6,43,293,457.63072962799924,458.4082375334692,"[35, 0, 219]",219,a,0.25413607628433965,1,colour,0.5,3.9
90,19,0,1,6,44,294,458.92769728650455,459.70421900064684,"[44, 0, 210]",210,a,0.2534881989704445,1,colour,0.5,3.9
90,19,0,1,6,45,295,460.2246909388923,461.0002827816934,"[71, 0, 183]",183,l,0.2522558536147699,1,colour,0.5,3.9
90,19,0,1,6,46,296,461.5216806528042,462.2802433655597,"[6, 0, 248]",248,a,0.2352759543864522,1,colour,0.5,3.9
90,19,0,1,6,47,297,462.7874072343984,463.56027366023045,"[3, 0, 251]",251,a,0.24954737204825506,1,colour,0.5,3.9
90,19,0,1,6,48,298,464.0687809390947,464.88825790322153,"[31, 0, 223]",223,a,0.2961074980266858,1,colour,0.5,3.9
90,19,0,1,6,49,299,465.39691996370675,466.24833590054186,"[48, 0, 206]",206,a,0.32801968915737234,1,colour,0.5,3.9
90,19,0,1,6,50,300,466.7565198315424,467.6162790102244,"[83, 0, 171]",171,l,0.3364846295444295,1,colour,0.5,3.9
90,19,0,1,7,1,301,473.06866278516827,473.84826989189605,"[87, 0, 167]",167,l,0.2554869693994988,1,colour,0.5,3.9
90,19,0,1,7,2,302,474.36641656109714,475.15225510532036,"[17, 0, 237]",237,a,0.26234265344101004,1,colour,0.5,3.9
90,19,0,1,7,3,303,475.66347401659004,476.472265928227,"[86, 0, 168]",168,l,0.2858285011607222,1,colour,0.5,3.9
90,19,0,1,7,4,304,476.99148543496267,477.74469892610796,"[45, 0, 209]",209,a,0.22974595727282576,1,colour,0.5,3.9
90,19,0,1,7,5,305,478.25735143819475,479.04830210853834,"[14, 0, 240]",240,a,0.2675792349909898,1,colour,0.5,3.9
90,19,0,1,7,6,306,479.5545435891545,480.32024870612076,"[28, 0, 226]",226,a,0.2425124878936913,1,colour,0.5,3.9
90,19,0,1,7,7,307,480.826451983623,481.63226641659276,"[5, 0, 249]",249,a,0.2829459394561127,1,colour,0.5,3.9
90,19,0,1,7,8,308,482.13903998368187,482.8802703046531,"[89, 0, 165]",165,l,0.21796679953695275,1,colour,0.5,3.9
90,19,0,1,7,9,309,483.38914898067014,484.1922647781903,"[2, 0, 252]",252,a,0.2779562995710876,1,colour,0.5,3.9
90,19,0,1,7,10,310,484.70351677254075,485.53624233524897,"[70, 0, 184]",184,l,0.3092745704052504,1,colour,0.5,3.9
90,19,0,1,7,11,311,486.0474785757542,486.80826809594873,"[26, 0, 228]",228,a,0.23744801720022224,1,colour,0.5,3.9
90,19,0,1,7,12,312,487.328849917365,488.16028523931163,"[72, 0, 182]",182,l,0.3069804152182769,1,colour,0.5,3.9
90,19,0,1,7,13,313,488.6743256660702,489.48835849159514,"[29, 0, 225]",225,a,0.29070274406694807,1,colour,0.5,3.9
90,19,0,1,7,14,314,489.9902318219247,490.8162458483712,"[44, 0, 210]",210,a,0.30273356960969977,1,colour,0.5,3.9
90,19,0,1,7,15,315,491.33401284963475,492.1522409268655,"[27, 0, 227]",227,a,0.2949082357517909,1,colour,0.5,3.9
90,19,0,1,7,16,316,492.6622751481773,493.4002802610921,"[24, 0, 230]",230,a,0.21472229302162305,1,colour,0.5,3.9
90,19,0,1,7,17,317,493.91235539436457,494.6962798452005,"[54, 0, 200]",200,a,0.26059948935289867,0,colour,0.5,3.9
90,19,0,1,7,18,318,495.2093246282893,495.86431755675585,"[90, 0, 164]",164,l,0.1318361394223757,1,colour,0.5,3.9
90,19,0,1,7,19,319,496.38134176374297,497.0322729544423,"[73, 0, 181]",181,l,0.12760544152115472,1,colour,0.5,3.9
90,19,0,1,7,20,320,497.5532501976122,498.32030975230737,"[60, 0, 194]",194,l,0.24372238398063928,1,colour,0.5,3.9
90,19,0,1,7,21,321,498.83472197005176,499.73635765348445,"[46, 0, 208]",208,a,0.37834734967327677,1,colour,0.5,3.9
90,19,0,1,7,22,322,500.25657949928427,500.7923110157717,"[37, 0, 217]",217,a,0.012323453440330923,1,colour,0.5,3.9
90,19,0,1,7,23,323,501.3035421362438,501.96825558738783,"[39, 0, 215]",215,a,0.14144284048234113,1,colour,0.5,3.9
90,19,0,1,7,24,324,502.4755454871047,503.18428033040254,"[69, 0, 185]",185,l,0.18543311877874658,1,colour,0.5,3.9
90,19,0,1,7,25,325,503.6944594871893,504.42425881064264,"[95, 0, 159]",159,l,0.20659212206373923,1,colour,0.5,3.9
90,19,0,1,7,26,326,504.94451728413696,505.72832397487946,"[83, 0, 171]",171,l,0.2605195385112893,1,colour,0.5,3.9
90,19,0,1,7,27,327,506.2414750964963,507.0162461634318,"[91, 0, 163]",163,l,0.25145201315172017,1,colour,0.5,3.9
90,19,0,1,7,28,328,507.52276845651795,508.29628000271623,"[79, 0, 175]",175,l,0.25008969850023277,1,colour,0.5,3.9
90,19,0,1,7,29,329,508.80414649352315,509.62435876886593,"[0, 0, 254]",254,a,0.2968113015231211,1,colour,0.5,3.9
90,19,0,1,7,30,330,510.1324135182367,510.86427541519515,"[35, 0, 219]",219,a,0.20884728644159622,1,colour,0.5,3.9
90,19,0,1,7,31,331,511.3824870690296,512.1602367961896,"[11, 0, 243]",243,a,0.25442594720516354,1,colour,0.5,3.9
90,19,0,1,7,32,332,512.6794586660108,513.488280903839,"[51, 0, 203]",203,a,0.2946924079442397,0,colour,0.5,3.9
90,19,0,1,7,33,333,513.9984836914227,514.736282822676,"[21, 0, 233]",233,a,0.2143028466089163,1,colour,0.5,3.9
90,19,0,1,7,34,334,515.2486206514877,516.0003068063234,"[55, 0, 199]",199,a,0.22868414738331921,0,colour,0.5,3.9
90,19,0,1,7,35,335,516.5142980022938,517.2723022408609,"[94, 0, 160]",160,l,0.23467140016146004,1,colour,0.5,3.9
90,19,0,1,7,36,336,517.7800427008187,518.5603221033234,"[56, 0, 198]",198,a,0.2569312040868681,0,colour,0.5,3.9
90,19,0,1,7,37,337,519.0770525009139,519.8243433300813,"[36, 0, 218]",218,a,0.2242525878828019,1,colour,0.5,3.9
90,19,0,1,7,38,338,520.3427251255489,521.0802832228073,"[42, 0, 212]",212,a,0.21428157889749855,1,colour,0.5,3.9
90,19,0,1,7,39,339,521.5928435748501,522.344322960329,"[50, 0, 204]",204,a,0.2349860834365245,1,colour,0.5,3.9
90,19,0,1,7,40,340,522.8517475554836,523.5602649956127,"[85, 0, 169]",169,l,0.18518657094682567,1,colour,0.5,3.9
90,19,0,1,7,41,341,524.0706162632559,524.8643218890647,"[25, 0, 229]",229,a,0.2707839630311355,1,colour,0.5,3.9
90,19,0,1,7,42,342,525.3831294325064,526.2003492629738,"[75, 0, 179]",179,l,0.29391180438688025,1,colour,0.5,3.9
90,19,0,1,7,43,343,526.7115189434262,527.4803228437668,"[78, 0, 176]",176,l,0.2578634384844918,1,colour,0.5,3.9
90,19,0,1,7,44,344,527.9985656114586,528.800322245108,"[93, 0, 161]",161,l,0.27847420758916996,1,colour,0.5,3.9
90,19,0,1,7,45,345,529.3111110760947,530.1842897827155,"[16, 0, 238]",238,a,0.34987580054439604,1,colour,0.5,3.9
90,19,0,1,7,46,346,530.7017779407324,531.4883100484731,"[63, 0, 191]",191,a,0.2631055339006707,0,colour,0.5,3.9
90,19,0,1,7,47,347,531.9988956547459,532.7603086337913,"[10, 0, 244]",244,a,0.23823649768019095,1,colour,0.5,3.9
90,19,0,1,7,48,348,533.2801086700929,534.0483351916191,"[1, 0, 253]",253,a,0.2448058553854935,1,colour,0.5,3.9
90,19,0,1,7,49,349,534.5615020671103,535.3443473788211,"[96, 0, 158]",158,l,0.26031749532558024,1,colour,0.5,3.9
90,19,0,1,7,50,350,535.8584201009653,536.6562977415742,"[3, 0, 251]",251,a,0.2745448022033088,1,colour,0.5,3.9
90,19,0,1,8,1,351,556.9750561329711,558.6323412474012,"[19, 0, 235]",235,a,1.1333217279752716,1,colour,0.5,3.9
90,19,0,1,8,2,352,559.147965330485,559.920304395986,"[61, 0, 193]",193,l,0.2490448240423575,1,colour,0.5,3.9
90,19,0,1,8,3,353,560.4292004012386,561.2243325386953,"[24, 0, 230]",230,a,0.2716468804865144,1,colour,0.5,3.9
90,19,0,1,8,4,354,561.7418455090374,562.4403186847339,"[2, 0, 252]",252,a,0.175206503510708,1,colour,0.5,3.9
90,19,0,1,8,5,355,562.9607555706752,563.7362985765212,"[48, 0, 206]",206,a,0.25240787834627554,1,colour,0.5,3.9
90,19,0,1,8,6,356,564.2576613952988,564.9923073923856,"[33, 0, 221]",221,a,0.21134427256765775,1,colour,0.5,3.9
90,19,0,1,8,7,357,565.50775581997,566.3283233447291,"[11, 0, 243]",243,a,0.30973221990279853,1,colour,0.5,3.9
90,19,0,1,8,8,358,566.8391992157849,567.6163636872079,"[94, 0, 160]",160,l,0.26642172047286294,1,colour,0.5,3.9
90,19,0,1,8,9,359,568.1238225470006,568.9923459893325,"[39, 0, 215]",215,a,0.35402575993794017,1,colour,0.5,3.9
90,19,0,1,8,10,360,569.5056676464155,570.3843720178411,"[56, 0, 198]",198,a,0.35549362539313734,0,colour,0.5,3.9
90,19,0,1,8,11,361,570.8963742895576,571.6643979802029,"[40, 0, 214]",214,a,0.24461995990714058,1,colour,0.5,3.9
90,19,0,1,8,12,362,572.1777180619247,572.9523343472392,"[82, 0, 172]",172,l,0.25171904102899134,1,colour,0.5,3.9
90,19,0,1,8,13,363,573.4590992496815,574.2322984756902,"[70, 0, 184]",184,l,0.2502744124503806,1,colour,0.5,3.9
90,19,0,1,8,14,364,574.7404926466988,575.5443374538736,"[20, 0, 234]",234,a,0.28055056571611203,1,colour,0.5,3.9
90,19,0,1,8,15,365,576.0530455944245,576.864294319821,"[34, 0, 220]",220,a,0.2879084039304871,1,colour,0.5,3.9
90,19,0,1,8,16,366,577.3813334929873,578.1763636241958,"[58, 0, 196]",196,a,0.27246686865692027,0,colour,0.5,3.9
90,19,0,1,8,17,367,578.6940242869314,579.4003562734288,"[88, 0, 166]",166,l,0.19016912157530896,1,colour,0.5,3.9
90,19,0,1,8,18,368,579.9213083104405,580.7283007379447,"[54, 0, 200]",200,a,0.283675342972856,0,colour,0.5,3.9
90,19,0,1,8,19,369,581.2495993597549,582.0723499750602,"[16, 0, 238]",238,a,0.29946503846440464,1,colour,0.5,3.9
90,19,0,1,8,20,370,582.5934516736597,583.5203199135431,"[77, 0, 177]",177,l,0.403740201581968,1,colour,0.5,3.9
90,19,0,1,8,21,371,584.031031944498,584.6963125344482,"[68, 0, 186]",186,l,0.14189970231382176,1,colour,0.5,3.9
90,19,0,1,8,22,372,585.2048595917877,585.992358198564,"[80, 0, 174]",174,l,0.2641287468140945,1,colour,0.5,3.9
90,19,0,1,8,23,373,586.5018020441348,587.2723443824216,"[4, 0, 250]",250,a,0.24718114294228144,1,colour,0.5,3.9
90,19,0,1,8,24,374,587.7831473918923,588.5442937369226,"[55, 0, 199]",199,a,0.23490219414816238,0,colour,0.5,3.9
90,19,0,1,8,25,375,589.0517722890363,589.824356327008,"[9, 0, 245]",245,a,0.24925671340315603,1,colour,0.5,3.9
90,19,0,1,8,26,376,590.3207016294473,591.0723342211859,"[31, 0, 223]",223,a,0.2375764111056924,1,colour,0.5,3.9
90,19,0,1,8,27,377,591.5927904055861,592.4163255628664,"[66, 0, 188]",188,a,0.30058277447824366,0,colour,0.5,3.9
90,19,0,1,8,28,378,592.9374063876458,593.6963562513993,"[38, 0, 216]",216,a,0.23360447032609954,1,colour,0.5,3.9
90,19,0,1,8,29,379,594.205209721229,595.0403172668885,"[30, 0, 224]",224,a,0.31176683033118024,1,colour,0.5,3.9
90,19,0,1,8,30,380,595.5495626138872,596.3123300306615,"[79, 0, 175]",175,l,0.23931051674298942,1,colour,0.5,3.9
90,19,0,1,8,31,381,596.8308945708559,597.6483105368388,"[64, 0, 190]",190,a,0.2941205429669935,0,colour,0.5,3.9
90,19,0,1,8,32,382,598.1591966479027,598.8963333295251,"[62, 0, 192]",192,a,0.21389206481399015,0,colour,0.5,3.9
90,19,0,1,8,33,383,599.4093410910573,600.1684075333469,"[1, 0, 253]",253,a,0.2361518687393982,1,colour,0.5,3.9
90,19,0,1,8,34,384,600.6749526695057,601.4803768007259,"[46, 0, 208]",208,a,0.2820491512538865,1,colour,0.5,3.9
90,19,0,1,8,35,385,601.9876257403812,602.7923787573527,"[78, 0, 176]",176,l,0.28142057242803276,1,colour,0.5,3.9
90,19,0,1,8,36,386,603.3001566327002,604.064363164187,"[49, 0, 205]",205,a,0.24080240688635968,1,colour,0.5,3.9
90,19,0,1,8,37,387,604.5815866574412,605.3603257267096,"[26, 0, 228]",228,a,0.2554278924362734,1,colour,0.5,3.9
90,19,0,1,8,38,388,605.8785641620925,606.640378864482,"[85, 0, 169]",169,l,0.23844523626030423,1,colour,0.5,3.9
90,19,0,1,8,39,389,607.1599252637243,607.9203544144984,"[76, 0, 178]",178,l,0.23735979563207366,1,colour,0.5,3.9
90,19,0,1,8,40,390,608.4316241319175,609.3283505201398,"[65, 0, 189]",189,l,0.3733833098085597,1,colour,0.5,3.9
90,19,0,1,8,41,391,609.837960568897,610.608368999412,"[87, 0, 167]",167,l,0.24701178900431842,1,colour,0.5,3.9
90,19,0,1,8,42,392,611.1192937073938,611.9523469503038,"[72, 0, 182]",182,l,0.30964478600071743,1,colour,0.5,3.9
90,19,0,1,8,43,393,612.4631987967296,613.2005548508023,"[69, 0, 185]",185,l,0.21400312951300293,1,colour,0.5,3.9
90,19,0,1,8,44,394,613.7132774675265,614.5284453583299,"[74, 0, 180]",180,l,0.29223520032246597,1,colour,0.5,3.9
90,19,0,1,8,45,395,615.0327416316431,615.7683332539164,"[6, 0, 248]",248,a,0.2107475952943787,1,colour,0.5,3.9
90,19,0,1,8,46,396,616.2860848951677,617.0883700706763,"[43, 0, 211]",211,a,0.27594610763480887,1,colour,0.5,3.9
90,19,0,1,8,47,397,617.6017106323852,618.34435171113,"[10, 0, 244]",244,a,0.21932399418437853,1,colour,0.5,3.9
90,19,0,1,8,48,398,618.8517719739757,619.6963278944604,"[41, 0, 213]",213,a,0.3212183559371624,1,colour,0.5,3.9
90,19,0,1,8,49,399,620.2112568386365,621.0083589957212,"[23, 0, 231]",231,a,0.2737752263783477,1,colour,0.5,3.9
90,19,0,1,8,50,400,621.5238952510408,622.3284328340378,"[73, 0, 181]",181,l,0.2812401907867752,1,colour,0.5,3.9
90,19,0,1,9,1,401,627.7267541031761,628.5603630633559,"[70, 0, 184]",184,l,0.309624305984471,1,colour,0.5,3.9
90,19,0,1,9,2,402,629.0713996237318,629.8643656060158,"[29, 0, 225]",225,a,0.26993286100332625,1,colour,0.5,3.9
90,19,0,1,9,3,403,630.3839257898799,631.0803742013231,"[94, 0, 160]",160,l,0.1731258130457718,1,colour,0.5,3.9
90,19,0,1,9,4,404,631.5888633632567,632.3203483492543,"[62, 0, 192]",192,a,0.20806431985693052,0,colour,0.5,3.9
90,19,0,1,9,5,405,632.8390424649115,633.5603957526037,"[53, 0, 201]",201,a,0.19814057243638672,0,colour,0.5,3.9
90,19,0,1,9,6,406,634.0734775572491,634.8083315052208,"[82, 0, 172]",172,l,0.21149708493612707,1,colour,0.5,3.9
90,19,0,1,9,7,407,635.3236361788877,636.136422480602,"[98, 0, 156]",156,l,0.2894353463780135,1,colour,0.5,3.9
90,19,0,1,9,8,408,636.6518362496863,637.42433797376,"[2, 0, 252]",252,a,0.24910350717254914,1,colour,0.5,3.9
90,19,0,1,9,9,409,637.9331359112693,638.6883418712532,"[0, 0, 254]",254,a,0.2304785115411505,1,colour,0.5,3.9
90,19,0,1,9,10,410,639.2001889674866,639.9923455954704,"[77, 0, 177]",177,l,0.2687221771921031,1,colour,0.5,3.9
90,19,0,1,9,11,411,640.512900635309,641.2803363132989,"[32, 0, 222]",222,a,0.24411741190124303,1,colour,0.5,3.9
90,19,0,1,9,12,412,641.7942353491962,642.6003778562299,"[35, 0, 219]",219,a,0.28300068411044776,1,colour,0.5,3.9
90,19,0,1,9,13,413,643.1068241369503,643.8563772197813,"[3, 0, 251]",251,a,0.22620330902282149,1,colour,0.5,3.9
90,19,0,1,9,14,414,644.3725538693252,645.1363693113381,"[60, 0, 194]",194,a,0.24040777279878967,0,colour,0.5,3.9
90,19,0,1,9,15,415,645.6557396612479,646.4563324788178,"[14, 0, 240]",240,a,0.27721508068498224,1,colour,0.5,3.9
90,19,0,1,9,16,416,646.9683548366884,647.7043485761096,"[10, 0, 244]",244,a,0.2133879414468538,1,colour,0.5,3.9
90,19,0,1,9,17,417,648.2184445352177,648.9763798506756,"[79, 0, 175]",175,l,0.23460562783293426,1,colour,0.5,3.9
90,19,0,1,9,18,418,649.4844405077456,650.256351068354,"[4, 0, 250]",250,a,0.24863167919102125,1,colour,0.5,3.9
90,19,0,1,9,19,419,650.7658122431894,651.584325071366,"[46, 0, 208]",208,a,0.2951969251735136,1,colour,0.5,3.9
90,19,0,1,9,20,420,652.094045790931,652.8484408212244,"[8, 0, 246]",246,a,0.23132921973592602,1,colour,0.5,3.9
90,19,0,1,9,21,421,653.3597125078959,654.1683492440789,"[59, 0, 195]",195,a,0.285268057778012,0,colour,0.5,3.9
90,19,0,1,9,22,422,654.6879767756618,655.4883939377614,"[78, 0, 176]",176,l,0.2771107114094775,1,colour,0.5,3.9
90,19,0,1,9,23,423,656.0006112495903,656.7923452804098,"[57, 0, 197]",197,a,0.2713042341347318,0,colour,0.5,3.9
90,19,0,1,9,24,424,657.310294238705,658.120369301876,"[86, 0, 168]",168,l,0.28606717207003385,1,colour,0.5,3.9
90,19,0,1,9,25,425,658.638365127903,659.3923655241088,"[43, 0, 211]",211,a,0.23047378539922647,1,colour,0.5,3.9
90,19,0,1,9,26,426,659.9042571249884,660.6243375011545,"[27, 0, 227]",227,a,0.2092509790090844,1,colour,0.5,3.9
90,19,0,1,9,27,427,661.1419331792276,662.0484001762816,"[68, 0, 186]",186,l,0.38309634939651005,1,colour,0.5,3.9
90,19,0,1,9,28,428,662.5639517916134,663.2003626537626,"[36, 0, 218]",218,a,0.11295947598409839,1,colour,0.5,3.9
90,19,0,1,9,29,429,663.7202213731653,664.5364168092201,"[18, 0, 236]",236,a,0.2931355331966188,1,colour,0.5,3.9
90,19,0,1,9,30,430,665.0490957089933,665.7443503720569,"[81, 0, 173]",173,l,0.17197184314136393,1,colour,0.5,3.9
90,19,0,1,9,31,431,666.2522983890376,666.9763751245046,"[92, 0, 162]",162,l,0.20072066012653522,1,colour,0.5,3.9
90,19,0,1,9,32,432,667.4743529202242,668.2323815772834,"[5, 0, 249]",249,a,0.23476986176683567,1,colour,0.5,3.9
90,19,0,1,9,33,433,668.7400515387417,669.3923438625643,"[58, 0, 196]",196,a,0.1289153746329248,0,colour,0.5,3.9
90,19,0,1,9,34,434,669.9120300772483,670.6483522845665,"[23, 0, 231]",231,a,0.2132225259556435,1,colour,0.5,3.9
90,19,0,1,9,35,435,671.162107172684,671.9043878819793,"[96, 0, 158]",158,l,0.2189159693371039,1,colour,0.5,3.9
90,19,0,1,9,36,436,672.4121637881035,673.1604022116808,"[66, 0, 188]",188,l,0.22396704924176447,1,colour,0.5,3.9
90,19,0,1,9,37,437,673.6791412258171,674.4563836788584,"[6, 0, 248]",248,a,0.25384541766834445,1,colour,0.5,3.9
90,19,0,1,9,38,438,674.9761486628267,675.7283665103023,"[31, 0, 223]",223,a,0.22896771680098027,1,colour,0.5,3.9
90,19,0,1,9,39,439,676.241836647474,677.0563574486878,"[91, 0, 163]",163,l,0.2911064366053324,1,colour,0.5,3.9
90,19,0,1,9,40,440,677.5700894937036,678.4164051198459,"[65, 0, 189]",189,l,0.32294261539936997,1,colour,0.5,3.9
90,19,0,1,9,41,441,678.9296188630397,679.7204206594615,"[80, 0, 174]",174,l,0.2675185826665256,1,colour,0.5,3.9
90,19,0,1,9,42,442,680.2265609215247,681.1283502050501,"[93, 0, 161]",161,l,0.38784180450602435,1,colour,0.5,3.9
90,19,0,1,9,43,443,681.6393261130725,682.3844066763413,"[42, 0, 212]",212,a,0.22244837757898495,1,colour,0.5,3.9
90,19,0,1,9,44,444,682.904923513066,683.6244662889221,"[22, 0, 232]",232,a,0.196130380500108,1,colour,0.5,3.9
90,19,0,1,9,45,445,684.1394692762406,684.8723535984464,"[34, 0, 220]",220,a,0.2095912623044569,1,colour,0.5,3.9
90,19,0,1,9,46,446,685.3898712949303,686.1443892052921,"[21, 0, 233]",233,a,0.23129534893087111,1,colour,0.5,3.9
90,19,0,1,9,47,447,686.6555281657202,687.4243801153207,"[28, 0, 226]",226,a,0.24553053273120895,1,colour,0.5,3.9
90,19,0,1,9,48,448,687.9368459442339,688.8083649821638,"[69, 0, 185]",185,l,0.3481582364474889,1,colour,0.5,3.9
90,19,0,1,9,49,449,689.3276234797086,690.040373193071,"[26, 0, 228]",228,a,0.18965436433791183,1,colour,0.5,3.9
90,19,0,1,9,50,450,690.5463437073922,691.2564073883987,"[85, 0, 169]",169,l,0.1866749164473731,1,colour,0.5,3.9
90,19,0,1,10,1,451,698.4369004919427,699.2404144681932,"[58, 0, 196]",196,a,0.27933397426386364,0,colour,0.5,3.9
90,19,0,1,10,2,452,699.7502529478515,700.3684184822778,"[74, 0, 180]",180,l,0.0947850406228099,1,colour,0.5,3.9
90,19,0,1,10,3,453,700.8754724679748,701.552430997137,"[90, 0, 164]",164,l,0.1536965831182897,1,colour,0.5,3.9
90,19,0,1,10,4,454,702.064794425969,702.8164242607891,"[53, 0, 201]",201,a,0.22819656558567658,0,colour,0.5,3.9
90,19,0,1,10,5,455,703.3318975006987,704.040387371555,"[60, 0, 194]",194,a,0.1851101647480391,0,colour,0.5,3.9
90,19,0,1,10,6,456,704.5506854699343,705.2803894825629,"[50, 0, 204]",204,a,0.20645033734035678,1,colour,0.5,3.9
90,19,0,1,10,7,457,705.800854725414,706.4484295572329,"[75, 0, 179]",179,l,0.1243239134491887,1,colour,0.5,3.9
90,19,0,1,10,8,458,706.957149119291,708.1204185326642,"[18, 0, 236]",236,a,0.6399535103701055,1,colour,0.5,3.9
90,19,0,1,10,9,459,708.6310498251114,709.4244175307394,"[38, 0, 216]",216,a,0.2700553472386673,1,colour,0.5,3.9
90,19,0,1,10,10,460,709.9436437328695,710.6323558197182,"[57, 0, 197]",197,a,0.16560177167411894,0,colour,0.5,3.9
90,19,0,1,10,11,461,711.146847200609,711.9043933958164,"[89, 0, 165]",165,l,0.2342432891309727,1,colour,0.5,3.9
90,19,0,1,10,12,462,712.4125698437274,713.1523874377308,"[54, 0, 200]",200,a,0.21540758572518826,0,colour,0.5,3.9
90,19,0,1,10,13,463,713.6637319859583,714.2564491361263,"[12, 0, 242]",242,a,0.06935044098645449,1,colour,0.5,3.9
90,19,0,1,10,14,464,714.7731149428873,715.488445137802,"[61, 0, 193]",193,a,0.19198869189131074,0,colour,0.5,3.9
90,19,0,1,10,15,465,716.0076634629804,716.7364541458373,"[73, 0, 181]",181,a,0.20541885364218615,0,colour,0.5,3.9
90,19,0,1,10,16,466,717.2577023553313,717.9445673026494,"[49, 0, 205]",205,a,0.16342143810470589,1,colour,0.5,3.9
90,19,0,1,10,17,467,718.4579031382164,719.2003878599207,"[34, 0, 220]",220,a,0.2191243140550796,1,colour,0.5,3.9
90,19,0,1,10,18,468,719.7079908674932,720.4164764060406,"[71, 0, 183]",183,l,0.1851932663412299,1,colour,0.5,3.9
90,19,0,1,10,19,469,720.9278170158213,721.5764288451464,"[78, 0, 176]",176,l,0.12544755719136447,1,colour,0.5,3.9
90,19,0,1,10,20,470,722.0843488990504,722.8484431843099,"[93, 0, 161]",161,l,0.24080240688635968,1,colour,0.5,3.9
90,19,0,1,10,21,471,723.3656816437142,724.1204441326845,"[69, 0, 185]",185,a,0.23149936136906035,0,colour,0.5,3.9
90,19,0,1,10,22,472,724.6314117699512,725.304414505983,"[70, 0, 184]",184,a,0.1496876207238529,0,colour,0.5,3.9
90,19,0,1,10,23,473,725.8221243995358,726.4804071268882,"[29, 0, 225]",225,a,0.13494319358142093,1,colour,0.5,3.9
90,19,0,1,10,24,474,726.9941072703514,727.7604315138597,"[27, 0, 227]",227,a,0.24318360214238055,1,colour,0.5,3.9
90,19,0,1,10,25,475,728.2753899965319,729.0483761516516,"[65, 0, 189]",189,a,0.24964071362046525,0,colour,0.5,3.9
90,19,0,1,10,26,476,729.55678654433,730.1124718941282,"[84, 0, 170]",170,l,0.03230997599894181,1,colour,0.5,3.9
90,19,0,1,10,27,477,730.619379368989,731.3924553210672,"[41, 0, 213]",213,a,0.24979903985513374,1,colour,0.5,3.9
90,19,0,1,10,28,478,731.9007058121206,732.7524403706775,"[22, 0, 232]",232,a,0.328448587883031,1,colour,0.5,3.9
90,19,0,1,10,29,479,733.260193827562,734.1124076971901,"[21, 0, 233]",233,a,0.3409480906557292,1,colour,0.5,3.9
90,19,0,1,10,30,480,734.6232264604769,735.4003858119249,"[6, 0, 248]",248,a,0.2538666853797622,1,colour,0.5,3.9
90,19,0,1,10,31,481,735.920134648215,736.7523801121861,"[40, 0, 214]",214,a,0.308809043985093,1,colour,0.5,3.9
90,19,0,1,10,32,482,737.2640440698306,738.0564429133374,"[1, 0, 253]",253,a,0.26905458356486633,1,colour,0.5,3.9
90,19,0,1,10,33,483,738.5766273437184,739.6084347717406,"[37, 0, 217]",217,a,0.5085407558071893,1,colour,0.5,3.9
90,19,0,1,10,34,484,740.1236390145787,740.8564296013501,"[10, 0, 244]",244,a,0.2094033975736238,1,colour,0.5,3.9
90,19,0,1,10,35,485,741.364209445921,742.1765046211949,"[7, 0, 247]",247,a,0.2888780537468847,1,colour,0.5,3.9
90,19,0,1,10,36,486,742.6930648771231,743.4164240244718,"[87, 0, 167]",167,l,0.20023032135213725,1,colour,0.5,3.9
90,19,0,1,10,37,487,743.9275003633229,744.7604212738515,"[56, 0, 198]",198,a,0.3099515923531726,0,colour,0.5,3.9
90,19,0,1,10,38,488,745.2713341664639,746.0484462563181,"[26, 0, 228]",228,a,0.253735140664503,1,colour,0.5,3.9
90,19,0,1,10,39,489,746.5682801634248,747.3044172629307,"[95, 0, 159]",159,l,0.21278338725096546,1,colour,0.5,3.9
90,19,0,1,10,40,490,747.8184442989004,748.5364530430816,"[68, 0, 186]",186,l,0.19466566576738842,1,colour,0.5,3.9
90,19,0,1,10,41,491,749.0529715512821,749.8164081130817,"[35, 0, 219]",219,a,0.2401635880523827,1,colour,0.5,3.9
90,19,0,1,10,42,492,750.3342952374951,751.1044055263046,"[14, 0, 240]",240,a,0.24677193656680174,1,colour,0.5,3.9
90,19,0,1,10,43,493,751.615579932899,752.3844062824792,"[55, 0, 199]",199,a,0.2454021388257388,0,colour,0.5,3.9
90,19,0,1,10,44,494,752.8969374898879,753.5444170108531,"[67, 0, 187]",187,a,0.1242321472382173,0,colour,0.5,3.9
90,19,0,1,10,45,495,754.0533051391831,754.7604256061604,"[36, 0, 218]",218,a,0.1837234316044487,1,colour,0.5,3.9
90,19,0,1,10,46,496,755.2721336746181,756.0564850548981,"[19, 0, 235]",235,a,0.2610075141710695,1,colour,0.5,3.9
90,19,0,1,10,47,497,756.569152926997,757.3844271563285,"[9, 0, 245]",245,a,0.2919725047831889,1,colour,0.5,3.9
90,19,0,1,10,48,498,757.8973557547433,758.696432657598,"[11, 0, 243]",243,a,0.2757397321402095,1,colour,0.5,3.9
90,19,0,1,10,49,499,759.2099500563345,759.9844218000362,"[48, 0, 206]",206,a,0.25158473939518444,1,colour,0.5,3.9
90,19,0,1,10,50,500,760.4913115517993,761.2564483484311,"[30, 0, 224]",224,a,0.2418035643931944,1,colour,0.5,3.9
90,19,0,1,11,1,501,836.2622512810922,837.1604490794125,"[18, 0, 236]",236,a,0.37410838101641275,1,colour,0.5,3.8
90,19,0,1,11,2,502,837.6694285800913,838.4807080255123,"[41, 0, 213]",213,a,0.2879147054627538,1,colour,0.5,3.8
90,19,0,1,11,3,503,839.0035119282256,839.8085292161268,"[50, 0, 204]",204,a,0.2816580617800355,1,colour,0.5,3.8
90,19,0,1,11,4,504,840.3161637313897,841.1765140735079,"[42, 0, 212]",212,a,0.33713762686238624,1,colour,0.5,3.8
90,19,0,1,11,5,505,841.6912216760393,842.5044691718649,"[60, 0, 194]",194,a,0.2898567620140966,0,colour,0.5,3.8
90,19,0,1,11,6,506,843.0194272607041,843.7684994570736,"[98, 0, 156]",156,l,0.22647112456616014,1,colour,0.5,3.8
90,19,0,1,11,7,507,844.2727169611026,845.0004604064161,"[75, 0, 179]",179,l,0.20438067457871512,1,colour,0.5,3.8
90,19,0,1,11,8,508,845.5072583919682,846.28051078727,"[68, 0, 186]",186,l,0.24987150763627142,1,colour,0.5,3.8
90,19,0,1,11,9,509,846.7885529335472,847.5764300267037,"[10, 0, 244]",244,a,0.26443358391406946,1,colour,0.5,3.8
90,19,0,1,11,10,510,848.0855942413327,848.8404563734366,"[21, 0, 233]",233,a,0.23160254911636002,1,colour,0.5,3.8
90,19,0,1,11,11,511,849.3512416598096,850.1604805871029,"[17, 0, 237]",237,a,0.28587143041659147,1,colour,0.5,3.8
90,19,0,1,11,12,512,850.6794559090922,851.4564683558128,"[94, 0, 160]",160,l,0.25302306638332084,1,colour,0.5,3.8
90,19,0,1,11,13,513,851.977069475688,852.7285051442159,"[6, 0, 248]",248,a,0.2283371687226463,1,colour,0.5,3.8
90,19,0,1,11,14,514,853.2447298430488,853.9844895416172,"[53, 0, 201]",201,a,0.21662181415013038,0,colour,0.5,3.8
90,19,0,1,11,15,515,854.4832290362392,855.2885365889233,"[27, 0, 227]",227,a,0.2820983820420224,1,colour,0.5,3.8
90,19,0,1,11,16,516,855.7957638670341,856.5445115339826,"[59, 0, 195]",195,a,0.22541246545733884,0,colour,0.5,3.8
90,19,0,1,11,17,517,857.0630481111002,857.8484786304762,"[3, 0, 251]",251,a,0.26210358866956085,1,colour,0.5,3.8
90,19,0,1,11,18,518,858.3600220711378,859.1285368882527,"[39, 0, 215]",215,a,0.24518828024156392,1,colour,0.5,3.8
90,19,0,1,11,19,519,859.6289494423254,860.384497654828,"[65, 0, 189]",189,l,0.23220119561301544,1,colour,0.5,3.8
90,19,0,1,11,20,520,860.8946980793262,861.6085107841063,"[32, 0, 222]",222,a,0.19075437731225975,1,colour,0.5,3.8
90,19,0,1,11,21,521,862.1291036331968,862.8884855464275,"[92, 0, 162]",162,l,0.2360029948176816,1,colour,0.5,3.8
90,19,0,1,11,22,522,863.3948581778968,864.1845272720966,"[14, 0, 240]",240,a,0.26645204663509503,1,colour,0.5,3.8
90,19,0,1,11,23,523,864.6918360764103,865.5125052135554,"[4, 0, 250]",250,a,0.29406619220389985,1,colour,0.5,3.8
90,19,0,1,11,24,524,866.0233846291958,866.792491397413,"[9, 0, 245]",245,a,0.2458893267903477,1,colour,0.5,3.8
90,19,0,1,11,25,525,867.3046409676608,868.0404905593023,"[48, 0, 206]",206,a,0.21249824244296178,1,colour,0.5,3.8
90,19,0,1,11,26,526,868.554778321588,869.2804832179972,"[13, 0, 241]",241,a,0.20241380573133938,1,colour,0.5,3.8
90,19,0,1,11,27,527,869.7891866323771,870.560528084985,"[55, 0, 199]",199,a,0.24800467572640628,0,colour,0.5,3.8
90,19,0,1,11,28,528,871.0704689646955,871.8245099271007,"[93, 0, 161]",161,l,0.24302842665929347,1,colour,0.5,3.8
90,19,0,1,11,29,529,872.3406633397099,873.1124518079741,"[16, 0, 238]",238,a,0.24846271908609197,1,colour,0.5,3.8
90,19,0,1,11,30,530,873.6219578812888,874.5124626781326,"[58, 0, 196]",196,a,0.36710303532890975,0,colour,0.5,3.8
90,19,0,1,11,31,531,875.0303383810096,875.7444933382794,"[19, 0, 235]",235,a,0.19091191585175693,1,colour,0.5,3.8
90,19,0,1,11,32,532,876.2647443287133,877.0165313082398,"[79, 0, 175]",175,l,0.22841436264570802,1,colour,0.5,3.8
90,19,0,1,11,33,533,877.5211895263637,878.2565054561419,"[44, 0, 210]",210,a,0.21195237134816125,1,colour,0.5,3.8
90,19,0,1,11,34,534,878.771797132882,879.5285205830005,"[80, 0, 174]",174,l,0.233371707086917,1,colour,0.5,3.8
90,19,0,1,11,35,535,880.0381664717861,880.7844821373001,"[57, 0, 197]",197,a,0.22237512216088362,0,colour,0.5,3.8
90,19,0,1,11,36,536,881.3048961801105,881.9845045077673,"[96, 0, 158]",158,l,0.15628888001083396,1,colour,0.5,3.8
90,19,0,1,11,37,537,882.4925332632847,883.1924766675511,"[40, 0, 214]",214,a,0.1766968182346318,1,colour,0.5,3.8
90,19,0,1,11,38,538,883.7113263525243,884.4325280093763,"[23, 0, 231]",231,a,0.19795034464914352,1,colour,0.5,3.8
90,19,0,1,11,39,539,884.9463427621522,885.6405111968634,"[43, 0, 211]",211,a,0.17088364556548186,1,colour,0.5,3.8
90,19,0,1,11,40,540,886.1495919160661,886.8805656894401,"[81, 0, 173]",173,l,0.20771615963894874,1,colour,0.5,3.8
90,19,0,1,11,41,541,887.3996957930503,888.096508906252,"[78, 0, 176]",176,l,0.17217270479886793,1,colour,0.5,3.8
90,19,0,1,11,42,542,888.6041816246288,889.3045066660561,"[49, 0, 205]",205,a,0.17696069533121772,1,colour,0.5,3.8
90,19,0,1,11,43,543,889.8230227631284,890.5044612949423,"[64, 0, 190]",190,l,0.1581486226641573,1,colour,0.5,3.8
90,19,0,1,11,44,544,891.0106165231846,891.6644917156373,"[84, 0, 170]",170,l,0.1308211972936988,1,colour,0.5,3.8
90,19,0,1,11,45,545,892.1826242063544,892.9364686393819,"[91, 0, 163]",163,l,0.23091607488458976,1,colour,0.5,3.8
90,19,0,1,11,46,546,893.4483051017742,894.1605117009894,"[70, 0, 184]",184,l,0.1888473731232807,1,colour,0.5,3.8
90,19,0,1,11,47,547,894.667094252567,895.360550612997,"[99, 0, 155]",155,l,0.16992974962340668,1,colour,0.5,3.8
90,19,0,1,11,48,548,895.8704272957693,896.6165554903855,"[22, 0, 232]",232,a,0.22276581774349324,1,colour,0.5,3.8
90,19,0,1,11,49,549,897.1237717408221,897.9044898881984,"[90, 0, 164]",164,l,0.25738018899573945,1,colour,0.5,3.8
90,19,0,1,11,50,550,898.420785873197,899.1765428243089,"[34, 0, 220]",220,a,0.23264427282265387,1,colour,0.5,3.8
90,19,0,1,12,1,551,906.2814753170533,907.2245334003528,"[25, 0, 229]",229,a,0.4189312505768612,1,colour,0.5,3.8
90,19,0,1,12,2,552,907.7355510560737,908.4885235132242,"[10, 0, 244]",244,a,0.22969081878545694,1,colour,0.5,3.8
90,19,0,1,12,3,553,909.0012213176524,909.6965031560976,"[3, 0, 251]",251,a,0.1720025631657336,1,colour,0.5,3.8
90,19,0,1,12,4,554,910.2044870131067,910.9525785319856,"[47, 0, 207]",207,a,0.22475395430228673,1,colour,0.5,3.8
90,19,0,1,12,5,555,911.470170271612,912.1685532564879,"[50, 0, 204]",204,a,0.17504581416142173,1,colour,0.5,3.8
90,19,0,1,12,6,556,912.6890578840103,913.3445202773728,"[45, 0, 209]",209,a,0.1321086811076384,1,colour,0.5,3.8
90,19,0,1,12,7,557,913.8609584409278,914.5525192187051,"[78, 0, 176]",176,l,0.16833821634645574,1,colour,0.5,3.8
90,19,0,1,12,8,558,915.0642650964146,915.7365400043491,"[91, 0, 163]",163,l,0.1489440387522336,1,colour,0.5,3.8
90,19,0,1,12,9,559,916.2524590783869,917.0085543435125,"[49, 0, 205]",205,a,0.23351506717153825,1,colour,0.5,3.8
90,19,0,1,12,10,560,917.519341992971,918.2085456001223,"[61, 0, 193]",193,a,0.16584477489232086,0,colour,0.5,3.8
90,19,0,1,12,11,561,918.7227053623355,919.3845303441049,"[43, 0, 211]",211,a,0.1385854849650059,1,colour,0.5,3.8
90,19,0,1,12,12,562,919.8946330946637,920.584518843767,"[0, 0, 254]",254,a,0.16499367283540778,1,colour,0.5,3.8
90,19,0,1,12,13,563,921.0993930433469,921.800496325217,"[99, 0, 155]",155,l,0.17765465265256353,1,colour,0.5,3.8
90,19,0,1,12,14,564,922.3183164957445,923.0245992514538,"[27, 0, 227]",227,a,0.18302041580318473,1,colour,0.5,3.8
90,19,0,1,12,15,565,923.5373600712919,924.200519798469,"[60, 0, 194]",194,a,0.13988675342989154,0,colour,0.5,3.8
90,19,0,1,12,16,566,924.709267323633,925.4005232643103,"[16, 0, 238]",238,a,0.1678809607110452,1,colour,0.5,3.8
90,19,0,1,12,17,567,925.9125479852664,926.6084966056223,"[57, 0, 197]",197,a,0.17260436041397043,0,colour,0.5,3.8
90,19,0,1,12,18,568,927.1158113176352,927.7845750850393,"[67, 0, 187]",187,l,0.14546716285985895,1,colour,0.5,3.8
90,19,0,1,12,19,569,928.3032755022577,928.8885477741715,"[19, 0, 235]",235,a,0.06187878118362278,1,colour,0.5,3.8
90,19,0,1,12,20,570,929.3971487884701,930.0484970624966,"[87, 0, 167]",167,l,0.12804300486459397,1,colour,0.5,3.8
90,19,0,1,12,21,571,930.5691013331234,931.2485698453092,"[77, 0, 177]",177,l,0.15612503993907012,1,colour,0.5,3.8
90,19,0,1,12,22,572,931.7566813085577,932.4325654247659,"[36, 0, 218]",218,a,0.15245202850201167,1,colour,0.5,3.8
90,19,0,1,12,23,573,932.9443195732601,933.5925391315832,"[82, 0, 172]",172,l,0.12523369857808575,1,colour,0.5,3.8
90,19,0,1,12,24,574,934.100666742539,934.7605835385621,"[34, 0, 220]",220,a,0.136505582195241,1,colour,0.5,3.8
90,19,0,1,12,25,575,935.2726905734162,935.9205099838146,"[94, 0, 160]",160,l,0.12452201818814501,1,colour,0.5,3.8
90,19,0,1,12,26,576,936.4289904811303,937.0485340840532,"[62, 0, 192]",192,a,0.09625487533048727,0,colour,0.5,3.8
90,19,0,1,12,27,577,937.5697066750145,938.2165461956174,"[30, 0, 224]",224,a,0.12384302701684646,1,colour,0.5,3.8
90,19,0,1,12,28,578,938.7260794443428,939.3525181159494,"[15, 0, 239]",239,a,0.10313615939230658,1,colour,0.5,3.8
90,19,0,1,12,29,579,939.8667448320484,940.4805496992776,"[9, 0, 245]",245,a,0.09042279803543352,1,colour,0.5,3.8
90,19,0,1,12,30,580,940.991782001307,941.6405135599489,"[95, 0, 159]",159,l,0.12524512017262168,1,colour,0.5,3.8
90,19,0,1,12,31,581,942.1482213306299,942.7925910405465,"[5, 0, 249]",249,a,0.12110973309609108,1,colour,0.5,3.8
90,19,0,1,12,32,582,943.3045129675884,944.0245208760316,"[76, 0, 178]",178,l,0.19666798081016168,1,colour,0.5,3.8
90,19,0,1,12,33,583,944.5390260415152,945.1765731504711,"[2, 0, 252]",252,a,0.1142461721028667,1,colour,0.5,3.8
90,19,0,1,12,34,584,945.6953086199937,946.3365338603617,"[37, 0, 217]",217,a,0.11782032807241194,1,colour,0.5,3.8
90,19,0,1,12,35,585,946.8516483062122,947.6245753843687,"[51, 0, 203]",203,a,0.24990143993636593,0,colour,0.5,3.8
90,19,0,1,12,36,586,948.1330480047618,948.8405146627047,"[11, 0, 243]",243,a,0.18418265649233945,1,colour,0.5,3.8
90,19,0,1,12,37,587,949.3518761463347,950.128547915956,"[55, 0, 199]",199,a,0.2532704019395169,0,colour,0.5,3.8
90,19,0,1,12,38,588,950.6488642848562,951.2805166949402,"[89, 0, 165]",165,l,0.10825025470694527,1,colour,0.5,3.8
90,19,0,1,12,39,589,951.7771837699111,952.5765781129303,"[88, 0, 166]",166,l,0.2762875724583864,1,colour,0.5,3.8
90,19,0,1,12,40,590,953.0773549749283,953.8005892729561,"[31, 0, 223]",223,a,0.20061038312269375,1,colour,0.5,3.8
90,19,0,1,12,41,591,954.3118515073147,955.0806420168665,"[39, 0, 215]",215,a,0.24542419420322403,1,colour,0.5,3.8
90,19,0,1,12,42,592,955.5931054826942,956.3046590845915,"[80, 0, 174]",174,l,0.18816129269544035,1,colour,0.5,3.8
90,19,0,1,12,43,593,956.8119458335277,957.5205589782854,"[65, 0, 189]",189,l,0.18554024497279897,1,colour,0.5,3.8
90,19,0,1,12,44,594,958.0308763751527,958.7685514448094,"[69, 0, 185]",185,l,0.21463485911954194,1,colour,0.5,3.8
90,19,0,1,12,45,595,959.2808967567107,959.9365544978937,"[81, 0, 173]",173,l,0.1322228965582326,1,colour,0.5,3.8
90,19,0,1,12,46,596,960.452863873681,961.1605278486677,"[26, 0, 228]",228,a,0.18422755497158505,1,colour,0.5,3.8
90,19,0,1,12,47,597,961.6717873261077,962.4884998824273,"[8, 0, 246]",246,a,0.29342816103599034,1,colour,0.5,3.8
90,19,0,1,12,48,598,963.0016596686619,963.6885762098536,"[59, 0, 195]",195,l,0.16361087816767395,1,colour,0.5,3.8
90,19,0,1,12,49,599,964.2049352102913,964.9845486185513,"[42, 0, 212]",212,a,0.2563372837321367,1,colour,0.5,3.8
90,19,0,1,12,50,600,965.5018871149514,966.1045461294416,"[52, 0, 202]",202,a,0.07931160376756452,0,colour,0.5,3.8
90,19,0,1,13,1,601,977.005279904668,977.6405186799238,"[89, 0, 165]",165,l,0.11101938865613192,1,colour,0.5,3.8
90,19,0,1,13,2,602,978.1474785363534,978.8966338343162,"[57, 0, 197]",197,a,0.22642268144409172,0,colour,0.5,3.8
90,19,0,1,13,3,603,979.4124961944472,980.0726366952294,"[33, 0, 221]",221,a,0.13737952732481062,1,colour,0.5,3.8
90,19,0,1,13,4,604,980.5844621298893,981.2645647347672,"[38, 0, 216]",216,a,0.15678394492715597,1,colour,0.5,3.8
90,19,0,1,13,5,605,981.7735501431453,982.4645630806044,"[19, 0, 235]",235,a,0.16765095441951416,1,colour,0.5,3.8
90,19,0,1,13,6,606,982.9768524663232,983.6086580826668,"[0, 0, 254]",254,a,0.10869687653030269,1,colour,0.5,3.8
90,19,0,1,13,7,607,984.1174292385986,984.7765622803126,"[46, 0, 208]",208,a,0.13567889863043092,1,colour,0.5,3.8
90,19,0,1,13,8,608,985.2894235309795,986.0085921527643,"[58, 0, 196]",196,l,0.19582436184282415,1,colour,0.5,3.8
90,19,0,1,13,9,609,986.5239220325893,987.17655345815,"[76, 0, 178]",178,l,0.12930961485835724,1,colour,0.5,3.8
90,19,0,1,13,10,610,987.6959403496003,988.2886189028213,"[50, 0, 204]",204,a,0.06943866255460307,1,colour,0.5,3.8
90,19,0,1,13,11,611,988.8054150727403,989.4726097561361,"[3, 0, 251]",251,a,0.1438413649739232,1,colour,0.5,3.8
90,19,0,1,13,12,612,989.9929792943003,990.6725423296157,"[97, 0, 157]",157,l,0.15641215394134633,1,colour,0.5,3.8
90,19,0,1,13,13,613,991.1805553312879,991.9046072544006,"[74, 0, 180]",180,l,0.2008002170769032,1,colour,0.5,3.8
90,19,0,1,13,14,614,992.4148888112686,993.0966124878323,"[80, 0, 174]",174,l,0.1589229246310424,1,colour,0.5,3.8
90,19,0,1,13,15,615,993.6182246113895,994.224626741925,"[22, 0, 232]",232,a,0.0830263628740795,1,colour,0.5,3.8
90,19,0,1,13,16,616,994.7433338545379,995.2965604213532,"[86, 0, 168]",168,l,0.02996343924314715,1,colour,0.5,3.8
90,19,0,1,13,17,617,995.8058711468475,996.4805319761799,"[78, 0, 176]",176,l,0.15129096937016584,1,colour,0.5,3.8
90,19,0,1,13,18,618,996.9935224084766,997.7605350954691,"[20, 0, 234]",234,a,0.2437983963463921,1,colour,0.5,3.8
90,19,0,1,13,19,619,998.2749126547133,998.976609463105,"[61, 0, 193]",193,l,0.17838641922571696,1,colour,0.5,3.8
90,19,0,1,13,20,620,999.4937077132054,1000.1845757151896,"[16, 0, 238]",238,a,0.17992596473777667,1,colour,0.5,3.8
90,19,0,1,13,21,621,1000.7001694721112,1001.3605443114648,"[23, 0, 231]",231,a,0.13694944707094692,1,colour,0.5,3.8
90,19,0,1,13,22,622,1001.8721818814229,1002.5445662786369,"[21, 0, 233]",233,a,0.1521310437237844,1,colour,0.5,3.8
90,19,0,1,13,23,623,1003.0566319595964,1003.7205888318422,"[9, 0, 245]",245,a,0.14055983687285334,1,colour,0.5,3.8
90,19,0,1,13,24,624,1004.2286081350467,1004.9445613949501,"[5, 0, 249]",249,a,0.19115846371278167,1,colour,0.5,3.8
90,19,0,1,13,25,625,1005.4646536652872,1006.112630220392,"[92, 0, 162]",162,l,0.1246890090405941,1,colour,0.5,3.8
90,19,0,1,13,26,626,1006.6209074929648,1007.3685378177324,"[60, 0, 194]",194,l,0.22422974478104152,1,colour,0.5,3.8
90,19,0,1,13,27,627,1007.8867089053674,1008.5285772968782,"[28, 0, 226]",226,a,0.11861117160879076,1,colour,0.5,3.8
90,19,0,1,13,28,628,1009.0430304746551,1009.6565458647965,"[71, 0, 183]",183,l,0.09025265640229918,1,colour,0.5,3.8
90,19,0,1,13,29,629,1010.1681255393196,1010.872604084725,"[42, 0, 212]",212,a,0.18151789184776135,1,colour,0.5,3.8
90,19,0,1,13,30,630,1011.387076954823,1012.1206213635742,"[83, 0, 171]",171,l,0.21020802573184483,1,colour,0.5,3.8
90,19,0,1,13,31,631,1012.6371280564053,1013.2885606135533,"[27, 0, 227]",227,a,0.12805678951554,1,colour,0.5,3.8
90,19,0,1,13,32,632,1013.81005537085,1014.4726483530831,"[66, 0, 188]",188,l,0.13936884541180916,1,colour,0.5,3.8
90,19,0,1,13,33,633,1014.9820709309424,1015.6725301203842,"[99, 0, 155]",155,l,0.1671090218005702,1,colour,0.5,3.8
90,19,0,1,13,34,634,1016.1853401710396,1016.8885973987926,"[79, 0, 175]",175,l,0.180023638647981,1,colour,0.5,3.8
90,19,0,1,13,35,635,1017.4040564602474,1018.1285924205731,"[67, 0, 187]",187,l,0.20116334344493225,1,colour,0.5,3.8
90,19,0,1,13,36,636,1018.6384702848736,1019.1686422657804,"[4, 0, 250]",250,a,0.006806847086409107,1,colour,0.5,3.8
90,19,0,1,13,37,637,1019.7014352943806,1020.4005977012857,"[32, 0, 222]",222,a,0.17562004222418182,1,colour,0.5,3.8
90,19,0,1,13,38,638,1020.9211042980023,1021.5845342037792,"[26, 0, 228]",228,a,0.140289264410967,1,colour,0.5,3.8
90,19,0,1,13,39,639,1022.0930430580338,1022.8725969954976,"[91, 0, 163]",163,l,0.2562352775130421,1,colour,0.5,3.8
90,19,0,1,13,40,640,1023.3900567965757,1024.2166103925847,"[41, 0, 213]",213,a,0.303967490355717,1,colour,0.5,3.8
90,19,0,1,13,41,641,1024.7338563350786,1025.3125919385056,"[81, 0, 173]",173,l,0.05534644500585273,1,colour,0.5,3.8
90,19,0,1,13,42,642,1025.8277367105475,1026.4885877101915,"[70, 0, 184]",184,l,0.1378178783634212,1,colour,0.5,3.8
90,19,0,1,13,43,643,1026.9997361229325,1027.7685758632724,"[7, 0, 247]",247,a,0.24553722812561318,1,colour,0.5,3.8
90,19,0,1,13,44,644,1028.2811271568644,1029.024610279157,"[45, 0, 209]",209,a,0.22042125021107495,1,colour,0.5,3.8
90,19,0,1,13,45,645,1029.5312660861528,1030.3285777695128,"[37, 0, 217]",217,a,0.27395403262926266,1,colour,0.5,3.8
90,19,0,1,13,46,646,1030.8437595630821,1031.6245651443605,"[55, 0, 199]",199,a,0.2574451736290939,0,colour,0.5,3.8
90,19,0,1,13,47,647,1032.1408252893598,1032.9365631625114,"[14, 0, 240]",240,a,0.2723936132097151,1,colour,0.5,3.8
90,19,0,1,13,48,648,1033.453371935524,1034.2246247727016,"[56, 0, 198]",198,a,0.2485930822440423,0,colour,0.5,3.8
90,19,0,1,13,49,649,1034.7348133818014,1035.448555981915,"[53, 0, 201]",201,a,0.19050231561413966,0,colour,0.5,3.8
90,19,0,1,13,50,650,1035.969219329505,1036.6726333081315,"[39, 0, 215]",215,a,0.18010280176531523,1,colour,0.5,3.8
90,19,0,1,14,1,651,1063.158157681115,1063.8485928459268,"[20, 0, 234]",234,a,0.16628115667845123,1,colour,0.5,3.8
90,19,0,1,14,2,652,1064.362171290879,1065.024600432982,"[6, 0, 248]",248,a,0.13903368212049827,1,colour,0.5,3.8
90,19,0,1,14,3,653,1065.5340899647563,1066.2406133605982,"[40, 0, 214]",214,a,0.18310391122940928,1,colour,0.5,3.8
90,19,0,1,14,4,654,1066.755510797113,1067.3925667795993,"[50, 0, 204]",204,a,0.11369518100400455,1,colour,0.5,3.8
90,19,0,1,14,5,655,1067.9118563910015,1068.6486709062883,"[9, 0, 245]",245,a,0.21353917845408432,1,colour,0.5,3.8
90,19,0,1,14,6,656,1069.161980748002,1069.9045883497747,"[84, 0, 170]",170,l,0.21921450487570837,1,colour,0.5,3.8
90,19,0,1,14,7,657,1070.4120566618803,1071.152597357839,"[13, 0, 241]",241,a,0.21711569748003967,1,colour,0.5,3.8
90,19,0,1,14,8,658,1071.6621227296127,1072.4326705817657,"[12, 0, 242]",242,a,0.25634555451688357,1,colour,0.5,3.8
90,19,0,1,14,9,659,1072.9499389734992,1073.6245938951324,"[60, 0, 194]",194,l,0.15132523400825448,1,colour,0.5,3.8
90,19,0,1,14,10,660,1074.1375173735432,1074.8805905017653,"[22, 0, 232]",232,a,0.21970878209685907,1,colour,0.5,3.8
90,19,0,1,14,11,661,1075.3876062843774,1076.072591402888,"[98, 0, 156]",156,l,0.16169166474719532,1,colour,0.5,3.8
90,19,0,1,14,12,662,1076.5908062075032,1077.5686145389918,"[65, 0, 189]",189,l,0.45447864386369474,1,colour,0.5,3.8
90,19,0,1,14,13,663,1078.0753632937558,1078.8086528838903,"[30, 0, 224]",224,a,0.209894917847123,1,colour,0.5,3.8
90,19,0,1,14,14,664,1079.325394703017,1080.001040148316,"[74, 0, 180]",180,l,0.15267927790409885,1,colour,0.5,3.8
90,19,0,1,14,15,665,1080.5130412384751,1081.256627154682,"[58, 0, 196]",196,a,0.22081745968898758,0,colour,0.5,3.8
90,19,0,1,14,16,666,1081.7631269985286,1082.4565975374426,"[38, 0, 216]",216,a,0.17021568209747784,1,colour,0.5,3.8
90,19,0,1,14,17,667,1082.9663659124344,1083.7046632593847,"[59, 0, 195]",195,a,0.2149357577727642,0,colour,0.5,3.8
90,19,0,1,14,18,668,1084.2164851494308,1084.9127098561148,"[91, 0, 163]",163,l,0.1724082249274943,1,colour,0.5,3.8
90,19,0,1,14,19,669,1085.420117515896,1086.0886272523494,"[71, 0, 183]",183,a,0.14260823192307726,0,colour,0.5,3.8
90,19,0,1,14,20,670,1086.5972266912868,1087.2325658974005,"[35, 0, 219]",219,a,0.11203354311874136,1,colour,0.5,3.8
90,19,0,1,14,21,671,1087.7535017866758,1088.2966305260197,"[95, 0, 159]",159,l,0.019676959316711873,1,colour,0.5,3.8
90,19,0,1,14,22,672,1088.8162084329524,1089.5286509461585,"[8, 0, 246]",246,a,0.189064382459037,1,colour,0.5,3.8
90,19,0,1,14,23,673,1090.0226178102894,1090.6566281786945,"[45, 0, 209]",209,a,0.11074566544266418,1,colour,0.5,3.8
90,19,0,1,14,24,674,1091.1633103734057,1091.856598955288,"[89, 0, 165]",165,l,0.1700360881513916,1,colour,0.5,3.8
90,19,0,1,14,25,675,1092.3665449550026,1093.0886949939304,"[1, 0, 253]",253,a,0.19883886206662282,1,colour,0.5,3.8
90,19,0,1,14,26,676,1093.6009902873484,1094.2166304787388,"[63, 0, 191]",191,l,0.09222818986745551,1,colour,0.5,3.8
90,19,0,1,14,27,677,1094.7261897213175,1095.4566274697718,"[86, 0, 168]",168,l,0.20716674393042922,1,colour,0.5,3.8
90,19,0,1,14,28,678,1095.976305019838,1096.6486043462646,"[47, 0, 207]",207,a,0.1490688880730886,1,colour,0.5,3.8
90,19,0,1,14,29,679,1097.1639397399267,1097.8246233548562,"[82, 0, 172]",172,l,0.13739016116596758,1,colour,0.5,3.8
90,19,0,1,14,30,680,1098.3358859830478,1099.0166301636782,"[92, 0, 162]",162,l,0.1575184684479609,1,colour,0.5,3.8
90,19,0,1,14,31,681,1099.523431300011,1100.2328089006187,"[31, 0, 223]",223,a,0.18652092249249108,1,colour,0.5,3.8
90,19,0,1,14,32,682,1100.7422283277265,1101.3686142239312,"[85, 0, 169]",169,l,0.10293135928804986,1,colour,0.5,3.8
90,19,0,1,14,33,683,1101.8830146262771,1102.5206369598745,"[81, 0, 173]",173,l,0.1146270215685945,1,colour,0.5,3.8
90,19,0,1,14,34,684,1103.0393413155398,1103.6486425493495,"[44, 0, 210]",210,a,0.0858955338189844,1,colour,0.5,3.8
90,19,0,1,14,35,685,1104.164439924847,1104.880589320237,"[55, 0, 199]",199,a,0.19286303088301793,0,colour,0.5,3.8
90,19,0,1,14,36,686,1105.3988502048596,1106.0326561669935,"[80, 0, 174]",174,l,0.1103801759891212,1,colour,0.5,3.8
90,19,0,1,14,37,687,1106.5395687618293,1107.4886381225078,"[27, 0, 227]",227,a,0.42571525456150994,1,colour,0.5,3.8
90,19,0,1,14,38,688,1108.0100608059438,1108.712644950254,"[83, 0, 171]",171,l,0.17928753976593725,1,colour,0.5,3.8
90,19,0,1,14,39,689,1109.2289322706347,1110.0246276083926,"[62, 0, 192]",192,l,0.27227900392608717,1,colour,0.5,3.8
90,19,0,1,14,40,690,1110.5415730460954,1111.5526653357374,"[93, 0, 161]",161,l,0.48775236200890504,1,colour,0.5,3.8
90,19,0,1,14,41,691,1112.0729222338414,1112.8406406935537,"[36, 0, 218]",218,a,0.24431472894502804,1,colour,0.5,3.8
90,19,0,1,14,42,692,1113.3543262647,1114.1206402682,"[4, 0, 250]",250,a,0.24337816223851405,1,colour,0.5,3.8
90,19,0,1,14,43,693,1114.6356511324411,1115.3366102665605,"[18, 0, 236]",236,a,0.1776255080185365,1,colour,0.5,3.8
90,19,0,1,14,44,694,1115.854439889401,1116.5926261716522,"[26, 0, 228]",228,a,0.21479751766310073,1,colour,0.5,3.8
90,19,0,1,14,45,695,1117.1046343510388,1117.7926335759694,"[5, 0, 249]",249,a,0.16470380194368772,1,colour,0.5,3.8
90,19,0,1,14,46,696,1118.307817338762,1119.0486916226218,"[97, 0, 157]",157,l,0.217507574649062,1,colour,0.5,3.8
90,19,0,1,14,47,697,1119.5579023111204,1120.2326273374201,"[48, 0, 206]",206,a,0.1513535909471102,1,colour,0.5,3.8
90,19,0,1,14,48,698,1120.7454720465466,1121.4486552312155,"[87, 0, 167]",167,l,0.18011776794446632,1,colour,0.5,3.8
90,19,0,1,14,49,699,1121.9643616281683,1122.6726565450663,"[43, 0, 211]",211,a,0.18500855236197822,1,colour,0.5,3.8
90,19,0,1,14,50,700,1123.18325120979,1123.952647848957,"[21, 0, 233]",233,a,0.24609137000516057,1,colour,0.5,3.8
90,19,0,1,15,1,701,1150.6069290970045,1151.3366480758123,"[88, 0, 166]",166,l,0.20556733375997283,1,colour,0.5,3.8
90,19,0,1,15,2,702,1151.8578730483423,1152.48867750715,"[28, 0, 226]",226,a,0.10748579888604581,1,colour,0.5,3.8
90,19,0,1,15,3,703,1152.999385599629,1153.6006850564154,"[45, 0, 209]",209,a,0.07792605221038684,1,colour,0.5,3.8
90,19,0,1,15,4,704,1154.108840236615,1154.8486381382681,"[94, 0, 160]",160,l,0.21642174015869386,1,colour,0.5,3.8
90,19,0,1,15,5,705,1155.3589425382088,1156.0006364557485,"[31, 0, 223]",223,a,0.11831933143548667,1,colour,0.5,3.8
90,19,0,1,15,6,706,1156.5152605628537,1157.136644609971,"[54, 0, 200]",200,a,0.09853130744886585,0,colour,0.5,3.8
90,19,0,1,15,7,707,1157.6560370152583,1158.3366248388775,"[35, 0, 219]",219,a,0.15725616677082144,1,colour,0.5,3.8
90,19,0,1,15,8,708,1158.8435252244817,1159.6007019917888,"[78, 0, 176]",176,l,0.23384865507250652,1,colour,0.5,3.8
90,19,0,1,15,9,709,1160.1093156092102,1160.7206916257564,"[48, 0, 206]",206,a,0.08807941203122027,1,colour,0.5,3.8
90,19,0,1,15,10,710,1161.2343870430777,1161.8886285126791,"[83, 0, 171]",171,l,0.13068807721720077,1,colour,0.5,3.8
90,19,0,1,15,11,711,1162.4063427385117,1163.0566961565637,"[89, 0, 165]",165,l,0.12699458579299971,1,colour,0.5,3.8
90,19,0,1,15,12,712,1163.578348452429,1164.2166931003158,"[41, 0, 213]",213,a,0.11517683111014776,1,colour,0.5,3.8
90,19,0,1,15,13,713,1164.7346251232375,1165.3686977193574,"[27, 0, 227]",227,a,0.11060624380479567,1,colour,0.5,3.8
90,19,0,1,15,14,714,1165.8753925171623,1166.5446422910027,"[19, 0, 235]",235,a,0.14595120007288642,1,colour,0.5,3.8
90,19,0,1,15,15,715,1167.0629657972022,1167.7688358018931,"[42, 0, 212]",212,a,0.18243791701388545,1,colour,0.5,3.8
90,19,0,1,15,16,716,1168.2818195387954,1168.9766839000804,"[62, 0, 192]",192,l,0.17148386748158373,1,colour,0.5,3.8
90,19,0,1,15,17,717,1169.4850446680794,1170.232719103631,"[24, 0, 230]",230,a,0.22427109864656813,1,colour,0.5,3.8
90,19,0,1,15,18,718,1170.7507791266253,1171.3446632436244,"[38, 0, 216]",216,a,0.07039452774915844,1,colour,0.5,3.8
90,19,0,1,15,19,719,1171.8602203727933,1172.5126576320908,"[47, 0, 207]",207,a,0.12910796550568193,1,colour,0.5,3.8
90,19,0,1,15,20,720,1173.0321957605483,1173.6966965346655,"[6, 0, 248]",248,a,0.14104544947622344,1,colour,0.5,3.8
90,19,0,1,15,21,721,1174.2041908406245,1174.8566789061006,"[70, 0, 184]",184,l,0.12918555323267356,1,colour,0.5,3.8
90,19,0,1,15,22,722,1175.376196948404,1175.952642728953,"[72, 0, 182]",182,l,0.05306528674555011,1,colour,0.5,3.8
90,19,0,1,15,23,723,1176.4699564130278,1177.2246775481035,"[96, 0, 158]",158,l,0.2312937735405285,1,colour,0.5,3.8
90,19,0,1,15,24,724,1177.7356857515406,1178.3686260393006,"[59, 0, 195]",195,a,0.10951410775305703,0,colour,0.5,3.8
90,19,0,1,15,25,725,1178.8764696870348,1179.5606655373704,"[16, 0, 238]",238,a,0.16097643971443176,1,colour,0.5,3.8
90,19,0,1,15,26,726,1180.0796507055056,1180.7686495125527,"[8, 0, 246]",246,a,0.16565415324294008,1,colour,0.5,3.8
90,19,0,1,15,27,727,1181.2828455086274,1181.8966614035598,"[46, 0, 208]",208,a,0.09033181951963343,1,colour,0.5,3.8
90,19,0,1,15,28,728,1182.40791182252,1183.0966896817263,"[20, 0, 234]",234,a,0.16542493464658037,1,colour,0.5,3.8
90,19,0,1,15,29,729,1183.6111499487306,1184.2806923504395,"[79, 0, 175]",175,l,0.1464120003511198,1,colour,0.5,3.8
90,19,0,1,15,30,730,1184.7999146140937,1185.512662752095,"[5, 0, 249]",249,a,0.1893751272582449,1,colour,0.5,3.8
90,19,0,1,15,31,731,1186.0186643802444,1186.6966870823526,"[90, 0, 164]",164,l,0.15470089140580967,1,colour,0.5,3.8
90,19,0,1,15,32,732,1187.206284134183,1187.8567178968806,"[3, 0, 251]",251,a,0.12704617966664955,1,colour,0.5,3.8
90,19,0,1,15,33,733,1188.3782693680841,1189.0727103444806,"[67, 0, 187]",187,l,0.17131451351451688,1,colour,0.5,3.8
90,19,0,1,15,34,734,1189.5815059189335,1190.2487116300035,"[95, 0, 159]",159,l,0.14387720500235446,1,colour,0.5,3.8
90,19,0,1,15,35,735,1190.769087075896,1191.5606612050615,"[64, 0, 190]",190,a,0.2682787061785348,0,colour,0.5,3.8
90,19,0,1,15,36,736,1192.081737697532,1192.688669551455,"[93, 0, 161]",161,l,0.08361398169654422,1,colour,0.5,3.8
90,19,0,1,15,37,737,1193.2067811683228,1193.8726856109279,"[40, 0, 214]",214,a,0.142605081142392,1,colour,0.5,3.8
90,19,0,1,15,38,738,1194.3787955468579,1194.9846403847623,"[55, 0, 199]",199,a,0.08271246732329018,0,colour,0.5,3.8
90,19,0,1,15,39,739,1195.5038272022502,1196.1607298918825,"[60, 0, 194]",194,a,0.13356827583629638,0,colour,0.5,3.8
90,19,0,1,15,40,740,1196.675825433107,1197.7767245450232,"[49, 0, 205]",205,a,0.5776521320221946,1,colour,0.5,3.8
90,19,0,1,15,41,741,1198.2853231962654,1199.0006880496512,"[98, 0, 156]",156,l,0.19200405190349557,1,colour,0.5,3.8
90,19,0,1,15,42,742,1199.5198248486267,1200.1607393441955,"[43, 0, 211]",211,a,0.11765727566671558,1,colour,0.5,3.8
90,19,0,1,15,43,743,1200.6761570517556,1201.3126644062577,"[53, 0, 201]",201,a,0.11315600530360825,0,colour,0.5,3.8
90,19,0,1,15,44,744,1201.834214695904,1202.536702347832,"[77, 0, 177]",177,l,0.17913590889656916,1,colour,0.5,3.8
90,19,0,1,15,45,745,1203.0530700128875,1204.120721794403,"[57, 0, 197]",197,a,0.5442177245859057,0,colour,0.5,3.8
90,19,0,1,15,46,746,1204.631323942187,1205.3446971144003,"[69, 0, 185]",185,a,0.18989854911342263,0,colour,0.5,3.8
90,19,0,1,15,47,747,1205.8658417422848,1206.5926962762896,"[37, 0, 217]",217,a,0.20354532639612444,1,colour,0.5,3.8
90,19,0,1,15,48,748,1207.1003595423535,1207.8247080318397,"[1, 0, 253]",253,a,0.20098374952794984,1,colour,0.5,3.8
90,19,0,1,15,49,749,1208.3354578720173,1209.0246870791889,"[51, 0, 203]",203,a,0.16652494759182446,0,colour,0.5,3.8
90,19,0,1,15,50,750,1209.5380552101706,1210.2566783547227,"[23, 0, 231]",231,a,0.1953237830894068,1,colour,0.5,3.8
90,19,0,1,16,1,751,1275.3081576220575,1276.0887091724144,"[73, 0, 181]",181,l,0.25639084685826674,1,colour,0.5,3.8
90,19,0,1,16,2,752,1276.6060401857249,1277.3687256824342,"[82, 0, 172]",172,l,0.2400446464016568,1,colour,0.5,3.8
90,19,0,1,16,3,753,1277.8748600368272,1278.5927663809562,"[45, 0, 209]",209,a,0.19456956724752672,1,colour,0.5,3.8
90,19,0,1,16,4,754,1279.1093124584295,1279.8967504128523,"[47, 0, 207]",207,a,0.2641208698914852,1,colour,0.5,3.8
90,19,0,1,16,5,755,1280.4063187138818,1281.1607633688254,"[29, 0, 225]",225,a,0.23113662886316888,1,colour,0.5,3.8
90,19,0,1,16,6,756,1281.672050021647,1282.408705816837,"[65, 0, 189]",189,l,0.21338754761382006,1,colour,0.5,3.8
90,19,0,1,16,7,757,1282.9127405761392,1283.6407144215773,"[21, 0, 233]",233,a,0.20457365931360982,1,colour,0.5,3.8
90,19,0,1,16,8,758,1284.1477168134297,1284.8567450722912,"[70, 0, 184]",184,l,0.18576985743129626,1,colour,0.5,3.8
90,19,0,1,16,9,759,1285.366459884186,1286.1607649442158,"[26, 0, 228]",228,a,0.27121483100927435,1,colour,0.5,3.8
90,19,0,1,16,10,760,1286.6791428012075,1287.3927822135738,"[89, 0, 165]",165,l,0.19024789085960947,1,colour,0.5,3.8
90,19,0,1,16,11,761,1287.9136117643502,1288.600707505655,"[72, 0, 182]",182,l,0.16383852140279487,1,colour,0.5,3.8
90,19,0,1,16,12,762,1289.116826653626,1289.888739577349,"[60, 0, 194]",194,a,0.24865964229684323,0,colour,0.5,3.8
90,19,0,1,16,13,763,1290.3981956321513,1291.0567445996858,"[96, 0, 158]",158,l,0.1352984430268407,1,colour,0.5,3.8
90,19,0,1,16,14,764,1291.5701651122072,1292.2647273933107,"[59, 0, 195]",195,a,0.17127552270540036,0,colour,0.5,3.8
90,19,0,1,16,15,765,1292.7733138353215,1293.4887539133488,"[36, 0, 218]",218,a,0.19203398420359008,1,colour,0.5,3.8
90,19,0,1,16,16,766,1294.0078426630935,1294.680741817545,"[98, 0, 156]",156,l,0.14963602685020305,1,colour,0.5,3.8
90,19,0,1,16,17,767,1295.1954226385278,1295.9767910263035,"[99, 0, 155]",155,l,0.25812967866659164,1,colour,0.5,3.8
90,19,0,1,16,18,768,1296.4923784816638,1297.2007797370898,"[39, 0, 215]",215,a,0.18507235549623147,1,colour,0.5,3.8
90,19,0,1,16,19,769,1297.7112408878747,1298.4727271223383,"[67, 0, 187]",187,a,0.23833338386612013,0,colour,0.5,3.8
90,19,0,1,16,20,770,1298.9926248325792,1299.632726823038,"[30, 0, 224]",224,a,0.11678372439928353,1,colour,0.5,3.8
90,19,0,1,16,21,771,1300.1489901187888,1300.8808075111301,"[68, 0, 186]",186,l,0.2085093662608415,1,colour,0.5,3.8
90,19,0,1,16,22,772,1301.3990857249883,1302.2327218605496,"[24, 0, 230]",230,a,0.31055496499175206,1,colour,0.5,3.8
90,19,0,1,16,23,773,1302.7429199219623,1303.384720178059,"[17, 0, 237]",237,a,0.11838274070760235,1,colour,0.5,3.8
90,19,0,1,16,24,774,1303.899295054347,1304.5528047573462,"[32, 0, 222]",222,a,0.13020994770340621,1,colour,0.5,3.8
90,19,0,1,16,25,775,1305.071158195875,1305.7207353427075,"[54, 0, 200]",200,a,0.12624194534146227,0,colour,0.5,3.8
90,19,0,1,16,26,776,1306.2275849221332,1306.9607713245205,"[80, 0, 174]",174,l,0.20989373631891795,1,colour,0.5,3.8
90,19,0,1,16,27,777,1307.477715974528,1308.1047209972457,"[23, 0, 231]",231,a,0.10399868298554793,1,colour,0.5,3.8
90,19,0,1,16,28,778,1308.6060035580012,1309.2651677135727,"[84, 0, 170]",170,l,0.13588094181613997,1,colour,0.5,3.8
90,19,0,1,16,29,779,1309.7779178995697,1310.4567503498401,"[86, 0, 168]",168,l,0.15569299043272622,1,colour,0.5,3.8
90,19,0,1,16,30,780,1310.9655431673455,1311.664746534254,"[19, 0, 235]",235,a,0.17582720541395247,1,colour,0.5,3.8
90,19,0,1,16,31,781,1312.185061721626,1312.872730115574,"[71, 0, 183]",183,l,0.16434579555061646,1,colour,0.5,3.8
90,19,0,1,16,32,782,1313.389167885296,1314.040770584077,"[11, 0, 243]",243,a,0.12823717112769373,1,colour,0.5,3.8
90,19,0,1,16,33,783,1314.5611015253235,1315.168795865873,"[10, 0, 244]",244,a,0.08521614881465212,1,colour,0.5,3.8
90,19,0,1,16,34,784,1315.6862458208052,1316.408817275369,"[5, 0, 249]",249,a,0.1992886346706655,1,colour,0.5,3.8
90,19,0,1,16,35,785,1316.9207431408577,1317.6247675814084,"[34, 0, 220]",220,a,0.18070341754355468,1,colour,0.5,3.8
90,19,0,1,16,36,786,1318.1395468639676,1318.9767662139784,"[61, 0, 193]",193,a,0.31385106543893926,0,colour,0.5,3.8
90,19,0,1,16,37,787,1319.4841049506213,1320.144736971648,"[79, 0, 175]",175,l,0.13733384112128988,1,colour,0.5,3.8
90,19,0,1,16,38,788,1320.656093729136,1321.3927948166674,"[64, 0, 190]",190,l,0.21320165210636333,1,colour,0.5,3.8
90,19,0,1,16,39,789,1321.9061515260837,1322.5927817409683,"[2, 0, 252]",252,a,0.16361284742015414,1,colour,0.5,3.8
90,19,0,1,16,40,790,1323.109386895405,1323.7127697995456,"[25, 0, 229]",229,a,0.07994097031769343,1,colour,0.5,3.8
90,19,0,1,16,41,791,1324.2189029724104,1324.8887671465927,"[76, 0, 178]",178,l,0.14654039425658993,1,colour,0.5,3.8
90,19,0,1,16,42,792,1325.40677951416,1326.0247426115384,"[20, 0, 234]",234,a,0.09494100377196446,1,colour,0.5,3.8
90,19,0,1,16,43,793,1326.531920264999,1327.1848273830255,"[51, 0, 203]",203,l,0.1296065750066191,1,colour,0.5,3.8
90,19,0,1,16,44,794,1327.7038822619943,1328.3527449714602,"[27, 0, 227]",227,a,0.1256003695889376,1,colour,0.5,3.8
90,19,0,1,16,45,795,1328.860204225115,1329.4967623857665,"[7, 0, 247]",247,a,0.11326825153082609,1,colour,0.5,3.8
90,19,0,1,16,46,796,1330.016502951301,1330.7047447855584,"[14, 0, 240]",240,a,0.1648369219910819,1,colour,0.5,3.8
90,19,0,1,16,47,797,1331.2197828252392,1331.90474391912,"[8, 0, 246]",246,a,0.16167748629231937,1,colour,0.5,3.8
90,19,0,1,16,48,798,1332.4229524221737,1333.129012654681,"[66, 0, 188]",188,l,0.18272778796381317,1,colour,0.5,3.8
90,19,0,1,16,49,799,1333.6417746560764,1334.2487754331087,"[48, 0, 206]",206,a,0.08365060939104296,1,colour,0.5,3.8
90,19,0,1,16,50,800,1334.7669599115616,1335.448774172808,"[52, 0, 202]",202,l,0.15851017364184372,1,colour,0.5,3.8
