id,age,condition,counterbalance,block,trialinblock,trial,tstart,tend,trialstim,trialintensity,response,RT,accuracy,trialtype,colourfreq,credits
67,22,0,2,Practice,1,NA,5.5138953030109406e-06,0.7321236219722778,"[54, 0, 200]",200,a,0.1618589221034199,0,colour,0.5,4
67,22,0,2,Practice,2,NA,1.2509551751427352,3.268158371793106,"[71, 0, 183]",183,a,1.4950393117032945,0,colour,0.5,4
67,22,0,2,Practice,3,NA,3.7823023688979447,4.58815318881534,"[47, 0, 207]",207,a,0.2835837472230196,1,colour,0.5,4
67,22,0,2,Practice,4,NA,5.094949987484142,5.860110599780455,"[65, 0, 189]",189,a,0.2428990537300706,0,colour,0.5,4
67,22,0,2,Practice,5,NA,6.376604676479474,7.124122560257092,"[67, 0, 187]",187,a,0.22579274326562881,0,colour,0.5,4
67,22,0,2,Practice,6,NA,7.6420143966097385,8.876151950564235,"[55, 0, 199]",199,a,0.7119878474622965,0,colour,0.5,4
67,22,0,2,Practice,7,NA,9.39218680281192,10.27613099780865,"[15, 0, 239]",239,a,0.3618705009575933,1,colour,0.5,4
67,22,0,2,Practice,8,NA,10.78288644272834,11.628146682400256,"[28, 0, 226]",226,a,0.32298174570314586,1,colour,0.5,4
67,22,0,2,Practice,9,NA,12.142355270450935,12.996141490060836,"[29, 0, 225]",225,a,0.3316463592927903,1,colour,0.5,4
67,22,0,2,Practice,10,NA,13.50184300262481,14.356117197545245,"[48, 0, 206]",206,a,0.3318992084823549,1,colour,0.5,4
67,22,0,2,1,1,1,4.855519536184147,5.67997170612216,"[13, 0, 241]",241,a,0.3014226113446057,1,colour,0.5,4.0
67,22,0,2,1,2,2,6.200243948260322,7.056012789020315,"[31, 0, 223]",223,a,0.3335494236089289,1,colour,0.5,4.0
67,22,0,2,1,3,3,7.575304748257622,8.53602135903202,"[53, 0, 201]",201,a,0.43845741520635784,0,colour,0.5,4.0
67,22,0,2,1,4,4,9.044059166684747,9.984040569281206,"[61, 0, 193]",193,a,0.417623745277524,0,colour,0.5,4.0
67,22,0,2,1,5,5,10.49737166822888,11.415985739789903,"[86, 0, 168]",168,l,0.3965541620273143,1,colour,0.5,4.0
67,22,0,2,1,6,6,11.935121736023575,12.752013242803514,"[22, 0, 232]",232,a,0.29477448971010745,1,colour,0.5,4.0
67,22,0,2,1,7,7,13.263210089877248,14.167979290010408,"[75, 0, 179]",179,l,0.38265375839546323,1,colour,0.5,4.0
67,22,0,2,1,8,8,14.685207889648154,15.559979409677908,"[76, 0, 178]",178,l,0.3524831796530634,1,colour,0.5,4.0
67,22,0,2,1,9,9,16.075949671212584,16.943981303367764,"[37, 0, 217]",217,a,0.34577322425320745,1,colour,0.5,4.0
67,22,0,2,1,10,10,17.450968723511323,18.399969595251605,"[44, 0, 210]",210,a,0.42663809447549284,1,colour,0.5,4.0
67,22,0,2,1,11,11,18.91981963440776,19.744012653594837,"[95, 0, 159]",159,l,0.301760925212875,1,colour,0.5,4.0
67,22,0,2,1,12,12,20.2637472958304,21.12803148245439,"[35, 0, 219]",219,a,0.3421010032761842,1,colour,0.5,4.0
67,22,0,2,1,13,13,21.638786040479317,22.535994971403852,"[83, 0, 171]",171,l,0.3748040122445673,1,colour,0.5,4.0
67,22,0,2,1,14,14,23.045244643464684,23.87203625915572,"[96, 0, 158]",158,l,0.3045040632132441,1,colour,0.5,4.0
67,22,0,2,1,15,15,24.38910928950645,25.19201295915991,"[66, 0, 188]",188,a,0.28063620324246585,0,colour,0.5,4.0
67,22,0,2,1,16,16,25.701670261798427,26.5439762622118,"[10, 0, 244]",244,a,0.3199885154608637,1,colour,0.5,4.0
67,22,0,2,1,17,17,27.061177292605862,27.896014002151787,"[99, 0, 155]",155,l,0.3125211938749999,1,colour,0.5,4.0
67,22,0,2,1,18,18,28.405016732634977,29.159987365594134,"[38, 0, 216]",216,a,0.2326720526907593,1,colour,0.5,4.0
67,22,0,2,1,19,19,29.670720655703917,30.51200265623629,"[81, 0, 173]",173,l,0.3189349772874266,1,colour,0.5,4.0
67,22,0,2,1,20,20,31.030195784987882,31.832032525446266,"[59, 0, 195]",195,a,0.279616535641253,0,colour,0.5,4.0
67,22,0,2,1,21,21,32.34287884947844,33.20000409614295,"[97, 0, 157]",157,l,0.33477979875169694,1,colour,0.5,4.0
67,22,0,2,1,22,22,33.71794831403531,34.51201250241138,"[42, 0, 212]",212,a,0.27181208203546703,1,colour,0.5,4.0
67,22,0,2,1,23,23,35.030612867791206,35.83998349006288,"[85, 0, 169]",169,l,0.28708031261339784,1,colour,0.5,4.0
67,22,0,2,1,24,24,36.35878511099145,37.16805254551582,"[5, 0, 249]",249,a,0.2869905158877373,1,colour,0.5,4.0
67,22,0,2,1,25,25,37.687068418599665,38.47998848394491,"[70, 0, 184]",184,l,0.27082155901007354,1,colour,0.5,4.0
67,22,0,2,1,26,26,38.999638055451214,39.768002605764195,"[3, 0, 251]",251,a,0.24597420380450785,1,colour,0.5,4.0
67,22,0,2,1,27,27,40.2809953908436,41.08799702883698,"[52, 0, 202]",202,a,0.2849440914578736,0,colour,0.5,4.0
67,22,0,2,1,28,28,41.59356424002908,42.40001646289602,"[32, 0, 222]",222,a,0.2841658517718315,1,colour,0.5,4.0
67,22,0,2,1,29,29,42.90618271403946,43.69600911834277,"[68, 0, 186]",186,l,0.26759950420819223,1,colour,0.5,4.0
67,22,0,2,1,30,30,44.20314580621198,44.920009074267,"[46, 0, 208]",208,a,0.1944898571819067,1,colour,0.5,4.0
67,22,0,2,1,31,31,45.437614584574476,46.23994087590836,"[72, 0, 182]",182,l,0.2800048680510372,1,colour,0.5,4.0
67,22,0,2,1,32,32,46.750225969357416,47.50399261456914,"[45, 0, 209]",209,a,0.23148303129710257,1,colour,0.5,4.0
67,22,0,2,1,33,33,48.01595470472239,48.784025051863864,"[94, 0, 160]",160,l,0.24578712694346905,1,colour,0.5,4.0
67,22,0,2,1,34,34,49.29731912910938,50.02397695533,"[34, 0, 220]",220,a,0.20448291348293424,1,colour,0.5,4.0
67,22,0,2,1,35,35,50.53170756297186,51.31999954325147,"[36, 0, 218]",218,a,0.26602490758523345,1,colour,0.5,4.0
67,22,0,2,1,36,36,51.82877659983933,52.63201149413362,"[80, 0, 174]",174,l,0.2809831816703081,1,colour,0.5,4.0
67,22,0,2,1,37,37,53.14131788001396,53.89600691292435,"[47, 0, 207]",207,a,0.23236603429540992,1,colour,0.5,4.0
67,22,0,2,1,38,38,54.40703676920384,55.2159710098058,"[12, 0, 242]",242,a,0.28662384510971606,1,colour,0.5,4.0
67,22,0,2,1,39,39,55.73528975062072,56.46400660416111,"[23, 0, 231]",231,a,0.2063367471564561,1,colour,0.5,4.0
67,22,0,2,1,40,40,56.969727809075266,57.72797878598794,"[58, 0, 196]",196,a,0.23586575058288872,0,colour,0.5,4.0
67,22,0,2,1,41,41,58.23569127684459,58.976015167776495,"[49, 0, 205]",205,a,0.2180674523115158,1,colour,0.5,4.0
67,22,0,2,1,42,42,59.485638993559405,60.191979482304305,"[27, 0, 227]",227,a,0.18405254231765866,1,colour,0.5,4.0
67,22,0,2,1,43,43,60.70446696295403,61.45597529481165,"[73, 0, 181]",181,l,0.22924598562531173,1,colour,0.5,4.0
67,22,0,2,1,44,44,61.970181913580745,62.68797741527669,"[84, 0, 170]",170,l,0.19558908138424158,1,colour,0.5,4.0
67,22,0,2,1,45,45,63.20468692597933,63.879973045317456,"[26, 0, 228]",228,a,0.1530351946130395,1,colour,0.5,4.0
67,22,0,2,1,46,46,64.39301781798713,65.14400075934827,"[21, 0, 233]",233,a,0.22948859469033778,1,colour,0.5,4.0
67,22,0,2,1,47,47,65.65797264594585,66.27200979273766,"[55, 0, 199]",199,a,0.09181024669669569,0,colour,0.5,4.0
67,22,0,2,1,48,48,66.78309518122114,67.49597154557705,"[48, 0, 206]",206,a,0.19058014708571136,1,colour,0.5,4.0
67,22,0,2,1,49,49,68.001972774975,68.70400498132221,"[33, 0, 221]",221,a,0.17978285672143102,1,colour,0.5,4.0
67,22,0,2,1,50,50,69.22072748886421,69.8240043669939,"[89, 0, 165]",165,l,0.08096372545696795,1,colour,0.5,4.0
67,22,0,2,2,1,51,91.65926288557239,92.43999420269392,"[50, 0, 204]",204,a,0.2577037278097123,1,colour,0.5,4.0
67,22,0,2,2,2,52,92.95705384225585,93.68795102764852,"[22, 0, 232]",232,a,0.20862341742031276,1,colour,0.5,4.0
67,22,0,2,2,3,53,94.20707087614574,94.95998602639884,"[8, 0, 246]",246,a,0.23061381303705275,1,colour,0.5,4.0
67,22,0,2,2,4,54,95.47281418391503,96.23195800976828,"[56, 0, 198]",198,a,0.2371197564061731,0,colour,0.5,4.0
67,22,0,2,2,5,55,96.73846454382874,97.48798592248932,"[51, 0, 203]",203,a,0.22714599850587547,0,colour,0.5,4.0
67,22,0,2,2,6,56,98.00433545769192,98.7359648027923,"[33, 0, 221]",221,a,0.20935006346553564,1,colour,0.5,4.0
67,22,0,2,2,7,57,99.25435524852946,99.99197420477867,"[35, 0, 219]",219,a,0.21536212391220033,1,colour,0.5,4.0
67,22,0,2,2,8,58,100.50446444237605,101.15997082390822,"[58, 0, 196]",196,l,0.13324915524572134,1,colour,0.5,4.0
67,22,0,2,2,9,59,101.67646174994297,102.3999951952137,"[74, 0, 180]",180,l,0.20137940649874508,1,colour,0.5,4.0
67,22,0,2,2,10,60,102.91092540835962,103.63998530176468,"[4, 0, 250]",250,a,0.2068014855030924,1,colour,0.5,4.0
67,22,0,2,2,11,61,104.1454040328972,104.80797955789603,"[60, 0, 194]",194,l,0.1403261753730476,1,colour,0.5,4.0
67,22,0,2,2,12,62,105.31743796821684,106.0479684828315,"[84, 0, 170]",170,l,0.2090747649781406,1,colour,0.5,4.0
67,22,0,2,2,13,63,106.56748887291178,107.32797138160095,"[48, 0, 206]",206,l,0.2382556083612144,0,colour,0.5,4.0
67,22,0,2,2,14,64,107.83377962675877,108.39200484589674,"[32, 0, 222]",222,a,0.036412645131349564,1,colour,0.5,4.0
67,22,0,2,2,15,65,108.91136690974236,109.6639937646687,"[20, 0, 234]",234,a,0.23032473004423082,1,colour,0.5,4.0
67,22,0,2,2,16,66,110.1771586604882,110.87197009287775,"[26, 0, 228]",228,a,0.17306147958151996,1,colour,0.5,4.0
67,22,0,2,2,17,67,111.38032376510091,112.05596080143005,"[67, 0, 187]",187,l,0.15348339127376676,1,colour,0.5,4.0
67,22,0,2,2,18,68,112.56798630044796,113.15200607478619,"[5, 0, 249]",249,a,0.06174758169800043,1,colour,0.5,4.0
67,22,0,2,2,19,69,113.66175081138499,114.383996773744,"[17, 0, 237]",237,a,0.1999568345490843,1,colour,0.5,4.0
67,22,0,2,2,20,70,114.896220771363,115.58398629748262,"[13, 0, 241]",241,a,0.16554256435483694,1,colour,0.5,4.0
67,22,0,2,2,21,71,116.09944180212915,116.6399778185878,"[63, 0, 191]",191,l,0.01825437182560563,1,colour,0.5,4.0
67,22,0,2,2,22,72,117.14636186673306,117.87196930521168,"[29, 0, 225]",225,a,0.20338526461273432,1,colour,0.5,4.0
67,22,0,2,2,23,73,118.38087593740784,119.05599270295352,"[11, 0, 243]",243,a,0.15310490527190268,1,colour,0.5,4.0
67,22,0,2,2,24,74,119.56851366045885,120.20002418220975,"[80, 0, 174]",174,l,0.10926117235794663,1,colour,0.5,4.0
67,22,0,2,2,25,75,120.70918130036443,121.52796838851646,"[28, 0, 226]",226,a,0.29654837236739695,1,colour,0.5,4.0
67,22,0,2,2,26,76,122.03740750043653,122.7759689304512,"[90, 0, 164]",164,l,0.2162833297625184,1,colour,0.5,4.0
67,22,0,2,2,27,77,123.28757734643295,123.97596554318443,"[40, 0, 214]",214,a,0.16616956726647913,1,colour,0.5,4.0
67,22,0,2,2,28,78,124.49075544811785,125.19198735919781,"[1, 0, 253]",253,a,0.1789774417411536,1,colour,0.5,4.0
67,22,0,2,2,29,79,125.70960035268217,126.36799362604506,"[66, 0, 188]",188,l,0.13604231155477464,1,colour,0.5,4.0
67,22,0,2,2,30,80,126.8816287741065,127.55199693748727,"[76, 0, 178]",178,l,0.1484504323452711,1,colour,0.5,4.0
67,22,0,2,2,31,81,128.0691585834138,128.82399255153723,"[61, 0, 193]",193,l,0.23256098804995418,1,colour,0.5,4.0
67,22,0,2,2,32,82,129.33494482026435,130.01596770156175,"[45, 0, 209]",209,a,0.158792830305174,1,colour,0.5,4.0
67,22,0,2,2,33,83,130.52253213105723,131.0879926965572,"[81, 0, 173]",173,l,0.043271868489682674,1,colour,0.5,4.0
67,22,0,2,2,34,84,131.6007054571528,132.2879578017164,"[53, 0, 201]",201,l,0.16500338888727129,1,colour,0.5,4.0
67,22,0,2,2,35,85,132.8039981678594,133.32801943086088,"[12, 0, 242]",242,a,0.0019093658775091171,1,colour,0.5,4.0
67,22,0,2,2,36,86,133.85088121099398,134.48795047635213,"[85, 0, 169]",169,l,0.11479982966557145,1,colour,0.5,4.0
67,22,0,2,2,37,87,135.0072530694306,135.67197387386113,"[9, 0, 245]",245,a,0.14249035948887467,1,colour,0.5,4.0
67,22,0,2,2,38,88,136.17912158952095,136.85600278526545,"[64, 0, 190]",190,l,0.15512257860973477,1,colour,0.5,4.0
67,22,0,2,2,39,89,137.3667345000431,137.9679763757158,"[21, 0, 233]",233,a,0.07889091386459768,1,colour,0.5,4.0
67,22,0,2,2,40,90,138.4762351308018,139.13597299484536,"[92, 0, 162]",162,l,0.13755310513079166,1,colour,0.5,4.0
67,22,0,2,2,41,91,139.64817257388495,140.25597001728602,"[71, 0, 183]",183,l,0.08568082004785538,1,colour,0.5,4.0
67,22,0,2,2,42,92,140.77325099846348,141.3440103691537,"[34, 0, 220]",220,a,0.04849111661314964,1,colour,0.5,4.0
67,22,0,2,2,43,93,141.8514692231547,142.4480668657925,"[42, 0, 212]",212,a,0.07439752388745546,1,colour,0.5,4.0
67,22,0,2,2,44,94,142.96100687538274,143.57598137576133,"[98, 0, 156]",156,l,0.09269561246037483,1,colour,0.5,4.0
67,22,0,2,2,45,95,144.08605536771938,144.64797840779647,"[30, 0, 224]",224,a,0.03965478600002825,1,colour,0.5,4.0
67,22,0,2,2,46,96,145.16432636766694,145.7679825196974,"[75, 0, 179]",179,l,0.08173723937943578,1,colour,0.5,4.0
67,22,0,2,2,47,97,146.27379391528666,147.54397901915945,"[19, 0, 235]",235,a,0.7480231882072985,1,colour,0.5,4.0
67,22,0,2,2,48,98,148.0551482969895,148.66399967228062,"[93, 0, 161]",161,l,0.08667449350468814,1,colour,0.5,4.0
67,22,0,2,2,49,99,149.18018773081712,149.85602759756148,"[88, 0, 166]",166,l,0.15368779725395143,1,colour,0.5,4.0
67,22,0,2,2,50,100,150.36772896139883,151.07998777506873,"[68, 0, 186]",186,l,0.18985074409283698,1,colour,0.5,4.0
67,22,0,2,3,1,101,157.61762862931937,158.23997277743183,"[70, 0, 184]",184,l,0.09931498346850276,1,colour,0.5,4.0
67,22,0,2,3,2,102,158.75914618908428,159.32795484014787,"[37, 0, 217]",217,a,0.04661365249194205,1,colour,0.5,4.0
67,22,0,2,3,3,103,159.8372990351636,160.43197628413327,"[6, 0, 248]",248,a,0.07242238568142056,1,colour,0.5,4.0
67,22,0,2,3,4,104,160.9467819428537,161.67193055083044,"[16, 0, 238]",238,a,0.20305640320293605,1,colour,0.5,4.0
67,22,0,2,3,5,105,162.18118573678657,162.75997405359522,"[57, 0, 197]",197,l,0.057078930316492915,1,colour,0.5,4.0
67,22,0,2,3,6,106,163.2751203889493,163.8959242051933,"[79, 0, 175]",175,l,0.09859739593230188,1,colour,0.5,4.0
67,22,0,2,3,7,107,164.41580181359313,165.13598835491575,"[88, 0, 166]",166,l,0.1979100164026022,1,colour,0.5,4.0
67,22,0,2,3,8,108,165.65018040128052,166.24795958190225,"[96, 0, 158]",158,l,0.07542546186596155,1,colour,0.5,4.0
67,22,0,2,3,9,109,166.75971726584248,167.38395699532703,"[9, 0, 245]",245,a,0.10194863239303231,1,colour,0.5,4.0
67,22,0,2,3,10,110,167.90050345356576,168.56800559908152,"[17, 0, 237]",237,a,0.1453209314495325,1,colour,0.5,4.0
67,22,0,2,3,11,111,169.08805965050124,169.72796263825148,"[73, 0, 181]",181,l,0.11762055521830916,1,colour,0.5,4.0
67,22,0,2,3,12,112,170.24440669664182,170.97595530329272,"[45, 0, 209]",209,l,0.2092992572579533,0,colour,0.5,4.0
67,22,0,2,3,13,113,171.49445917643607,172.0879560688045,"[10, 0, 244]",244,a,0.07124911807477474,1,colour,0.5,4.0
67,22,0,2,3,14,114,172.6039566565305,173.2959753263276,"[35, 0, 219]",219,a,0.16989338188432157,1,colour,0.5,4.0
67,22,0,2,3,15,115,173.8071674471721,174.44798849034123,"[50, 0, 204]",204,l,0.11863352754153311,0,colour,0.5,4.0
67,22,0,2,3,16,116,174.96351055498235,175.49596248706803,"[36, 0, 218]",218,a,0.010350668802857399,1,colour,0.5,4.0
67,22,0,2,3,17,117,176.0104999365285,176.59194553270936,"[11, 0, 243]",243,a,0.0592210590839386,1,colour,0.5,4.0
67,22,0,2,3,18,118,177.10423648403957,177.7199596860446,"[52, 0, 202]",202,l,0.09344982774928212,1,colour,0.5,4.0
67,22,0,2,3,19,119,178.22938343789428,178.76796519034542,"[20, 0, 234]",234,a,0.016335947439074516,1,colour,0.5,4.0
67,22,0,2,3,20,120,179.2763732133899,180.04798581218347,"[43, 0, 211]",211,a,0.24937427695840597,1,colour,0.5,4.0
67,22,0,2,3,21,121,180.55767934862524,181.24798478814773,"[67, 0, 187]",187,l,0.16805608989670873,1,colour,0.5,4.0
67,22,0,2,3,22,122,181.76093306858093,182.48795008240268,"[65, 0, 189]",189,l,0.20471370732411742,1,colour,0.5,4.0
67,22,0,2,3,23,123,182.99542626552284,183.75198685517535,"[51, 0, 203]",203,l,0.2343797693029046,1,colour,0.5,4.0
67,22,0,2,3,24,124,184.26106953644194,184.91198249114677,"[87, 0, 167]",167,l,0.12861004215665162,1,colour,0.5,4.0
67,22,0,2,3,25,125,185.41769385011867,185.999993304722,"[68, 0, 186]",186,l,0.060234818840399384,1,colour,0.5,4.0
67,22,0,2,3,26,126,186.5113142132759,187.19993871753104,"[15, 0, 239]",239,a,0.16627787495963275,1,colour,0.5,4.0
67,22,0,2,3,27,127,187.71447065332904,188.33599126921035,"[77, 0, 177]",177,l,0.09952175267972052,1,colour,0.5,4.0
67,22,0,2,3,28,128,188.8554277701769,189.4879516577348,"[47, 0, 207]",207,a,0.11042931978590786,1,colour,0.5,4.0
67,22,0,2,3,29,129,189.99593235785142,190.65598687389866,"[63, 0, 191]",191,l,0.1378083173185587,1,colour,0.5,4.0
67,22,0,2,3,30,130,191.16793517931364,191.77594411792234,"[44, 0, 210]",210,a,0.08622708451002836,1,colour,0.5,4.0
67,22,0,2,3,31,131,192.29298288398422,192.86399943614379,"[14, 0, 240]",240,a,0.04874869203194976,1,colour,0.5,4.0
67,22,0,2,3,32,132,193.3711932315491,193.93597795721143,"[3, 0, 251]",251,a,0.042480237782001495,1,colour,0.5,4.0
67,22,0,2,3,33,133,194.4494575362187,195.10395961045288,"[74, 0, 180]",180,l,0.1323145586065948,1,colour,0.5,4.0
67,22,0,2,3,34,134,195.62136110849679,196.2399912881665,"[80, 0, 174]",174,l,0.09627803647890687,1,colour,0.5,4.0
67,22,0,2,3,35,135,196.74644859158434,197.471954024164,"[84, 0, 170]",170,l,0.20352035388350487,1,colour,0.5,4.0
67,22,0,2,3,36,136,197.98090870538726,198.65594906476326,"[92, 0, 162]",162,l,0.1528492991346866,1,colour,0.5,4.0
67,22,0,2,3,37,137,199.1686200776603,199.8159742394928,"[54, 0, 200]",200,l,0.12550574773922563,1,colour,0.5,4.0
67,22,0,2,3,38,138,200.32496082223952,200.9759572725743,"[86, 0, 168]",168,l,0.12955487915314734,1,colour,0.5,4.0
67,22,0,2,3,39,139,201.48117829300463,202.1119586240966,"[58, 0, 196]",196,l,0.10871766461059451,1,colour,0.5,4.0
67,22,0,2,3,40,140,202.62192824692465,203.26397139416076,"[40, 0, 214]",214,a,0.11975559475831687,1,colour,0.5,4.0
67,22,0,2,3,41,141,203.77822763752192,204.34398437547497,"[7, 0, 247]",247,a,0.043417591601610184,1,colour,0.5,4.0
67,22,0,2,3,42,142,204.8565510190092,205.4959813915193,"[24, 0, 230]",230,a,0.11724718916229904,1,colour,0.5,4.0
67,22,0,2,3,43,143,206.01279684668407,206.60794592346065,"[19, 0, 235]",235,a,0.0729414748493582,1,colour,0.5,4.0
67,22,0,2,3,44,144,207.12228369293734,207.7359805565793,"[1, 0, 253]",253,a,0.09150856034830213,1,colour,0.5,4.0
67,22,0,2,3,45,145,208.24736487446353,208.84797226381488,"[71, 0, 183]",183,l,0.07841672305949032,1,colour,0.5,4.0
67,22,0,2,3,46,146,209.35689228679985,209.99195923865773,"[89, 0, 165]",165,l,0.11285659321583807,1,colour,0.5,4.0
67,22,0,2,3,47,147,210.49755244352855,211.05594780435786,"[12, 0, 242]",242,a,0.036338601959869266,1,colour,0.5,4.0
67,22,0,2,3,48,148,211.57574703753926,212.12797516258433,"[29, 0, 225]",225,a,0.029977200319990516,1,colour,0.5,4.0
67,22,0,2,3,49,149,212.6383662004955,214.09594444883987,"[32, 0, 222]",222,a,0.9353111758828163,1,colour,0.5,4.0
67,22,0,2,3,50,150,214.60728426207788,215.3199420417659,"[61, 0, 193]",193,l,0.19029460870660841,1,colour,0.5,4.0
67,22,0,2,4,1,151,236.09258060948923,236.78397267032415,"[77, 0, 177]",177,l,0.16842079139314592,1,colour,0.5,4.0
67,22,0,2,4,2,152,237.2965771232266,237.95191651419736,"[59, 0, 195]",195,l,0.13320110621862113,1,colour,0.5,4.0
67,22,0,2,4,3,153,238.46858152002096,239.055975767551,"[25, 0, 229]",229,a,0.06509763654321432,1,colour,0.5,4.0
67,22,0,2,4,4,154,239.56232712627389,240.1520060747862,"[11, 0, 243]",243,a,0.06743156840093434,1,colour,0.5,4.0
67,22,0,2,4,5,155,240.67180373240262,241.35194991226308,"[42, 0, 212]",212,a,0.15784720587544143,1,colour,0.5,4.0
67,22,0,2,4,6,156,241.85938474163413,242.4799624902662,"[53, 0, 201]",201,a,0.09825514373369515,0,colour,0.5,4.0
67,22,0,2,4,7,157,242.98449979396537,243.62394001265056,"[66, 0, 188]",188,l,0.11711840168572962,1,colour,0.5,4.0
67,22,0,2,4,8,158,244.14094727067277,244.75996775203384,"[88, 0, 166]",166,l,0.09687392553314567,1,colour,0.5,4.0
67,22,0,2,4,9,159,245.2659335352946,245.85594292078167,"[45, 0, 209]",209,a,0.06777539593167603,1,colour,0.5,4.0
67,22,0,2,4,10,160,246.37536681839265,246.95196338184178,"[50, 0, 204]",204,a,0.054244420025497675,1,colour,0.5,4.0
67,22,0,2,4,11,161,247.46920576621778,248.03998010302894,"[54, 0, 200]",200,a,0.04845606442540884,0,colour,0.5,4.0
67,22,0,2,4,12,162,248.54753820598125,249.1359501518309,"[34, 0, 220]",220,a,0.06644695322029293,1,colour,0.5,4.0
67,22,0,2,4,13,163,249.6412818429526,250.1919452175498,"[31, 0, 223]",223,a,0.028361643431708217,1,colour,0.5,4.0
67,22,0,2,4,14,164,250.70386437838897,251.29596469248645,"[81, 0, 173]",173,l,0.06989428773522377,1,colour,0.5,4.0
67,22,0,2,4,15,165,251.81335437530652,252.44794359174557,"[91, 0, 163]",163,l,0.11240642704069614,1,colour,0.5,4.0
67,22,0,2,4,16,166,252.954087393824,253.5359788236674,"[5, 0, 249]",249,a,0.06038960022851825,1,colour,0.5,4.0
67,22,0,2,4,17,167,254.04824653826654,254.63197053410113,"[82, 0, 172]",172,l,0.06201264006085694,1,colour,0.5,4.0
67,22,0,2,4,18,168,255.14178222441114,255.72796578891575,"[3, 0, 251]",251,a,0.06393972877413034,1,colour,0.5,4.0
67,22,0,2,4,19,169,256.23551325825974,256.7919445086736,"[4, 0, 250]",250,a,0.03414291003718972,1,colour,0.5,4.0
67,22,0,2,4,20,170,257.29814935685135,257.91193759278394,"[97, 0, 157]",157,l,0.09177480032667518,1,colour,0.5,4.0
67,22,0,2,4,21,171,258.42322502448224,259.055926930625,"[83, 0, 171]",171,l,0.11035133828409016,1,colour,0.5,4.0
67,22,0,2,4,22,172,259.5639655259438,260.1919326146599,"[70, 0, 184]",184,l,0.10584731469862163,1,colour,0.5,4.0
67,22,0,2,4,23,173,260.70467412588187,261.2399326050654,"[99, 0, 155]",155,l,0.013029609574005008,1,colour,0.5,4.0
67,22,0,2,4,24,174,261.75161585211754,262.39193710451946,"[49, 0, 205]",205,a,0.11796280764974654,1,colour,0.5,4.0
67,22,0,2,4,25,175,262.90799204283394,263.4399296119809,"[20, 0, 234]",234,a,0.009722090559080243,1,colour,0.5,4.0
67,22,0,2,4,26,176,263.9548837505281,264.75993466889486,"[64, 0, 190]",190,l,0.2827287074178457,1,colour,0.5,4.0
67,22,0,2,4,27,177,265.2675018303562,265.9039692990482,"[95, 0, 159]",159,l,0.11416022363118827,1,colour,0.5,4.0
67,22,0,2,4,28,178,266.4238146119751,267.0719521336723,"[36, 0, 218]",218,a,0.12573614763095975,1,colour,0.5,4.0
67,22,0,2,4,29,179,267.5802018304821,268.2079664822668,"[38, 0, 216]",216,a,0.1056334562599659,1,colour,0.5,4.0
67,22,0,2,4,30,180,268.7208769535646,269.3679664507508,"[16, 0, 238]",238,a,0.12472553853876889,1,colour,0.5,4.0
67,22,0,2,4,31,181,269.8773370333947,270.51996858697385,"[44, 0, 210]",210,a,0.12031682557426393,1,colour,0.5,4.0
67,22,0,2,4,32,182,271.0335509595461,271.631967383204,"[43, 0, 211]",211,a,0.07605325267650187,1,colour,0.5,4.0
67,22,0,2,4,33,183,272.1430535595864,272.80793426558375,"[93, 0, 161]",161,l,0.1426341135520488,1,colour,0.5,4.0
67,22,0,2,4,34,184,273.3150126643013,273.8479399685748,"[29, 0, 225]",225,a,0.010801228694617748,1,colour,0.5,4.0
67,22,0,2,4,35,185,274.3620260702446,274.9039515759796,"[12, 0, 242]",242,a,0.01973602082580328,1,colour,0.5,4.0
67,22,0,2,4,36,186,275.42459363956004,276.03996474295855,"[87, 0, 167]",167,l,0.09314026474021375,1,colour,0.5,4.0
67,22,0,2,4,37,187,276.54967718408443,277.26394973276183,"[60, 0, 194]",194,l,0.1919838145840913,1,colour,0.5,4.0
67,22,0,2,4,38,188,277.784155808622,278.3119536617305,"[40, 0, 214]",214,a,0.005498091224581003,1,colour,0.5,4.0
67,22,0,2,4,39,189,278.8310967471916,279.3999542351812,"[39, 0, 215]",215,a,0.04685389855876565,1,colour,0.5,4.0
67,22,0,2,4,40,190,279.9093067010399,280.98393541248515,"[10, 0, 244]",244,a,0.5524541926570237,1,colour,0.5,4.0
67,22,0,2,4,41,191,281.50314939022064,282.4399260673672,"[1, 0, 253]",253,a,0.41447415854781866,1,colour,0.5,4.0
67,22,0,2,4,42,192,282.95640714722686,283.671956544742,"[69, 0, 185]",185,l,0.19404559885151684,1,colour,0.5,4.0
67,22,0,2,4,43,193,284.190910190111,284.87995965452865,"[80, 0, 174]",174,l,0.16685328423045576,1,colour,0.5,4.0
67,22,0,2,4,44,194,285.39409656240605,285.9999168985523,"[90, 0, 164]",164,l,0.0834737066179514,1,colour,0.5,4.0
67,22,0,2,4,45,195,286.51923563936725,287.23995859897695,"[13, 0, 241]",241,a,0.1984921209514141,1,colour,0.5,4.0
67,22,0,2,4,46,196,287.75371229462326,288.4959652440157,"[26, 0, 228]",228,a,0.2200453474652022,1,colour,0.5,4.0
67,22,0,2,4,47,197,289.0037332670763,289.8239531670697,"[61, 0, 193]",193,l,0.2979540091473609,1,colour,0.5,4.0
67,22,0,2,4,48,198,290.3320315408055,291.031925950665,"[6, 0, 248]",248,a,0.17771752807311714,1,colour,0.5,4.0
67,22,0,2,4,49,199,291.5508362732362,292.2479454034474,"[96, 0, 158]",158,l,0.17483457480557263,1,colour,0.5,4.0
67,22,0,2,4,50,200,292.7540569100529,293.4159337519668,"[85, 0, 169]",169,l,0.13965545548126101,1,colour,0.5,4.0
67,22,0,2,5,1,201,298.01935005164705,298.7599260043353,"[60, 0, 194]",194,l,0.21745029580779374,1,colour,0.5,4.0
67,22,0,2,5,2,202,299.2702485129703,299.9999499816913,"[0, 0, 254]",254,a,0.20749268541112542,1,colour,0.5,4.0
67,22,0,2,5,3,203,300.52036755299196,301.2879641032778,"[86, 0, 168]",168,l,0.24548110854811966,1,colour,0.5,4.0
67,22,0,2,5,4,204,301.80173946055584,302.64796580467373,"[76, 0, 178]",178,l,0.32395927142351866,1,colour,0.5,4.0
67,22,0,2,5,5,205,303.16112715611234,303.9599289186299,"[16, 0, 238]",238,a,0.27646104083396494,1,colour,0.5,4.0
67,22,0,2,5,6,206,304.4737692605704,305.231930046808,"[98, 0, 156]",156,l,0.2358354243915528,1,colour,0.5,4.0
67,22,0,2,5,7,207,305.73944640206173,306.5199492883403,"[63, 0, 191]",191,l,0.2582054876256734,1,colour,0.5,4.0
67,22,0,2,5,8,208,307.03639492206275,307.735936839832,"[34, 0, 220]",220,a,0.17716456833295524,1,colour,0.5,4.0
67,22,0,2,5,9,209,308.2553075682372,308.9999365909025,"[35, 0, 219]",219,a,0.2223524977453053,1,colour,0.5,4.0
67,22,0,2,5,10,210,309.5055483067408,310.2479320128914,"[82, 0, 172]",172,l,0.22043525520712137,1,colour,0.5,4.0
67,22,0,2,5,11,211,310.75548657123,311.4719571748283,"[38, 0, 216]",216,a,0.1941562695428729,1,colour,0.5,4.0
67,22,0,2,5,12,212,311.98999040201306,312.7599220657721,"[87, 0, 167]",167,l,0.24773784657008946,1,colour,0.5,4.0
67,22,0,2,5,13,213,313.2713469497394,313.951943295775,"[31, 0, 223]",223,a,0.15838244277983904,1,colour,0.5,4.0
67,22,0,2,5,14,214,314.45892441435717,315.1359147056937,"[10, 0, 244]",244,a,0.1546936803497374,1,colour,0.5,4.0
67,22,0,2,5,15,215,315.64654323272407,316.343918209197,"[84, 0, 170]",170,l,0.17519336845725775,1,colour,0.5,4.0
67,22,0,2,5,16,216,316.84970794362016,317.63192169717513,"[85, 0, 169]",169,l,0.2599265950266272,1,colour,0.5,4.0
67,22,0,2,5,17,217,318.1466848202981,318.8719618222676,"[73, 0, 181]",181,l,0.20306585542857647,1,colour,0.5,4.0
67,22,0,2,5,18,218,319.3811421773862,320.0799298796337,"[18, 0, 236]",236,a,0.17668998357839882,1,colour,0.5,4.0
67,22,0,2,5,19,219,320.5844195280224,321.2799398833886,"[52, 0, 202]",202,a,0.1733300827909261,0,colour,0.5,4.0
67,22,0,2,5,20,220,321.7876177157741,322.5119408222381,"[61, 0, 193]",193,l,0.2020005015656352,1,colour,0.5,4.0
67,22,0,2,5,21,221,323.022068771068,323.7599141888786,"[92, 0, 162]",162,l,0.21555983438156545,1,colour,0.5,4.0
67,22,0,2,5,22,222,324.27228430332616,324.9679188739974,"[20, 0, 234]",234,a,0.17342027346603572,1,colour,0.5,4.0
67,22,0,2,5,23,223,325.47538678650744,326.23196234204806,"[48, 0, 206]",206,a,0.23425137531012297,1,colour,0.5,4.0
67,22,0,2,5,24,224,326.7411899587605,327.3359073800966,"[42, 0, 212]",212,a,0.07252872409299016,1,colour,0.5,4.0
67,22,0,2,5,25,225,327.85057913092896,328.5759262375068,"[77, 0, 177]",177,l,0.20299299387261271,1,colour,0.5,4.0
67,22,0,2,5,26,226,329.0851314049214,329.7359415658284,"[83, 0, 171]",171,l,0.12850291607901454,1,colour,0.5,4.0
67,22,0,2,5,27,227,330.2414398540277,330.89595256210305,"[19, 0, 235]",235,a,0.13282301393337548,1,colour,0.5,4.0
67,22,0,2,5,28,228,331.41335839242674,332.1439491654746,"[94, 0, 160]",160,l,0.20836938661523163,1,colour,0.5,4.0
67,22,0,2,5,29,229,332.66351563553326,333.3199191985186,"[37, 0, 217]",217,a,0.13424716121517122,1,colour,0.5,4.0
67,22,0,2,5,30,230,333.8354255093727,334.55197960836813,"[13, 0, 241]",241,a,0.1942377956584096,1,colour,0.5,4.0
67,22,0,2,5,31,231,335.0699080724735,335.7759334840812,"[2, 0, 252]",252,a,0.1837193483952433,1,colour,0.5,4.0
67,22,0,2,5,32,232,336.2888494692743,336.9839472279418,"[89, 0, 165]",165,l,0.17262667370960116,1,colour,0.5,4.0
67,22,0,2,5,33,233,337.4919669185765,338.1999568345491,"[1, 0, 253]",253,a,0.18579019117169082,1,colour,0.5,4.0
67,22,0,2,5,34,234,338.71079331240617,339.31195169244893,"[3, 0, 251]",251,a,0.07884365203790367,1,colour,0.5,4.0
67,22,0,2,5,35,235,339.82027818937786,340.4879469317384,"[22, 0, 232]",232,a,0.14537331298924983,1,colour,0.5,4.0
67,22,0,2,5,36,236,341.00792457698844,341.71992620895617,"[24, 0, 230]",230,a,0.18968966091051698,1,colour,0.5,4.0
67,22,0,2,5,37,237,342.2267486078199,342.93595550814644,"[62, 0, 192]",192,l,0.18691777251660824,1,colour,0.5,4.0
67,22,0,2,5,38,238,343.4456199000124,344.039978527464,"[32, 0, 222]",222,a,0.07276227488182485,1,colour,0.5,4.0
67,22,0,2,5,39,239,344.55507445079274,345.27994500333443,"[30, 0, 224]",224,a,0.2026042677462101,1,colour,0.5,4.0
67,22,0,2,5,40,240,345.789564890787,346.47991562238894,"[75, 0, 179]",179,l,0.16822150512598455,1,colour,0.5,4.0
67,22,0,2,5,41,241,346.99277253076434,347.63993134489283,"[70, 0, 184]",184,l,0.1249311261344701,1,colour,0.5,4.0
67,22,0,2,5,42,242,348.14907192159444,348.7679419533815,"[9, 0, 245]",245,a,0.09660532232373953,1,colour,0.5,4.0
67,22,0,2,5,43,243,349.2741684629582,349.98393738176674,"[90, 0, 164]",164,l,0.1874585230834782,1,colour,0.5,4.0
67,22,0,2,5,44,244,350.4930562968366,351.14392238412984,"[88, 0, 166]",166,l,0.12859074398875237,1,colour,0.5,4.0
67,22,0,2,5,45,245,351.6493482044898,352.3039436202962,"[47, 0, 207]",207,a,0.1323456724639982,1,colour,0.5,4.0
67,22,0,2,5,46,246,352.82126989378594,353.42393158422783,"[5, 0, 249]",249,a,0.08028276567347348,1,colour,0.5,4.0
67,22,0,2,5,47,247,353.9308221184183,354.55195873440243,"[64, 0, 190]",190,l,0.0990329897031188,1,colour,0.5,4.0
67,22,0,2,5,48,248,355.0714354075026,355.7679214733653,"[56, 0, 198]",198,l,0.17415834101848304,1,colour,0.5,4.0
67,22,0,2,5,49,249,356.2747564751189,357.0319365845062,"[93, 0, 161]",161,l,0.2349197322037071,1,colour,0.5,4.0
67,22,0,2,5,50,250,357.5410618011374,358.2799477602821,"[12, 0, 242]",242,a,0.21725455415435135,1,colour,0.5,4.0
67,22,0,2,6,1,251,372.08773551508784,372.8959364143666,"[51, 0, 203]",203,l,0.28517803619615734,1,colour,0.5,4.0
67,22,0,2,6,2,252,373.4010829979088,374.10391825647093,"[69, 0, 185]",185,l,0.1805579459760338,1,colour,0.5,4.0
67,22,0,2,6,3,253,374.61983141023666,375.3919453751296,"[59, 0, 195]",195,l,0.24970943992957473,1,colour,0.5,4.0
67,22,0,2,6,4,254,375.9013947271742,376.52791206841357,"[10, 0, 244]",244,a,0.10438023786991835,1,colour,0.5,4.0
67,22,0,2,6,5,255,377.0426980347838,377.7039490554016,"[30, 0, 224]",224,a,0.13966175727546215,1,colour,0.5,4.0
67,22,0,2,6,6,256,378.2139738164842,378.91192341432907,"[60, 0, 194]",194,l,0.17578256223350763,1,colour,0.5,4.0
67,22,0,2,6,7,257,379.4171597948298,380.1359489702154,"[40, 0, 214]",214,a,0.19649965362623334,1,colour,0.5,4.0
67,22,0,2,6,8,258,380.6516108501237,381.2799201910384,"[28, 0, 226]",226,a,0.10599776357412338,1,colour,0.5,4.0
67,22,0,2,6,9,259,381.79232653952204,382.47994870552793,"[3, 0, 251]",251,a,0.16543346899561584,1,colour,0.5,4.0
67,22,0,2,6,10,260,382.9955869547557,383.6399112585932,"[43, 0, 211]",211,a,0.12212024675682187,1,colour,0.5,4.0
67,22,0,2,6,11,261,384.15203049313277,384.8479072791524,"[6, 0, 248]",248,a,0.17367194104008377,1,colour,0.5,4.0
67,22,0,2,6,12,262,385.35514282248914,386.04793106764555,"[82, 0, 172]",172,l,0.17129429243505,1,colour,0.5,4.0
67,22,0,2,6,13,263,386.5583815763239,387.3758815752808,"[54, 0, 200]",200,a,0.29522386798635125,0,colour,0.5,4.0
67,22,0,2,6,14,264,387.8865384592209,388.5599203328602,"[77, 0, 177]",177,l,0.15107462857849896,1,colour,0.5,4.0
67,22,0,2,6,15,265,389.0741994192358,389.8159336731769,"[55, 0, 199]",199,l,0.21945063979364932,1,colour,0.5,4.0
67,22,0,2,6,16,266,390.3242160594091,390.9679342340678,"[79, 0, 175]",175,l,0.12143849907442927,1,colour,0.5,4.0
67,22,0,2,6,17,267,391.48059540078975,392.20789637765847,"[48, 0, 206]",206,a,0.20515914727002382,1,colour,0.5,4.0
67,22,0,2,6,18,268,392.71509726229124,393.41591878584586,"[38, 0, 216]",216,a,0.17885889392346144,1,colour,0.5,4.0
67,22,0,2,6,19,269,393.933942560805,394.6479323278181,"[68, 0, 186]",186,l,0.19182785134762526,1,colour,0.5,4.0
67,22,0,2,6,20,270,395.1527181484271,395.7839065040462,"[8, 0, 246]",246,a,0.10943091986700892,1,colour,0.5,4.0
67,22,0,2,6,21,271,396.29352205921896,396.9599557002075,"[9, 0, 245]",245,a,0.144203589996323,1,colour,0.5,4.0
67,22,0,2,6,22,272,397.4653137791902,398.14391371933743,"[22, 0, 232]",232,a,0.15623716288246214,1,colour,0.5,4.0
67,22,0,2,6,23,273,398.65306768682785,399.41594084119424,"[71, 0, 183]",183,l,0.24044421105645597,1,colour,0.5,4.0
67,22,0,2,6,24,274,399.9345711390488,400.75195062113926,"[75, 0, 179]",179,l,0.29525892017409205,1,colour,0.5,4.0
67,22,0,2,6,25,275,401.2626642191317,402.0478975905571,"[83, 0, 171]",171,l,0.2630163172725588,1,colour,0.5,4.0
67,22,0,2,6,26,276,402.55974192055874,403.3679365182761,"[84, 0, 170]",170,l,0.2860283497720957,1,colour,0.5,4.0
67,22,0,2,6,27,277,403.88794409600087,404.51991423615254,"[46, 0, 208]",208,a,0.10973772616125643,1,colour,0.5,4.0
67,22,0,2,6,28,278,405.02863812376745,405.7199187260121,"[47, 0, 207]",207,a,0.16906000371091068,1,colour,0.5,4.0
67,22,0,2,6,29,279,406.2318469451275,406.80793544719927,"[37, 0, 217]",217,a,0.05414792778901756,1,colour,0.5,4.0
67,22,0,2,6,30,280,407.3256646252703,408.03191137849353,"[50, 0, 204]",204,a,0.18402221612632275,1,colour,0.5,4.0
67,22,0,2,6,31,281,408.5444784159772,409.223906614352,"[17, 0, 237]",237,a,0.15714300889521837,1,colour,0.5,4.0
67,22,0,2,6,32,282,409.7321035359055,410.3679286413826,"[26, 0, 228]",228,a,0.11383805749937892,1,colour,0.5,4.0
67,22,0,2,6,33,283,410.8728078035638,411.72790671209805,"[80, 0, 174]",174,l,0.33279993454925716,1,colour,0.5,4.0
67,22,0,2,6,34,284,412.24793398194015,413.07191274897195,"[90, 0, 164]",164,l,0.3019617865793407,1,colour,0.5,4.0
67,22,0,2,6,35,285,413.59178444975987,414.31197059713304,"[32, 0, 222]",222,a,0.19788284110836685,1,colour,0.5,4.0
67,22,0,2,6,36,286,414.8262095111422,415.4559292148333,"[86, 0, 168]",168,l,0.10740024945698678,1,colour,0.5,4.0
67,22,0,2,6,37,287,415.96692047431134,416.6159205187578,"[27, 0, 227]",227,a,0.12666877498850226,1,colour,0.5,4.0
67,22,0,2,6,38,288,417.1233084804844,417.73590099974535,"[78, 0, 176]",176,l,0.09035301604308188,1,colour,0.5,4.0
67,22,0,2,6,39,289,418.2483487019781,419.40793985826895,"[23, 0, 231]",231,a,0.6375127360224724,1,colour,0.5,4.0
67,22,0,2,6,40,290,419.920284766471,420.8879023483023,"[52, 0, 202]",202,a,0.4452229030430317,0,colour,0.5,4.0
67,22,0,2,6,41,291,421.4048627389129,422.0718832104467,"[61, 0, 193]",193,a,0.14551430963911116,0,colour,0.5,4.0
67,22,0,2,6,42,292,422.57689234195277,423.31190403713845,"[56, 0, 198]",198,a,0.21276195207610726,0,colour,0.5,4.0
67,22,0,2,6,43,293,423.8269507295918,424.5039162086323,"[91, 0, 163]",163,l,0.1547117973677814,1,colour,0.5,4.0
67,22,0,2,6,44,294,425.0146085387096,425.6479043648578,"[11, 0, 243]",243,a,0.11132965190336108,1,colour,0.5,4.0
67,22,0,2,6,45,295,426.15525491093285,426.80792520707473,"[33, 0, 221]",221,a,0.13047805428504944,1,colour,0.5,4.0
67,22,0,2,6,46,296,427.327225437155,427.9679220248945,"[64, 0, 190]",190,l,0.11845196434296668,1,colour,0.5,4.0
67,22,0,2,6,47,297,428.48363431706093,429.16788988700137,"[81, 0, 173]",173,l,0.16211137734353542,1,colour,0.5,4.0
67,22,0,2,6,48,298,429.68678051722236,430.36787941074,"[1, 0, 253]",253,a,0.15881015942431986,1,colour,0.5,4.0
67,22,0,2,6,49,299,430.8743532556109,431.583894925192,"[39, 0, 215]",215,a,0.18724860320799053,1,colour,0.5,4.0
67,22,0,2,6,50,300,432.0933167077601,432.6959023862146,"[19, 0, 235]",235,a,0.0804265197366476,1,colour,0.5,4.0
67,22,0,2,7,1,301,450.7970747477375,451.47992231789976,"[17, 0, 237]",237,a,0.15998854697681963,1,colour,0.5,4.0
67,22,0,2,7,2,302,451.9855265505612,452.76802663039416,"[75, 0, 179]",179,l,0.2603318626061082,1,colour,0.5,4.0
67,22,0,2,7,3,303,453.28238251665607,454.12793420255184,"[5, 0, 249]",249,a,0.32324759173206985,1,colour,0.5,4.0
67,22,0,2,7,4,304,454.64187655062415,455.5118986808229,"[63, 0, 191]",191,l,0.34795237448997796,1,colour,0.5,4.0
67,22,0,2,7,5,305,456.0169479844626,456.8798804914113,"[81, 0, 173]",173,l,0.34055830840952694,1,colour,0.5,4.0
67,22,0,2,7,6,306,457.39222264289856,458.27192432805896,"[77, 0, 177]",177,l,0.35752204642631114,1,colour,0.5,4.0
67,22,0,2,7,7,307,458.78282854752615,459.6319181525614,"[39, 0, 215]",215,a,0.32688121567480266,1,colour,0.5,4.0
67,22,0,2,7,8,308,460.14228240889497,460.9998979938682,"[87, 0, 167]",167,l,0.33532291231676936,1,colour,0.5,4.0
67,22,0,2,7,9,309,461.5174211903941,462.31191191403195,"[19, 0, 235]",235,a,0.2721732386853546,1,colour,0.5,4.0
67,22,0,2,7,10,310,462.830047541298,463.679896481568,"[29, 0, 225]",225,a,0.3275775355286896,1,colour,0.5,4.0
67,22,0,2,7,11,311,464.1895014026668,465.04788892599754,"[50, 0, 204]",204,a,0.33618897991254926,1,colour,0.5,4.0
67,22,0,2,7,12,312,465.5646067073103,466.4239044089336,"[88, 0, 166]",166,l,0.33720510290004313,1,colour,0.5,4.0
67,22,0,2,7,13,313,466.9397762089502,467.7679195043165,"[42, 0, 212]",212,a,0.3058573182206601,1,colour,0.5,4.0
67,22,0,2,7,14,314,468.28358099027537,469.14392711012624,"[93, 0, 161]",161,l,0.338054628809914,1,colour,0.5,4.0
67,22,0,2,7,15,315,469.658649667399,470.50391581468284,"[67, 0, 187]",187,l,0.32291203481145203,1,colour,0.5,4.0
67,22,0,2,7,16,316,471.0181740273256,471.8878858068492,"[78, 0, 176]",176,l,0.3474915747065097,1,colour,0.5,4.0
67,22,0,2,7,17,317,472.39328917791136,473.2319205943495,"[0, 0, 254]",254,a,0.3163667069748044,1,colour,0.5,4.0
67,22,0,2,7,18,318,473.7371569748502,474.5838898050133,"[35, 0, 219]",219,a,0.32451065606437624,1,colour,0.5,4.0
67,22,0,2,7,19,319,475.0966246209573,475.89592578052543,"[92, 0, 162]",162,l,0.2771167946048081,1,colour,0.5,4.0
67,22,0,2,7,20,320,476.4091903194785,477.1999206007458,"[48, 0, 206]",206,a,0.2690878484863788,1,colour,0.5,4.0
67,22,0,2,7,21,321,477.7062042178586,478.51188450236805,"[80, 0, 174]",174,l,0.2833025411237031,1,colour,0.5,4.0
67,22,0,2,7,22,322,479.01891800248995,480.17586290696636,"[60, 0, 194]",194,l,0.6347766872495413,1,colour,0.5,4.0
67,22,0,2,7,23,323,480.69081389484927,481.47190715628676,"[57, 0, 197]",197,a,0.25880373967811465,0,colour,0.5,4.0
67,22,0,2,7,24,324,481.9877891964279,482.79190354864113,"[23, 0, 231]",231,a,0.2818476737011224,1,colour,0.5,4.0
67,22,0,2,7,25,325,483.30037458706647,484.1038666625973,"[28, 0, 226]",226,a,0.2812198828905821,1,colour,0.5,4.0
67,22,0,2,7,26,326,484.61301432852633,485.4719020363409,"[53, 0, 201]",201,a,0.33656667824834585,0,colour,0.5,4.0
67,22,0,2,7,27,327,485.9881401131861,486.7598870135844,"[76, 0, 178]",178,l,0.2494715570937842,1,colour,0.5,4.0
67,22,0,2,7,28,328,487.2694131655153,488.05593520146795,"[16, 0, 238]",238,a,0.2641435049008578,1,colour,0.5,4.0
67,22,0,2,7,29,329,488.56647235620767,489.23192138201557,"[6, 0, 248]",248,a,0.143081916263327,1,colour,0.5,4.0
67,22,0,2,7,30,330,489.73842240241356,490.51189789315686,"[36, 0, 218]",218,a,0.25119069521315396,1,colour,0.5,4.0
67,22,0,2,7,31,331,491.0197202670388,491.7679029626306,"[15, 0, 239]",239,a,0.22587230009958148,1,colour,0.5,4.0
67,22,0,2,7,32,332,492.28555455314927,493.0719021151308,"[34, 0, 220]",220,a,0.2641470495145768,1,colour,0.5,4.0
67,22,0,2,7,33,333,493.582513313042,494.4238665995654,"[47, 0, 207]",207,a,0.31913662631995976,1,colour,0.5,4.0
67,22,0,2,7,34,334,494.94200301449746,495.71189293055795,"[26, 0, 228]",228,a,0.24775360035710037,1,colour,0.5,4.0
67,22,0,2,7,35,335,496.2233233284205,496.99190055555664,"[70, 0, 184]",184,l,0.24630464077927172,1,colour,0.5,4.0
67,22,0,2,7,36,336,497.50465900218114,498.2959138865117,"[31, 0, 223]",223,a,0.26892519020475447,1,colour,0.5,4.0
67,22,0,2,7,37,337,498.80159846367314,499.6238612434827,"[85, 0, 169]",169,l,0.29983541183173656,1,colour,0.5,4.0
67,22,0,2,7,38,338,500.1298817715142,500.97591985715553,"[72, 0, 182]",182,l,0.32376707484945655,1,colour,0.5,4.0
67,22,0,2,7,39,339,501.48932263604365,502.311896947911,"[90, 0, 164]",164,l,0.30033126403577626,1,colour,0.5,4.0
67,22,0,2,7,40,340,502.8175685282331,503.72790001682006,"[59, 0, 195]",195,a,0.38797501288354397,0,colour,0.5,4.0
67,22,0,2,7,41,341,504.2396021683235,505.05593401985243,"[95, 0, 159]",159,l,0.29407068667933345,1,colour,0.5,4.0
67,22,0,2,7,42,342,505.567793315975,506.5118782008067,"[58, 0, 196]",196,l,0.4217240768484771,1,colour,0.5,4.0
67,22,0,2,7,43,343,507.02115386677906,507.66391302621923,"[45, 0, 209]",209,a,0.12056652386672795,1,colour,0.5,4.0
67,22,0,2,7,44,344,508.17747216206044,508.94389229430817,"[41, 0, 213]",213,a,0.24463552120141685,1,colour,0.5,4.0
67,22,0,2,7,45,345,509.4589157497976,510.26392452651635,"[24, 0, 230]",230,a,0.2827149226795882,1,colour,0.5,4.0
67,22,0,2,7,46,346,510.7715204388369,511.5758774005808,"[46, 0, 208]",208,a,0.2820717722643167,1,colour,0.5,4.0
67,22,0,2,7,47,347,512.0840542358346,512.8479171253275,"[98, 0, 156]",156,l,0.24152925703674555,1,colour,0.5,4.0
67,22,0,2,7,48,348,513.3655025495682,514.0798999473918,"[86, 0, 168]",168,l,0.19247297127731144,1,colour,0.5,4.0
67,22,0,2,7,49,349,514.5998996479902,515.3758992983494,"[20, 0, 234]",234,a,0.25374084850773215,1,colour,0.5,4.0
67,22,0,2,7,50,350,515.881280614296,516.69589214609,"[10, 0, 244]",244,a,0.29256186238490045,1,colour,0.5,4.0
67,22,0,2,8,1,351,529.8658989556134,530.6718821078539,"[72, 0, 182]",182,l,0.28316233213990927,1,colour,0.5,3.9
67,22,0,2,8,2,352,531.1793571093585,531.927901749732,"[97, 0, 157]",157,l,0.2267584539949894,1,colour,0.5,3.9
67,22,0,2,8,3,353,532.4451212908607,533.2318918437231,"[10, 0, 244]",244,a,0.26464999094605446,1,colour,0.5,3.9
67,22,0,2,8,4,354,533.7420804447029,534.5038980916142,"[4, 0, 250]",250,a,0.239604925038293,1,colour,0.5,3.9
67,22,0,2,8,5,355,535.0234153307974,535.7198687074706,"[30, 0, 224]",224,a,0.1742441994138062,1,colour,0.5,3.9
67,22,0,2,8,6,356,536.2266017030925,537.0158909014426,"[26, 0, 228]",228,a,0.2670556027442217,1,colour,0.5,3.9
67,22,0,2,8,7,357,537.5235328939743,538.3519018630031,"[39, 0, 215]",215,a,0.30603376124054193,1,colour,0.5,3.9
67,22,0,2,8,8,358,538.8674550415017,539.6559057417326,"[46, 0, 208]",208,a,0.2661785075906664,1,colour,0.5,3.9
67,22,0,2,8,9,359,540.1644126200117,540.9038688682485,"[92, 0, 162]",162,l,0.21787525550462306,1,colour,0.5,3.9
67,22,0,2,8,10,360,541.4145407185424,542.1679127300158,"[80, 0, 174]",174,l,0.2316437205299735,1,colour,0.5,3.9
67,22,0,2,8,11,361,542.6802363707684,543.5839075280819,"[64, 0, 190]",190,l,0.3814974264241755,1,colour,0.5,3.9
67,22,0,2,8,12,362,544.1022928538732,544.6478870355058,"[14, 0, 240]",240,a,0.02332868450321257,1,colour,0.5,3.9
67,22,0,2,8,13,363,545.1648013461381,547.0398544659838,"[17, 0, 237]",237,a,1.353424078086391,1,colour,0.5,3.9
67,22,0,2,8,14,364,547.5556230782531,548.2878758818842,"[53, 0, 201]",201,a,0.2099695832002908,0,colour,0.5,3.9
67,22,0,2,8,15,365,548.8056885553524,549.4558677750174,"[86, 0, 168]",168,l,0.12780699040740728,1,colour,0.5,3.9
67,22,0,2,8,16,366,549.9620934966952,550.5518858728465,"[76, 0, 178]",178,l,0.06744810962118208,1,colour,0.5,3.9
67,22,0,2,8,17,367,551.0715035428293,551.7198746153153,"[23, 0, 231]",231,a,0.12611581524834037,1,colour,0.5,3.9
67,22,0,2,8,18,368,552.227862798376,552.8959009682294,"[81, 0, 173]",173,l,0.14579236507415771,1,colour,0.5,3.9
67,22,0,2,8,19,369,553.4154654690064,554.0238922785502,"[45, 0, 209]",209,a,0.08678201376460493,1,colour,0.5,3.9
67,22,0,2,8,20,370,554.5406202997547,555.1839347823989,"[40, 0, 214]",214,a,0.12114153942093253,1,colour,0.5,3.9
67,22,0,2,8,21,371,555.6969704965595,556.271885337308,"[93, 0, 161]",161,l,0.05284547875635326,1,colour,0.5,3.9
67,22,0,2,8,22,372,556.7908318934496,557.4958600869868,"[94, 0, 160]",160,l,0.18416439439170063,1,colour,0.5,3.9
67,22,0,2,8,23,373,558.009453093633,558.6159177618101,"[31, 0, 223]",223,a,0.08441657410003245,1,colour,0.5,3.9
67,22,0,2,8,24,374,559.1346902381629,559.767900205683,"[50, 0, 204]",204,a,0.11138557805679739,1,colour,0.5,3.9
67,22,0,2,8,25,375,560.2752775335684,560.8718645421322,"[25, 0, 229]",229,a,0.0745566375553608,1,colour,0.5,3.9
67,22,0,2,8,26,376,561.3848931672983,562.3759130828548,"[0, 0, 254]",254,a,0.47003205493092537,1,colour,0.5,3.9
67,22,0,2,8,27,377,562.8848429520149,563.6158882232849,"[36, 0, 218]",218,a,0.20925593399442732,1,colour,0.5,3.9
67,22,0,2,8,28,378,564.1348654995672,564.8799116052687,"[56, 0, 198]",198,l,0.22325282986275852,1,colour,0.5,3.9
67,22,0,2,8,29,379,565.384960514959,566.0638967996929,"[65, 0, 189]",189,l,0.15728991362266243,1,colour,0.5,3.9
67,22,0,2,8,30,380,566.5725816965569,567.2320281143766,"[52, 0, 202]",202,a,0.13738965918309987,0,colour,0.5,3.9
67,22,0,2,8,31,381,567.7445439519361,568.4159152412321,"[84, 0, 170]",170,l,0.14981550280936062,1,colour,0.5,3.9
67,22,0,2,8,32,382,568.9321856133174,569.5679059559479,"[98, 0, 156]",156,l,0.11353322071954608,1,colour,0.5,3.9
67,22,0,2,8,33,383,570.0733309886418,570.6640134570189,"[37, 0, 217]",217,a,0.06878600502386689,1,colour,0.5,3.9
67,22,0,2,8,34,384,571.1824086287525,571.8398763639852,"[75, 0, 179]",179,l,0.1356748533435166,1,colour,0.5,3.9
67,22,0,2,8,35,385,572.3544476840179,572.9918934663292,"[78, 0, 176]",176,l,0.11618026020005345,1,colour,0.5,3.9
67,22,0,2,8,36,386,573.5106273456477,574.1599129284732,"[9, 0, 245]",245,a,0.12690823338925838,1,colour,0.5,3.9
67,22,0,2,8,37,387,574.6671008164994,575.343903243076,"[66, 0, 188]",188,l,0.15470707113854587,1,colour,0.5,3.9
67,22,0,2,8,38,388,575.8547412962653,576.4799057764467,"[43, 0, 211]",211,a,0.10286117368377745,1,colour,0.5,3.9
67,22,0,2,8,39,389,576.9954896748532,577.6238710894249,"[71, 0, 183]",183,l,0.10619192966260016,1,colour,0.5,3.9
67,22,0,2,8,40,390,578.1362518379465,578.7278555121738,"[8, 0, 246]",246,a,0.06937677413225174,1,colour,0.5,3.9
67,22,0,2,8,41,391,579.2456768502016,579.9198980096262,"[70, 0, 184]",184,l,0.15205412381328642,1,colour,0.5,3.9
67,22,0,2,8,42,392,580.4332736132201,581.0638522952795,"[3, 0, 251]",251,a,0.10839077248238027,1,colour,0.5,3.9
67,22,0,2,8,43,393,581.5739447977394,582.271908574272,"[91, 0, 163]",163,l,0.1756730731576681,1,colour,0.5,3.9
67,22,0,2,8,44,394,582.7771583455615,583.4558748642448,"[60, 0, 194]",194,l,0.15644826460629702,1,colour,0.5,3.9
67,22,0,2,8,45,395,583.9647582592443,584.5679012297187,"[13, 0, 241]",241,a,0.08107085176743567,1,colour,0.5,3.9
67,22,0,2,8,46,396,585.0742065084632,585.7358777627815,"[16, 0, 238]",238,a,0.1394254493061453,1,colour,0.5,3.9
67,22,0,2,8,47,397,586.2461400132161,586.9438836295158,"[48, 0, 206]",206,a,0.17538398993201554,1,colour,0.5,3.9
67,22,0,2,8,48,398,587.4493208716158,588.0559064506087,"[19, 0, 235]",235,a,0.0842594294808805,1,colour,0.5,3.9
67,22,0,2,8,49,399,588.5745355668478,589.2399003098253,"[35, 0, 219]",219,a,0.14314611349254847,1,colour,0.5,3.9
67,22,0,2,8,50,400,589.7463997546583,590.4718693471514,"[54, 0, 200]",200,l,0.20312926452606916,1,colour,0.5,3.9
67,22,0,2,9,1,401,595.1992845393252,595.8478832545225,"[88, 0, 166]",166,l,0.12554552592337132,1,colour,0.5,3.9
67,22,0,2,9,2,402,596.3563704406843,597.2958422063384,"[79, 0, 175]",175,l,0.41697705001570284,1,colour,0.5,3.9
67,22,0,2,9,3,403,597.809633711353,598.5199193560984,"[62, 0, 192]",192,l,0.1880114828236401,1,colour,0.5,3.9
67,22,0,2,9,4,404,599.0284120559227,599.6158708941657,"[37, 0, 217]",217,a,0.06516734720207751,1,colour,0.5,3.9
67,22,0,2,9,5,405,600.1222395822406,600.6638559186831,"[82, 0, 172]",172,l,0.019406765466555953,1,colour,0.5,3.9
67,22,0,2,9,6,406,601.1693022190593,601.8078688872047,"[29, 0, 225]",225,a,0.11682498641312122,1,colour,0.5,3.9
67,22,0,2,9,7,407,602.3255177205428,602.9838499478064,"[67, 0, 187]",187,l,0.1359867793507874,1,colour,0.5,3.9
67,22,0,2,9,8,408,603.4981250958517,604.1838926407509,"[83, 0, 171]",171,l,0.1642322384286672,1,colour,0.5,3.9
67,22,0,2,9,9,409,604.7008333390113,605.3918599106837,"[18, 0, 236]",236,a,0.16872877907007933,1,colour,0.5,3.9
67,22,0,2,9,10,410,605.9039878097828,606.5918758220505,"[72, 0, 182]",182,l,0.16566820139996707,1,colour,0.5,3.9
67,22,0,2,9,11,411,607.1072868220508,607.7118669368792,"[89, 0, 165]",165,l,0.08239693148061633,1,colour,0.5,3.9
67,22,0,2,9,12,412,608.2323372834362,608.8718535145745,"[10, 0, 244]",244,a,0.11746931844390929,1,colour,0.5,3.9
67,22,0,2,9,13,413,609.3886922067031,609.9838755477685,"[1, 0, 253]",253,a,0.07301748706959188,1,colour,0.5,3.9
67,22,0,2,9,14,414,610.4980987082236,611.0878690290265,"[13, 0, 241]",241,a,0.06771513749845326,1,colour,0.5,3.9
67,22,0,2,9,15,415,611.6075816159137,612.2238589590415,"[65, 0, 189]",189,l,0.09398388303816319,1,colour,0.5,3.9
67,22,0,2,9,16,416,612.7327458988875,613.3518983183894,"[17, 0, 237]",237,a,0.09702516230754554,1,colour,0.5,3.9
67,22,0,2,9,17,417,613.8577672156971,614.4718689532019,"[61, 0, 193]",193,l,0.09181851730681956,1,colour,0.5,3.9
67,22,0,2,9,18,418,614.9828456402756,615.6078935419209,"[16, 0, 238]",238,a,0.10283833043649793,1,colour,0.5,3.9
67,22,0,2,9,19,419,616.1234471141361,616.7598799243569,"[63, 0, 191]",191,l,0.11406963923946023,1,colour,0.5,3.9
67,22,0,2,9,20,420,617.279977692524,617.9438840234652,"[32, 0, 222]",222,a,0.14171881531365216,1,colour,0.5,3.9
67,22,0,2,9,21,421,618.451864723349,619.119892259594,"[99, 0, 155]",155,l,0.14574116514995694,1,colour,0.5,3.9
67,22,0,2,9,22,422,619.6394118617754,620.2638642680831,"[31, 0, 223]",223,a,0.10218651522882283,1,colour,0.5,3.9
67,22,0,2,9,23,423,620.7801893849391,621.4558709256817,"[25, 0, 229]",229,a,0.15343455434776843,1,colour,0.5,3.9
67,22,0,2,9,24,424,621.9677231325768,622.6238699080423,"[76, 0, 178]",178,l,0.13384110596962273,1,colour,0.5,3.9
67,22,0,2,9,25,425,623.1397338309325,623.8398842408787,"[39, 0, 215]",215,a,0.1779644696507603,1,colour,0.5,3.9
67,22,0,2,9,26,426,624.3585484095383,624.9998609723989,"[35, 0, 219]",219,a,0.11909432732500136,1,colour,0.5,3.9
67,22,0,2,9,27,427,625.5154039107729,626.1838831885252,"[4, 0, 250]",250,a,0.14686008193530142,1,colour,0.5,3.9
67,22,0,2,9,28,428,626.7025501141325,627.3198605156504,"[12, 0, 242]",242,a,0.09508783370256424,1,colour,0.5,3.9
67,22,0,2,9,29,429,627.8276368093211,628.4318778226152,"[59, 0, 195]",195,l,0.08196527604013681,1,colour,0.5,3.9
67,22,0,2,9,30,430,628.9370748186484,629.5118829270359,"[8, 0, 246]",246,a,0.05256309127435088,1,colour,0.5,3.9
67,22,0,2,9,31,431,630.0308881662786,630.5998508110642,"[56, 0, 198]",198,l,0.04686531983315945,1,colour,0.5,3.9
67,22,0,2,9,32,432,631.1091308093164,631.7198572859634,"[84, 0, 170]",170,l,0.08852753951214254,1,colour,0.5,3.9
67,22,0,2,9,33,433,632.2342754001729,633.3518640538678,"[80, 0, 174]",174,l,0.5953905042260885,1,colour,0.5,3.9
67,22,0,2,9,34,434,633.859332753811,634.6158866479527,"[14, 0, 240]",240,a,0.23437307379208505,1,colour,0.5,3.9
67,22,0,2,9,35,435,635.1250851200894,635.7198793413118,"[21, 0, 233]",233,a,0.0726078872103244,1,colour,0.5,3.9
67,22,0,2,9,36,436,636.2345321876928,636.8878787176218,"[6, 0, 248]",248,a,0.13106449111364782,1,colour,0.5,3.9
67,22,0,2,9,37,437,637.4064621478319,638.063875138294,"[53, 0, 201]",201,l,0.1351230749860406,1,colour,0.5,3.9
67,22,0,2,9,38,438,638.578292070888,639.2398959775455,"[11, 0, 243]",243,a,0.13914503110572696,1,colour,0.5,3.9
67,22,0,2,9,39,439,639.7503732678015,640.3278563786298,"[98, 0, 156]",156,l,0.055091189220547676,1,colour,0.5,3.9
67,22,0,2,9,40,440,640.8442866522819,641.5198839099612,"[66, 0, 188]",188,l,0.153276622062549,1,colour,0.5,3.9
67,22,0,2,9,41,441,642.0318960184231,642.7198627998587,"[69, 0, 185]",185,l,0.16589269344694912,1,colour,0.5,3.9
67,22,0,2,9,42,442,643.2350441876333,643.9118568543345,"[20, 0, 234]",234,a,0.1544546156655997,1,colour,0.5,3.9
67,22,0,2,9,43,443,644.4225204337854,645.0479058614001,"[58, 0, 196]",196,l,0.10303446580655873,1,colour,0.5,3.9
67,22,0,2,9,44,444,645.5633400983643,646.2478689975105,"[42, 0, 212]",212,a,0.1623134205583483,1,colour,0.5,3.9
67,22,0,2,9,45,445,646.7665867290925,647.4238662058488,"[94, 0, 160]",160,l,0.13504745648242533,1,colour,0.5,3.9
67,22,0,2,9,46,446,647.9385974274483,648.5519181683194,"[22, 0, 232]",232,a,0.0910406713373959,1,colour,0.5,3.9
67,22,0,2,9,47,447,649.0637124797795,649.7438881981652,"[85, 0, 169]",169,l,0.15800316887907684,1,colour,0.5,3.9
67,22,0,2,9,48,448,650.2512434707023,650.8638804946095,"[7, 0, 247]",247,a,0.09028566838242114,1,colour,0.5,3.9
67,22,0,2,9,49,449,651.3763081105426,652.087892659707,"[68, 0, 186]",186,l,0.1892394949682057,1,colour,0.5,3.9
67,22,0,2,9,50,450,652.5951880675275,653.2398455650546,"[41, 0, 213]",213,a,0.1223754589445889,1,colour,0.5,3.9
67,22,0,2,10,1,451,660.5794381629676,661.3118634710554,"[38, 0, 216]",216,a,0.2094816081225872,1,colour,0.5,3.9
67,22,0,2,10,2,452,661.830332292011,662.3838561705779,"[2, 0, 252]",252,a,0.031340301502496004,1,colour,0.5,3.9
67,22,0,2,10,3,453,662.8930069874041,663.5758915790357,"[15, 0, 239]",239,a,0.1607407929841429,1,colour,0.5,3.9
67,22,0,2,10,4,454,664.0962532241829,664.7438842598349,"[29, 0, 225]",225,a,0.12558648618869483,1,colour,0.5,3.9
67,22,0,2,10,5,455,665.252462424105,665.9118710327893,"[4, 0, 250]",250,a,0.13727229298092425,1,colour,0.5,3.9
67,22,0,2,10,6,456,666.4243959288578,667.0319074399304,"[77, 0, 177]",177,l,0.0851723647210747,1,colour,0.5,3.9
67,22,0,2,10,7,457,667.5494723841548,668.1598558209371,"[34, 0, 220]",220,a,0.0881384196691215,1,colour,0.5,3.9
67,22,0,2,10,8,458,668.6745011841413,669.3438804000616,"[86, 0, 168]",168,l,0.14694475871510804,1,colour,0.5,3.9
67,22,0,2,10,9,459,669.8620625010226,670.5438447175547,"[54, 0, 200]",200,l,0.159454885404557,1,colour,0.5,3.9
67,22,0,2,10,10,460,671.0498333440628,671.6558817171026,"[39, 0, 215]",215,a,0.08379626669920981,1,colour,0.5,3.9
67,22,0,2,10,11,461,672.1748475718778,672.8078566777986,"[75, 0, 179]",179,l,0.11127175646834075,1,colour,0.5,3.9
67,22,0,2,10,12,462,673.3155557778664,673.9438470019959,"[31, 0, 223]",223,a,0.10624628071673214,1,colour,0.5,3.9
67,22,0,2,10,13,463,674.4562171164434,675.0318723877426,"[56, 0, 198]",198,l,0.05336141726002097,1,colour,0.5,3.9
67,22,0,2,10,14,464,675.5501883963589,676.1758829930332,"[33, 0, 221]",221,a,0.10344879189506173,1,colour,0.5,3.9
67,22,0,2,10,15,465,676.6908839994576,677.295877258759,"[93, 0, 161]",161,l,0.08279510983265936,1,colour,0.5,3.9
67,22,0,2,10,16,466,677.8159159501083,678.4478845149279,"[87, 0, 167]",167,l,0.10993071063421667,1,colour,0.5,3.9
67,22,0,2,10,17,467,678.9565883162431,679.6478614355437,"[95, 0, 159]",159,l,0.16902888985350728,1,colour,0.5,3.9
67,22,0,2,10,18,468,680.1598203747999,680.8078688872047,"[13, 0, 241]",241,a,0.12576765520498157,1,colour,0.5,3.9
67,22,0,2,10,19,469,681.3162186208647,682.0398824291769,"[59, 0, 195]",195,l,0.20146999112330377,1,colour,0.5,3.9
67,22,0,2,10,20,470,682.5507590794004,683.8318690792657,"[83, 0, 171]",171,l,0.7589528104290366,1,colour,0.5,3.9
67,22,0,2,10,21,471,684.3477219745982,685.0638554459438,"[25, 0, 229]",229,a,0.19395895255729556,1,colour,0.5,3.9
67,22,0,2,10,22,472,685.5821584577207,686.2318792406004,"[41, 0, 213]",213,a,0.12769238115288317,1,colour,0.5,3.9
67,22,0,2,10,23,473,686.7385570977349,687.455852414947,"[0, 0, 254]",254,a,0.19505423842929304,1,colour,0.5,3.9
67,22,0,2,10,24,474,687.9729987008031,688.6159201250412,"[58, 0, 196]",196,l,0.12065907777287066,1,colour,0.5,3.9
67,22,0,2,10,25,475,689.1292878515087,689.7278531489428,"[71, 0, 183]",183,l,0.07627301872707903,1,colour,0.5,3.9
67,22,0,2,10,26,476,690.2388192021754,690.8718708436936,"[48, 0, 206]",206,a,0.11089839041233063,1,colour,0.5,3.9
67,22,0,2,10,27,477,691.3795250453986,691.9518550741486,"[35, 0, 219]",219,a,0.0500976147595793,1,colour,0.5,3.9
67,22,0,2,10,28,478,692.457662925357,693.0558859705925,"[42, 0, 212]",212,a,0.07592643424868584,1,colour,0.5,3.9
67,22,0,2,10,29,479,693.5672202699352,694.1838902777527,"[17, 0, 237]",237,a,0.09438875690102577,1,colour,0.5,3.9
67,22,0,2,10,30,480,694.692239617696,695.287847131025,"[91, 0, 163]",163,l,0.07329199789091945,1,colour,0.5,3.9
67,22,0,2,10,31,481,695.8017508822959,696.4878571347799,"[69, 0, 185]",185,l,0.1639415801037103,1,colour,0.5,3.9
67,22,0,2,10,32,482,697.0049600976054,697.5918187142815,"[65, 0, 189]",189,l,0.06450214120559394,1,colour,0.5,3.9
67,22,0,2,10,33,483,698.0987277589738,698.7120689798612,"[46, 0, 208]",208,a,0.09086462203413248,1,colour,0.5,3.9
67,22,0,2,10,34,484,699.2239400914405,699.8078515578527,"[81, 0, 173]",173,l,0.06163139711134136,1,colour,0.5,3.9
67,22,0,2,10,35,485,700.3177593466826,700.8798954575323,"[85, 0, 169]",169,l,0.039922601310536265,1,colour,0.5,3.9
67,22,0,2,10,36,486,701.3959291281644,701.9918816508725,"[11, 0, 243]",243,a,0.07373310555703938,1,colour,0.5,3.9
67,22,0,2,10,37,487,702.5053994329646,703.1038556350395,"[98, 0, 156]",156,l,0.07618597894906998,1,colour,0.5,3.9
67,22,0,2,10,38,488,703.6148476819508,704.2798327573109,"[26, 0, 228]",228,a,0.14294131333008409,1,colour,0.5,3.9
67,22,0,2,10,39,489,704.7867961528245,705.7758488073014,"[70, 0, 184]",184,l,0.4667847943492234,1,colour,0.5,3.9
67,22,0,2,10,40,490,706.2868865404744,706.8958670974243,"[94, 0, 160]",160,l,0.08661856758408248,1,colour,0.5,3.9
67,22,0,2,10,41,491,707.4120748480782,708.023870222969,"[57, 0, 197]",197,a,0.08953460375778377,0,colour,0.5,3.9
67,22,0,2,10,42,492,708.5370307865087,709.2158709729556,"[36, 0, 218]",218,a,0.1564711076207459,1,colour,0.5,3.9
67,22,0,2,10,43,493,709.7247563372366,710.3358569678385,"[60, 0, 194]",194,a,0.0888185917865485,0,colour,0.5,3.9
67,22,0,2,10,44,494,710.8497878941707,711.4958498470951,"[47, 0, 207]",207,a,0.1238090586848557,1,colour,0.5,3.9
67,22,0,2,10,45,495,712.0061802326236,712.647872857051,"[96, 0, 158]",158,l,0.11949605029076338,1,colour,0.5,3.9
67,22,0,2,10,46,496,713.162411488127,713.7518753965851,"[82, 0, 172]",172,l,0.06715587596409023,1,colour,0.5,3.9
67,22,0,2,10,47,497,714.2719247220084,714.8158927131444,"[23, 0, 231]",231,a,0.02171982335858047,1,colour,0.5,3.9
67,22,0,2,10,48,498,715.3345486111939,715.9198810742237,"[88, 0, 166]",166,l,0.06307405512779951,1,colour,0.5,3.9
67,22,0,2,10,49,499,716.4283300573006,717.0238481676206,"[7, 0, 247]",247,a,0.07321519777178764,1,colour,0.5,3.9
67,22,0,2,10,50,500,717.5377810634673,718.1518359333277,"[18, 0, 236]",236,a,0.09193627745844424,1,colour,0.5,3.9
67,22,0,2,11,1,501,722.5530339342076,723.2078849561512,"[31, 0, 223]",223,a,0.1316745588555932,1,colour,0.5,3.9
67,22,0,2,11,2,502,723.7258815555833,724.6878092430998,"[10, 0, 244]",244,a,0.4396771565079689,1,colour,0.5,3.9
67,22,0,2,11,3,503,725.194652909413,725.8718814775348,"[52, 0, 202]",202,l,0.15498315705917776,1,colour,0.5,3.9
67,22,0,2,11,4,504,726.3822870878503,727.0078387185931,"[80, 0, 174]",174,l,0.10354252741672099,1,colour,0.5,3.9
67,22,0,2,11,5,505,727.5229232201818,728.1038481518626,"[4, 0, 250]",250,a,0.05857712076976895,1,colour,0.5,3.9
67,22,0,2,11,6,506,728.6168826846406,729.2718554050662,"[62, 0, 192]",192,l,0.13272927864454687,1,colour,0.5,3.9
67,22,0,2,11,7,507,729.7888307615649,730.5118336961605,"[55, 0, 199]",199,l,0.2007212897296995,1,colour,0.5,3.9
67,22,0,2,11,8,508,731.0233483770862,731.6318677403033,"[9, 0, 245]",245,a,0.08637517062015831,1,colour,0.5,3.9
67,22,0,2,11,9,509,732.1483783584554,732.7598405396566,"[6, 0, 248]",248,a,0.08944323169998825,1,colour,0.5,3.9
67,22,0,2,11,10,510,733.2734819892794,733.9278647280298,"[57, 0, 197]",197,l,0.13211999856866896,1,colour,0.5,3.9
67,22,0,2,11,11,511,734.4453367246315,735.1038769027218,"[66, 0, 188]",188,l,0.13622820703312755,1,colour,0.5,3.9
67,22,0,2,11,12,512,735.617408863036,736.3118681970518,"[23, 0, 231]",231,a,0.17215169523842633,1,colour,0.5,3.9
67,22,0,2,11,13,513,736.8206098077353,737.4558567472268,"[69, 0, 185]",185,l,0.11297553475014865,1,colour,0.5,3.9
67,22,0,2,11,14,514,737.9612518476788,738.6318752232473,"[26, 0, 228]",228,a,0.14827044447883964,1,colour,0.5,3.9
67,22,0,2,11,15,515,739.1489699154627,739.6958456721622,"[83, 0, 171]",171,l,0.0248772872146219,1,colour,0.5,3.9
67,22,0,2,11,16,516,740.2115666291211,740.8158387562726,"[33, 0, 221]",221,a,0.08207437139935791,1,colour,0.5,3.9
67,22,0,2,11,17,517,741.32130711223,741.9678546772338,"[15, 0, 239]",239,a,0.12471372331492603,1,colour,0.5,3.9
67,22,0,2,11,18,518,742.4772989090998,743.1758908701595,"[45, 0, 209]",209,l,0.1763181930873543,0,colour,0.5,3.9
67,22,0,2,11,19,519,743.6805601122323,744.2478335513733,"[85, 0, 169]",169,l,0.04507135134190321,1,colour,0.5,3.9
67,22,0,2,11,20,520,744.7586909029633,745.3038806049153,"[95, 0, 159]",159,l,0.022815503180027008,1,colour,0.5,3.9
67,22,0,2,11,21,521,745.8213490566704,746.4238457258325,"[29, 0, 225]",225,a,0.08033593487925828,1,colour,0.5,3.9
67,22,0,2,11,22,522,746.9308036074508,747.4878606793936,"[75, 0, 179]",179,l,0.03493414702825248,1,colour,0.5,3.9
67,22,0,2,11,23,523,747.9932660199702,748.599838601891,"[60, 0, 194]",194,l,0.08494866010732949,1,colour,0.5,3.9
67,22,0,2,11,24,524,749.1184775645379,749.7678529443219,"[34, 0, 220]",220,a,0.1272556057665497,1,colour,0.5,3.9
67,22,0,2,11,25,525,750.2748612381984,750.8238495856058,"[73, 0, 181]",181,l,0.026663379510864615,1,colour,0.5,3.9
67,22,0,2,11,26,526,751.3373819398694,751.9758434509858,"[54, 0, 200]",200,a,0.1162401249166578,0,colour,0.5,3.9
67,22,0,2,11,27,527,752.4937557673547,753.0958554395474,"[68, 0, 186]",186,l,0.08072702400386333,1,colour,0.5,3.9
67,22,0,2,11,28,528,753.6031910197344,754.2158642774448,"[19, 0, 235]",235,a,0.09036955749616027,1,colour,0.5,3.9
67,22,0,2,11,29,529,754.7282505396288,755.3438733108342,"[25, 0, 229]",229,a,0.09335412317886949,1,colour,0.5,3.9
67,22,0,2,11,30,530,755.8533266012091,756.4558303595986,"[78, 0, 176]",176,l,0.08021423663012683,1,colour,0.5,3.9
67,22,0,2,11,31,531,756.9628114781808,757.5838405743707,"[35, 0, 219]",219,a,0.09879234991967678,1,colour,0.5,3.9
67,22,0,2,11,32,532,758.1035220474005,758.6638311061542,"[97, 0, 157]",157,l,0.03793840482831001,1,colour,0.5,3.9
67,22,0,2,11,33,533,759.1815862781368,759.7598464472685,"[42, 0, 212]",212,a,0.05607698578387499,1,colour,0.5,3.9
67,22,0,2,11,34,534,760.2755784320179,760.8958690667059,"[13, 0, 241]",241,a,0.09817794989794493,1,colour,0.5,3.9
67,22,0,2,11,35,535,761.4007328688167,762.3678384507075,"[43, 0, 211]",211,a,0.44491255236789584,1,colour,0.5,3.9
67,22,0,2,11,36,536,762.8852108041756,763.5599589298945,"[94, 0, 160]",160,l,0.15247672074474394,1,colour,0.5,3.9
67,22,0,2,11,37,537,764.0727654257789,764.6398466678802,"[14, 0, 240]",240,a,0.04478935734368861,1,colour,0.5,3.9
67,22,0,2,11,38,538,765.1509777426254,765.8638170852792,"[11, 0, 243]",243,a,0.190511223860085,1,colour,0.5,3.9
67,22,0,2,11,39,539,766.3698017734569,767.0798546550795,"[20, 0, 234]",234,a,0.1877204307820648,1,colour,0.5,3.9
67,22,0,2,11,40,540,767.5886596748605,768.2638343358412,"[63, 0, 191]",191,l,0.152891440782696,1,colour,0.5,3.9
67,22,0,2,11,41,541,768.7762194164097,769.4638703332748,"[51, 0, 203]",203,l,0.1653984165750444,1,colour,0.5,3.9
67,22,0,2,11,42,542,769.9793908225838,770.6638421339449,"[79, 0, 175]",175,l,0.1621239804662764,1,colour,0.5,3.9
67,22,0,2,11,43,543,771.1826027948409,771.903870049864,"[93, 0, 161]",161,l,0.19894819473847747,1,colour,0.5,3.9
67,22,0,2,11,44,544,772.4171582194977,773.0878591828514,"[87, 0, 167]",167,l,0.14844216173514724,1,colour,0.5,3.9
67,22,0,2,11,45,545,773.6047927916516,774.3198246755637,"[2, 0, 252]",252,a,0.1928691805806011,1,colour,0.5,3.9
67,22,0,2,11,46,546,774.839147354709,775.3758685784414,"[1, 0, 253]",253,a,0.014382865047082305,1,colour,0.5,3.9
67,22,0,2,11,47,547,775.8861800595187,776.5198622485623,"[91, 0, 163]",163,l,0.11143953516148031,1,colour,0.5,3.9
67,22,0,2,11,48,548,777.0269118964206,777.7359726796858,"[65, 0, 189]",189,l,0.18675314472056925,1,colour,0.5,3.9
67,22,0,2,11,49,549,778.245797367068,779.1678063916042,"[38, 0, 216]",216,a,0.399771096650511,1,colour,0.5,3.9
67,22,0,2,11,50,550,779.6834470038302,780.3198691802099,"[41, 0, 213]",213,a,0.11403498076833785,1,colour,0.5,3.9
67,22,0,2,12,1,551,788.6833898962941,789.3758540060371,"[94, 0, 160]",160,l,0.1693865021225065,1,colour,0.5,3.9
67,22,0,2,12,2,552,789.8874537576921,790.591849828139,"[52, 0, 202]",202,l,0.18216483807191253,1,colour,0.5,3.9
67,22,0,2,12,3,553,791.1061927175615,791.8558637576643,"[89, 0, 165]",165,l,0.2273125951178372,1,colour,0.5,3.9
67,22,0,2,12,4,554,792.3719671391882,793.1438014733139,"[86, 0, 168]",168,l,0.24957828945480287,1,colour,0.5,3.9
67,22,0,2,12,5,555,793.6532547636889,794.3838601091411,"[81, 0, 173]",173,l,0.20824296213686466,1,colour,0.5,3.9
67,22,0,2,12,6,556,794.9033757729921,795.8398322530556,"[34, 0, 220]",220,a,0.41415199218317866,1,colour,0.5,3.9
67,22,0,2,12,7,557,796.3566933944821,797.0798148766626,"[58, 0, 196]",196,l,0.20087016350589693,1,colour,0.5,3.9
67,22,0,2,12,8,558,797.5911420867778,798.343869372271,"[1, 0, 253]",253,a,0.2306618622969836,1,colour,0.5,3.9
67,22,0,2,12,9,559,798.856888151262,799.6478519833181,"[41, 0, 213]",213,a,0.2687806487083435,1,colour,0.5,3.9
67,22,0,2,12,10,560,800.1538181605283,800.8318202423397,"[87, 0, 167]",167,l,0.15576769853942096,1,colour,0.5,3.9
67,22,0,2,12,11,561,801.3414078343194,801.9998208000325,"[84, 0, 170]",170,l,0.13618606538511813,1,colour,0.5,3.9
67,22,0,2,12,12,562,802.5133767852094,803.1838312007021,"[11, 0, 243]",243,a,0.14815741078928113,1,colour,0.5,3.9
67,22,0,2,12,13,563,803.7009349511936,804.3918567597866,"[53, 0, 201]",201,l,0.16859880974516273,1,colour,0.5,3.9
67,22,0,2,12,14,564,804.9041536189616,805.4798656040803,"[19, 0, 235]",235,a,0.053432703483849764,1,colour,0.5,3.9
67,22,0,2,12,15,565,805.9980358895846,806.5278533853125,"[44, 0, 210]",210,a,0.007760736858472228,1,colour,0.5,3.9
67,22,0,2,12,16,566,807.0451154620387,807.6878372060601,"[26, 0, 228]",228,a,0.12061929912306368,1,colour,0.5,3.9
67,22,0,2,12,17,567,808.201335295802,808.759863382671,"[21, 0, 233]",233,a,0.036207451252266765,1,colour,0.5,3.9
67,22,0,2,12,18,568,809.2795460373163,809.8798308668192,"[10, 0, 244]",244,a,0.0780224830377847,1,colour,0.5,3.9
67,22,0,2,12,19,569,810.3889076404739,811.0238568321802,"[69, 0, 185]",185,l,0.11260492540895939,1,colour,0.5,3.9
67,22,0,2,12,20,570,811.5296757111792,812.1038572103716,"[76, 0, 178]",178,l,0.05250165122561157,1,colour,0.5,3.9
67,22,0,2,12,21,571,812.6235993357841,813.2638504835777,"[39, 0, 215]",215,a,0.11809986596927047,1,colour,0.5,3.9
67,22,0,2,12,22,572,813.7798494957387,814.3438677969389,"[33, 0, 221]",221,a,0.04170672409236431,1,colour,0.5,3.9
67,22,0,2,12,23,573,814.8580948957242,815.5438600776251,"[51, 0, 203]",203,a,0.16349141392856836,0,colour,0.5,3.9
67,22,0,2,12,24,574,816.0612950525247,816.6958212538157,"[47, 0, 207]",207,a,0.11224101181142032,1,colour,0.5,3.9
67,22,0,2,12,25,575,817.2019894742407,817.855842489982,"[56, 0, 198]",198,a,0.13148118020035326,0,colour,0.5,3.9
67,22,0,2,12,26,576,818.3739922957029,818.9918710170314,"[23, 0, 231]",231,a,0.09558211034163833,1,colour,0.5,3.9
67,22,0,2,12,27,577,819.498908061767,820.1518209672067,"[59, 0, 195]",195,l,0.13067261432297528,1,colour,0.5,3.9
67,22,0,2,12,28,578,820.6710873264819,821.7118271584623,"[60, 0, 194]",194,l,0.5188031964935362,1,colour,0.5,3.9
67,22,0,2,12,29,579,822.2180473662447,822.8718672990799,"[38, 0, 216]",216,a,0.13149693398736417,1,colour,0.5,3.9
67,22,0,2,12,30,580,823.3900100155734,824.0398213830777,"[22, 0, 232]",232,a,0.12754035647958517,1,colour,0.5,3.9
67,22,0,2,12,31,581,824.5463038925081,825.1838540439494,"[43, 0, 211]",211,a,0.11533427890390158,1,colour,0.5,3.9
67,22,0,2,12,32,582,825.7027474308852,826.255823506508,"[4, 0, 250]",250,a,0.030826332280412316,1,colour,0.5,3.9
67,22,0,2,12,33,583,826.7653130309191,827.4318096872885,"[82, 0, 172]",172,l,0.14453757158480585,1,colour,0.5,3.9
67,22,0,2,12,34,584,827.9371677662712,828.6318602571264,"[72, 0, 182]",182,l,0.17232065531425178,1,colour,0.5,3.9
67,22,0,2,12,35,585,829.1404498431366,829.8238137455191,"[48, 0, 206]",206,l,0.16113345744088292,0,colour,0.5,3.9
67,22,0,2,12,36,586,830.3435822585598,831.1038268841803,"[9, 0, 245]",245,a,0.23797203926369548,1,colour,0.5,3.9
67,22,0,2,12,37,587,831.6094665632118,832.247852062108,"[97, 0, 157]",157,l,0.11608179868198931,1,colour,0.5,3.9
67,22,0,2,12,38,588,832.765823849244,833.4798530009575,"[55, 0, 199]",199,l,0.19207124831154943,1,colour,0.5,3.9
67,22,0,2,12,39,589,833.9846482737921,834.6958563060034,"[49, 0, 205]",205,a,0.188996885670349,1,colour,0.5,3.9
67,22,0,2,12,40,590,835.2033730554394,835.9038223943207,"[68, 0, 186]",186,l,0.17810389096848667,1,colour,0.5,3.9
67,22,0,2,12,41,591,836.4222640399821,837.0478306368459,"[95, 0, 159]",159,l,0.10327668115496635,1,colour,0.5,3.9
67,22,0,2,12,42,592,837.5630730707198,838.2558561959304,"[30, 0, 224]",224,a,0.17066492652520537,1,colour,0.5,3.9
67,22,0,2,12,43,593,838.7662070614751,839.5758494373877,"[57, 0, 197]",197,l,0.28751196805387735,1,colour,0.5,3.9
67,22,0,2,12,44,594,840.0951283997856,840.7278106135782,"[40, 0, 214]",214,a,0.11109295045025647,1,colour,0.5,3.9
67,22,0,2,12,45,595,841.2351481630467,841.9038503575139,"[91, 0, 163]",163,l,0.14632326969876885,1,colour,0.5,3.9
67,22,0,2,12,46,596,842.4227787968703,843.1198371211067,"[79, 0, 175]",175,l,0.17488971329294145,1,colour,0.5,3.9
67,22,0,2,12,47,597,843.6259769843891,844.3518455431331,"[13, 0, 241]",241,a,0.20375941833481193,1,colour,0.5,3.9
67,22,0,2,12,48,598,844.860413861461,845.5998023680877,"[24, 0, 230]",230,a,0.21700446191243827,1,colour,0.5,3.9
67,22,0,2,12,49,599,846.1105935536325,846.8718357915059,"[15, 0, 239]",239,a,0.23902794066816568,1,colour,0.5,3.9
67,22,0,2,12,50,600,847.3919603412505,848.1358650811017,"[65, 0, 189]",189,l,0.22157937800511718,1,colour,0.5,3.9
67,22,0,2,13,1,601,858.0170377814211,858.7278121891432,"[27, 0, 227]",227,a,0.18778502149507403,1,colour,0.5,3.9
67,22,0,2,13,2,602,859.2366235104855,860.0398367429152,"[77, 0, 177]",177,l,0.2808914154302329,1,colour,0.5,3.9
67,22,0,2,13,3,603,860.5492971227504,861.3758189538494,"[8, 0, 246]",246,a,0.304546992527321,1,colour,0.5,3.9
67,22,0,2,13,4,604,861.8930837872904,862.8238196531311,"[18, 0, 236]",236,a,0.4085188116878271,1,colour,0.5,3.9
67,22,0,2,13,5,605,863.3307145196013,864.2398046052549,"[89, 0, 165]",165,l,0.3870116653852165,1,colour,0.5,3.9
67,22,0,2,13,6,606,864.7526985348668,865.6638248048257,"[4, 0, 250]",250,a,0.38890724652446806,1,colour,0.5,3.9
67,22,0,2,13,7,607,866.1746813687496,867.0878028627485,"[54, 0, 200]",200,l,0.39141683373600245,1,colour,0.5,3.9
67,22,0,2,13,8,608,867.5967118579429,868.3918189506512,"[30, 0, 224]",224,a,0.2728293864056468,1,colour,0.5,3.9
67,22,0,2,13,9,609,868.9093508117367,869.7278346382082,"[2, 0, 252]",252,a,0.29627740615978837,1,colour,0.5,3.9
67,22,0,2,13,10,610,870.2374297133647,871.0798266921192,"[92, 0, 162]",162,l,0.3200783124193549,1,colour,0.5,3.9
67,22,0,2,13,11,611,871.5969871564303,872.447855370352,"[40, 0, 214]",214,a,0.32868581847287714,1,colour,0.5,3.9
67,22,0,2,13,12,612,872.9564500763081,874.0158448214643,"[99, 0, 155]",155,l,0.5371268847957253,1,colour,0.5,3.9
67,22,0,2,13,13,613,874.5346858270932,875.367822302971,"[15, 0, 239]",239,a,0.3114664740860462,1,colour,0.5,3.9
67,22,0,2,13,14,614,875.8784921839833,876.8318395409733,"[57, 0, 197]",197,l,0.4310519276186824,1,colour,0.5,3.9
67,22,0,2,13,15,615,877.3473580610007,878.1758057991974,"[34, 0, 220]",220,a,0.30625785957090557,1,colour,0.5,3.9
67,22,0,2,13,16,616,878.6913188055623,879.4878886423539,"[97, 0, 157]",157,l,0.27435396425426006,1,colour,0.5,3.9
67,22,0,2,13,17,617,880.003794707125,880.8238377701491,"[3, 0, 251]",251,a,0.2977306982502341,1,colour,0.5,3.9
67,22,0,2,13,18,618,881.3321654484607,882.2238199682906,"[1, 0, 253]",253,a,0.3696304503828287,1,colour,0.5,3.9
67,22,0,2,13,19,619,882.7383751408197,883.6078293449245,"[48, 0, 206]",206,l,0.34731316240504384,0,colour,0.5,3.9
67,22,0,2,13,20,620,884.1134855654091,884.8558641516138,"[36, 0, 218]",218,a,0.22075742133893073,1,colour,0.5,3.9
67,22,0,2,13,21,621,885.3635045685805,886.2245316482149,"[52, 0, 202]",202,l,0.3398080316837877,1,colour,0.5,3.9
67,22,0,2,13,22,622,886.7387681992259,887.5200434175786,"[32, 0, 222]",222,a,0.2590518626384437,1,colour,0.5,3.9
67,22,0,2,13,23,623,888.035660399124,888.8558464285452,"[11, 0, 243]",243,a,0.2977358184289187,1,colour,0.5,3.9
67,22,0,2,13,24,624,889.3640240514651,890.1998268652242,"[24, 0, 230]",230,a,0.3136196304112673,1,colour,0.5,3.9
67,22,0,2,13,25,625,890.7079028759617,891.8478229960892,"[45, 0, 209]",209,l,0.6177188197616488,0,colour,0.5,3.9
67,22,0,2,13,26,626,892.3642213684507,893.167843019357,"[17, 0, 237]",237,a,0.28140065842308104,1,colour,0.5,3.9
67,22,0,2,13,27,627,893.6768221191596,894.5038374392316,"[93, 0, 161]",161,l,0.30479353992268443,1,colour,0.5,3.9
67,22,0,2,13,28,628,895.0206745560281,895.9918564448599,"[76, 0, 178]",178,l,0.4488876408431679,1,colour,0.5,3.9
67,22,0,2,13,29,629,896.505226140609,897.367837269092,"[38, 0, 216]",216,a,0.34041022206656635,1,colour,0.5,3.9
67,22,0,2,13,30,630,897.8802696112543,898.7758113918826,"[65, 0, 189]",189,l,0.3732061788905412,1,colour,0.5,3.9
67,22,0,2,13,31,631,899.286717974348,900.151806000853,"[60, 0, 194]",194,l,0.3428386771120131,1,colour,0.5,3.9
67,22,0,2,13,32,632,900.6617771990132,901.487842168659,"[87, 0, 167]",167,l,0.3037675709929317,1,colour,0.5,3.9
67,22,0,2,13,33,633,902.0056071865838,902.8718416991178,"[37, 0, 217]",217,a,0.3439764983486384,1,colour,0.5,3.9
67,22,0,2,13,34,634,903.3807723559439,904.2238412359729,"[71, 0, 183]",183,l,0.32093217060901225,1,colour,0.5,3.9
67,22,0,2,13,35,635,904.740215977421,905.6478389862459,"[53, 0, 201]",201,l,0.3853468778543174,1,colour,0.5,3.9
67,22,0,2,13,36,636,906.1621905404609,907.0398611614946,"[96, 0, 158]",158,l,0.35536613315343857,1,colour,0.5,3.9
67,22,0,2,13,37,637,907.5529650112148,908.4318242596928,"[33, 0, 221]",221,a,0.35662368359044194,1,colour,0.5,3.9
67,22,0,2,13,38,638,908.9436488973442,909.7678509750403,"[85, 0, 169]",169,l,0.30191216222010553,1,colour,0.5,3.9
67,22,0,2,13,39,639,910.2875379619654,911.1358725640457,"[84, 0, 170]",170,l,0.32599939429201186,1,colour,0.5,3.9
67,22,0,2,13,40,640,911.6471115525346,912.5918332866859,"[78, 0, 176]",176,l,0.4225369752384722,1,colour,0.5,3.9
67,22,0,2,13,41,641,913.1002696664073,913.9518129327334,"[70, 0, 184]",184,l,0.32930533844046295,1,colour,0.5,3.9
67,22,0,2,13,42,642,914.4597605494782,915.3838266322855,"[55, 0, 199]",199,a,0.4019187393132597,0,colour,0.5,3.9
67,22,0,2,13,43,643,915.8973727710545,916.7677946549375,"[28, 0, 226]",226,a,0.34824578976258636,1,colour,0.5,3.9
67,22,0,2,13,44,644,917.2881133710034,918.0158416708,"[29, 0, 225]",225,a,0.20551360887475312,1,colour,0.5,3.9
67,22,0,2,13,45,645,918.5226246847305,919.2558349282481,"[46, 0, 208]",208,a,0.21096404478885233,1,colour,0.5,3.9
67,22,0,2,13,46,646,919.7726003648713,920.5118069145828,"[41, 0, 213]",213,a,0.21687449258752167,1,colour,0.5,3.9
67,22,0,2,13,47,647,921.0227540633641,921.767804895062,"[80, 0, 174]",174,l,0.22282078070566058,1,colour,0.5,3.9
67,22,0,2,13,48,648,922.2728388386313,923.1278444055934,"[67, 0, 187]",187,l,0.33267744816839695,1,colour,0.5,3.9
67,22,0,2,13,49,649,923.6479315401521,924.2477929850575,"[91, 0, 163]",163,l,0.07772946148179471,1,colour,0.5,3.9
67,22,0,2,13,50,650,924.7574235063512,925.3917933506891,"[58, 0, 196]",196,a,0.11209962097927928,0,colour,0.5,3.9
67,22,0,2,14,1,651,949.649245410692,950.5918309234548,"[10, 0, 244]",244,a,0.4195555604528636,1,colour,0.5,3.9
67,22,0,2,14,2,652,951.1033357582055,951.9198235727381,"[74, 0, 180]",180,l,0.2942581574898213,1,colour,0.5,3.9
67,22,0,2,14,3,653,952.4314792505465,953.2557971188799,"[3, 0, 251]",251,a,0.3024347957689315,1,colour,0.5,3.9
67,22,0,2,14,4,654,953.7753403519746,954.6638350447174,"[65, 0, 189]",189,l,0.36611182941123843,1,colour,0.5,3.9
67,22,0,2,14,5,655,955.1817331826314,956.0238107522018,"[50, 0, 204]",204,a,0.32009170297533274,1,colour,0.5,3.9
67,22,0,2,14,6,656,956.5412142195273,957.3438248678576,"[94, 0, 160]",160,l,0.28110251715406775,1,colour,0.5,3.9
67,22,0,2,14,7,657,957.8537421089131,958.6878261785023,"[48, 0, 206]",206,a,0.3117642216384411,1,colour,0.5,3.9
67,22,0,2,14,8,658,959.1977119119838,960.0478203967214,"[85, 0, 169]",169,l,0.32803006446920335,1,colour,0.5,3.9
67,22,0,2,14,9,659,960.5571177240927,961.4158195366617,"[99, 0, 155]",155,l,0.3364020506851375,1,colour,0.5,3.9
67,22,0,2,14,10,660,961.9323333057109,962.8638135406654,"[66, 0, 188]",188,l,0.40837072557769716,1,colour,0.5,3.9
67,22,0,2,14,11,661,963.3699920009822,964.223817999009,"[33, 0, 221]",221,a,0.3317089807242155,1,colour,0.5,3.9
67,22,0,2,14,12,662,964.7293233764358,965.5598218713421,"[16, 0, 238]",238,a,0.30821921303868294,1,colour,0.5,3.9
67,22,0,2,14,13,663,966.0732699425425,966.9198334189132,"[34, 0, 220]",220,a,0.3242838007863611,1,colour,0.5,3.9
67,22,0,2,14,14,664,967.4326596071478,968.3758063507266,"[28, 0, 226]",226,a,0.4210655663628131,1,colour,0.5,3.9
67,22,0,2,14,15,665,968.8859342995565,969.7117901367601,"[29, 0, 225]",225,a,0.3035521369893104,1,colour,0.5,3.9
67,22,0,2,14,16,666,970.2297304163221,971.0877953798044,"[75, 0, 179]",179,l,0.3357967094052583,1,colour,0.5,3.9
67,22,0,2,14,17,667,971.6049085825216,972.4957935269922,"[78, 0, 176]",176,l,0.3687411458231509,1,colour,0.5,3.9
67,22,0,2,14,18,668,973.0112766008824,973.8797847868409,"[11, 0, 243]",243,a,0.3470102946739644,1,colour,0.5,3.9
67,22,0,2,14,19,669,974.386391751701,975.9117930512875,"[52, 0, 202]",202,a,1.003185820998624,0,colour,0.5,3.9
67,22,0,2,14,20,670,976.4177990069147,977.6557769540232,"[58, 0, 196]",196,l,0.7157896435819566,1,colour,0.5,3.9
67,22,0,2,14,21,671,978.1679139116313,979.1437987163663,"[46, 0, 208]",208,a,0.45407183677889407,1,colour,0.5,3.9
67,22,0,2,14,22,672,979.652413508622,980.5358460976277,"[12, 0, 242]",242,a,0.3611655165441334,1,colour,0.5,3.9
67,22,0,2,14,23,673,981.0431663177442,981.959809583379,"[95, 0, 159]",159,l,0.3944734730757773,1,colour,0.5,3.9
67,22,0,2,14,24,674,982.4650971638039,983.3997955152299,"[15, 0, 239]",239,a,0.4126589219085872,1,colour,0.5,3.9
67,22,0,2,14,25,675,983.9183478315827,984.77578618587,"[84, 0, 170]",170,l,0.33513465407304466,1,colour,0.5,3.9
67,22,0,2,14,26,676,985.2934629821684,986.2157732991036,"[88, 0, 166]",166,l,0.4000625426415354,1,colour,0.5,3.9
67,22,0,2,14,27,677,986.7310216408223,988.0478101568297,"[51, 0, 203]",203,a,0.7945891851559281,0,colour,0.5,3.9
67,22,0,2,14,28,678,988.5594043945894,989.415815992048,"[79, 0, 175]",175,l,0.3341634296812117,1,colour,0.5,3.9
67,22,0,2,14,29,679,989.9344671636354,990.8478017284069,"[39, 0, 215]",215,a,0.39111475367099047,1,colour,0.5,3.9
67,22,0,2,14,30,680,991.3564464529045,992.2318004714325,"[32, 0, 222]",222,a,0.3531692598480731,1,colour,0.5,3.9
67,22,0,2,14,31,681,992.7471433361061,993.6238049233798,"[17, 0, 237]",237,a,0.35441735782660544,1,colour,0.5,3.9
67,22,0,2,14,32,682,994.1379296220839,994.9758462079335,"[55, 0, 199]",199,l,0.31571095320396125,1,colour,0.5,3.9
67,22,0,2,14,33,683,995.481793874409,996.2318445821293,"[69, 0, 185]",185,l,0.22810068121179938,1,colour,0.5,3.9
67,22,0,2,14,34,684,996.7474631390069,997.4157955120318,"[24, 0, 230]",230,a,0.1461515526752919,1,colour,0.5,3.9
67,22,0,2,14,35,685,997.9351162221283,998.5038260177244,"[35, 0, 219]",219,a,0.046492741676047444,1,colour,0.5,3.9
67,22,0,2,14,36,686,999.0133033327293,999.6077970496845,"[42, 0, 212]",212,a,0.07225263817235827,1,colour,0.5,3.9
67,22,0,2,14,37,687,1000.1226952620782,1000.6958310999908,"[89, 0, 165]",165,l,0.05077660549432039,1,colour,0.5,3.9
67,22,0,2,14,38,688,1001.2010304590221,1001.8158285163809,"[30, 0, 224]",224,a,0.09236360038630664,1,colour,0.5,3.9
67,22,0,2,14,39,689,1002.3260592590086,1002.9677841786761,"[86, 0, 168]",168,l,0.11952716414816678,1,colour,0.5,3.9
67,22,0,2,14,40,690,1003.482442145003,1004.0638140921947,"[5, 0, 249]",249,a,0.05945421615615487,1,colour,0.5,3.9
67,22,0,2,14,41,691,1004.5763149634004,1005.1678205700591,"[68, 0, 186]",186,l,0.06928776483982801,1,colour,0.5,3.9
67,22,0,2,14,42,692,1005.6856879880652,1006.3598256523255,"[98, 0, 156]",156,l,0.1518824070226401,1,colour,0.5,3.9
67,22,0,2,14,43,693,1006.8733623388689,1007.4477951119188,"[64, 0, 190]",190,l,0.05219366354867816,1,colour,0.5,3.9
67,22,0,2,14,44,694,1007.9671370896976,1008.5358173467685,"[38, 0, 216]",216,a,0.046396249206736684,1,colour,0.5,3.9
67,22,0,2,14,45,695,1009.0454415665008,1009.6558187017217,"[26, 0, 228]",228,a,0.08820813032798469,1,colour,0.5,3.9
67,22,0,2,14,46,696,1010.1704455541912,1010.7598094257992,"[93, 0, 161]",161,l,0.06754026981070638,1,colour,0.5,3.9
67,22,0,2,14,47,697,1011.2798985296395,1011.8878078253474,"[61, 0, 193]",193,l,0.08569696778431535,1,colour,0.5,3.9
67,22,0,2,14,48,698,1012.4050687202252,1013.0877989244182,"[23, 0, 231]",231,a,0.16062342701479793,1,colour,0.5,3.9
67,22,0,2,14,49,699,1013.6083429201972,1014.1998075668234,"[31, 0, 223]",223,a,0.06927713099867105,1,colour,0.5,3.9
67,22,0,2,14,50,700,1014.7176218156237,1015.375787839992,"[14, 0, 240]",240,a,0.13573708105832338,1,colour,0.5,3.9
67,22,0,2,15,1,701,1024.639554434223,1025.2798201541882,"[91, 0, 163]",163,l,0.11721489392220974,1,colour,0.5,3.9
67,22,0,2,15,2,702,1025.7967443107627,1026.343779969262,"[88, 0, 166]",166,l,0.0250604257453233,1,colour,0.5,3.9
67,22,0,2,15,3,703,1026.8592165692244,1027.3838222997729,"[85, 0, 169]",169,l,0.0023110886104404926,1,colour,0.5,3.9
67,22,0,2,15,4,704,1027.8905304830987,1028.535877211485,"[54, 0, 200]",200,l,0.12303987727500498,1,colour,0.5,3.9
67,22,0,2,15,5,705,1029.0469283354469,1029.5758065083064,"[90, 0, 164]",164,l,0.006646152585744858,1,colour,0.5,3.9
67,22,0,2,15,6,706,1030.093951587798,1030.6318362324964,"[69, 0, 185]",185,l,0.015758963068947196,1,colour,0.5,3.9
67,22,0,2,15,7,707,1031.1408432954922,1031.6878005785402,"[17, 0, 237]",237,a,0.024639010662212968,1,colour,0.5,3.9
67,22,0,2,15,8,708,1032.2035298061091,1032.7917909086682,"[47, 0, 207]",207,l,0.0660668914206326,0,colour,0.5,3.9
67,22,0,2,15,9,709,1033.2972194862086,1034.311782732606,"[46, 0, 208]",208,a,0.49232531851157546,1,colour,0.5,3.9
67,22,0,2,15,10,710,1034.828600550769,1035.8157591994386,"[81, 0, 173]",173,l,0.46461312705650926,1,colour,0.5,3.9
67,22,0,2,15,11,711,1036.3287854613736,1037.0078182385769,"[9, 0, 245]",245,a,0.1568046952597797,1,colour,0.5,3.9
67,22,0,2,15,12,712,1037.5163054245058,1038.18378157611,"[95, 0, 159]",159,l,0.14526382368057966,1,colour,0.5,3.9
67,22,0,2,15,13,713,1038.703889978351,1039.3118055756204,"[96, 0, 158]",158,l,0.08555400162003934,1,colour,0.5,3.9
67,22,0,2,15,14,714,1039.8290373261552,1040.4718319317326,"[21, 0, 233]",233,a,0.12051492999307811,1,colour,0.5,3.9
67,22,0,2,15,15,715,1040.9854150922038,1041.6237789294682,"[48, 0, 206]",206,l,0.11611685086973011,0,colour,0.5,3.9
67,22,0,2,15,16,716,1042.1417554428335,1042.823811382521,"[55, 0, 199]",199,a,0.15992277464829385,0,colour,0.5,3.9
67,22,0,2,15,17,717,1043.3292880090885,1044.3917945320718,"[18, 0, 236]",236,a,0.5403213703539222,1,colour,0.5,3.9
67,22,0,2,15,18,718,1044.9075485721696,1045.4398075195495,"[22, 0, 232]",232,a,0.010030865669250488,1,colour,0.5,3.9
67,22,0,2,15,19,719,1045.9545115658548,1046.5278281792998,"[12, 0, 242]",242,a,0.051196839194744825,1,colour,0.5,3.9
67,22,0,2,15,20,720,1047.048333971994,1048.0237524630502,"[8, 0, 246]",246,a,0.45344010763801634,1,colour,0.5,3.9
67,22,0,2,15,21,721,1048.5328453844413,1049.1678122992162,"[42, 0, 212]",212,l,0.11290818685665727,0,colour,0.5,3.9
67,22,0,2,15,22,722,1049.6736878920346,1050.327778397128,"[82, 0, 172]",172,l,0.13196561089716852,1,colour,0.5,3.9
67,22,0,2,15,23,723,1050.8455126951449,1051.4637754163705,"[92, 0, 162]",162,l,0.09629103331826627,1,colour,0.5,3.9
67,22,0,2,15,24,724,1051.9705603998154,1052.5998106389306,"[16, 0, 238]",238,a,0.10688273585401475,1,colour,0.5,3.9
67,22,0,2,15,25,725,1053.1112871165387,1053.7038112091832,"[10, 0, 244]",244,a,0.07018100772984326,1,colour,0.5,3.9
67,22,0,2,15,26,726,1054.2207609657198,1054.7918145395815,"[68, 0, 186]",186,l,0.04875066131353378,1,colour,0.5,3.9
67,22,0,2,15,27,727,1055.299010698218,1055.951781818876,"[40, 0, 214]",214,a,0.13068954972550273,1,colour,0.5,3.9
67,22,0,2,15,28,728,1056.470929236617,1057.0478125198279,"[19, 0, 235]",235,a,0.054500026162713766,1,colour,0.5,3.9
67,22,0,2,15,29,729,1057.5647823626641,1058.1837756684981,"[71, 0, 183]",183,l,0.09737529163248837,1,colour,0.5,3.9
67,22,0,2,15,30,730,1058.6899052918889,1059.319805377163,"[84, 0, 170]",170,l,0.10762040968984365,1,colour,0.5,3.9
67,22,0,2,15,31,731,1059.8306205873378,1060.3919611291494,"[7, 0, 247]",247,a,0.039052201667800546,1,colour,0.5,3.9
67,22,0,2,15,32,732,1060.908854565816,1061.8717782900203,"[80, 0, 174]",174,l,0.4406412916723639,1,colour,0.5,3.9
67,22,0,2,15,33,733,1062.377761402633,1062.9518038742244,"[37, 0, 217]",217,a,0.05183841451071203,1,colour,0.5,3.9
67,22,0,2,15,34,734,1063.4714841656387,1064.0398056290578,"[67, 0, 187]",187,l,0.04602603381499648,1,colour,0.5,3.9
67,22,0,2,15,35,735,1064.549737836467,1065.1837803947274,"[56, 0, 198]",198,l,0.11183416889980435,1,colour,0.5,3.9
67,22,0,2,15,36,736,1065.6904310763348,1066.2638036157005,"[97, 0, 157]",157,l,0.05104993446730077,1,colour,0.5,3.9
67,22,0,2,15,37,737,1066.7687194056343,1067.343813840067,"[89, 0, 165]",165,l,0.052778918761759996,1,colour,0.5,3.9
67,22,0,2,15,38,738,1067.8624508331995,1068.4718094824348,"[15, 0, 239]",239,a,0.08704667817801237,1,colour,0.5,3.9
67,22,0,2,15,39,739,1068.9875820332672,1069.535833494505,"[86, 0, 168]",168,l,0.02592885633930564,1,colour,0.5,3.9
67,22,0,2,15,40,740,1070.0501689009834,1070.8318033069372,"[39, 0, 215]",215,a,0.2593295241240412,1,colour,0.5,3.9
67,22,0,2,15,41,741,1071.3471564117353,1071.879777303664,"[28, 0, 226]",226,a,0.010325068607926369,1,colour,0.5,3.9
67,22,0,2,15,42,742,1072.3941233439837,1072.9917638909537,"[78, 0, 176]",176,l,0.07536717294715345,1,colour,0.5,3.9
67,22,0,2,15,43,743,1073.5035546578001,1074.095798725728,"[74, 0, 180]",180,l,0.0699899923056364,1,colour,0.5,3.9
67,22,0,2,15,44,744,1074.6130710423458,1075.1518288441002,"[4, 0, 250]",250,a,0.01654862449504435,1,colour,0.5,3.9
67,22,0,2,15,45,745,1075.6599438455887,1076.2318087420426,"[36, 0, 218]",218,a,0.049546624068170786,1,colour,0.5,3.9
67,22,0,2,15,46,746,1076.7382006670814,1077.3197845031973,"[64, 0, 190]",190,l,0.05939435143955052,1,colour,0.5,3.9
67,22,0,2,15,47,747,1077.8320049562026,1078.7757920934819,"[43, 0, 211]",211,a,0.4218237199820578,1,colour,0.5,3.9
67,22,0,2,15,48,748,1079.2852382946294,1079.8798068421893,"[45, 0, 209]",209,a,0.07217426272109151,1,colour,0.5,3.9
67,22,0,2,15,49,749,1080.3953942852095,1081.847795033129,"[57, 0, 197]",197,l,0.9308752873912454,1,colour,0.5,3.9
67,22,0,2,15,50,750,1082.3636223284993,1083.2637571420055,"[2, 0, 252]",252,a,0.3779315440915525,1,colour,0.5,3.9
67,22,0,2,16,1,751,1092.363682192983,1093.0397634876426,"[97, 0, 157]",157,l,0.1532076990697533,1,colour,0.5,3.9
67,22,0,2,16,2,752,1093.5520272636786,1094.351778589189,"[33, 0, 221]",221,a,0.27750867139548063,1,colour,0.5,3.9
67,22,0,2,16,3,753,1094.8646803959273,1095.6798594600987,"[39, 0, 215]",215,a,0.2930829208344221,1,colour,0.5,3.9
67,22,0,2,16,4,754,1096.1928983251564,1097.0477920398116,"[11, 0, 243]",243,a,0.33273219293914735,1,colour,0.5,3.9
67,22,0,2,16,5,755,1097.567962275818,1098.3437488554046,"[59, 0, 195]",195,l,0.2541051560547203,1,colour,0.5,3.9
67,22,0,2,16,6,756,1098.8493196112104,1099.6557950710412,"[96, 0, 158]",158,l,0.28440137184225023,1,colour,0.5,3.9
67,22,0,2,16,7,757,1100.1619124850258,1100.9917729494628,"[91, 0, 163]",163,l,0.3075670041143894,1,colour,0.5,3.9
67,22,0,2,16,8,758,1101.5057787066326,1102.2717975096311,"[18, 0, 236]",236,a,0.24373243190348148,1,colour,0.5,3.9
67,22,0,2,16,9,759,1102.787143524969,1103.6237927142065,"[80, 0, 174]",174,l,0.3142793227452785,1,colour,0.5,3.9
67,22,0,2,16,10,760,1104.1309518511407,1104.9437780787703,"[86, 0, 168]",168,l,0.29068912426009774,1,colour,0.5,3.9
67,22,0,2,16,11,761,1105.459245004924,1106.1918002823368,"[13, 0, 241]",241,a,0.21026221103966236,1,colour,0.5,3.9
67,22,0,2,16,12,762,1106.7093849189114,1107.4557984580752,"[15, 0, 239]",239,a,0.22423271904699504,1,colour,0.5,3.9
67,22,0,2,16,13,763,1107.9750852973666,1108.8157741655596,"[41, 0, 213]",213,a,0.31844345736317337,1,colour,0.5,3.9
67,22,0,2,16,14,764,1109.3345068634953,1109.9998133170884,"[19, 0, 235]",235,a,0.1430897933896631,1,colour,0.5,3.9
67,22,0,2,16,15,765,1110.506410041824,1111.0958022703417,"[25, 0, 229]",229,a,0.06707395589910448,1,colour,0.5,3.9
67,22,0,2,16,16,766,1111.6159843218047,1112.2237577405758,"[2, 0, 252]",252,a,0.08565955236554146,1,colour,0.5,3.9
67,22,0,2,16,17,767,1112.7410091834608,1113.3758130460046,"[45, 0, 209]",209,l,0.11246865475550294,0,colour,0.5,3.9
67,22,0,2,16,18,768,1113.8817768602166,1114.5997889772989,"[38, 0, 216]",216,l,0.1959399983752519,0,colour,0.5,3.9
67,22,0,2,16,19,769,1115.1162519401405,1115.6718041261192,"[31, 0, 223]",223,a,0.03353993175551295,1,colour,0.5,3.9
67,22,0,2,16,20,770,1116.1788214787375,1116.7437991888728,"[66, 0, 188]",188,l,0.043247843626886606,1,colour,0.5,3.9
67,22,0,2,16,21,771,1117.2570507309865,1117.8558098007925,"[54, 0, 200]",200,l,0.07650656951591372,1,colour,0.5,3.9
67,22,0,2,16,22,772,1118.3665702664293,1118.9041461357847,"[29, 0, 225]",225,a,0.015444279881194234,1,colour,0.5,3.9
67,22,0,2,16,23,773,1119.4134619741235,1120.3197447247803,"[73, 0, 181]",181,l,0.38405545661225915,1,colour,0.5,3.9
67,22,0,2,16,24,774,1120.8352541862987,1121.5837976450566,"[1, 0, 253]",253,a,0.22608261392451823,1,colour,0.5,3.9
67,22,0,2,16,25,775,1122.1012211986817,1122.7117625675164,"[83, 0, 171]",171,l,0.08831880101934075,1,colour,0.5,3.9
67,22,0,2,16,26,776,1123.2262925340328,1124.19175617164,"[22, 0, 232]",232,a,0.44320995593443513,1,colour,0.5,3.9
67,22,0,2,16,27,777,1124.7107358109206,1125.6397651417647,"[28, 0, 226]",226,a,0.4066823075991124,1,colour,0.5,3.9
67,22,0,2,16,28,778,1126.1483598477207,1127.0077457707375,"[26, 0, 228]",228,a,0.3372759949415922,1,colour,0.5,3.9
67,22,0,2,16,29,779,1127.5234486109111,1128.151767010102,"[98, 0, 156]",156,l,0.10603399761021137,1,colour,0.5,3.9
67,22,0,2,16,30,780,1128.6643119922373,1129.3597610616125,"[71, 0, 183]",183,l,0.17332968907430768,1,colour,0.5,3.9
67,22,0,2,16,31,781,1129.8674436199944,1131.343795723049,"[55, 0, 199]",199,l,0.9541740396525711,1,colour,0.5,3.9
67,22,0,2,16,32,782,1131.8519142691512,1132.583778346656,"[95, 0, 159]",159,l,0.2095733741298318,1,colour,0.5,3.9
67,22,0,2,16,33,783,1133.1018864046782,1133.8157824364025,"[23, 0, 231]",231,a,0.19138201768510044,1,colour,0.5,3.9
67,22,0,2,16,34,784,1134.320870730793,1135.0077690077014,"[64, 0, 190]",190,l,0.16462726588360965,1,colour,0.5,3.9
67,22,0,2,16,35,785,1135.5240917615592,1136.2397920021322,"[67, 0, 187]",187,l,0.19351351261138916,1,colour,0.5,3.9
67,22,0,2,16,36,786,1136.7585873214994,1137.423789799679,"[16, 0, 238]",238,a,0.14288775040768087,1,colour,0.5,3.9
67,22,0,2,16,37,787,1137.9305413060356,1138.567777562188,"[7, 0, 247]",247,a,0.11500502354465425,1,colour,0.5,3.9
67,22,0,2,16,38,788,1139.0868343953043,1139.655789557146,"[89, 0, 165]",165,l,0.046633738558739424,1,colour,0.5,3.9
67,22,0,2,16,39,789,1140.1651183920912,1140.8157678639982,"[76, 0, 178]",178,l,0.1290239745285362,1,colour,0.5,3.9
67,22,0,2,16,40,790,1141.3214638628997,1142.0477333567105,"[56, 0, 198]",198,l,0.20415602112188935,1,colour,0.5,3.9
67,22,0,2,16,41,791,1142.55592279532,1143.1678162377793,"[0, 0, 254]",254,a,0.08965157624334097,1,colour,0.5,3.9
67,22,0,2,16,42,792,1143.6809831028804,1144.2797721049283,"[85, 0, 169]",169,l,0.07657116022892296,1,colour,0.5,3.9
67,22,0,2,16,43,793,1144.7904601029586,1145.4397732550278,"[77, 0, 177]",177,l,0.12705080583691597,1,colour,0.5,3.9
67,22,0,2,16,44,794,1145.9467969089746,1146.6158011835068,"[12, 0, 242]",242,a,0.14683014969341457,1,colour,0.5,3.9
67,22,0,2,16,45,795,1147.1344700781628,1147.8397578161675,"[43, 0, 211]",211,a,0.18303523771464825,1,colour,0.5,3.9
67,22,0,2,16,46,796,1148.3532689027488,1148.9758005216718,"[52, 0, 202]",202,a,0.1002495801076293,0,colour,0.5,3.9
67,22,0,2,16,47,797,1149.4939251211472,1150.1838040254079,"[57, 0, 197]",197,l,0.1675578746944666,1,colour,0.5,3.9
67,22,0,2,16,48,798,1150.6971552104224,1151.3037722972222,"[34, 0, 220]",220,a,0.0843216571956873,1,colour,0.5,3.9
67,22,0,2,16,49,799,1151.8222942873836,1152.399804573739,"[93, 0, 161]",161,l,0.05525936163030565,1,colour,0.5,3.9
67,22,0,2,16,50,800,1152.9160769151058,1153.5438183299266,"[72, 0, 182]",182,l,0.10579729615710676,1,colour,0.5,3.9
