id,age,condition,counterbalance,block,trialinblock,trial,tstart,tend,trialstim,trialintensity,response,RT,accuracy,trialtype,colourfreq,credits
69,23,1,1,Practice,1,NA,6.3015613704919815e-06,1.5344699993729591,"[97, 0, 157]",157,l,0.980026883771643,1,colour,0.5,4
69,23,1,1,Practice,2,NA,2.042858724016696,3.3984686478506774,"[68, 0, 186]",186,a,0.8334121683146805,0,colour,0.5,4
69,23,1,1,Practice,3,NA,3.9090869349893183,4.8464512303471565,"[98, 0, 156]",156,l,0.4151413335930556,1,colour,0.5,4
69,23,1,1,Practice,4,NA,5.352972336811945,6.302478512749076,"[17, 0, 237]",237,a,0.42718396498821676,1,colour,0.5,4
69,23,1,1,Practice,5,NA,6.822120601311326,7.806505785789341,"[23, 0, 231]",231,a,0.46311533031985164,1,colour,0.5,4
69,23,1,1,Practice,6,NA,8.321858890587464,9.278459416003898,"[90, 0, 164]",164,l,0.43467019125819206,1,colour,0.5,4
69,23,1,1,Practice,7,NA,9.780178357148543,10.662460128078237,"[41, 0, 213]",213,a,0.3600099722389132,1,colour,0.5,4
69,23,1,1,Practice,8,NA,11.170954009518027,12.10248347534798,"[36, 0, 218]",218,a,0.4092497902456671,1,colour,0.5,4
69,23,1,1,Practice,9,NA,12.61051734443754,13.59844832541421,"[40, 0, 214]",214,a,0.4642318841069937,1,colour,0.5,4
69,23,1,1,Practice,10,NA,14.111996039515361,14.942520134383813,"[91, 0, 163]",163,l,0.3082727761939168,1,colour,0.5,4
69,23,1,1,1,1,1,4.975240078754723,6.224007045151666,"[29, 0, 225]",225,a,0.7256901464425027,1,colour,0.5,4.0
69,23,1,1,1,2,2,6.744139078073204,7.7039880459196866,"[67, 0, 187]",187,l,0.44882383779622614,1,colour,0.5,4.0
69,23,1,1,1,3,3,8.205512820975855,9.112027941038832,"[84, 0, 170]",170,l,0.38423583819530904,1,colour,0.5,4.0
69,23,1,1,1,4,4,9.627430276479572,10.463960917899385,"[22, 0, 232]",232,a,0.31399575364775956,1,colour,0.5,4.0
69,23,1,1,1,5,5,10.97139732260257,11.87198190833442,"[27, 0, 227]",227,a,0.3784080978948623,1,colour,0.5,4.0
69,23,1,1,1,6,6,12.377649944042787,13.255961746443063,"[9, 0, 245]",245,a,0.3562723728828132,1,colour,0.5,4.0
69,23,1,1,1,7,7,13.768431504024193,14.615962266456336,"[30, 0, 224]",224,a,0.32533930824138224,1,colour,0.5,4.0
69,23,1,1,1,8,8,15.128075199434534,15.680012272205204,"[59, 0, 195]",195,l,0.029484104830771685,1,colour,0.5,4.0
69,23,1,1,1,9,9,16.190549033228308,17.023975379997864,"[74, 0, 180]",180,l,0.3113424126058817,1,colour,0.5,4.0
69,23,1,1,1,10,10,17.534291981020942,18.303999152500182,"[1, 0, 253]",253,a,0.24731997586786747,1,colour,0.5,4.0
69,23,1,1,1,11,11,18.815772983944044,19.767958494834602,"[86, 0, 168]",168,l,0.43111100420355797,1,colour,0.5,4.0
69,23,1,1,1,12,12,20.284467931604013,21.159954282455146,"[77, 0, 177]",177,l,0.3538872411008924,1,colour,0.5,4.0
69,23,1,1,1,13,13,21.66286775865592,22.48795559629798,"[3, 0, 251]",251,a,0.30832437006756663,1,colour,0.5,4.0
69,23,1,1,1,14,14,23.00152891059406,23.895954137435183,"[45, 0, 209]",209,a,0.37255239440128207,1,colour,0.5,4.0
69,23,1,1,1,15,15,24.407872510375455,25.263983209617436,"[97, 0, 157]",157,l,0.3349912939593196,1,colour,0.5,4.0
69,23,1,1,1,16,16,25.782872658222914,26.59996108803898,"[92, 0, 162]",162,l,0.2922231548000127,1,colour,0.5,4.0
69,23,1,1,1,17,17,27.114862451329827,28.016007479978725,"[39, 0, 215]",215,a,0.3788944976404309,1,colour,0.5,4.0
69,23,1,1,1,18,18,28.521276549668983,29.415958958212286,"[33, 0, 221]",221,a,0.3716563945636153,1,colour,0.5,4.0
69,23,1,1,1,19,19,29.928325528046116,30.751990793505684,"[91, 0, 163]",163,l,0.30171523918397725,1,colour,0.5,4.0
69,23,1,1,1,20,20,31.27216851268895,32.11996354558505,"[44, 0, 210]",210,a,0.32553386804647744,1,colour,0.5,4.0
69,23,1,1,1,21,21,32.63171610957943,33.495973120909184,"[19, 0, 235]",235,a,0.34205098496749997,1,colour,0.5,4.0
69,23,1,1,1,22,22,34.00680172187276,34.791957111796364,"[89, 0, 165]",165,l,0.2629013145342469,1,colour,0.5,4.0
69,23,1,1,1,23,23,35.30366202024743,36.12798658409156,"[4, 0, 250]",250,a,0.3026679528411478,1,colour,0.5,4.0
69,23,1,1,1,24,24,36.647578654112294,37.519946531392634,"[23, 0, 231]",231,a,0.3501839062664658,1,colour,0.5,4.0
69,23,1,1,1,25,25,38.03888521087356,39.90399411134422,"[52, 0, 202]",202,l,1.3555945639964193,1,colour,0.5,4.0
69,23,1,1,1,26,26,40.4175122869201,41.927968309493735,"[61, 0, 193]",193,a,0.9878073129802942,0,colour,0.5,4.0
69,23,1,1,1,27,27,42.43324446864426,43.2319639173802,"[28, 0, 226]",226,a,0.27697343472391367,1,colour,0.5,4.0
69,23,1,1,1,28,28,43.7458440377377,44.544000286841765,"[37, 0, 217]",217,a,0.27582064736634493,1,colour,0.5,4.0
69,23,1,1,1,29,29,45.05854206858203,45.951974803349,"[55, 0, 199]",199,a,0.3836108045652509,0,colour,0.5,4.0
69,23,1,1,1,30,30,46.468226664699614,47.239939300576225,"[83, 0, 171]",171,l,0.2581928847357631,1,colour,0.5,4.0
69,23,1,1,1,31,31,47.756262054201216,49.03198542143218,"[69, 0, 185]",185,l,0.753355470020324,1,colour,0.5,4.0
69,23,1,1,1,32,32,49.53769599250518,51.43198967492208,"[65, 0, 189]",189,l,1.3727225358597934,1,colour,0.5,4.0
69,23,1,1,1,33,33,51.93419304676354,52.535958343651146,"[90, 0, 164]",164,l,0.0794379657600075,1,colour,0.5,4.0
69,23,1,1,1,34,34,53.043579856166616,53.831990777747706,"[10, 0, 244]",244,a,0.27835465292446315,1,colour,0.5,4.0
69,23,1,1,1,35,35,54.34362164302729,55.41599873662926,"[66, 0, 188]",188,l,0.5500186486169696,1,colour,0.5,4.0
69,23,1,1,1,36,36,55.9218786614947,56.67198411375284,"[24, 0, 230]",230,a,0.22834841022267938,1,colour,0.5,4.0
69,23,1,1,1,37,37,57.18754871375859,57.912017543567345,"[16, 0, 238]",238,a,0.20218757865950465,1,colour,0.5,4.0
69,23,1,1,1,38,38,58.410058356123045,59.023997829062864,"[78, 0, 176]",176,l,0.09176652948372066,1,colour,0.5,4.0
69,23,1,1,1,39,39,59.53728757426143,60.27995012328029,"[47, 0, 207]",207,a,0.22019461495801806,1,colour,0.5,4.0
69,23,1,1,1,40,40,60.78746726643294,61.57596286502667,"[57, 0, 197]",197,a,0.26622773823328316,0,colour,0.5,4.0
69,23,1,1,1,41,41,62.07196276728064,62.83199904859066,"[20, 0, 234]",234,a,0.23771249479614198,1,colour,0.5,4.0
69,23,1,1,1,42,42,63.33759185974486,64.11997417942621,"[40, 0, 214]",214,a,0.2601298193912953,1,colour,0.5,4.0
69,23,1,1,1,43,43,64.6223622651305,65.34399067680351,"[5, 0, 249]",249,a,0.19746890873648226,1,colour,0.5,4.0
69,23,1,1,1,44,44,65.85887274169363,66.8239787670318,"[58, 0, 196]",196,a,0.4432741526979953,0,colour,0.5,4.0
69,23,1,1,1,45,45,67.34340975387022,68.14393853163347,"[76, 0, 178]",178,l,0.2885513277724385,1,colour,0.5,4.0
69,23,1,1,1,46,46,68.66192134656012,69.46398021630011,"[11, 0, 243]",243,a,0.2796350463759154,1,colour,0.5,4.0
69,23,1,1,1,47,47,69.97448743879795,70.66398982610554,"[93, 0, 161]",161,l,0.16730463155545294,1,colour,0.5,4.0
69,23,1,1,1,48,48,71.17775454954244,71.98397558461875,"[98, 0, 156]",156,l,0.29055206570774317,1,colour,0.5,4.0
69,23,1,1,1,49,49,72.4992633110378,73.35997413215227,"[88, 0, 166]",166,l,0.33823422249406576,1,colour,0.5,4.0
69,23,1,1,1,50,50,73.87454269547015,74.44798337016255,"[35, 0, 219]",219,a,0.051588322035968304,1,colour,0.5,4.0
69,23,1,1,2,1,51,83.80397374927998,84.57594277895987,"[96, 0, 158]",158,l,0.24920334783382714,1,colour,0.5,4.0
69,23,1,1,2,2,52,85.08623141678981,85.85594764677808,"[16, 0, 238]",238,a,0.24745270190760493,1,colour,0.5,4.0
69,23,1,1,2,3,53,86.36756945378147,87.22399916825816,"[80, 0, 174]",174,l,0.3340397619176656,1,colour,0.5,4.0
69,23,1,1,2,4,54,87.74268105998635,88.55199181754142,"[13, 0, 241]",241,a,0.2869404973462224,1,colour,0.5,4.0
69,23,1,1,2,5,55,89.07088047848083,90.05597813054919,"[66, 0, 188]",188,l,0.46288177953101695,1,colour,0.5,4.0
69,23,1,1,2,6,56,90.57100946293212,91.39994123810902,"[86, 0, 168]",168,l,0.30733109009452164,1,colour,0.5,4.0
69,23,1,1,2,7,57,91.90533082489856,92.73595771356486,"[49, 0, 205]",205,a,0.3081774655729532,1,colour,0.5,4.0
69,23,1,1,2,8,58,93.25225880579092,94.03213311359286,"[90, 0, 164]",164,l,0.2577379923313856,1,colour,0.5,4.0
69,23,1,1,2,9,59,94.54930303036235,95.15996649162844,"[53, 0, 201]",201,a,0.09974230662919581,0,colour,0.5,4.0
69,23,1,1,2,10,60,95.6785802480299,96.23208207124844,"[54, 0, 200]",200,l,0.02895950200036168,1,colour,0.5,4.0
69,23,1,1,2,11,61,96.73336108634248,97.51197823765688,"[8, 0, 246]",246,a,0.256544244941324,1,colour,0.5,4.0
69,23,1,1,2,12,62,98.01802436565049,98.84795296541415,"[43, 0, 211]",211,a,0.3207096476107836,1,colour,0.5,4.0
69,23,1,1,2,13,63,99.36501969420351,100.23995544807985,"[97, 0, 157]",157,l,0.3525194136891514,1,colour,0.5,4.0
69,23,1,1,2,14,64,100.74774355744012,101.56797369732521,"[11, 0, 243]",243,a,0.2988011718261987,1,colour,0.5,4.0
69,23,1,1,2,15,65,102.07604183116928,103.271964894142,"[69, 0, 185]",185,l,0.6742940209805965,1,colour,0.5,4.0
69,23,1,1,2,16,66,103.77943123108707,105.08801278262399,"[75, 0, 179]",179,l,0.7862514634616673,1,colour,0.5,4.0
69,23,1,1,2,17,67,105.60755483433604,106.47998139471747,"[59, 0, 195]",195,a,0.3477641160134226,0,colour,0.5,4.0
69,23,1,1,2,18,68,106.98512679687701,107.80001835315488,"[68, 0, 186]",186,a,0.29314199765212834,0,colour,0.5,4.0
69,23,1,1,2,19,69,108.31332897208631,109.03995804744773,"[57, 0, 197]",197,a,0.20421824883669615,0,colour,0.5,4.0
69,23,1,1,2,20,70,109.54775048908778,110.15196157013997,"[24, 0, 230]",230,a,0.08222482074052095,1,colour,0.5,4.0
69,23,1,1,2,21,71,110.657268055249,111.2319694312755,"[10, 0, 244]",244,a,0.05255639576353133,1,colour,0.5,4.0
69,23,1,1,2,22,72,111.73867682693526,112.30396567564458,"[20, 0, 234]",234,a,0.04289417015388608,1,colour,0.5,4.0
69,23,1,1,2,23,73,112.81801239284687,113.52802470838651,"[89, 0, 165]",165,l,0.1882182522676885,1,colour,0.5,4.0
69,23,1,1,2,24,74,114.03680373425595,114.97601280477829,"[63, 0, 191]",191,a,0.4173000040464103,0,colour,0.5,4.0
69,23,1,1,2,25,75,115.49003667896613,116.55196542968042,"[71, 0, 183]",183,l,0.5395833028014749,1,colour,0.5,4.0
69,23,1,1,2,26,76,117.06827676203102,117.86395886982791,"[74, 0, 180]",180,l,0.2734193676151335,1,colour,0.5,4.0
69,23,1,1,2,27,77,118.38088538963348,119.07195804128423,"[17, 0, 237]",237,a,0.16948496364057064,1,colour,0.5,4.0
69,23,1,1,2,28,78,119.5841950357426,120.29595524026081,"[7, 0, 247]",247,a,0.18942420883104205,1,colour,0.5,4.0
69,23,1,1,2,29,79,120.80299031571485,121.99996573547833,"[38, 0, 216]",216,a,0.6861676925327629,1,colour,0.5,4.0
69,23,1,1,2,30,80,122.51072108093649,123.29617224936374,"[47, 0, 207]",207,a,0.263554705074057,1,colour,0.5,4.0
69,23,1,1,2,31,81,123.80761013017036,124.42399144894443,"[98, 0, 156]",156,l,0.09439387684687972,1,colour,0.5,4.0
69,23,1,1,2,32,82,124.93271218566224,125.7359703166876,"[91, 0, 163]",163,l,0.2812986522912979,1,colour,0.5,4.0
69,23,1,1,2,33,83,126.24528261017986,127.02399822301231,"[19, 0, 235]",235,a,0.2567718878854066,1,colour,0.5,4.0
69,23,1,1,2,34,84,127.54229020699859,128.11200391640887,"[14, 0, 240]",240,a,0.047758956672623754,1,colour,0.5,4.0
69,23,1,1,2,35,85,128.6205738100689,129.3760816489812,"[30, 0, 224]",224,a,0.23314269864931703,1,colour,0.5,4.0
69,23,1,1,2,36,86,129.88616942544468,130.67996501084417,"[37, 0, 217]",217,a,0.2717699403874576,1,colour,0.5,4.0
69,23,1,1,2,37,87,131.19887848384678,132.01593973836862,"[3, 0, 251]",251,a,0.2946275849826634,1,colour,0.5,4.0
69,23,1,1,2,38,88,132.52707435772754,133.70391045836732,"[55, 0, 199]",199,a,0.6550987509544939,0,colour,0.5,4.0
69,23,1,1,2,39,89,134.21466304687783,135.01594997849315,"[15, 0, 239]",239,a,0.2793495082296431,1,colour,0.5,4.0
69,23,1,1,2,40,90,135.52732326858677,136.51997134368867,"[64, 0, 190]",190,a,0.47074924875050783,0,colour,0.5,4.0
69,23,1,1,2,41,91,137.02747076377273,137.8639352391474,"[84, 0, 170]",170,l,0.31418755650520325,1,colour,0.5,4.0
69,23,1,1,2,42,92,138.3712530960329,139.18393596378155,"[5, 0, 249]",249,a,0.29065052745863795,1,colour,0.5,4.0
69,23,1,1,2,43,93,139.6995017454028,140.5119872961659,"[79, 0, 175]",175,l,0.2901082013268024,1,colour,0.5,4.0
69,23,1,1,2,44,94,141.02772873290814,141.83997640083544,"[26, 0, 228]",228,a,0.28986204764805734,1,colour,0.5,4.0
69,23,1,1,2,45,95,142.35602306830697,143.17593616223894,"[22, 0, 232]",232,a,0.2974664275534451,1,colour,0.5,4.0
69,23,1,1,2,46,96,143.6841976745054,144.61601031571627,"[72, 0, 182]",182,l,0.40994886704720557,1,colour,0.5,4.0
69,23,1,1,2,47,97,145.12185400677845,145.90396693581715,"[40, 0, 214]",214,a,0.26041969028301537,1,colour,0.5,4.0
69,23,1,1,2,48,98,146.41880528372712,147.1919838145841,"[27, 0, 227]",227,a,0.2511296491138637,1,colour,0.5,4.0
69,23,1,1,2,49,99,147.69029598706402,148.415969198104,"[83, 0, 171]",171,l,0.2035585567355156,1,colour,0.5,4.0
69,23,1,1,2,50,100,148.92476161476225,149.6800177861005,"[42, 0, 212]",212,a,0.23304187413305044,1,colour,0.5,4.0
69,23,1,1,3,1,101,170.8478111808654,171.40798003040254,"[94, 0, 160]",160,l,0.03715071268379688,1,colour,0.5,4.0
69,23,1,1,3,2,102,171.9266784635838,172.45597883942537,"[16, 0, 238]",238,a,0.0072581893764436245,1,colour,0.5,4.0
69,23,1,1,3,3,103,172.97376630664803,173.75194156263024,"[81, 0, 173]",173,l,0.2559522942174226,1,colour,0.5,4.0
69,23,1,1,3,4,104,174.27063448214903,175.04794800281525,"[67, 0, 187]",187,l,0.2552079251036048,1,colour,0.5,4.0
69,23,1,1,3,5,105,175.56767594977282,177.03197045531124,"[92, 0, 162]",162,l,0.9424397898837924,1,colour,0.5,4.0
69,23,1,1,3,6,106,177.536525482079,178.57592978188768,"[98, 0, 156]",156,l,0.5170620027929544,1,colour,0.5,4.0
69,23,1,1,3,7,107,179.08495732489973,179.95995412487537,"[88, 0, 166]",166,l,0.35282228142023087,1,colour,0.5,4.0
69,23,1,1,3,8,108,180.4756817771122,181.3039948202204,"[96, 0, 158]",158,l,0.3062113858759403,1,colour,0.5,4.0
69,23,1,1,3,9,109,181.81044030818157,183.71996007976122,"[76, 0, 178]",178,l,1.3871762929484248,1,colour,0.5,4.0
69,23,1,1,3,10,110,184.23251333273947,185.15991923003457,"[73, 0, 181]",181,l,0.4054204246494919,1,colour,0.5,4.0
69,23,1,1,3,11,111,185.67009286489338,186.4319211456459,"[36, 0, 218]",218,a,0.2514927750453353,1,colour,0.5,4.0
69,23,1,1,3,12,112,186.93123841355555,187.79993328242563,"[66, 0, 188]",188,a,0.34672672557644546,0,colour,0.5,4.0
69,23,1,1,3,13,113,188.30645005661063,189.07194465049542,"[5, 0, 249]",249,a,0.24308691825717688,1,colour,0.5,4.0
69,23,1,1,3,14,114,189.5877085365355,190.67993114003912,"[72, 0, 182]",182,a,0.569442349486053,0,colour,0.5,4.0
69,23,1,1,3,15,115,191.19721409049816,191.7519254151266,"[40, 0, 214]",214,a,0.032729790546000004,1,colour,0.5,4.0
69,23,1,1,3,16,116,192.259802139597,193.02392417984083,"[45, 0, 209]",209,a,0.24233506596647203,1,colour,0.5,4.0
69,23,1,1,3,17,117,193.54121106886305,194.27993948943913,"[51, 0, 203]",203,a,0.2165483881253749,0,colour,0.5,4.0
69,23,1,1,3,18,118,194.79127063811757,195.73594392905943,"[77, 0, 177]",177,l,0.42274610768072307,1,colour,0.5,4.0
69,23,1,1,3,19,119,196.2444823149126,197.39193828590214,"[10, 0, 244]",244,a,0.6249919752590358,1,colour,0.5,4.0
69,23,1,1,3,20,120,197.90089257340878,198.80797955789603,"[13, 0, 241]",241,a,0.3851869765203446,1,colour,0.5,4.0
69,23,1,1,3,21,121,199.3150926148519,200.28011632640846,"[9, 0, 245]",245,a,0.4435140050482005,1,colour,0.5,4.0
69,23,1,1,3,22,122,200.79970879014581,201.60808928334154,"[33, 0, 221]",221,a,0.28676169109530747,1,colour,0.5,4.0
69,23,1,1,3,23,123,202.12780541484244,202.97594033717178,"[25, 0, 229]",229,a,0.32647949270904064,1,colour,0.5,4.0
69,23,1,1,3,24,124,203.4872640024405,204.38394557358697,"[58, 0, 196]",196,a,0.37481937231495976,0,colour,0.5,4.0
69,23,1,1,3,25,125,204.8936662855558,205.70394669217058,"[7, 0, 247]",247,a,0.28845680481754243,1,colour,0.5,4.0
69,23,1,1,3,26,126,206.22194171627052,207.04796887678094,"[55, 0, 199]",199,a,0.30448712781071663,0,colour,0.5,4.0
69,23,1,1,3,27,127,207.5657819439657,208.37594971060753,"[18, 0, 236]",236,a,0.2883863062597811,1,colour,0.5,4.0
69,23,1,1,3,28,128,208.89405422401614,209.7120524381753,"[21, 0, 233]",233,a,0.2960651230532676,1,colour,0.5,4.0
69,23,1,1,3,29,129,210.22220835019834,211.03201929223724,"[1, 0, 253]",253,a,0.29336176393553615,1,colour,0.5,4.0
69,23,1,1,3,30,130,211.54497032961808,212.32001175242476,"[60, 0, 194]",194,a,0.2535037531051785,0,colour,0.5,4.0
69,23,1,1,3,31,131,212.82627843413502,213.60795261873864,"[27, 0, 227]",227,a,0.2588084659073502,1,colour,0.5,4.0
69,23,1,1,3,32,132,214.12440140312538,214.8879511852283,"[52, 0, 202]",202,a,0.24186481395736337,0,colour,0.5,4.0
69,23,1,1,3,33,133,215.40659014764242,216.1920507682953,"[37, 0, 217]",217,a,0.26394028030335903,1,colour,0.5,4.0
69,23,1,1,3,34,134,216.7034772275947,217.47195953782648,"[57, 0, 197]",197,a,0.24676780379377306,0,colour,0.5,4.0
69,23,1,1,3,35,135,217.98485307372175,218.82395592401735,"[97, 0, 157]",157,l,0.3172764915507287,1,colour,0.5,4.0
69,23,1,1,3,36,136,219.32870787382126,220.32005901401863,"[39, 0, 215]",215,a,0.46970949531532824,1,colour,0.5,4.0
69,23,1,1,3,37,137,220.81789187598042,221.65598372323439,"[23, 0, 231]",231,a,0.3163261408917606,1,colour,0.5,4.0
69,23,1,1,3,38,138,222.16171083576046,222.99994525546208,"[12, 0, 242]",242,a,0.31630329764448106,1,colour,0.5,4.0
69,23,1,1,3,39,139,223.50554200517945,224.49594279471785,"[84, 0, 170]",170,l,0.46867486159317195,1,colour,0.5,4.0
69,23,1,1,3,40,140,225.00564105738886,225.9999976370018,"[71, 0, 183]",183,l,0.47264601150527596,1,colour,0.5,4.0
69,23,1,1,3,41,141,226.50578067591414,227.3279698062688,"[11, 0, 243]",243,a,0.3118118771817535,1,colour,0.5,4.0
69,23,1,1,3,42,142,227.82502679130994,228.95200749253854,"[68, 0, 186]",186,l,0.6052815546281636,1,colour,0.5,4.0
69,23,1,1,3,43,143,229.4655615084339,230.29617933859117,"[32, 0, 222]",222,a,0.3086422039195895,1,colour,0.5,4.0
69,23,1,1,3,44,144,230.8094289114233,231.7039171536453,"[17, 0, 237]",237,a,0.37295608641579747,1,colour,0.5,4.0
69,23,1,1,3,45,145,232.21576975448988,233.0719344103709,"[26, 0, 228]",228,a,0.3336880572605878,1,colour,0.5,4.0
69,23,1,1,3,46,146,233.5932290770579,234.41592193651013,"[44, 0, 210]",210,a,0.31212774151936173,1,colour,0.5,4.0
69,23,1,1,3,47,147,234.92571708536707,235.8799025467597,"[74, 0, 180]",180,l,0.43184592109173536,1,colour,0.5,4.0
69,23,1,1,3,48,148,236.3946081683971,237.2799434280023,"[75, 0, 179]",179,l,0.3628803223837167,1,colour,0.5,4.0
69,23,1,1,3,49,149,237.7853208053857,238.64792681392282,"[82, 0, 172]",172,l,0.34036886831745505,1,colour,0.5,4.0
69,23,1,1,3,50,150,239.16038318071514,239.96793817239814,"[48, 0, 206]",206,a,0.28622606047429144,1,colour,0.5,4.0
69,23,1,1,4,1,151,249.62047889316455,250.81594509468414,"[81, 0, 173]",173,l,0.6851432989351451,1,colour,0.5,4.0
69,23,1,1,4,2,152,251.3276299170684,252.55193904205225,"[66, 0, 188]",188,a,0.7031007106415927,0,colour,0.5,4.0
69,23,1,1,4,3,153,253.06209613545798,253.73595613823272,"[89, 0, 165]",165,l,0.1554270216729492,1,colour,0.5,4.0
69,23,1,1,4,4,154,254.2458662900608,254.98393108020537,"[90, 0, 164]",164,l,0.22913531493395567,1,colour,0.5,4.0
69,23,1,1,4,5,155,255.49896438186988,256.2719613495283,"[3, 0, 251]",251,a,0.2514195197727531,1,colour,0.5,4.0
69,23,1,1,4,6,156,256.7802689417731,257.31193554471247,"[92, 0, 162]",162,l,0.009678373346105218,1,colour,0.5,4.0
69,23,1,1,4,7,157,257.82749148015864,258.43194005033,"[30, 0, 224]",224,a,0.08293413743376732,1,colour,0.5,4.0
69,23,1,1,4,8,158,258.9367337478325,259.6559439445846,"[1, 0, 253]",253,a,0.19700180715881288,1,colour,0.5,4.0
69,23,1,1,4,9,159,260.17115565855056,260.8959289311897,"[34, 0, 220]",220,a,0.20306664309464395,1,colour,0.5,4.0
69,23,1,1,4,10,160,261.40569296618924,261.98409767705016,"[57, 0, 197]",197,a,0.05703363800421357,0,colour,0.5,4.0
69,23,1,1,4,11,161,262.4996433723718,263.1759188331198,"[69, 0, 185]",185,a,0.15423406194895506,0,colour,0.5,4.0
69,23,1,1,4,12,162,263.687209809199,264.3759528612718,"[22, 0, 232]",232,a,0.16643462562933564,1,colour,0.5,4.0
69,23,1,1,4,13,163,264.88069496513344,265.98424103693105,"[29, 0, 225]",225,a,0.5812860885635018,1,colour,0.5,4.0
69,23,1,1,4,14,164,266.4901296265889,267.2879223555792,"[65, 0, 189]",189,a,0.275099121266976,0,colour,0.5,4.0
69,23,1,1,4,15,165,267.80277133733034,268.38404206582345,"[94, 0, 160]",160,l,0.059813009575009346,1,colour,0.5,4.0
69,23,1,1,4,16,166,268.89654372492805,269.75991340121254,"[18, 0, 236]",236,a,0.34185091126710176,1,colour,0.5,4.0
69,23,1,1,4,17,167,270.2716285495553,271.04015615209937,"[59, 0, 195]",195,a,0.24640507134608924,0,colour,0.5,4.0
69,23,1,1,4,18,168,271.553055989556,272.59193765581585,"[95, 0, 159]",159,l,0.5176893996540457,1,colour,0.5,4.0
69,23,1,1,4,19,169,273.1001322141383,273.9280813434161,"[54, 0, 200]",200,a,0.30560919526033103,0,colour,0.5,4.0
69,23,1,1,4,20,170,274.44422135245986,275.2161880189087,"[63, 0, 191]",191,a,0.25051918742246926,0,colour,0.5,4.0
69,23,1,1,4,21,171,275.72537073725834,276.57604714808986,"[97, 0, 157]",157,l,0.3286397382616997,1,colour,0.5,4.0
69,23,1,1,4,22,172,277.08467769413255,277.9762085461989,"[44, 0, 210]",210,a,0.3698683332186192,1,colour,0.5,4.0
69,23,1,1,4,23,173,278.4912477557082,279.2559085772373,"[99, 0, 155]",155,l,0.24253474595025182,1,colour,0.5,4.0
69,23,1,1,4,24,174,279.77248851256445,280.72815680433996,"[73, 0, 181]",181,a,0.4338978591840714,0,colour,0.5,4.0
69,23,1,1,4,25,175,281.2414020448923,282.0722353088204,"[2, 0, 252]",252,a,0.309438954340294,1,colour,0.5,4.0
69,23,1,1,4,26,176,282.58530056173913,283.40791150112636,"[46, 0, 208]",208,a,0.30058726388961077,1,colour,0.5,4.0
69,23,1,1,4,27,177,283.91338734026067,284.775931121083,"[88, 0, 166]",166,l,0.3502878819126636,1,colour,0.5,4.0
69,23,1,1,4,28,178,285.29486822499894,286.0960137657821,"[10, 0, 244]",244,a,0.2787339265923947,1,colour,0.5,4.0
69,23,1,1,4,29,179,286.6074776405003,287.3919512827415,"[42, 0, 212]",212,a,0.26259962818585336,1,colour,0.5,4.0
69,23,1,1,4,30,180,287.9046191449743,288.83997324993834,"[93, 0, 161]",161,l,0.41379753081128,1,colour,0.5,4.0
69,23,1,1,4,31,181,289.3579296772368,290.2159186282661,"[70, 0, 184]",184,a,0.3356482293456793,0,colour,0.5,4.0
69,23,1,1,4,32,182,290.73316376958974,291.5361934697721,"[39, 0, 215]",215,a,0.2807476615998894,1,colour,0.5,4.0
69,23,1,1,4,33,183,292.04565424332395,292.86403054976836,"[53, 0, 201]",201,a,0.2959615415893495,0,colour,0.5,4.0
69,23,1,1,4,34,184,293.3738355448004,294.2319501328748,"[25, 0, 229]",229,a,0.33600150933489203,1,colour,0.5,4.0
69,23,1,1,4,35,185,294.74901804327965,295.52789631462656,"[16, 0, 238]",238,a,0.2576123555190861,1,colour,0.5,4.0
69,23,1,1,4,36,186,296.04597640945576,296.8959108144045,"[55, 0, 199]",199,a,0.32791309244930744,0,colour,0.5,4.0
69,23,1,1,4,37,187,297.4026654714253,298.2000159113668,"[50, 0, 204]",204,a,0.2761034285649657,1,colour,0.5,4.0
69,23,1,1,4,38,188,298.7151078961324,299.4879106977023,"[21, 0, 233]",233,a,0.2510815996211022,1,colour,0.5,4.0
69,23,1,1,4,39,189,299.9964644438587,300.7679049319122,"[23, 0, 231]",231,a,0.24925730470567942,1,colour,0.5,4.0
69,23,1,1,4,40,190,301.27800452383235,302.0799227904063,"[6, 0, 248]",248,a,0.288848681608215,1,colour,0.5,4.0
69,23,1,1,4,41,191,302.59693516860716,303.43992252252065,"[7, 0, 247]",247,a,0.3209030260331929,1,colour,0.5,4.0
69,23,1,1,4,42,192,303.9563634302467,304.7279008044861,"[60, 0, 194]",194,a,0.24973819102160633,0,colour,0.5,4.0
69,23,1,1,4,43,193,305.23775699944235,305.96791926794685,"[38, 0, 216]",216,a,0.20823272224515676,1,colour,0.5,4.0
69,23,1,1,4,44,194,306.47629775246605,307.295941849472,"[85, 0, 169]",169,l,0.3069620565511286,1,colour,0.5,4.0
69,23,1,1,4,45,195,307.81076562497765,308.61593902949244,"[19, 0, 235]",235,a,0.28305559954605997,1,colour,0.5,4.0
69,23,1,1,4,46,196,309.1232978464104,309.935912972549,"[96, 0, 158]",158,l,0.29070566571317613,1,colour,0.5,4.0
69,23,1,1,4,47,197,310.4515984833706,311.2159068128094,"[17, 0, 237]",237,a,0.24298254889436066,1,colour,0.5,4.0
69,23,1,1,4,48,198,311.7329455788713,312.5119187668897,"[0, 0, 254]",254,a,0.2569818077608943,1,colour,0.5,4.0
69,23,1,1,4,49,199,313.0299196988344,313.7999470671639,"[32, 0, 222]",222,a,0.24870080035179853,1,colour,0.5,4.0
69,23,1,1,4,50,200,314.3114306339994,315.11197595344856,"[20, 0, 234]",234,a,0.2765996749512851,1,colour,0.5,4.0
69,23,1,1,5,1,201,325.08900212403387,326.04824259970337,"[11, 0, 243]",243,a,0.4368099570274353,1,colour,0.4,3.9
69,23,1,1,5,2,202,326.55862339772284,327.5359886698425,"[87, 0, 167]",167,l,0.46802028943784535,1,colour,0.4,3.9
69,23,1,1,5,3,203,328.04897082108073,328.84794508852065,"[61, 0, 193]",193,l,0.27649097330868244,1,colour,0.4,3.9
69,23,1,1,5,4,204,329.36150658736005,330.10393952415325,"[58, 0, 196]",196,l,0.22962486557662487,1,colour,0.4,3.9
69,23,1,1,5,5,205,330.61761641991325,331.18390603153966,"[25, 0, 229]",229,l,0.04442780674435198,0,colour,0.4,3.9
69,23,1,1,5,6,206,331.6959090814926,332.43191799498163,"[57, 0, 197]",197,l,0.21419594553299248,1,colour,0.4,3.9
69,23,1,1,5,7,207,332.94602378900163,333.7039171536453,"[44, 0, 210]",210,l,0.23590277205221355,0,colour,0.4,3.9
69,23,1,1,5,8,208,334.2019008586649,334.9599482170306,"[67, 0, 187]",187,l,0.24754880042746663,1,colour,0.4,3.9
69,23,1,1,5,9,209,335.47080596280284,336.1119353871327,"[53, 0, 201]",201,l,0.11913253040984273,1,colour,0.4,3.9
69,23,1,1,5,10,210,336.62709668884054,337.3038829679135,"[65, 0, 189]",189,l,0.15479411114938557,1,colour,0.4,3.9
69,23,1,1,5,11,211,337.8148202702869,338.5359654328786,"[56, 0, 198]",198,l,0.19948697602376342,1,colour,0.4,3.9
69,23,1,1,5,12,212,339.0497805685736,340.15989875001833,"[89, 0, 165]",165,l,0.5876380379777402,1,colour,0.4,3.9
69,23,1,1,5,13,213,340.6749458364211,341.4719331501983,"[72, 0, 182]",182,l,0.27491361973807216,1,colour,0.4,3.9
69,23,1,1,5,14,214,341.9874973562546,342.7519344734028,"[69, 0, 185]",185,l,0.24241147213615477,1,colour,0.4,3.9
69,23,1,1,5,15,215,343.26889880234376,344.04793343064375,"[99, 0, 155]",155,l,0.25700937723740935,1,colour,0.4,3.9
69,23,1,1,5,16,216,344.56579021480866,345.3999183950946,"[60, 0, 194]",194,l,0.30711093032732606,1,colour,0.4,3.9
69,23,1,1,5,17,217,345.91435817070305,346.73594392905943,"[30, 0, 224]",224,a,0.2997578240465373,1,colour,0.4,3.9
69,23,1,1,5,18,218,347.2454094286077,348.0079076415859,"[15, 0, 239]",239,a,0.24030045722611248,1,colour,0.4,3.9
69,23,1,1,5,19,219,348.52687901002355,349.2399038542062,"[54, 0, 200]",200,a,0.20324505516327918,0,colour,0.4,3.9
69,23,1,1,5,20,220,349.7491996062454,350.6639350815676,"[62, 0, 192]",192,l,0.39271061797626317,1,colour,0.4,3.9
69,23,1,1,5,21,221,351.1712170985993,351.959938764805,"[43, 0, 211]",211,a,0.26645026123151183,1,colour,0.4,3.9
69,23,1,1,5,22,222,352.4682140615769,353.1999206007458,"[64, 0, 190]",190,l,0.20935124508105218,1,colour,0.4,3.9
69,23,1,1,5,23,223,353.70760315912776,354.37591662746854,"[59, 0, 195]",195,l,0.14626182965002954,1,colour,0.4,3.9
69,23,1,1,5,24,224,354.89526411914267,355.5519351037219,"[86, 0, 168]",168,l,0.13431096449494362,1,colour,0.4,3.9
69,23,1,1,5,25,225,356.0558485551737,356.6479331154842,"[90, 0, 164]",164,l,0.07004867540672421,1,colour,0.4,3.9
69,23,1,1,5,26,226,357.1653732105624,357.97594939544797,"[50, 0, 204]",204,a,0.2881259738933295,1,colour,0.4,3.9
69,23,1,1,5,27,227,358.4935572689865,359.2719136942178,"[83, 0, 171]",171,l,0.2562783989124,1,colour,0.4,3.9
69,23,1,1,5,28,228,359.7906093704514,360.8479246085044,"[2, 0, 252]",252,a,0.5351218145806342,1,colour,0.4,3.9
69,23,1,1,5,29,229,361.353197616525,361.9599399464205,"[52, 0, 202]",202,a,0.08486004476435483,0,colour,0.4,3.9
69,23,1,1,5,30,230,362.47831581975333,363.159942073049,"[79, 0, 175]",175,l,0.15946039929986,1,colour,0.4,3.9
69,23,1,1,5,31,231,363.6658668965101,364.58391698030755,"[22, 0, 232]",232,a,0.39622963266447186,1,colour,0.4,3.9
69,23,1,1,5,32,232,365.10452162870206,365.85592952999286,"[32, 0, 222]",222,a,0.22916406579315662,1,colour,0.4,3.9
69,23,1,1,5,33,233,366.3701546594966,367.111965713324,"[42, 0, 212]",212,a,0.21997051662765443,1,colour,0.4,3.9
69,23,1,1,5,34,234,367.62027763784863,368.27190109109506,"[80, 0, 174]",174,l,0.1291878146585077,1,colour,0.4,3.9
69,23,1,1,5,35,235,368.7785828867927,369.6958992353175,"[40, 0, 214]",214,a,0.39539349754340947,1,colour,0.4,3.9
69,23,1,1,5,36,236,370.2161765974015,370.9918958293274,"[27, 0, 227]",227,a,0.25342380232177675,1,colour,0.4,3.9
69,23,1,1,5,37,237,371.4973437052686,372.26395327737555,"[12, 0, 242]",242,a,0.24447128735482693,1,colour,0.4,3.9
69,23,1,1,5,38,238,372.77870655432343,373.5598982775118,"[10, 0, 244]",244,a,0.2592160967178643,1,colour,0.4,3.9
69,23,1,1,5,39,239,374.0758130066097,374.79189921636134,"[36, 0, 218]",218,a,0.19472616468556225,1,colour,0.4,3.9
69,23,1,1,5,40,240,375.31023491732776,376.07193480432034,"[63, 0, 191]",191,l,0.2387034115381539,1,colour,0.4,3.9
69,23,1,1,5,41,241,376.5777249324601,377.27994185267016,"[33, 0, 221]",221,a,0.1862391757313162,1,colour,0.4,3.9
69,23,1,1,5,42,242,377.79051957349293,378.47192921163514,"[74, 0, 180]",180,l,0.1597278208937496,1,colour,0.4,3.9
69,23,1,1,5,43,243,378.9779020843562,379.67192976316437,"[29, 0, 225]",225,a,0.17152036004699767,1,colour,0.4,3.9
69,23,1,1,5,44,244,380.1811172075104,381.0478897136636,"[91, 0, 163]",163,l,0.34465036913752556,1,colour,0.4,3.9
69,23,1,1,5,45,245,381.55628907191567,382.4239402487874,"[76, 0, 178]",178,l,0.34537819656543434,1,colour,0.4,3.9
69,23,1,1,5,46,246,382.92173254466616,383.7199352674652,"[77, 0, 177]",177,l,0.27593407477252185,1,colour,0.4,3.9
69,23,1,1,5,47,247,384.2344353015069,384.90389446821064,"[19, 0, 235]",235,a,0.14779231557622552,1,colour,0.4,3.9
69,23,1,1,5,48,248,385.4219564462546,386.20790307293646,"[23, 0, 231]",231,a,0.2637906188610941,1,colour,0.4,3.9
69,23,1,1,5,49,249,386.71890063374303,387.82389251468703,"[55, 0, 199]",199,a,0.582622408401221,0,colour,0.4,3.9
69,23,1,1,5,50,250,388.3440233662259,389.1839399023447,"[4, 0, 250]",250,a,0.3174875930417329,1,colour,0.4,3.9
69,23,1,1,6,1,251,394.96974553214386,396.1040210502688,"[97, 0, 157]",157,l,0.611778833437711,1,colour,0.28,3.9
69,23,1,1,6,2,252,396.60191101999953,397.367910918314,"[8, 0, 246]",246,a,0.24368083802983165,1,colour,0.28,3.9
69,23,1,1,6,3,253,397.883236059919,398.68795496597886,"[80, 0, 174]",174,l,0.2890357584692538,1,colour,0.28,3.9
69,23,1,1,6,4,254,399.2048645503819,399.9679090278223,"[94, 0, 160]",160,l,0.25323869474232197,1,colour,0.28,3.9
69,23,1,1,6,5,255,400.4737814697437,401.19988791132346,"[2, 0, 252]",252,a,0.211678481195122,1,colour,0.28,3.9
69,23,1,1,6,6,256,401.71594284987077,402.511906163767,"[6, 0, 248]",248,a,0.27360486914403737,1,colour,0.28,3.9
69,23,1,1,6,7,257,403.0191673070658,403.8239129947033,"[78, 0, 176]",176,l,0.2829027874395251,1,colour,0.28,3.9
69,23,1,1,6,8,258,404.3318019285798,405.09597753197886,"[84, 0, 170]",170,l,0.24090579873882234,1,colour,0.28,3.9
69,23,1,1,6,9,259,405.6149386605248,406.3439256923739,"[59, 0, 195]",195,l,0.20720084547065198,1,colour,0.28,3.9
69,23,1,1,6,10,260,406.84943146351725,407.70387304294854,"[41, 0, 213]",213,l,0.33252975600771606,0,colour,0.28,3.9
69,23,1,1,6,11,261,408.2089542481117,409.05592456739396,"[99, 0, 155]",155,l,0.32498760358430445,1,colour,0.28,3.9
69,23,1,1,6,12,262,409.56841047271155,410.72792797978036,"[66, 0, 188]",188,l,0.6376714559737593,1,colour,0.28,3.9
69,23,1,1,6,13,263,411.240437121829,411.9759210385382,"[91, 0, 163]",163,l,0.21350277634337544,1,colour,0.28,3.9
69,23,1,1,6,14,264,412.4904285557568,413.1279330209363,"[57, 0, 197]",197,l,0.11518382956273854,1,colour,0.28,3.9
69,23,1,1,6,15,265,413.646882727975,414.9198649264872,"[28, 0, 226]",226,a,0.7511995565146208,1,colour,0.28,3.9
69,23,1,1,6,16,266,415.4281544019468,415.9761482877657,"[72, 0, 182]",182,l,0.026393988635390997,1,colour,0.28,3.9
69,23,1,1,6,17,267,416.4907062172424,417.3041184877511,"[12, 0, 242]",242,a,0.2916367179714143,1,colour,0.28,3.9
69,23,1,1,6,18,268,417.81902772793546,418.75991143193096,"[51, 0, 203]",203,l,0.41960006509907544,1,colour,0.28,3.9
69,23,1,1,6,19,269,419.2724524755031,419.99989484320395,"[86, 0, 168]",168,l,0.20525721507146955,1,colour,0.28,3.9
69,23,1,1,6,20,270,420.50675938325,421.07189935818315,"[69, 0, 185]",185,l,0.043321493081748486,1,colour,0.28,3.9
69,23,1,1,6,21,271,421.58500517718494,422.2559066081885,"[56, 0, 198]",198,l,0.1487280938308686,1,colour,0.28,3.9
69,23,1,1,6,22,272,422.77256728173234,423.3199353462551,"[74, 0, 180]",180,l,0.02562559489160776,1,colour,0.28,3.9
69,23,1,1,6,23,273,423.8227810810786,424.99191749095917,"[75, 0, 179]",179,l,0.647531392518431,1,colour,0.28,3.9
69,23,1,1,6,24,274,425.51033393037505,426.6079096896574,"[60, 0, 194]",194,l,0.5758683420717716,1,colour,0.28,3.9
69,23,1,1,6,25,275,427.1198548441753,428.18395801912993,"[48, 0, 206]",206,a,0.5421310930978507,1,colour,0.28,3.9
69,23,1,1,6,26,276,428.69805396720767,429.27988395723514,"[76, 0, 178]",178,l,0.06013163132593036,1,colour,0.28,3.9
69,23,1,1,6,27,277,429.79186495183967,430.60788408946246,"[96, 0, 158]",158,l,0.29420223110355437,1,colour,0.28,3.9
69,23,1,1,6,28,278,431.1201561363414,431.8559251977131,"[10, 0, 244]",244,a,0.2140265917405486,1,colour,0.28,3.9
69,23,1,1,6,29,279,432.3702157055959,433.2079101621639,"[18, 0, 236]",236,a,0.31566959945484996,1,colour,0.28,3.9
69,23,1,1,6,30,280,433.71408665319905,434.45594615023583,"[3, 0, 251]",251,a,0.21938919997774065,1,colour,0.28,3.9
69,23,1,1,6,31,281,434.9643541732803,435.78390177804977,"[98, 0, 156]",156,l,0.2979646429885179,1,colour,0.28,3.9
69,23,1,1,6,32,282,436.2925815547351,437.09599210415035,"[95, 0, 159]",159,l,0.28166886745020747,1,colour,0.28,3.9
69,23,1,1,6,33,283,437.60519136395305,438.4319246902596,"[92, 0, 162]",162,l,0.3049101182259619,1,colour,0.28,3.9
69,23,1,1,6,34,284,438.94892170862295,439.7359297503717,"[77, 0, 177]",177,l,0.2650631354190409,1,colour,0.28,3.9
69,23,1,1,6,35,285,440.2460049239453,441.0638767136261,"[89, 0, 165]",165,l,0.2960253448691219,1,colour,0.28,3.9
69,23,1,1,6,36,286,441.57405074243434,442.31188749545254,"[67, 0, 187]",187,l,0.21601630188524723,1,colour,0.28,3.9
69,23,1,1,6,37,287,442.82425012695603,443.57588055124506,"[47, 0, 207]",207,l,0.23003525310195982,0,colour,0.28,3.9
69,23,1,1,6,38,288,444.0899241177831,444.8878944714088,"[61, 0, 193]",193,l,0.27669341024011374,1,colour,0.28,3.9
69,23,1,1,6,39,289,445.402509114705,446.21590129914694,"[79, 0, 175]",175,l,0.2912409028504044,1,colour,0.28,3.9
69,23,1,1,6,40,290,446.7308408652898,447.59191441885196,"[64, 0, 190]",190,l,0.3393968562595546,1,colour,0.28,3.9
69,23,1,1,6,41,291,448.10593396076,448.92791041429155,"[25, 0, 229]",229,a,0.30020483932457864,1,colour,0.28,3.9
69,23,1,1,6,42,292,449.43412668374367,450.3118914340157,"[90, 0, 164]",164,l,0.35598368383944035,1,colour,0.28,3.9
69,23,1,1,6,43,293,450.8262890679762,451.6398990494199,"[88, 0, 166]",166,l,0.2918730257079005,1,colour,0.28,3.9
69,23,1,1,6,44,294,452.1545266895555,452.9440781895537,"[70, 0, 184]",184,l,0.26797641487792134,1,colour,0.28,3.9
69,23,1,1,6,45,295,453.45162999117747,454.26396351726726,"[65, 0, 189]",189,l,0.29073205357417464,1,colour,0.28,3.9
69,23,1,1,6,46,296,454.77978766174056,455.5518736636732,"[93, 0, 161]",161,l,0.24954835698008537,1,colour,0.28,3.9
69,23,1,1,6,47,297,456.06286334758624,456.839904720895,"[39, 0, 215]",215,a,0.2557935742661357,1,colour,0.28,3.9
69,23,1,1,6,48,298,457.3440568430815,458.06410199357197,"[62, 0, 192]",192,l,0.197950582485646,1,colour,0.28,3.9
69,23,1,1,6,49,299,458.5787103353068,459.3679152505938,"[19, 0, 235]",235,a,0.2676136826630682,1,colour,0.28,3.9
69,23,1,1,6,50,300,459.8664314355701,460.58390358975157,"[55, 0, 199]",199,l,0.195899038342759,1,colour,0.28,3.9
69,23,1,1,7,1,301,493.04343728371896,493.8399283515755,"[66, 0, 188]",188,l,0.27336068474687636,1,colour,0.14,3.9
69,23,1,1,7,2,302,494.3568064281717,495.1678938253317,"[20, 0, 234]",234,a,0.2892523736227304,1,colour,0.14,3.9
69,23,1,1,7,3,303,495.684963705251,496.3998908258509,"[94, 0, 160]",160,l,0.19251786964014173,1,colour,0.14,3.9
69,23,1,1,7,4,304,496.91935647139326,497.7278838690836,"[97, 0, 157]",157,l,0.28654034971259534,1,colour,0.14,3.9
69,23,1,1,7,5,305,498.2476901912596,499.0719422874972,"[75, 0, 179]",179,l,0.3024639405775815,1,colour,0.14,3.9
69,23,1,1,7,6,306,499.59340512612835,500.3359164383728,"[62, 0, 192]",192,l,0.22044116258621216,1,colour,0.14,3.9
69,23,1,1,7,7,307,500.8441050890833,501.56787484209053,"[72, 0, 182]",182,l,0.21352995187044144,1,colour,0.14,3.9
69,23,1,1,7,8,308,502.0821535345167,502.82389015168883,"[56, 0, 198]",198,l,0.2193541475571692,1,colour,0.14,3.9
69,23,1,1,7,9,309,503.32784613850527,504.11990446876734,"[73, 0, 181]",181,l,0.2696498669683933,1,colour,0.14,3.9
69,23,1,1,7,10,310,504.6248100185767,505.2878999065142,"[88, 0, 166]",166,l,0.1411382860969752,1,colour,0.14,3.9
69,23,1,1,7,11,311,505.7967596708331,506.5918817296624,"[5, 0, 249]",249,a,0.2733713185880333,1,colour,0.14,3.9
69,23,1,1,7,12,312,507.1092907108832,507.83989211777225,"[52, 0, 202]",202,l,0.20845091296359897,1,colour,0.14,3.9
69,23,1,1,7,13,313,508.35492187482305,509.1279019070789,"[98, 0, 156]",156,l,0.2513060919009149,1,colour,0.14,3.9
69,23,1,1,7,14,314,509.636272120988,510.4158923982177,"[91, 0, 163]",163,l,0.257915616966784,1,colour,0.14,3.9
69,23,1,1,7,15,315,510.9332883823663,511.6079140219372,"[70, 0, 184]",184,l,0.15299187158234417,1,colour,0.14,3.9
69,23,1,1,7,16,316,512.1208709669299,512.8959966727998,"[71, 0, 183]",183,l,0.2532308178488165,1,colour,0.14,3.9
69,23,1,1,7,17,317,513.402280683862,514.1678721639328,"[74, 0, 180]",180,l,0.24319010600447655,1,colour,0.14,3.9
69,23,1,1,7,18,318,514.6836025731172,515.4718890395015,"[99, 0, 155]",155,l,0.26633368292823434,1,colour,0.14,3.9
69,23,1,1,7,19,319,515.9805254931562,516.7438681120984,"[95, 0, 159]",159,l,0.24136856803670526,1,colour,0.14,3.9
69,23,1,1,7,20,320,517.2620427298825,517.8558814807329,"[77, 0, 177]",177,l,0.06915385718457401,1,colour,0.14,3.9
69,23,1,1,7,21,321,518.3737390525639,519.0798613503575,"[78, 0, 176]",176,l,0.18301003146916628,1,colour,0.14,3.9
69,23,1,1,7,22,322,519.5935614830814,520.199905634392,"[83, 0, 171]",171,l,0.09636665158905089,1,colour,0.14,3.9
69,23,1,1,7,23,323,520.698448600946,521.4959148315247,"[50, 0, 204]",204,a,0.2754275887273252,1,colour,0.14,3.9
69,23,1,1,7,24,324,522.0109162316658,523.5278986776248,"[92, 0, 162]",162,l,0.9944585857447237,1,colour,0.14,3.9
69,23,1,1,7,25,325,524.0378887802362,525.0078871615697,"[60, 0, 194]",194,l,0.44797313027083874,1,colour,0.14,3.9
69,23,1,1,7,26,326,525.5098825825844,526.2879073894583,"[87, 0, 167]",167,l,0.2559148787986487,1,colour,0.14,3.9
69,23,1,1,7,27,327,526.8069287764374,527.719906516606,"[55, 0, 199]",199,l,0.4036429973784834,1,colour,0.14,3.9
69,23,1,1,7,28,328,528.2322730866726,528.9919084324501,"[80, 0, 174]",174,l,0.24656812380999327,1,colour,0.14,3.9
69,23,1,1,7,29,329,529.5043427438941,530.2639170433395,"[89, 0, 165]",165,l,0.23759512859396636,1,colour,0.14,3.9
69,23,1,1,7,30,330,530.7699659285136,531.4798640285153,"[93, 0, 161]",161,l,0.18775036302395165,1,colour,0.14,3.9
69,23,1,1,7,31,331,531.9896446052007,533.1759058360476,"[57, 0, 197]",197,a,0.6634317461866885,0,colour,0.14,3.9
69,23,1,1,7,32,332,533.6934692049399,534.4718791933265,"[15, 0, 239]",239,a,0.26572755398228765,1,colour,0.14,3.9
69,23,1,1,7,33,333,534.9812753759325,535.7118913552258,"[8, 0, 246]",246,a,0.20858206343837082,1,colour,0.14,3.9
69,23,1,1,7,34,334,536.2316319050733,536.9438828418497,"[65, 0, 189]",189,l,0.1899736241903156,1,colour,0.14,3.9
69,23,1,1,7,35,335,537.4503519604914,538.2079121314455,"[96, 0, 158]",158,l,0.23600595979951322,1,colour,0.14,3.9
69,23,1,1,7,36,336,538.7160728189629,539.3279123047832,"[69, 0, 185]",185,l,0.08876069658435881,1,colour,0.14,3.9
69,23,1,1,7,37,337,539.8418515019584,540.5758935480844,"[85, 0, 169]",169,l,0.21225428418256342,1,colour,0.14,3.9
69,23,1,1,7,38,338,541.0919992926065,541.8798970328644,"[40, 0, 214]",214,a,0.26579372002743185,1,colour,0.14,3.9
69,23,1,1,7,39,339,542.3895535478368,543.1838520746678,"[76, 0, 178]",178,l,0.27215906023047864,1,colour,0.14,3.9
69,23,1,1,7,40,340,543.7063125255518,544.4398941656109,"[79, 0, 175]",175,l,0.2114638350903988,1,colour,0.14,3.9
69,23,1,1,7,41,341,544.9565741377883,545.6718675354496,"[61, 0, 193]",193,l,0.19302553730085492,1,colour,0.14,3.9
69,23,1,1,7,42,342,546.1909661162645,547.0718883303925,"[48, 0, 206]",206,a,0.3585996092297137,1,colour,0.14,3.9
69,23,1,1,7,43,343,547.5818232947495,548.2719373248983,"[67, 0, 187]",187,l,0.16780048375949264,1,colour,0.14,3.9
69,23,1,1,7,44,344,548.7849966699723,549.4798711177427,"[64, 0, 190]",190,l,0.17246480286121368,1,colour,0.14,3.9
69,23,1,1,7,45,345,549.9758213956375,550.7119114412926,"[81, 0, 173]",173,l,0.21418688702397048,1,colour,0.14,3.9
69,23,1,1,7,46,346,551.2268718814012,552.0159554921556,"[86, 0, 168]",168,l,0.26706269197165966,1,colour,0.14,3.9
69,23,1,1,7,47,347,552.5140167849604,553.2959304279648,"[82, 0, 172]",172,l,0.26784723345190287,1,colour,0.14,3.9
69,23,1,1,7,48,348,553.8029946479946,554.5598781912122,"[51, 0, 203]",203,a,0.23490673513151705,0,colour,0.14,3.9
69,23,1,1,7,49,349,555.0687407127116,555.7918744040653,"[84, 0, 170]",170,l,0.20078548649325967,1,colour,0.14,3.9
69,23,1,1,7,50,350,556.3034938478377,557.072082496481,"[34, 0, 220]",220,a,0.24691076972521842,1,colour,0.14,3.9
69,23,1,1,8,1,351,570.2157642405946,571.0558619459625,"[78, 0, 176]",176,l,0.3239569084253162,1,colour,0.06,3.9
69,23,1,1,8,2,352,571.5681599865202,572.2558774633799,"[53, 0, 201]",201,l,0.16538384417071939,1,colour,0.06,3.9
69,23,1,1,8,3,353,572.7714495465625,573.4558516272809,"[69, 0, 185]",185,l,0.16246544499881566,1,colour,0.06,3.9
69,23,1,1,8,4,354,573.9746083496138,574.5438541697804,"[76, 0, 178]",178,l,0.04695314751006663,1,colour,0.06,3.9
69,23,1,1,8,5,355,575.0540912139695,576.3598410121631,"[99, 0, 155]",155,l,0.7836075748782605,1,colour,0.06,3.9
69,23,1,1,8,6,356,576.8574848279823,577.671881319955,"[54, 0, 200]",200,l,0.30233042663894594,1,colour,0.06,3.9
69,23,1,1,8,7,357,578.1760421069339,578.9198672897182,"[87, 0, 167]",167,l,0.22901794873178005,1,colour,0.06,3.9
69,23,1,1,8,8,358,579.424655079376,580.2238636852708,"[77, 0, 177]",177,l,0.27510109054856,1,colour,0.06,3.9
69,23,1,1,8,9,359,580.7292316101957,581.455899676308,"[98, 0, 156]",156,l,0.20485706720501184,1,colour,0.06,3.9
69,23,1,1,8,10,360,581.963664154755,582.8398743947037,"[50, 0, 204]",204,l,0.3539211119059473,0,colour,0.06,3.9
69,23,1,1,8,11,361,583.3549088777509,584.0878981733695,"[67, 0, 187]",187,l,0.21153945359401405,1,colour,0.06,3.9
69,23,1,1,8,12,362,584.6051102315541,585.367853022879,"[84, 0, 170]",170,l,0.24058245099149644,1,colour,0.06,3.9
69,23,1,1,8,13,363,585.8864490562119,586.5838677496649,"[75, 0, 179]",179,l,0.18775666458532214,1,colour,0.06,3.9
69,23,1,1,8,14,364,587.0931316001806,587.8078491948545,"[70, 0, 184]",184,l,0.19241665140725672,1,colour,0.06,3.9
69,23,1,1,8,15,365,588.3275428770576,589.0558576136827,"[90, 0, 164]",164,l,0.20693381782621145,1,colour,0.06,3.9
69,23,1,1,8,16,366,589.5620884555392,590.2638658434153,"[83, 0, 171]",171,l,0.17943548457697034,1,colour,0.06,3.9
69,23,1,1,8,17,367,590.7769208562095,591.5358913899399,"[95, 0, 159]",159,l,0.23648408893495798,1,colour,0.06,3.9
69,23,1,1,8,18,368,592.0426302931737,592.7198754029814,"[58, 0, 196]",196,l,0.15233966242522,1,colour,0.06,3.9
69,23,1,1,8,19,369,593.2332226494327,593.9918698354159,"[31, 0, 223]",223,a,0.23602486425079405,1,colour,0.06,3.9
69,23,1,1,8,20,370,594.498941144906,595.263862692751,"[57, 0, 197]",197,l,0.24330550292506814,1,colour,0.06,3.9
69,23,1,1,8,21,371,595.7802969047334,596.5838909866288,"[71, 0, 183]",183,l,0.2811316614970565,1,colour,0.06,3.9
69,23,1,1,8,22,372,597.0928685108665,597.8319005870726,"[56, 0, 198]",198,l,0.21711080032400787,1,colour,0.06,3.9
69,23,1,1,8,23,373,598.3384638349526,599.1278739441186,"[66, 0, 188]",188,l,0.26750773820094764,1,colour,0.06,3.9
69,23,1,1,8,24,374,599.6355049086269,600.4079040181823,"[81, 0, 173]",173,l,0.2506255260668695,1,colour,0.06,3.9
69,23,1,1,8,25,375,600.9168287671637,601.6478555279318,"[82, 0, 172]",172,l,0.20877701742574573,1,colour,0.06,3.9
69,23,1,1,8,26,376,602.1670029456727,602.8960210913792,"[59, 0, 195]",195,l,0.20443959068506956,1,colour,0.06,3.9
69,23,1,1,8,27,377,603.404497643467,604.1679024901241,"[79, 0, 175]",175,l,0.24026264809072018,1,colour,0.06,3.9
69,23,1,1,8,28,378,604.6748647040222,605.4558752579615,"[93, 0, 161]",161,l,0.2589782136492431,1,colour,0.06,3.9
69,23,1,1,8,29,379,605.9594070727471,606.7278858381324,"[92, 0, 162]",162,l,0.24652440682984889,1,colour,0.06,3.9
69,23,1,1,8,30,380,607.2406950911973,607.9918745616451,"[60, 0, 194]",194,l,0.24120394024066627,1,colour,0.06,3.9
69,23,1,1,8,31,381,608.5043640115764,609.2558707681019,"[89, 0, 165]",165,l,0.22926370869390666,1,colour,0.06,3.9
69,23,1,1,8,32,382,609.7700151591562,610.5678905958775,"[88, 0, 166]",166,l,0.27544531179592013,1,colour,0.06,3.9
69,23,1,1,8,33,383,611.070775321452,611.7838572734036,"[91, 0, 163]",163,l,0.19105355022475123,1,colour,0.06,3.9
69,23,1,1,8,34,384,612.2896162876859,613.1118971840478,"[55, 0, 199]",199,l,0.30063846381381154,1,colour,0.06,3.9
69,23,1,1,8,35,385,613.6178743890487,614.3118485047016,"[51, 0, 203]",203,l,0.17243132600560784,1,colour,0.06,3.9
69,23,1,1,8,36,386,614.8210666691884,615.6078959049191,"[26, 0, 228]",228,a,0.2771120686084032,1,colour,0.06,3.9
69,23,1,1,8,37,387,616.1212522098795,616.9039342466276,"[68, 0, 186]",186,l,0.26035155495628715,1,colour,0.06,3.9
69,23,1,1,8,38,388,617.4181672530249,618.1118952149991,"[64, 0, 190]",190,l,0.17209655698388815,1,colour,0.06,3.9
69,23,1,1,8,39,389,618.6214552377351,619.3198770571034,"[80, 0, 174]",174,l,0.17616419913247228,1,colour,0.06,3.9
69,23,1,1,8,40,390,619.8248074192088,620.4878390177619,"[72, 0, 182]",182,l,0.1411174121312797,1,colour,0.06,3.9
69,23,1,1,8,41,391,620.9986191757489,621.7359191165306,"[63, 0, 191]",191,l,0.2156114282552153,1,colour,0.06,3.9
69,23,1,1,8,42,392,622.2484751264565,622.9998660923447,"[74, 0, 180]",180,l,0.2292101455386728,1,colour,0.06,3.9
69,23,1,1,8,43,393,623.5142318250146,624.2798410279211,"[97, 0, 157]",157,l,0.24357253033667803,1,colour,0.06,3.9
69,23,1,1,8,44,394,624.7956383910496,625.5118557515088,"[65, 0, 189]",189,l,0.1939353218767792,1,colour,0.06,3.9
69,23,1,1,8,45,395,626.0300536064897,626.8798765528481,"[94, 0, 160]",160,l,0.32800958468578756,1,colour,0.06,3.9
69,23,1,1,8,46,396,627.3922411536332,628.1598392792512,"[73, 0, 181]",181,l,0.2456740930210799,1,colour,0.06,3.9
69,23,1,1,8,47,397,628.6751459101215,629.5758837019093,"[52, 0, 202]",202,l,0.37899926071986556,1,colour,0.06,3.9
69,23,1,1,8,48,398,630.0816312946845,630.863839534577,"[61, 0, 193]",193,l,0.2602786934003234,1,colour,0.06,3.9
69,23,1,1,8,49,399,631.3785620916169,632.2478717542253,"[85, 0, 169]",169,l,0.3467444486450404,1,colour,0.06,3.9
69,23,1,1,8,50,400,632.7546933651902,633.4798817515839,"[25, 0, 229]",229,a,0.20292131369933486,1,colour,0.06,3.9
69,23,1,1,9,1,401,645.6627763863653,646.3038620939478,"[59, 0, 195]",195,l,0.12966870050877333,1,colour,0.06,3.9
69,23,1,1,9,2,402,646.808685723925,647.5438703175168,"[83, 0, 171]",171,l,0.213238111929968,1,colour,0.06,3.9
69,23,1,1,9,3,403,648.0588847144973,648.7198364122305,"[85, 0, 169]",169,l,0.13895165268331766,1,colour,0.06,3.9
69,23,1,1,9,4,404,649.230873751454,649.9518401080277,"[98, 0, 156]",156,l,0.19943735166452825,1,colour,0.06,3.9
69,23,1,1,9,5,405,650.4652921175584,651.1358631118201,"[92, 0, 162]",162,l,0.14841065392829478,1,colour,0.06,3.9
69,23,1,1,9,6,406,651.6529239329975,652.3998404135928,"[78, 0, 176]",176,l,0.22549223876558244,1,colour,0.06,3.9
69,23,1,1,9,7,407,652.9186235237867,653.6878466585185,"[54, 0, 200]",200,l,0.24773587752133608,1,colour,0.06,3.9
69,23,1,1,9,8,408,654.1999525022693,654.9918749553617,"[90, 0, 164]",164,l,0.26730293803848326,1,colour,0.06,3.9
69,23,1,1,9,9,409,655.5003066090867,656.287871155655,"[99, 0, 155]",155,l,0.2659205384552479,1,colour,0.06,3.9
69,23,1,1,9,10,410,656.7972303167917,657.5198630359955,"[55, 0, 199]",199,l,0.20100249559618533,1,colour,0.06,3.9
69,23,1,1,9,11,411,658.031721544452,658.7198360182811,"[52, 0, 202]",202,l,0.16639799810945988,1,colour,0.06,3.9
69,23,1,1,9,12,412,659.2231421591714,659.8798478022218,"[88, 0, 166]",166,l,0.1350064966827631,1,colour,0.06,3.9
69,23,1,1,9,13,413,660.3950642421842,661.0799220027402,"[67, 0, 187]",187,l,0.16238313098438084,1,colour,0.06,3.9
69,23,1,1,9,14,414,661.5902878346387,662.2558754943311,"[87, 0, 167]",167,l,0.15625528013333678,1,colour,0.06,3.9
69,23,1,1,9,15,415,662.7672082181089,663.4398142150603,"[80, 0, 174]",174,l,0.1508682535495609,1,colour,0.06,3.9
69,23,1,1,9,16,416,663.9548234920949,664.6158838910051,"[57, 0, 197]",197,l,0.1390134864486754,1,colour,0.06,3.9
69,23,1,1,9,17,417,665.1186945736408,666.3518849276006,"[51, 0, 203]",203,a,0.7205681779887527,0,colour,0.06,3.9
69,23,1,1,9,18,418,666.8594611478038,668.655839969404,"[97, 0, 157]",157,l,1.2871929528191686,1,colour,0.06,3.9
69,23,1,1,9,19,419,669.1629427864682,670.0798507165164,"[53, 0, 201]",201,l,0.39395241462625563,1,colour,0.06,3.9
69,23,1,1,9,20,420,670.575286237523,671.3198546078056,"[48, 0, 206]",206,l,0.23449398460797966,0,colour,0.06,3.9
69,23,1,1,9,21,421,671.8285099661443,672.6078431296628,"[73, 0, 181]",181,l,0.25743197393603623,1,colour,0.06,3.9
69,23,1,1,9,22,422,673.1255778213963,673.9039582712576,"[93, 0, 161]",161,l,0.2561740295495838,1,colour,0.06,3.9
69,23,1,1,9,23,423,674.4224708091933,675.1439826423302,"[69, 0, 185]",185,l,0.19963939441367984,1,colour,0.06,3.9
69,23,1,1,9,24,424,675.6569892121479,676.3838490813505,"[76, 0, 178]",178,l,0.2050102734938264,1,colour,0.06,3.9
69,23,1,1,9,25,425,676.8914816214237,677.7038813137915,"[94, 0, 160]",160,l,0.2898010015487671,1,colour,0.06,3.9
69,23,1,1,9,26,426,678.2197767444886,678.9518720095512,"[56, 0, 198]",198,a,0.21052451245486736,0,colour,0.06,3.9
69,23,1,1,9,27,427,679.4697662091348,680.4158439550083,"[60, 0, 194]",194,l,0.42365904268808663,1,colour,0.06,3.9
69,23,1,1,9,28,428,680.9231216397602,681.6238521849737,"[79, 0, 175]",175,l,0.1790762972086668,1,colour,0.06,3.9
69,23,1,1,9,29,429,682.1424608211964,682.8478663191199,"[20, 0, 234]",234,a,0.18429672671481967,1,colour,0.06,3.9
69,23,1,1,9,30,430,683.3607232274953,684.1758778730873,"[81, 0, 173]",173,l,0.3024281004909426,1,colour,0.06,3.9
69,23,1,1,9,31,431,684.6948933524545,685.4478376472834,"[71, 0, 183]",183,l,0.23881408222950995,1,colour,0.06,3.9
69,23,1,1,9,32,432,685.9530330677517,686.6798291339073,"[86, 0, 168]",168,l,0.20516702416352928,1,colour,0.06,3.9
69,23,1,1,9,33,433,687.187872849172,688.1438467656262,"[46, 0, 208]",208,l,0.4320723826531321,0,colour,0.06,3.9
69,23,1,1,9,34,434,688.6590620239731,689.3118681970518,"[91, 0, 163]",163,l,0.13073287275619805,1,colour,0.06,3.9
69,23,1,1,9,35,435,689.8216972167138,690.5838598727714,"[84, 0, 170]",170,l,0.24056827276945114,1,colour,0.06,3.9
69,23,1,1,9,36,436,691.0905160682742,691.8319738423452,"[96, 0, 158]",158,l,0.2190946030896157,1,colour,0.06,3.9
69,23,1,1,9,37,437,692.3406165975612,693.0318416676018,"[70, 0, 184]",184,l,0.16969803418032825,1,colour,0.06,3.9
69,23,1,1,9,38,438,693.5438269944862,694.2239597835578,"[75, 0, 179]",179,l,0.15823120577260852,1,colour,0.06,3.9
69,23,1,1,9,39,439,694.7314651112538,695.4478746687528,"[64, 0, 190]",190,l,0.19474703865125775,1,colour,0.06,3.9
69,23,1,1,9,40,440,695.9658862345386,696.7598366010934,"[58, 0, 196]",196,l,0.27087866654619575,1,colour,0.06,3.9
69,23,1,1,9,41,441,697.2785889913794,698.3118618954904,"[77, 0, 177]",177,l,0.5113437515683472,1,colour,0.06,3.9
69,23,1,1,9,42,442,698.8255821142811,699.7598409333732,"[65, 0, 189]",189,l,0.4124710571486503,1,colour,0.06,3.9
69,23,1,1,9,43,443,700.2787469236646,701.0718182257842,"[50, 0, 204]",204,a,0.27129653724841774,1,colour,0.06,3.9
69,23,1,1,9,44,444,701.5913606712129,702.2558652542066,"[63, 0, 191]",191,l,0.14285584865137935,1,colour,0.06,3.9
69,23,1,1,9,45,445,702.7635111850686,703.5518590912689,"[61, 0, 193]",193,l,0.26678227353841066,1,colour,0.06,3.9
69,23,1,1,9,46,446,704.0602911389433,704.815861599287,"[74, 0, 180]",180,l,0.23308874177746475,1,colour,0.06,3.9
69,23,1,1,9,47,447,705.3260297204833,706.0558328013867,"[72, 0, 182]",182,l,0.20792946056462824,1,colour,0.06,3.9
69,23,1,1,9,48,448,706.576186175691,707.2318327666726,"[68, 0, 186]",186,l,0.13372019515372813,1,colour,0.06,3.9
69,23,1,1,9,49,449,707.7481511880178,708.4878626486752,"[89, 0, 165]",165,l,0.21797489863820374,1,colour,0.06,3.9
69,23,1,1,9,50,450,708.9988783264998,709.647808266338,"[95, 0, 159]",159,l,0.12730050412938,1,colour,0.06,3.9
69,23,1,1,10,1,451,714.9587028757669,715.9518444403075,"[50, 0, 204]",204,l,0.47024039970710874,0,colour,0.06,3.9
69,23,1,1,10,2,452,716.4595234540757,717.1998879113235,"[85, 0, 169]",169,l,0.21823798771947622,1,colour,0.06,3.9
69,23,1,1,10,3,453,717.7097523771226,718.4798301579431,"[52, 0, 202]",202,l,0.24824433284811676,1,colour,0.06,3.9
69,23,1,1,10,4,454,718.9910951403435,719.7518360118847,"[59, 0, 195]",195,l,0.2389791035093367,1,colour,0.06,3.9
69,23,1,1,10,5,455,720.2567809463944,721.0318420615513,"[72, 0, 182]",182,l,0.2527156672440469,1,colour,0.06,3.9
69,23,1,1,10,6,456,721.538100078702,722.2718703711871,"[77, 0, 177]",177,l,0.21206996450200677,1,colour,0.06,3.9
69,23,1,1,10,7,457,722.7881588602904,723.5358425530139,"[87, 0, 167]",167,l,0.22601250931620598,1,colour,0.06,3.9
69,23,1,1,10,8,458,724.0539986600634,724.8318462362513,"[79, 0, 175]",175,l,0.2562665834557265,1,colour,0.06,3.9
69,23,1,1,10,9,459,725.3509948356077,726.1358898931649,"[88, 0, 166]",166,l,0.2632711357437074,1,colour,0.06,3.9
69,23,1,1,10,10,460,726.6478953063488,727.3998313550837,"[71, 0, 183]",183,l,0.2298020962625742,1,colour,0.06,3.9
69,23,1,1,10,11,461,727.9137477092445,728.6639673770405,"[90, 0, 164]",164,l,0.22825309983454645,1,colour,0.06,3.9
69,23,1,1,10,12,462,729.179403977003,729.8718736006413,"[53, 0, 201]",201,a,0.17076653870753944,0,colour,0.06,3.9
69,23,1,1,10,13,463,730.3825320601463,731.5678831127007,"[76, 0, 178]",178,l,0.6636708106379956,1,colour,0.06,3.9
69,23,1,1,10,14,464,732.0857682540081,732.855841702316,"[74, 0, 180]",180,l,0.24831128655932844,1,colour,0.06,3.9
69,23,1,1,10,15,465,733.3671649738681,734.1998520714696,"[75, 0, 179]",179,l,0.3108189911581576,1,colour,0.06,3.9
69,23,1,1,10,16,466,734.7110497062095,735.5999547864776,"[83, 0, 171]",171,l,0.3664781062398106,1,colour,0.06,3.9
69,23,1,1,10,17,467,736.11738976161,736.9278359774034,"[69, 0, 185]",185,l,0.2980528643820435,1,colour,0.06,3.9
69,23,1,1,10,18,468,737.4363282832783,738.30385106639,"[81, 0, 173]",173,l,0.34548532287590206,1,colour,0.06,3.9
69,23,1,1,10,19,469,738.8113890832756,739.6158358417451,"[68, 0, 186]",186,l,0.2824975196272135,1,colour,0.06,3.9
69,23,1,1,10,20,470,740.119038007455,740.871835003607,"[97, 0, 157]",157,l,0.2305098376236856,1,colour,0.06,3.9
69,23,1,1,10,21,471,741.3848017950077,742.2238309958484,"[89, 0, 165]",165,l,0.3167160484008491,1,colour,0.06,3.9
69,23,1,1,10,22,472,742.7286258749664,743.5118435423356,"[63, 0, 191]",191,l,0.2613448346965015,1,colour,0.06,3.9
69,23,1,1,10,23,473,744.0256153549999,744.7999072887469,"[93, 0, 161]",161,l,0.25257112574763596,1,colour,0.06,3.9
69,23,1,1,10,24,474,745.3069518164266,746.0318270951975,"[92, 0, 162]",162,l,0.20312611386179924,1,colour,0.06,3.9
69,23,1,1,10,25,475,746.5289797850419,747.3918197383173,"[57, 0, 197]",197,l,0.34098444995470345,1,colour,0.06,3.9
69,23,1,1,10,26,476,747.904078000458,748.6799157799687,"[66, 0, 188]",188,l,0.25419101445004344,1,colour,0.06,3.9
69,23,1,1,10,27,477,749.1854270650074,750.0318715998437,"[98, 0, 156]",156,l,0.3247855606023222,1,colour,0.06,3.9
69,23,1,1,10,28,478,750.5327477105893,751.3278142369818,"[60, 0, 194]",194,l,0.28595391288399696,1,colour,0.06,3.9
69,23,1,1,10,29,479,751.8327733499464,752.6718301200308,"[58, 0, 196]",196,l,0.3170590882655233,1,colour,0.06,3.9
69,23,1,1,10,30,480,753.1765096022282,753.9998322215397,"[51, 0, 203]",203,l,0.3012587714474648,1,colour,0.06,3.9
69,23,1,1,10,31,481,754.4942598904017,755.2718235033099,"[94, 0, 160]",160,l,0.2527625346556306,1,colour,0.06,3.9
69,23,1,1,10,32,482,755.7785375944804,756.5998323003296,"[96, 0, 158]",158,l,0.3121391630265862,1,colour,0.06,3.9
69,23,1,1,10,33,483,757.1097700214013,757.8078334408347,"[55, 0, 199]",199,l,0.17618467914871871,1,colour,0.06,3.9
69,23,1,1,10,34,484,758.3131580429617,759.079919639742,"[56, 0, 198]",198,l,0.24489861028268933,1,colour,0.06,3.9
69,23,1,1,10,35,485,759.5944456674624,760.3998561673798,"[73, 0, 181]",181,l,0.2835557840298861,1,colour,0.06,3.9
69,23,1,1,10,36,486,760.9071822951082,761.6958287367597,"[84, 0, 170]",170,l,0.2667058673687279,1,colour,0.06,3.9
69,23,1,1,10,37,487,762.2042017076164,762.991848961683,"[70, 0, 184]",184,l,0.2657649691682309,1,colour,0.06,3.9
69,23,1,1,10,38,488,763.5012947691139,764.2718498911709,"[46, 0, 208]",208,a,0.24907140946015716,1,colour,0.06,3.9
69,23,1,1,10,39,489,764.7836079688277,765.3998333243653,"[91, 0, 163]",163,l,0.09450218454003334,1,colour,0.06,3.9
69,23,1,1,10,40,490,765.908650159603,766.6639149955008,"[80, 0, 174]",174,l,0.23310685879550874,1,colour,0.06,3.9
69,23,1,1,10,41,491,767.1744088272098,767.9678566462826,"[47, 0, 207]",207,a,0.27175103570334613,1,colour,0.06,3.9
69,23,1,1,10,42,492,768.4869839779567,769.3278303847183,"[61, 0, 193]",193,l,0.3186482572928071,1,colour,0.06,3.9
69,23,1,1,10,43,493,769.8465611133724,770.6718521753792,"[64, 0, 190]",190,l,0.3032520264387131,1,colour,0.06,3.9
69,23,1,1,10,44,494,771.1903265102301,771.9518255356234,"[29, 0, 225]",225,a,0.23945093131624162,1,colour,0.06,3.9
69,23,1,1,10,45,495,772.456088328734,773.2078053990845,"[78, 0, 176]",176,l,0.22995372698642313,1,colour,0.06,3.9
69,23,1,1,10,46,496,773.7217871316243,774.5198035654612,"[82, 0, 172]",172,l,0.27636809344403446,1,colour,0.06,3.9
69,23,1,1,10,47,497,775.0343685839325,775.8398176808842,"[65, 0, 189]",189,l,0.2955491850152612,1,colour,0.06,3.9
69,23,1,1,10,48,498,776.3502406203188,777.1278495255392,"[67, 0, 187]",187,l,0.26846320857293904,1,colour,0.06,3.9
69,23,1,1,10,49,499,777.6347380904481,778.5518610605504,"[95, 0, 159]",159,l,0.3954573005903512,1,colour,0.06,3.9
69,23,1,1,10,50,500,779.0441662927624,779.7038714676164,"[99, 0, 155]",155,l,0.1504460503347218,1,colour,0.06,3.9
69,23,1,1,11,1,501,822.3472737777047,823.1998237145599,"[71, 0, 183]",183,l,0.3276689078193158,1,colour,0.06,3.9
69,23,1,1,11,2,502,823.7097208695486,824.5679496726952,"[73, 0, 181]",181,l,0.3345765739213675,1,colour,0.06,3.9
69,23,1,1,11,3,503,825.0743805884849,825.9438493649941,"[96, 0, 158]",158,l,0.3575409511104226,1,colour,0.06,3.9
69,23,1,1,11,4,504,826.4552616458386,827.255822718842,"[94, 0, 160]",160,l,0.277555932989344,1,colour,0.06,3.9
69,23,1,1,11,5,505,827.7659506676719,828.5757946928497,"[60, 0, 194]",194,l,0.298866156488657,1,colour,0.06,3.9
69,23,1,1,11,6,506,829.083452045219,829.8878294867463,"[51, 0, 203]",203,l,0.28259125514887273,1,colour,0.06,3.9
69,23,1,1,11,7,507,830.3960846974514,831.1438609440811,"[85, 0, 169]",169,l,0.23528837226331234,1,colour,0.06,3.9
69,23,1,1,11,8,508,831.6524820376653,832.4238398179878,"[59, 0, 195]",195,l,0.24942468921653926,1,colour,0.06,3.9
69,23,1,1,11,9,509,832.9338035329711,833.6478141739499,"[68, 0, 186]",186,l,0.19027373474091291,1,colour,0.06,3.9
69,23,1,1,11,10,510,834.1442232823465,834.9198538989294,"[72, 0, 182]",182,l,0.25407640542834997,1,colour,0.06,3.9
69,23,1,1,11,11,511,835.4254872761667,836.3198223123327,"[57, 0, 197]",197,l,0.3723771327640861,1,colour,0.06,3.9
69,23,1,1,11,12,512,836.8318903469481,837.615843324922,"[91, 0, 163]",163,l,0.25976866274140775,1,colour,0.06,3.9
69,23,1,1,11,13,513,838.1315256848466,838.8558161023539,"[61, 0, 193]",193,l,0.2027121817227453,1,colour,0.06,3.9
69,23,1,1,11,14,514,839.3533417643048,840.0478353628423,"[56, 0, 198]",198,l,0.17223991686478257,1,colour,0.06,3.9
69,23,1,1,11,15,515,840.5571874349844,841.3198376724031,"[53, 0, 201]",201,l,0.2408577494788915,1,colour,0.06,3.9
69,23,1,1,11,16,516,841.8386251148768,842.5598648006562,"[88, 0, 166]",166,l,0.19947713008150458,1,colour,0.06,3.9
69,23,1,1,11,17,517,843.0730206379667,843.8558200406842,"[67, 0, 187]",187,l,0.2651489938143641,1,colour,0.06,3.9
69,23,1,1,11,18,518,844.3659830417018,845.1678237207234,"[90, 0, 164]",164,l,0.2802644125185907,1,colour,0.06,3.9
69,23,1,1,11,19,519,845.6785132940859,846.3918272212613,"[40, 0, 214]",214,a,0.19170654681511223,1,colour,0.06,3.9
69,23,1,1,11,20,520,846.8973184202332,847.6558395754546,"[63, 0, 191]",191,l,0.23677080869674683,1,colour,0.06,3.9
69,23,1,1,11,21,521,848.1630168294068,849.0157940154895,"[82, 0, 172]",172,l,0.3308314918540418,1,colour,0.06,3.9
69,23,1,1,11,22,522,849.5225246478803,850.3518530260772,"[78, 0, 176]",176,l,0.30773241934366524,1,colour,0.06,3.9
69,23,1,1,11,23,523,850.8663286417723,851.6638074754737,"[93, 0, 161]",161,l,0.27557528112083673,1,colour,0.06,3.9
69,23,1,1,11,24,524,852.1789104877971,852.9598139156587,"[52, 0, 202]",202,l,0.25869346293620765,1,colour,0.06,3.9
69,23,1,1,11,25,525,853.4764438692946,854.2638016466517,"[74, 0, 180]",180,l,0.2728797986637801,1,colour,0.06,3.9
69,23,1,1,11,26,526,854.7817190829664,855.5838011896703,"[66, 0, 188]",188,l,0.28769353101961315,1,colour,0.06,3.9
69,23,1,1,11,27,527,856.1028599920683,856.8557999546174,"[81, 0, 173]",173,l,0.23066304391250014,1,colour,0.06,3.9
69,23,1,1,11,28,528,857.3704161732458,858.4878197193611,"[8, 0, 246]",246,a,0.5961604733020067,1,colour,0.06,3.9
69,23,1,1,11,29,529,858.9956346100662,859.7037907291669,"[69, 0, 185]",185,l,0.18633054802194238,1,colour,0.06,3.9
69,23,1,1,11,30,530,860.2144267393742,860.8957997497637,"[99, 0, 155]",155,l,0.1653452473692596,1,colour,0.06,3.9
69,23,1,1,11,31,531,861.4115289773326,862.1278160486836,"[64, 0, 190]",190,l,0.19444810948334634,1,colour,0.06,3.9
69,23,1,1,11,32,532,862.6459666420706,863.3598067476414,"[92, 0, 162]",162,l,0.1918849591165781,1,colour,0.06,3.9
69,23,1,1,11,33,533,863.8649363957811,864.5438017882407,"[89, 0, 165]",165,l,0.1559799814131111,1,colour,0.06,3.9
69,23,1,1,11,34,534,865.053563460242,865.7919157578144,"[55, 0, 199]",199,l,0.22718774597160518,1,colour,0.06,3.9
69,23,1,1,11,35,535,866.3084984500892,867.0157944092061,"[79, 0, 175]",175,l,0.19458595546893775,1,colour,0.06,3.9
69,23,1,1,11,36,536,867.5344991439488,868.3197998632677,"[80, 0, 174]",174,l,0.2635413142852485,1,colour,0.06,3.9
69,23,1,1,11,37,537,868.8315666054841,869.5758053266909,"[75, 0, 179]",179,l,0.22948741330765188,1,colour,0.06,3.9
69,23,1,1,11,38,538,870.0914510588627,870.8158257594332,"[77, 0, 177]",177,l,0.20264798472635448,1,colour,0.06,3.9
69,23,1,1,11,39,539,871.3259619788732,872.0798893135507,"[76, 0, 178]",178,l,0.2446162225678563,1,colour,0.06,3.9
69,23,1,1,11,40,540,872.5846172387246,873.4078311566263,"[87, 0, 167]",167,l,0.3013694421388209,1,colour,0.06,3.9
69,23,1,1,11,41,541,873.912742220331,874.6639252353925,"[62, 0, 192]",192,l,0.22942085331305861,1,colour,0.06,3.9
69,23,1,1,11,42,542,875.1786509433296,875.9277879281435,"[84, 0, 170]",170,l,0.22736261365935206,1,colour,0.06,3.9
69,23,1,1,11,43,543,876.4441878756043,877.183813871583,"[97, 0, 157]",157,l,0.2173171758186072,1,colour,0.06,3.9
69,23,1,1,11,44,544,877.6942056971602,878.4477667550091,"[83, 0, 171]",171,l,0.23107106843963265,1,colour,0.06,3.9
69,23,1,1,11,45,545,878.960003355518,879.8238011423964,"[98, 0, 156]",156,l,0.34209194499999285,1,colour,0.06,3.9
69,23,1,1,11,46,546,880.3351330787409,881.063799913507,"[54, 0, 200]",200,a,0.2069582361727953,0,colour,0.06,3.9
69,23,1,1,11,47,547,881.5696069770493,882.3838093029335,"[65, 0, 189]",189,l,0.2924823055509478,1,colour,0.06,3.9
69,23,1,1,11,48,548,882.8978686232585,883.7278047059663,"[86, 0, 168]",168,l,0.30829877010546625,1,colour,0.06,3.9
69,23,1,1,11,49,549,884.2416422909591,884.9357971819118,"[41, 0, 213]",213,a,0.1716223661787808,1,colour,0.06,3.9
69,23,1,1,11,50,550,885.4456195060629,886.2238069712184,"[58, 0, 196]",196,l,0.2535620422568172,1,colour,0.06,3.9
69,23,1,1,12,1,551,891.146862838883,891.8718255513813,"[95, 0, 159]",159,l,0.20203909859992564,1,colour,0.06,3.9
69,23,1,1,12,2,552,892.382184687769,893.279889077181,"[99, 0, 155]",155,l,0.3760635319631547,1,colour,0.06,3.9
69,23,1,1,12,3,553,893.7904029951897,894.4638518225402,"[77, 0, 177]",177,l,0.15133181028068066,1,colour,0.06,3.9
69,23,1,1,12,4,554,894.9779942443129,895.7197974212468,"[70, 0, 184]",184,l,0.21991143957711756,1,colour,0.06,3.9
69,23,1,1,12,5,555,896.2156078836415,896.9678184431978,"[67, 0, 187]",187,l,0.23059018212370574,1,colour,0.06,3.9
69,23,1,1,12,6,556,897.472040276276,898.1917892545462,"[85, 0, 169]",169,l,0.19810063787736,1,colour,0.06,3.9
69,23,1,1,12,7,557,898.7064165009651,899.4318124442361,"[93, 0, 161]",161,l,0.2030331662390381,1,colour,0.06,3.9
69,23,1,1,12,8,558,899.9284169003367,900.6718328769784,"[68, 0, 186]",186,l,0.22166878101415932,1,colour,0.06,3.9
69,23,1,1,12,9,559,901.178591866279,901.9598119463772,"[66, 0, 188]",188,l,0.2578258200082928,1,colour,0.06,3.9
69,23,1,1,12,10,560,902.4649278100114,903.2238227252383,"[92, 0, 162]",162,l,0.24408453051000834,1,colour,0.06,3.9
69,23,1,1,12,11,561,903.7447873486672,904.5438065144699,"[83, 0, 171]",171,l,0.2820965845603496,1,colour,0.06,3.9
69,23,1,1,12,12,562,905.0534732695669,905.8397842037957,"[81, 0, 173]",173,l,0.2616823606658727,1,colour,0.06,3.9
69,23,1,1,12,13,563,906.341653988231,907.1837831514422,"[96, 0, 158]",158,l,0.31995149375870824,1,colour,0.06,3.9
69,23,1,1,12,14,564,907.7002031852026,908.5037673346233,"[80, 0, 174]",174,l,0.28117813542485237,1,colour,0.06,3.9
69,23,1,1,12,15,565,909.0158853875473,909.9358133296482,"[82, 0, 172]",172,l,0.39822682621888816,1,colour,0.06,3.9
69,23,1,1,12,16,566,910.4535637754016,911.2237935806625,"[58, 0, 196]",196,l,0.24788987124338746,1,colour,0.06,3.9
69,23,1,1,12,17,567,911.7348135907669,912.5278195145074,"[51, 0, 203]",203,l,0.27118468494154513,1,colour,0.06,3.9
69,23,1,1,12,18,568,913.0474352152087,913.7757873672526,"[78, 0, 176]",176,l,0.20658368850126863,1,colour,0.06,3.9
69,23,1,1,12,19,569,914.2819701598492,915.0479042860679,"[72, 0, 182]",182,l,0.24200659850612283,1,colour,0.06,3.9
69,23,1,1,12,20,570,915.5655739933718,916.3278036031406,"[56, 0, 198]",198,l,0.23952182359062135,1,colour,0.06,3.9
69,23,1,1,12,21,571,916.8354231463745,917.5998397835065,"[74, 0, 180]",180,l,0.24285179213620722,1,colour,0.06,3.9
69,23,1,1,12,22,572,918.1167643340304,918.8158100054134,"[87, 0, 167]",167,l,0.18682128004729748,1,colour,0.06,3.9
69,23,1,1,12,23,573,919.3262372773606,920.1358260901179,"[90, 0, 164]",164,l,0.2876281524077058,1,colour,0.06,3.9
69,23,1,1,12,24,574,920.654513101792,921.4078130396083,"[63, 0, 191]",191,l,0.2315696773584932,1,colour,0.06,3.9
69,23,1,1,12,25,575,921.9203383296262,922.4878039655741,"[98, 0, 156]",156,l,0.04289968381635845,1,colour,0.06,3.9
69,23,1,1,12,26,576,923.0013894890435,923.7278169151396,"[64, 0, 190]",190,l,0.21346496720798314,1,colour,0.06,3.9
69,23,1,1,12,27,577,924.2421314476524,924.9597981618717,"[86, 0, 168]",168,l,0.195520946290344,1,colour,0.06,3.9
69,23,1,1,12,28,578,925.476719167782,926.3117988801096,"[91, 0, 163]",163,l,0.3129855382721871,1,colour,0.06,3.9
69,23,1,1,12,29,579,926.8204404539429,927.5360485345591,"[71, 0, 183]",183,l,0.19405780802480876,1,colour,0.06,3.9
69,23,1,1,12,30,580,928.0549576752819,928.8799285406712,"[57, 0, 197]",197,l,0.3025096266064793,1,colour,0.06,3.9
69,23,1,1,12,31,581,929.3987998722587,930.0958003010601,"[22, 0, 232]",232,a,0.17553955921903253,1,colour,0.06,3.9
69,23,1,1,12,32,582,930.6020311429165,931.1598975686356,"[59, 0, 195]",195,l,0.03560014069080353,1,colour,0.06,3.9
69,23,1,1,12,33,583,931.6645794138312,932.41604205966,"[89, 0, 165]",165,l,0.22968079173006117,1,colour,0.06,3.9
69,23,1,1,12,34,584,932.9303309922107,933.5917911450379,"[53, 0, 201]",201,l,0.1395030370913446,1,colour,0.06,3.9
69,23,1,1,12,35,585,934.1025216782,934.8638127529994,"[52, 0, 202]",202,l,0.23920005140826106,1,colour,0.06,3.9
69,23,1,1,12,36,586,935.368050733814,936.1917782269884,"[65, 0, 189]",189,l,0.3013304516207427,1,colour,0.06,3.9
69,23,1,1,12,37,587,936.6964340782724,937.4478088964242,"[33, 0, 221]",221,a,0.22902228101156652,1,colour,0.06,3.9
69,23,1,1,12,38,588,937.9626023457386,938.7600063488353,"[94, 0, 160]",160,l,0.2757363640703261,1,colour,0.06,3.9
69,23,1,1,12,39,589,939.2752503580414,940.1038150687236,"[60, 0, 194]",194,l,0.3070427947677672,1,colour,0.06,3.9
69,23,1,1,12,40,590,940.6190626227763,941.399869952118,"[50, 0, 204]",204,l,0.259024687577039,0,colour,0.06,3.9
69,23,1,1,12,41,591,941.9160087795462,942.6879624491557,"[73, 0, 181]",181,l,0.2501729968935251,1,colour,0.06,3.9
69,23,1,1,12,42,592,943.1974401581101,944.0158117385581,"[79, 0, 175]",175,l,0.29635853855870664,1,colour,0.06,3.9
69,23,1,1,12,43,593,944.5257943579927,945.2958311787806,"[88, 0, 166]",166,l,0.24769570515491068,1,colour,0.06,3.9
69,23,1,1,12,44,594,945.8070819827262,946.5838204880711,"[62, 0, 192]",192,l,0.2553410450927913,1,colour,0.06,3.9
69,23,1,1,12,45,595,947.0883294348605,947.8317765253596,"[24, 0, 230]",230,a,0.22114417795091867,1,colour,0.06,3.9
69,23,1,1,12,46,596,948.3384149980266,949.0878150719218,"[84, 0, 170]",170,l,0.22686912445351481,1,colour,0.06,3.9
69,23,1,1,12,47,597,949.6041614564601,950.39180831681,"[69, 0, 185]",185,l,0.26588391070254147,1,colour,0.06,3.9
69,23,1,1,12,48,598,950.9011473918799,951.5758474681061,"[54, 0, 200]",200,l,0.1526614346075803,1,colour,0.06,3.9
69,23,1,1,12,49,599,952.088768573245,952.7598381766584,"[61, 0, 193]",193,l,0.14887578622438014,1,colour,0.06,3.9
69,23,1,1,12,50,600,953.2648543971591,953.967798357131,"[76, 0, 178]",178,l,0.1813617858570069,1,colour,0.06,3.9
69,23,1,1,13,1,601,961.2308343669865,962.1517725239974,"[52, 0, 202]",202,l,0.39761163853108883,1,colour,0.06,3.9
69,23,1,1,13,2,602,962.6691401512362,963.4717917593662,"[83, 0, 171]",171,l,0.2809044122695923,1,colour,0.06,3.9
69,23,1,1,13,3,603,963.9817361759488,964.775826751953,"[66, 0, 188]",188,l,0.27062542364001274,1,colour,0.06,3.9
69,23,1,1,13,4,604,965.2953585633077,965.9277895034757,"[55, 0, 199]",199,l,0.11000396613962948,1,colour,0.06,3.9
69,23,1,1,13,5,605,966.4472610566299,967.1917849222664,"[78, 0, 176]",176,l,0.22298540850169957,1,colour,0.06,3.9
69,23,1,1,13,6,606,967.6855194219388,968.3838234813884,"[86, 0, 168]",168,l,0.18652747105807066,1,colour,0.06,3.9
69,23,1,1,13,7,607,968.8821848847438,969.5677878020797,"[89, 0, 165]",165,l,0.16368400468491018,1,colour,0.06,3.9
69,23,1,1,13,8,608,970.0868269121274,970.7437515335623,"[67, 0, 187]",187,l,0.1444647100288421,1,colour,0.06,3.9
69,23,1,1,13,9,609,971.2492013785522,971.9198188465089,"[54, 0, 200]",200,l,0.14891477674245834,1,colour,0.06,3.9
69,23,1,1,13,10,610,972.4368127139751,973.1438589747995,"[70, 0, 184]",184,l,0.1852309296373278,1,colour,0.06,3.9
69,23,1,1,13,11,611,973.6558238216676,974.2957957326435,"[69, 0, 185]",185,l,0.13091404200531542,1,colour,0.06,3.9
69,23,1,1,13,12,612,974.8151412548032,975.6000205588061,"[56, 0, 198]",198,l,0.2628126989584416,1,colour,0.06,3.9
69,23,1,1,13,13,613,976.1121472762898,976.8477828239556,"[79, 0, 175]",175,l,0.213109718170017,1,colour,0.06,3.9
69,23,1,1,13,14,614,977.3622966425028,978.1118278673384,"[91, 0, 163]",163,l,0.22718183835968375,1,colour,0.06,3.9
69,23,1,1,13,15,615,978.6160504878499,979.4317722718697,"[92, 0, 162]",162,l,0.2940695050638169,1,colour,0.06,3.9
69,23,1,1,13,16,616,979.9440900047775,980.6397749879397,"[88, 0, 166]",166,l,0.17418591026216745,1,colour,0.06,3.9
69,23,1,1,13,17,617,981.14729488804,981.9437910756096,"[95, 0, 159]",159,l,0.27455009962432086,1,colour,0.06,3.9
69,23,1,1,13,18,618,982.4598680695053,983.2877770264167,"[73, 0, 181]",181,l,0.30590182286687195,1,colour,0.06,3.9
69,23,1,1,13,19,619,983.8038469308522,984.5277754038107,"[68, 0, 186]",186,l,0.2013345081359148,1,colour,0.06,3.9
69,23,1,1,13,20,620,985.0391081278212,985.6958228291478,"[22, 0, 232]",232,a,0.13525225641205907,1,colour,0.06,3.9
69,23,1,1,13,21,621,986.2111365492456,986.9277946234215,"[99, 0, 155]",155,l,0.19431814015842974,1,colour,0.06,3.9
69,23,1,1,13,22,622,987.4457857091911,988.2159627389628,"[94, 0, 160]",160,l,0.24837115104310215,1,colour,0.06,3.9
69,23,1,1,13,23,623,988.7269799923524,989.3517978875898,"[11, 0, 243]",243,a,0.10247914283536375,1,colour,0.06,3.9
69,23,1,1,13,24,624,989.8678729122039,990.8320947531611,"[53, 0, 201]",201,l,0.44307880522683263,1,colour,0.06,3.9
69,23,1,1,13,25,625,991.3365532876924,992.3437764246482,"[63, 0, 191]",191,l,0.4962452684994787,1,colour,0.06,3.9
69,23,1,1,13,26,626,992.85654629278,993.7037848213222,"[96, 0, 158]",158,l,0.32519279746338725,1,colour,0.06,3.9
69,23,1,1,13,27,627,994.216119883582,995.015807799995,"[60, 0, 194]",194,l,0.2773038714658469,1,colour,0.06,3.9
69,23,1,1,13,28,628,995.5288092496339,996.3599918552209,"[74, 0, 180]",180,l,0.30954647436738014,1,colour,0.06,3.9
69,23,1,1,13,29,629,996.87260812358,997.663822047878,"[77, 0, 177]",177,l,0.26971051935106516,1,colour,0.06,3.9
69,23,1,1,13,30,630,998.1722269200254,998.9198086066172,"[75, 0, 179]",179,l,0.22611490939743817,1,colour,0.06,3.9
69,23,1,1,13,31,631,999.4377331323922,1000.200075382134,"[97, 0, 157]",157,l,0.2436095520388335,1,colour,0.06,3.9
69,23,1,1,13,32,632,1000.7162417790387,1001.4397960980423,"[58, 0, 196]",196,l,0.20214504329487681,1,colour,0.06,3.9
69,23,1,1,13,33,633,1001.9505912221503,1002.6799173553009,"[80, 0, 174]",174,l,0.2076722790952772,1,colour,0.06,3.9
69,23,1,1,13,34,634,1003.185120258946,1003.951794421766,"[65, 0, 189]",189,l,0.2450057363603264,1,colour,0.06,3.9
69,23,1,1,13,35,635,1004.4667127204593,1005.2397990913596,"[72, 0, 182]",182,l,0.2509949537925422,1,colour,0.06,3.9
69,23,1,1,13,36,636,1005.7480302774347,1006.5677673220634,"[98, 0, 156]",156,l,0.297890993533656,1,colour,0.06,3.9
69,23,1,1,13,37,637,1007.0650188671425,1007.8238086255733,"[59, 0, 195]",195,l,0.23755023023113608,1,colour,0.06,3.9
69,23,1,1,13,38,638,1008.3302202427294,1009.1677737024147,"[49, 0, 205]",205,l,0.31601224560290575,0,colour,0.06,3.9
69,23,1,1,13,39,639,1009.6740210857242,1010.3597779967822,"[81, 0, 173]",173,l,0.16282975254580379,1,colour,0.06,3.9
69,23,1,1,13,40,640,1010.8774193471763,1011.6479630477261,"[76, 0, 178]",178,l,0.24850978492759168,1,colour,0.06,3.9
69,23,1,1,13,41,641,1012.1586585287005,1012.9679086341057,"[50, 0, 204]",204,l,0.2874584048986435,0,colour,0.06,3.9
69,23,1,1,13,42,642,1013.486824864056,1014.2637835296337,"[84, 0, 170]",170,l,0.2553004790097475,1,colour,0.06,3.9
69,23,1,1,13,43,643,1014.7682381256018,1015.4157781826798,"[57, 0, 197]",197,l,0.12597954436205328,1,colour,0.06,3.9
69,23,1,1,13,44,644,1015.9245237316936,1016.6557726217434,"[62, 0, 192]",192,l,0.20960882026702166,1,colour,0.06,3.9
69,23,1,1,13,45,645,1017.1746624640655,1017.9037837975193,"[87, 0, 167]",167,l,0.21710331737995148,1,colour,0.06,3.9
69,23,1,1,13,46,646,1018.4153760659974,1019.0958735565655,"[51, 0, 203]",203,l,0.15876053483225405,1,colour,0.06,3.9
69,23,1,1,13,47,647,1019.6029448658228,1020.2798638711683,"[64, 0, 190]",190,l,0.15472676348872483,1,colour,0.06,3.9
69,23,1,1,13,48,648,1020.7906385150272,1021.6637747862842,"[61, 0, 193]",193,l,0.3517951308749616,1,colour,0.06,3.9
69,23,1,1,13,49,649,1022.1814184996765,1022.8960549619514,"[82, 0, 172]",172,l,0.19243870675563812,1,colour,0.06,3.9
69,23,1,1,13,50,650,1023.4034834897611,1024.0557910536882,"[93, 0, 161]",161,l,0.13089474360458553,1,colour,0.06,3.9
69,23,1,1,14,1,651,1031.4987324064132,1032.6319075187203,"[71, 0, 183]",183,l,0.6102069937624037,1,colour,0.06,3.9
69,23,1,1,14,2,652,1033.1402296831366,1033.8319297316484,"[76, 0, 178]",178,l,0.16961926501244307,1,colour,0.06,3.9
69,23,1,1,14,3,653,1034.3433680061717,1034.991751287831,"[68, 0, 186]",186,l,0.12651202431879938,1,colour,0.06,3.9
69,23,1,1,14,4,654,1035.5000541538466,1036.1997878744733,"[95, 0, 159]",159,l,0.17787900497205555,1,colour,0.06,3.9
69,23,1,1,14,5,655,1036.7185658647213,1037.3357529924251,"[67, 0, 187]",187,l,0.09390471992082894,1,colour,0.06,3.9
69,23,1,1,14,6,656,1037.8447316982783,1038.5277813114226,"[49, 0, 205]",205,l,0.16103342059068382,0,colour,0.06,3.9
69,23,1,1,14,7,657,1039.0323347628582,1039.5919408064801,"[62, 0, 192]",192,l,0.038124694023281336,1,colour,0.06,3.9
69,23,1,1,14,8,658,1040.1105455043726,1040.7517883565743,"[85, 0, 169]",169,l,0.11950944107957184,1,colour,0.06,3.9
69,23,1,1,14,9,659,1041.259753302671,1042.0397591553628,"[87, 0, 167]",167,l,0.25834412151016295,1,colour,0.06,3.9
69,23,1,1,14,10,660,1042.556686068885,1043.14377823635,"[79, 0, 175]",175,l,0.06557497777976096,1,colour,0.06,3.9
69,23,1,1,14,11,661,1043.6506226903293,1044.4077992551029,"[74, 0, 180]",180,l,0.23513319669291377,1,colour,0.06,3.9
69,23,1,1,14,12,662,1044.919223351404,1045.6477629740257,"[83, 0, 171]",171,l,0.20645017479546368,1,colour,0.06,3.9
69,23,1,1,14,13,663,1046.1536807082593,1046.7839411625173,"[72, 0, 182]",182,l,0.1079484832007438,1,colour,0.06,3.9
69,23,1,1,14,14,664,1047.2944038806017,1048.0240360321477,"[97, 0, 157]",157,l,0.20795230357907712,1,colour,0.06,3.9
69,23,1,1,14,15,665,1048.528674160596,1049.3197908047587,"[91, 0, 163]",163,l,0.2687278732191771,1,colour,0.06,3.9
69,23,1,1,14,16,666,1049.8256998744328,1050.5357665405609,"[81, 0, 173]",173,l,0.18829308287240565,1,colour,0.06,3.9
69,23,1,1,14,17,667,1051.0444998804014,1051.6957535122056,"[92, 0, 162]",162,l,0.1287683683913201,1,colour,0.06,3.9
69,23,1,1,14,18,668,1052.2017421387136,1052.9357692187186,"[96, 0, 158]",158,l,0.21235865354537964,1,colour,0.06,3.9
69,23,1,1,14,19,669,1053.453479886055,1054.2637508404441,"[98, 0, 156]",156,l,0.2881318817380816,1,colour,0.06,3.9
69,23,1,1,14,20,670,1054.781739169266,1055.479943585582,"[80, 0, 174]",174,l,0.17670731293037534,1,colour,0.06,3.9
69,23,1,1,14,21,671,1055.9850444828626,1056.6877596185077,"[73, 0, 181]",181,l,0.1811810105573386,1,colour,0.06,3.9
69,23,1,1,14,22,672,1057.203818101436,1057.8717589913867,"[69, 0, 185]",185,l,0.14624646957963705,1,colour,0.06,3.9
69,23,1,1,14,23,673,1058.3916665320285,1059.0799456334207,"[75, 0, 179]",179,l,0.1667504901997745,1,colour,0.06,3.9
69,23,1,1,14,24,674,1059.594659525901,1060.2638075542636,"[82, 0, 172]",172,l,0.14672617428004742,1,colour,0.06,3.9
69,23,1,1,14,25,675,1060.7821842152625,1061.791774367215,"[57, 0, 197]",197,l,0.48777521471492946,1,colour,0.06,3.9
69,23,1,1,14,26,676,1062.297914624447,1063.1278144733515,"[89, 0, 165]",165,l,0.307414585724473,1,colour,0.06,3.9
69,23,1,1,14,27,677,1063.6418923044112,1064.5517492082436,"[52, 0, 202]",202,l,0.38806638517417014,1,colour,0.06,3.9
69,23,1,1,14,28,678,1065.063818818191,1065.7517729965039,"[51, 0, 203]",203,l,0.16649330873042345,1,colour,0.06,3.9
69,23,1,1,14,29,679,1066.2629316404928,1066.9277961987536,"[93, 0, 161]",161,l,0.1427518732380122,1,colour,0.06,3.9
69,23,1,1,14,30,680,1067.434838363668,1068.2157449421939,"[50, 0, 204]",204,l,0.25923972739838064,0,colour,0.06,3.9
69,23,1,1,14,31,681,1068.7317297759,1069.3517758322414,"[94, 0, 160]",160,l,0.09604566730558872,1,colour,0.06,3.9
69,23,1,1,14,32,682,1069.8591484338976,1070.527787612984,"[70, 0, 184]",184,l,0.14641976193524897,1,colour,0.06,3.9
69,23,1,1,14,33,683,1071.0468637447339,1071.7358222305775,"[58, 0, 196]",196,l,0.17790145426988602,1,colour,0.06,3.9
69,23,1,1,14,34,684,1072.2433630044106,1072.967757791048,"[61, 0, 193]",193,l,0.20202964637428522,1,colour,0.06,3.9
69,23,1,1,14,35,685,1073.4779117335565,1074.1597841407638,"[19, 0, 235]",235,a,0.17229663068428636,1,colour,0.06,3.9
69,23,1,1,14,36,686,1074.6689668591134,1075.383786459919,"[86, 0, 168]",168,l,0.192488725297153,1,colour,0.06,3.9
69,23,1,1,14,37,687,1075.8941440209746,1076.6877225968055,"[63, 0, 191]",191,l,0.27155883866362274,1,colour,0.06,3.9
69,23,1,1,14,38,688,1077.2067223223858,1077.8478092115838,"[88, 0, 166]",166,l,0.11868748441338539,1,colour,0.06,3.9
69,23,1,1,14,39,689,1078.3631079653278,1079.0237918477505,"[55, 0, 199]",199,l,0.14789983560331166,1,colour,0.06,3.9
69,23,1,1,14,40,690,1079.5414733702783,1080.199794569984,"[56, 0, 198]",198,l,0.1345354567747563,1,colour,0.06,3.9
69,23,1,1,14,41,691,1080.715239834506,1081.3917854735628,"[66, 0, 188]",188,l,0.15433134185150266,1,colour,0.06,3.9
69,23,1,1,14,42,692,1081.9027381360065,1082.5598049359396,"[99, 0, 155]",155,l,0.1472515647765249,1,colour,0.06,3.9
69,23,1,1,14,43,693,1083.0778653386515,1083.7677891410422,"[53, 0, 201]",201,l,0.16750903776846826,1,colour,0.06,3.9
69,23,1,1,14,44,694,1084.2692824085243,1084.9278005312663,"[90, 0, 164]",164,l,0.13644994236528873,1,colour,0.06,3.9
69,23,1,1,14,45,695,1085.4417570575606,1086.1197989180218,"[65, 0, 189]",189,l,0.15578305860981345,1,colour,0.06,3.9
69,23,1,1,14,46,696,1086.6307086511515,1087.3597917815205,"[64, 0, 190]",190,l,0.21676421584561467,1,colour,0.06,3.9
69,23,1,1,14,47,697,1087.8708188808523,1088.6237769601867,"[59, 0, 195]",195,l,0.2315318682231009,1,colour,0.06,3.9
69,23,1,1,14,48,698,1089.1365539177787,1089.7998139471747,"[78, 0, 176]",176,l,0.14136789832264185,1,colour,0.06,3.9
69,23,1,1,14,49,699,1090.3085307453293,1090.9917808263563,"[2, 0, 252]",252,a,0.16120316833257675,1,colour,0.06,3.9
69,23,1,1,14,50,700,1091.5117994316388,1092.2158418283798,"[84, 0, 170]",170,l,0.18239799491129816,1,colour,0.06,3.9
69,23,1,1,15,1,701,1118.2765102717094,1119.071776084369,"[88, 0, 166]",166,l,0.2720074295066297,1,colour,0.06,3.9
69,23,1,1,15,2,702,1119.5898412130773,1120.3517399923876,"[55, 0, 199]",199,l,0.24009486963041127,1,colour,0.06,3.9
69,23,1,1,15,3,703,1120.871302523883,1121.6798121985048,"[82, 0, 172]",172,l,0.28708503884263337,1,colour,0.06,3.9
69,23,1,1,15,4,704,1122.1993668531068,1122.9118942697532,"[27, 0, 227]",227,a,0.19071405474096537,1,colour,0.06,3.9
69,23,1,1,15,5,705,1123.4216870553792,1124.1037607181352,"[62, 0, 192]",192,l,0.16026187618263066,1,colour,0.06,3.9
69,23,1,1,15,6,706,1124.6092483722605,1125.295769738732,"[69, 0, 185]",185,l,0.1647206076886505,1,colour,0.06,3.9
69,23,1,1,15,7,707,1125.8125895261765,1126.4557578917593,"[89, 0, 165]",165,l,0.12028256081975996,1,colour,0.06,3.9
69,23,1,1,15,8,708,1126.9706234149635,1127.6718352399766,"[54, 0, 200]",200,l,0.18029643222689629,1,colour,0.06,3.9
69,23,1,1,15,9,709,1128.1888716428075,1128.8318265439011,"[83, 0, 171]",171,l,0.1211848622187972,1,colour,0.06,3.9
69,23,1,1,15,10,710,1129.3450875382405,1130.0237564016134,"[65, 0, 189]",189,l,0.15662076929584146,1,colour,0.06,3.9
69,23,1,1,15,11,711,1130.5327725228854,1131.1758759038057,"[97, 0, 157]",157,l,0.12167323147878051,1,colour,0.06,3.9
69,23,1,1,15,12,712,1131.6902640855405,1132.2878368911333,"[23, 0, 231]",231,a,0.07601071754470468,1,colour,0.06,3.9
69,23,1,1,15,13,713,1132.799704457866,1133.447790779639,"[63, 0, 191]",191,l,0.1256751015316695,1,colour,0.06,3.9
69,23,1,1,15,14,714,1133.9560889194254,1134.6237482095603,"[87, 0, 167]",167,l,0.1461586421355605,1,colour,0.06,3.9
69,23,1,1,15,15,715,1135.1437723287381,1135.7597861888353,"[61, 0, 193]",193,l,0.09406974143348634,1,colour,0.06,3.9
69,23,1,1,15,16,716,1136.2687680455856,1136.8880106559955,"[64, 0, 190]",190,l,0.09802041156217456,1,colour,0.06,3.9
69,23,1,1,15,17,717,1137.3938980640378,1138.1757719283924,"[38, 0, 216]",216,a,0.260352342389524,1,colour,0.06,3.9
69,23,1,1,15,18,718,1138.6912857224233,1139.343749249354,"[66, 0, 188]",188,l,0.13104519271291792,1,colour,0.06,3.9
69,23,1,1,15,19,719,1139.8895305078477,1140.5677791375201,"[70, 0, 184]",184,l,0.15135189634747803,1,colour,0.06,3.9
69,23,1,1,15,20,720,1141.081795528531,1141.7757570410613,"[59, 0, 195]",195,l,0.17168931988999248,1,colour,0.06,3.9
69,23,1,1,15,21,721,1142.285044916207,1142.9037562282756,"[53, 0, 201]",201,l,0.09673765487968922,1,colour,0.06,3.9
69,23,1,1,15,22,722,1143.4100528424606,1144.151776068611,"[98, 0, 156]",156,l,0.21962471981532872,1,colour,0.06,3.9
69,23,1,1,15,23,723,1144.66026325454,1145.3760020921472,"[86, 0, 168]",168,l,0.19402472488582134,1,colour,0.06,3.9
69,23,1,1,15,24,724,1145.8946713807527,1146.5759467172902,"[57, 0, 197]",197,l,0.1600523500237614,1,colour,0.06,3.9
69,23,1,1,15,25,725,1147.0823689685203,1147.7837875625119,"[75, 0, 179]",179,l,0.18011920130811632,1,colour,0.06,3.9
69,23,1,1,15,26,726,1148.3010606667958,1149.047784162918,"[50, 0, 204]",204,l,0.225462700240314,0,colour,0.06,3.9
69,23,1,1,15,27,727,1149.5668201223016,1150.287879426498,"[73, 0, 181]",181,l,0.1992593330796808,1,colour,0.06,3.9
69,23,1,1,15,28,728,1150.801395633025,1151.527878591558,"[93, 0, 161]",161,l,0.2052899042610079,1,colour,0.06,3.9
69,23,1,1,15,29,729,1152.0357754020952,1152.7837911071256,"[94, 0, 160]",160,l,0.22742365975864232,1,colour,0.06,3.9
69,23,1,1,15,30,730,1153.2911392904352,1154.0717619059142,"[74, 0, 180]",180,l,0.25638906960375607,1,colour,0.06,3.9
69,23,1,1,15,31,731,1154.5905048437417,1155.1838087514043,"[71, 0, 183]",183,l,0.07190644717775285,1,colour,0.06,3.9
69,23,1,1,15,32,732,1155.6999538806267,1156.383898312226,"[72, 0, 182]",182,l,0.16207514354027808,1,colour,0.06,3.9
69,23,1,1,15,33,733,1156.9031942097936,1157.4718669839203,"[52, 0, 202]",202,l,0.04400836047716439,1,colour,0.06,3.9
69,23,1,1,15,34,734,1157.9840504154563,1158.6637724230532,"[79, 0, 175]",175,l,0.15779639966785908,1,colour,0.06,3.9
69,23,1,1,15,35,735,1159.1717625753954,1159.879751703702,"[90, 0, 164]",164,l,0.18656685552559793,1,colour,0.06,3.9
69,23,1,1,15,36,736,1160.3906456830446,1161.1197685918305,"[96, 0, 158]",158,l,0.20689679612405598,1,colour,0.06,3.9
69,23,1,1,15,37,737,1161.625073895324,1162.3597594860476,"[85, 0, 169]",169,l,0.21313256095163524,1,colour,0.06,3.9
69,23,1,1,15,38,738,1162.8750539077446,1163.463759268634,"[60, 0, 194]",194,l,0.06696998048573732,1,colour,0.06,3.9
69,23,1,1,15,39,739,1163.9689779260661,1164.6157783402596,"[58, 0, 196]",196,l,0.12526510749012232,1,colour,0.06,3.9
69,23,1,1,15,40,740,1165.1252844061237,1165.8478730146307,"[77, 0, 177]",177,l,0.2002746684011072,1,colour,0.06,3.9
69,23,1,1,15,41,741,1166.3598059599753,1166.8877778928727,"[76, 0, 178]",178,l,0.01228524069301784,1,colour,0.06,3.9
69,23,1,1,15,42,742,1167.4025425915606,1168.0397623060271,"[92, 0, 162]",162,l,0.11483842669986188,1,colour,0.06,3.9
69,23,1,1,15,43,743,1168.55883528688,1169.2317587235011,"[81, 0, 173]",173,l,0.1510053116362542,1,colour,0.06,3.9
69,23,1,1,15,44,744,1169.7464048746042,1170.5117813146207,"[99, 0, 155]",155,l,0.24287384748458862,1,colour,0.06,3.9
69,23,1,1,15,45,745,1171.0277799330652,1171.7517485781573,"[91, 0, 163]",163,l,0.20210605254396796,1,colour,0.06,3.9
69,23,1,1,15,46,746,1172.2622656468302,1172.9357617357746,"[68, 0, 186]",186,l,0.14889823528937995,1,colour,0.06,3.9
69,23,1,1,15,47,747,1173.4525917631108,1174.1437313687056,"[84, 0, 170]",170,l,0.1692565327975899,1,colour,0.06,3.9
69,23,1,1,15,48,748,1174.6559490647633,1175.3997655827552,"[80, 0, 174]",174,l,0.22045061504468322,1,colour,0.06,3.9
69,23,1,1,15,49,749,1175.907204744406,1176.6717623784207,"[51, 0, 203]",203,l,0.24276238912716508,1,colour,0.06,3.9
69,23,1,1,15,50,750,1177.1885254520457,1177.9117414574139,"[67, 0, 187]",187,l,0.20168503117747605,1,colour,0.06,3.9
69,23,1,1,16,1,751,1182.69055671338,1184.1757963469718,"[84, 0, 170]",170,l,0.9715107502415776,1,colour,0.06,3.9
69,23,1,1,16,2,752,1184.6821583395358,1185.4637848685961,"[65, 0, 189]",189,l,0.27073924499563873,1,colour,0.06,3.9
69,23,1,1,16,3,753,1185.9683481662069,1186.7517974150833,"[54, 0, 200]",200,l,0.26206833007745445,1,colour,0.06,3.9
69,23,1,1,16,4,754,1187.2651501754299,1187.927741060499,"[56, 0, 198]",198,l,0.1459439960308373,1,colour,0.06,3.9
69,23,1,1,16,5,755,1188.4504063113127,1189.1597246699966,"[97, 0, 157]",157,l,0.19998558517545462,1,colour,0.06,3.9
69,23,1,1,16,6,756,1189.6724027721211,1190.6877403198741,"[44, 0, 210]",210,l,0.4983661293517798,0,colour,0.06,3.9
69,23,1,1,16,7,757,1191.199281388428,1192.1517540132627,"[42, 0, 212]",212,a,0.4306076690554619,1,colour,0.06,3.9
69,23,1,1,16,8,758,1192.6682276099455,1193.6721065999009,"[78, 0, 176]",176,l,0.4817682742141187,1,colour,0.06,3.9
69,23,1,1,16,9,759,1194.1840037053917,1194.8317458054516,"[98, 0, 156]",156,l,0.12639623344875872,1,colour,0.06,3.9
69,23,1,1,16,10,760,1195.330325793475,1195.9677766954992,"[92, 0, 162]",162,l,0.1150349557865411,1,colour,0.06,3.9
69,23,1,1,16,11,761,1196.4883392022457,1197.095776276663,"[93, 0, 161]",161,l,0.08500064793042839,1,colour,0.06,3.9
69,23,1,1,16,12,762,1197.6135334176943,1198.3038873001933,"[60, 0, 194]",194,l,0.16853540064767003,1,colour,0.06,3.9
69,23,1,1,16,13,763,1198.8166945837438,1199.519764968427,"[67, 0, 187]",187,l,0.18098920746706426,1,colour,0.06,3.9
69,23,1,1,16,14,764,1200.035846688319,1200.727766108932,"[66, 0, 188]",188,l,0.16988983727060258,1,colour,0.06,3.9
69,23,1,1,16,15,765,1201.2387368883938,1201.9278154973872,"[77, 0, 177]",177,l,0.16708171484060585,1,colour,0.06,3.9
69,23,1,1,16,16,766,1202.4295072632376,1203.0477609259542,"[62, 0, 192]",192,l,0.10614427435211837,1,colour,0.06,3.9
69,23,1,1,16,17,767,1203.5600924436003,1204.29575240938,"[73, 0, 181]",181,l,0.21372963162139058,1,colour,0.06,3.9
69,23,1,1,16,18,768,1204.8120464123785,1205.5517547221389,"[57, 0, 197]",197,l,0.2174684125930071,1,colour,0.06,3.9
69,23,1,1,16,19,769,1206.0640307073481,1206.7357525196858,"[89, 0, 165]",165,l,0.14982337970286608,1,colour,0.06,3.9
69,23,1,1,16,20,770,1207.2516065966338,1207.9117694203742,"[68, 0, 186]",186,l,0.1417920703534037,1,colour,0.06,3.9
69,23,1,1,16,21,771,1208.4208355601877,1209.1517764623277,"[3, 0, 251]",251,a,0.20697005139663815,1,colour,0.06,3.9
69,23,1,1,16,22,772,1209.6575315382797,1210.35176126007,"[83, 0, 171]",171,l,0.17194768320769072,1,colour,0.06,3.9
69,23,1,1,16,23,773,1210.8607108213473,1211.543741923757,"[80, 0, 174]",174,l,0.16073015914298594,1,colour,0.06,3.9
69,23,1,1,16,24,774,1212.0640338582452,1212.7118003768846,"[71, 0, 183]",183,l,0.13468354288488626,1,colour,0.06,3.9
69,23,1,1,16,25,775,1213.2271822323091,1213.9757276601158,"[58, 0, 196]",196,l,0.22349858982488513,1,colour,0.06,3.9
69,23,1,1,16,26,776,1214.4799766684882,1215.2157110713888,"[55, 0, 199]",199,l,0.21395688084885478,1,colour,0.06,3.9
69,23,1,1,16,27,777,1215.7304229945876,1216.391814224422,"[61, 0, 193]",193,l,0.13955975091084838,1,colour,0.06,3.9
69,23,1,1,16,28,778,1216.9024494469631,1217.5757623973768,"[75, 0, 179]",179,l,0.15050040115602314,1,colour,0.06,3.9
69,23,1,1,16,29,779,1218.0916794897057,1218.8878200345207,"[53, 0, 201]",201,l,0.2748037367127836,1,colour,0.06,3.9
69,23,1,1,16,30,780,1219.404180597281,1220.1117227103096,"[59, 0, 195]",195,l,0.18564998195506632,1,colour,0.06,3.9
69,23,1,1,16,31,781,1220.6231448373292,1221.4077823197003,"[81, 0, 173]",173,l,0.2609706809744239,1,colour,0.06,3.9
69,23,1,1,16,32,782,1221.921585246222,1222.6877600122243,"[79, 0, 175]",175,l,0.24465403170324862,1,colour,0.06,3.9
69,23,1,1,16,33,783,1223.2029390370008,1223.9117804481648,"[63, 0, 191]",191,l,0.18688390171155334,1,colour,0.06,3.9
69,23,1,1,16,34,784,1224.4218587724026,1225.0477266614325,"[69, 0, 185]",185,l,0.10379892122000456,1,colour,0.06,3.9
69,23,1,1,16,35,785,1225.5625921846367,1226.2558550143149,"[72, 0, 182]",182,l,0.16992488969117403,1,colour,0.06,3.9
69,23,1,1,16,36,786,1226.7688178671524,1227.535736608319,"[85, 0, 169]",169,l,0.2446351272519678,1,colour,0.06,3.9
69,23,1,1,16,37,787,1228.04076818889,1228.575772243552,"[94, 0, 160]",160,l,0.012979591265320778,1,colour,0.06,3.9
69,23,1,1,16,38,788,1229.0877327581402,1229.8157922823448,"[87, 0, 167]",167,l,0.20672074682079256,1,colour,0.06,3.9
69,23,1,1,16,39,789,1230.3223539548926,1230.9197373203933,"[99, 0, 155]",155,l,0.0756905204616487,1,colour,0.06,3.9
69,23,1,1,16,40,790,1231.4222348954063,1232.2077754668426,"[86, 0, 168]",168,l,0.26361850812099874,1,colour,0.06,3.9
69,23,1,1,16,41,791,1232.7192570646293,1233.4157458874397,"[74, 0, 180]",180,l,0.1725884706247598,1,colour,0.06,3.9
69,23,1,1,16,42,792,1233.9245942302514,1234.567817340605,"[82, 0, 172]",172,l,0.12088947789743543,1,colour,0.06,3.9
69,23,1,1,16,43,793,1235.0808648702223,1235.8477651006542,"[95, 0, 159]",159,l,0.24493760080076754,1,colour,0.06,3.9
69,23,1,1,16,44,794,1236.365345404949,1237.0637506828643,"[91, 0, 163]",163,l,0.17537453770637512,1,colour,0.06,3.9
69,23,1,1,16,45,795,1237.5684289834462,1238.263765806565,"[64, 0, 190]",190,l,0.17380151664838195,1,colour,0.06,3.9
69,23,1,1,16,46,796,1238.7717791956384,1239.4319195703138,"[96, 0, 158]",158,l,0.13768858811818063,1,colour,0.06,3.9
69,23,1,1,16,47,797,1239.9437048234977,1240.647761004744,"[88, 0, 166]",166,l,0.18210654868744314,1,colour,0.06,3.9
69,23,1,1,16,48,798,1241.1625469711144,1241.983735338552,"[51, 0, 203]",203,a,0.30358915869146585,0,colour,0.06,3.9
69,23,1,1,16,49,799,1242.495498930104,1243.4557090548333,"[76, 0, 178]",178,l,0.44353842339478433,1,colour,0.06,3.9
69,23,1,1,16,50,800,1243.965547526721,1244.8477202022914,"[52, 0, 202]",202,a,0.3686749797780067,0,colour,0.06,3.9
