id,age,condition,counterbalance,block,trialinblock,trial,tstart,tend,trialstim,trialintensity,response,RT,accuracy,trialtype,colourfreq,credits
76,21,1,1,Practice,1,NA,5.5138953030109406e-06,1.8422658280469477,"[58, 0, 196]",196,a,1.318914103321731,0,colour,0.5,4
76,21,1,1,Practice,2,NA,2.360423904377967,3.6102617383003235,"[26, 0, 228]",228,a,0.7282068226486444,1,colour,0.5,4
76,21,1,1,Practice,3,NA,4.126111088786274,6.370242880657315,"[74, 0, 180]",180,l,1.7219328545033932,1,colour,0.5,4
76,21,1,1,Practice,4,NA,6.876331544481218,7.802257761824876,"[37, 0, 217]",217,a,0.40382298501208425,1,colour,0.5,4
76,21,1,1,Practice,5,NA,8.314113119617105,9.338246431667358,"[9, 0, 245]",245,a,0.502313254866749,1,colour,0.5,4
76,21,1,1,Practice,6,NA,9.845285445917398,11.09028566814959,"[16, 0, 238]",238,a,0.7227855315431952,1,colour,0.5,4
76,21,1,1,Practice,7,NA,11.59545430727303,13.154278960544616,"[72, 0, 182]",182,l,1.0365252853371203,1,colour,0.5,4
76,21,1,1,Practice,8,NA,13.673637085594237,14.730254428461194,"[50, 0, 204]",204,a,0.534241568762809,1,colour,0.5,4
76,21,1,1,Practice,9,NA,15.236291891895235,16.762220551259816,"[18, 0, 236]",236,a,1.003599753137678,1,colour,0.5,4
76,21,1,1,Practice,10,NA,17.267778310459107,18.226231881417334,"[67, 0, 187]",187,l,0.43624872621148825,1,colour,0.5,4
76,21,1,1,1,1,1,4.833002568222582,5.463956585619599,"[33, 0, 221]",221,a,0.10797565896064043,1,colour,0.5,4.0
76,21,1,1,1,2,2,5.974518552888185,7.360095436684787,"[59, 0, 195]",195,l,0.8633771589957178,1,colour,0.5,4.0
76,21,1,1,1,3,3,7.865270377136767,9.079956660978496,"[76, 0, 178]",178,l,0.693165943492204,1,colour,0.5,4.0
76,21,1,1,1,4,4,9.599727537482977,10.535961100365967,"[20, 0, 234]",234,a,0.41417719842866063,1,colour,0.5,4.0
76,21,1,1,1,5,5,11.053003804758191,12.064001562539488,"[87, 0, 167]",167,l,0.4887298974208534,1,colour,0.5,4.0
76,21,1,1,1,6,6,12.568745635449886,13.615994955413043,"[95, 0, 159]",159,l,0.5249527087435126,1,colour,0.5,4.0
76,21,1,1,1,7,7,14.13128583272919,15.200010003522038,"[97, 0, 157]",157,l,0.5464165322482586,1,colour,0.5,4.0
76,21,1,1,1,8,8,15.70954009424895,16.743983115069568,"[72, 0, 182]",182,l,0.5121420775540173,1,colour,0.5,4.0
76,21,1,1,1,9,9,17.25658126641065,18.167979289777577,"[13, 0, 241]",241,a,0.3890612400136888,1,colour,0.5,4.0
76,21,1,1,1,10,10,18.678606241941452,19.55999792041257,"[26, 0, 228]",228,a,0.3591509936377406,1,colour,0.5,4.0
76,21,1,1,1,11,11,20.069290915504098,20.864006525371224,"[98, 0, 156]",156,l,0.27237764513120055,1,colour,0.5,4.0
76,21,1,1,1,12,12,21.381892453879118,22.37597452290356,"[90, 0, 164]",164,l,0.47181539004668593,1,colour,0.5,4.0
76,21,1,1,1,13,13,22.88204191857949,23.688001439906657,"[91, 0, 163]",163,l,0.28379248548299074,1,colour,0.5,4.0
76,21,1,1,1,14,14,24.19465330336243,25.16796235460788,"[52, 0, 202]",202,a,0.4510364648886025,0,colour,0.5,4.0
76,21,1,1,1,15,15,25.679113909136504,26.895992340520024,"[22, 0, 232]",232,a,0.6945956046693027,1,colour,0.5,4.0
76,21,1,1,1,16,16,27.413670712150633,28.22399562364444,"[68, 0, 186]",186,l,0.28805271862074733,1,colour,0.5,4.0
76,21,1,1,1,17,17,28.741848863195628,33.344009581487626,"[18, 0, 236]",236,l,4.079957448877394,0,colour,0.5,4.0
76,21,1,1,1,18,18,33.85164290899411,35.04796533193439,"[69, 0, 185]",185,l,0.6740206917747855,1,colour,0.5,4.0
76,21,1,1,1,19,19,35.55489643244073,36.68795102741569,"[62, 0, 192]",192,l,0.6114609995856881,1,colour,0.5,4.0
76,21,1,1,1,20,20,37.19569817697629,38.32798910466954,"[63, 0, 191]",191,l,0.6101364954374731,1,colour,0.5,4.0
76,21,1,1,1,21,21,38.83652433985844,40.8399886097759,"[31, 0, 223]",223,a,1.4812515480443835,1,colour,0.5,4.0
76,21,1,1,1,22,22,41.35229137679562,42.455977263860404,"[12, 0, 242]",242,a,0.5813833684660494,1,colour,0.5,4.0
76,21,1,1,1,23,23,42.96168429078534,43.91198682365939,"[19, 0, 235]",235,a,0.42799410689622164,1,colour,0.5,4.0
76,21,1,1,1,24,24,44.43055961979553,45.38396881055087,"[10, 0, 244]",244,a,0.43109209975227714,1,colour,0.5,4.0
76,21,1,1,1,25,25,45.89942470891401,47.21598282502964,"[89, 0, 165]",165,l,0.7944013201631606,1,colour,0.5,4.0
76,21,1,1,1,26,26,47.72779249679297,48.655986479949206,"[65, 0, 189]",189,l,0.4060033168643713,1,colour,0.5,4.0
76,21,1,1,1,27,27,49.16534524736926,50.271957017015666,"[51, 0, 203]",203,a,0.584550678730011,0,colour,0.5,4.0
76,21,1,1,1,28,28,50.790507758036256,51.74399296101183,"[77, 0, 177]",177,l,0.4312327024526894,1,colour,0.5,4.0
76,21,1,1,1,29,29,52.259302348829806,53.28800073079765,"[70, 0, 184]",184,l,0.5064671491272748,1,colour,0.5,4.0
76,21,1,1,1,30,30,53.806368727236986,54.799950217828155,"[79, 0, 175]",175,l,0.47136837476864457,1,colour,0.5,4.0
76,21,1,1,1,31,31,55.30649810563773,56.335961730685085,"[2, 0, 252]",252,a,0.5071918261237442,1,colour,0.5,4.0
76,21,1,1,1,32,32,56.853488471824676,57.9759919308126,"[54, 0, 200]",200,a,0.6002781339921057,0,colour,0.5,4.0
76,21,1,1,1,33,33,58.4949416378513,59.471993014682084,"[38, 0, 216]",216,l,0.45553773175925016,0,colour,0.5,4.0
76,21,1,1,1,34,34,59.97871655784547,60.99999645538628,"[8, 0, 246]",246,a,0.49897934775799513,1,colour,0.5,4.0
76,21,1,1,1,35,35,61.510083050467074,62.90396851114929,"[30, 0, 224]",224,a,0.8715801853686571,1,colour,0.5,4.0
76,21,1,1,1,36,36,63.41639612708241,64.72001955052838,"[81, 0, 173]",173,l,0.7815217659808695,1,colour,0.5,4.0
76,21,1,1,1,37,37,65.22925149928778,66.47995579475537,"[24, 0, 230]",230,a,0.7284943303093314,1,colour,0.5,4.0
76,21,1,1,1,38,38,66.99519468378276,68.02398758893833,"[28, 0, 226]",226,a,0.5064899926073849,1,colour,0.5,4.0
76,21,1,1,1,39,39,68.54184752423316,69.64798589097336,"[0, 0, 254]",254,a,0.5837779529392719,1,colour,0.5,4.0
76,21,1,1,1,40,40,70.16699900710955,71.06399407982826,"[11, 0, 243]",243,a,0.3748032245784998,1,colour,0.5,4.0
76,21,1,1,1,41,41,71.57342058839276,72.73598449490964,"[92, 0, 162]",162,l,0.640338581521064,1,colour,0.5,4.0
76,21,1,1,1,42,42,73.24539367482066,74.4160081888549,"[36, 0, 218]",218,a,0.6484065186232328,1,colour,0.5,4.0
76,21,1,1,1,43,43,74.93299024086446,76.2399790789932,"[53, 0, 201]",201,l,0.7849253839813173,1,colour,0.5,4.0
76,21,1,1,1,44,44,76.7456888621673,77.7839825162664,"[27, 0, 227]",227,a,0.51610416918993,1,colour,0.5,4.0
76,21,1,1,1,45,45,78.29266780707985,79.62395773548633,"[34, 0, 220]",220,a,0.8089409358799458,1,colour,0.5,4.0
76,21,1,1,1,46,46,80.1366602559574,81.27998281270266,"[32, 0, 222]",222,a,0.6210881732404232,1,colour,0.5,4.0
76,21,1,1,1,47,47,81.79297599149868,82.99996770452708,"[4, 0, 250]",250,a,0.6847388190217316,1,colour,0.5,4.0
76,21,1,1,1,48,48,83.5118754436262,84.66396265057847,"[14, 0, 240]",240,a,0.6299607371911407,1,colour,0.5,4.0
76,21,1,1,1,49,49,85.18386192061007,86.51998985465616,"[41, 0, 213]",213,l,0.8139514462091029,0,colour,0.5,4.0
76,21,1,1,1,50,50,87.02774291159585,88.33599717682227,"[86, 0, 168]",168,l,0.7859592298045754,1,colour,0.5,4.0
76,21,1,1,2,1,51,99.9186026500538,102.13594896998256,"[55, 0, 199]",199,a,1.6943014017306268,0,colour,0.5,4.0
76,21,1,1,2,2,52,102.65410468354821,103.83994607441127,"[85, 0, 169]",169,l,0.6637172843329608,1,colour,0.5,4.0
76,21,1,1,2,3,53,104.35719082178548,105.7599921701476,"[66, 0, 188]",188,l,0.8805063124746084,1,colour,0.5,4.0
76,21,1,1,2,4,54,106.27926561888307,107.55198906036094,"[67, 0, 187]",187,l,0.7504729107022285,1,colour,0.5,4.0
76,21,1,1,2,5,55,108.06069404352456,109.19197672512382,"[82, 0, 172]",172,l,0.6091282493434846,1,colour,0.5,4.0
76,21,1,1,2,6,56,109.70146546186879,111.02397656161338,"[96, 0, 158]",158,l,0.8003539103083313,1,colour,0.5,4.0
76,21,1,1,2,7,57,111.52968595083803,112.59996660193428,"[11, 0, 243]",243,a,0.54798403987661,1,colour,0.5,4.0
76,21,1,1,2,8,58,113.1079220958054,114.21598164364696,"[44, 0, 210]",210,a,0.5857995646074414,1,colour,0.5,4.0
76,21,1,1,2,9,59,114.73301765276119,115.99997361237183,"[70, 0, 184]",184,l,0.7449405547231436,1,colour,0.5,4.0
76,21,1,1,2,10,60,116.51451500039548,117.84799195593223,"[72, 0, 182]",182,l,0.8112835325300694,1,colour,0.5,4.0
76,21,1,1,2,11,61,118.35835975687951,119.3599863415584,"[47, 0, 207]",207,a,0.47934257658198476,1,colour,0.5,4.0
76,21,1,1,2,12,62,119.87413309561089,120.98395786155015,"[69, 0, 185]",185,l,0.5881067151203752,1,colour,0.5,4.0
76,21,1,1,2,13,63,121.49923574179411,123.67196481535211,"[54, 0, 200]",200,a,1.6507325735874474,0,colour,0.5,4.0
76,21,1,1,2,14,64,124.18696463992819,125.43994103325531,"[15, 0, 239]",239,a,0.7308680405840278,1,colour,0.5,4.0
76,21,1,1,2,15,65,125.95269002765417,127.295990686398,"[52, 0, 202]",202,a,0.8209882937371731,0,colour,0.5,4.0
76,21,1,1,2,16,66,127.8123205290176,129.13596117915586,"[94, 0, 160]",160,l,0.8015141803771257,1,colour,0.5,4.0
76,21,1,1,2,17,67,129.6561873415485,131.2719428385608,"[62, 0, 192]",192,a,1.0935348984785378,0,colour,0.5,4.0
76,21,1,1,2,18,68,131.7813335075043,132.83195611927658,"[29, 0, 225]",225,a,0.5284016192890704,1,colour,0.5,4.0
76,21,1,1,2,19,69,133.3439056063071,134.6399864833802,"[46, 0, 208]",208,a,0.7738193185068667,1,colour,0.5,4.0
76,21,1,1,2,20,70,135.15651206765324,136.20797987282276,"[23, 0, 231]",231,a,0.5291897049173713,1,colour,0.5,4.0
76,21,1,1,2,21,71,136.71914521232247,138.3519778754562,"[18, 0, 236]",236,a,1.1105844951234758,1,colour,0.5,4.0
76,21,1,1,2,22,72,138.86002395348623,139.8319376083091,"[92, 0, 162]",162,l,0.44970053900033236,1,colour,0.5,4.0
76,21,1,1,2,23,73,140.34442863380536,141.63195084175095,"[64, 0, 190]",190,l,0.7652693139389157,1,colour,0.5,4.0
76,21,1,1,2,24,74,142.14141358435154,143.55994672048837,"[21, 0, 233]",233,a,0.896113645285368,1,colour,0.5,4.0
76,21,1,1,2,25,75,144.0791063476354,145.66399100748822,"[73, 0, 181]",181,l,1.0632729474455118,1,colour,0.5,4.0
76,21,1,1,2,26,76,146.17299491958693,148.71197603223845,"[4, 0, 250]",250,a,2.0166234555654228,1,colour,0.5,4.0
76,21,1,1,2,27,77,149.22024620883167,150.70396599080414,"[58, 0, 196]",196,l,0.9614909123629332,1,colour,0.5,4.0
76,21,1,1,2,28,78,151.22038405481726,152.3599473508075,"[2, 0, 252]",252,a,0.6173560880124569,1,colour,0.5,4.0
76,21,1,1,2,29,79,152.8767104241997,155.16798125905916,"[9, 0, 245]",245,a,1.7696366729214787,1,colour,0.5,4.0
76,21,1,1,2,30,80,155.6738371597603,156.9120017895475,"[36, 0, 218]",218,a,0.7159022837877274,1,colour,0.5,4.0
76,21,1,1,2,31,81,157.42390637798235,158.79994549183175,"[25, 0, 229]",229,a,0.8537208414636552,1,colour,0.5,4.0
76,21,1,1,2,32,82,159.31466647330672,160.42394300550222,"[40, 0, 214]",214,a,0.5869684997014701,1,colour,0.5,4.0
76,21,1,1,2,33,83,160.9398549781181,161.97601556172594,"[35, 0, 219]",219,a,0.5139289572834969,1,colour,0.5,4.0
76,21,1,1,2,34,84,162.48681344278157,163.97593679232523,"[34, 0, 220]",220,a,0.9667708124034107,1,colour,0.5,4.0
76,21,1,1,2,35,85,164.4869930362329,165.71196697372943,"[5, 0, 249]",249,a,0.7027277387678623,1,colour,0.5,4.0
76,21,1,1,2,36,86,166.22143798694015,167.5119561823085,"[24, 0, 230]",230,a,0.7681183964014053,1,colour,0.5,4.0
76,21,1,1,2,37,87,168.01862261770293,169.2079645129852,"[60, 0, 194]",194,l,0.6671646195463836,1,colour,0.5,4.0
76,21,1,1,2,38,88,169.72178595000878,170.91195689095184,"[83, 0, 171]",171,l,0.6679152897559106,1,colour,0.5,4.0
76,21,1,1,2,39,89,171.42503002099693,173.02396198920906,"[59, 0, 195]",195,l,1.0765928220935166,1,colour,0.5,4.0
76,21,1,1,2,40,90,173.53456215932965,174.91201124200597,"[63, 0, 191]",191,l,0.855132779572159,1,colour,0.5,4.0
76,21,1,1,2,41,91,175.42537463642657,176.57597664976493,"[16, 0, 238]",238,a,0.6283357287757099,1,colour,0.5,4.0
76,21,1,1,2,42,92,177.08173133153468,178.56795439869165,"[27, 0, 227]",227,a,0.9645940251648426,1,colour,0.5,4.0
76,21,1,1,2,43,93,179.08193613169715,180.42396387970075,"[14, 0, 240]",240,a,0.8205074076540768,1,colour,0.5,4.0
76,21,1,1,2,44,94,180.94143666373566,182.76798488246277,"[93, 0, 161]",161,l,1.3042594846338034,1,colour,0.5,4.0
76,21,1,1,2,45,95,183.28535920521244,184.5119683914818,"[6, 0, 248]",248,a,0.7043220275081694,1,colour,0.5,4.0
76,21,1,1,2,46,96,185.01988725783303,186.4639286226593,"[28, 0, 226]",226,a,0.9218081631697714,1,colour,0.5,4.0
76,21,1,1,2,47,97,186.97315623890609,188.24795170500875,"[74, 0, 180]",180,l,0.7525516301393509,1,colour,0.5,4.0
76,21,1,1,2,48,98,188.75455670058727,189.8799545345828,"[68, 0, 186]",186,l,0.6031859000213444,1,colour,0.5,4.0
76,21,1,1,2,49,99,190.39528400823474,191.51195027446374,"[86, 0, 168]",168,l,0.5943456306122243,1,colour,0.5,4.0
76,21,1,1,2,50,100,192.02043234044686,193.247945797164,"[13, 0, 241]",241,a,0.7052708026021719,1,colour,0.5,4.0
76,21,1,1,3,1,101,203.6143124452792,205.03997616423294,"[34, 0, 220]",220,a,0.9027188373729587,1,colour,0.5,4.0
76,21,1,1,3,2,102,205.55280274664983,206.92796279583126,"[9, 0, 245]",245,a,0.852908730506897,1,colour,0.5,4.0
76,21,1,1,3,3,103,207.44350100820884,209.1519855945371,"[31, 0, 223]",223,a,1.186143864877522,1,colour,0.5,4.0
76,21,1,1,3,4,104,209.66240065731108,210.83996340399608,"[25, 0, 229]",229,a,0.6552428989671171,1,colour,0.5,4.0
76,21,1,1,3,5,105,211.35016578948125,212.6799335028045,"[47, 0, 207]",207,a,0.8078606161288917,1,colour,0.5,4.0
76,21,1,1,3,6,106,213.19398297695443,214.25591724179685,"[72, 0, 182]",182,l,0.5395742445252836,1,colour,0.5,4.0
76,21,1,1,3,7,107,214.77226165728644,216.00796041684225,"[32, 0, 222]",222,a,0.7136026164516807,1,colour,0.5,4.0
76,21,1,1,3,8,108,216.52236159564927,217.69594177044928,"[93, 0, 161]",161,l,0.6513895085081458,1,colour,0.5,4.0
76,21,1,1,3,9,109,218.2100499277003,219.7119646104984,"[14, 0, 240]",240,a,0.980457357596606,1,colour,0.5,4.0
76,21,1,1,3,10,110,220.22582543222234,221.87194016063586,"[0, 0, 254]",254,a,1.1238768002949655,1,colour,0.5,4.0
76,21,1,1,3,11,111,222.38221186306328,223.87991672521457,"[99, 0, 155]",155,l,0.9755208911374211,1,colour,0.5,4.0
76,21,1,1,3,12,112,224.39795979857445,226.1679603853263,"[44, 0, 210]",210,a,1.247745723463595,1,colour,0.5,4.0
76,21,1,1,3,13,113,226.67943725688383,227.7039581136778,"[68, 0, 186]",186,l,0.5022545717656612,1,colour,0.5,4.0
76,21,1,1,3,14,114,228.21088921371847,229.047947215382,"[4, 0, 250]",250,a,0.3156495136208832,1,colour,0.5,4.0
76,21,1,1,3,15,115,229.55462034605443,230.59196010511369,"[76, 0, 178]",178,l,0.5151053755544126,1,colour,0.5,4.0
76,21,1,1,3,16,116,231.1016209521331,232.03198975371197,"[71, 0, 183]",183,l,0.4081545043736696,1,colour,0.5,4.0
76,21,1,1,3,17,117,232.53955258289352,233.44795186258852,"[56, 0, 198]",198,a,0.3864539791829884,0,colour,0.5,4.0
76,21,1,1,3,18,118,233.96124239545316,234.98392792930827,"[63, 0, 191]",191,l,0.5003767139278352,1,colour,0.5,4.0
76,21,1,1,3,19,119,235.49266914604232,236.2959516956471,"[37, 0, 217]",217,a,0.2810328062623739,1,colour,0.5,4.0
76,21,1,1,3,20,120,236.80524154007435,238.20794954663143,"[85, 0, 169]",169,l,0.8804815001785755,1,colour,0.5,4.0
76,21,1,1,3,21,121,238.72721157362685,239.6799173555337,"[96, 0, 158]",158,l,0.43042256170883775,1,colour,0.5,4.0
76,21,1,1,3,22,122,240.19612786266953,241.21595131745562,"[69, 0, 185]",185,l,0.49749809270724654,1,colour,0.5,4.0
76,21,1,1,3,23,123,241.72747860150412,242.70396756613627,"[18, 0, 236]",236,a,0.45425458159297705,1,colour,0.5,4.0
76,21,1,1,3,24,124,243.21194708440453,244.20793379284441,"[17, 0, 237]",237,a,0.4744116235524416,1,colour,0.5,4.0
76,21,1,1,3,25,125,244.72772239195183,246.63997978763655,"[33, 0, 221]",221,a,1.3900159229524434,1,colour,0.5,4.0
76,21,1,1,3,26,126,247.14977060444653,247.83192815631628,"[83, 0, 171]",171,l,0.16006455942988396,1,colour,0.5,4.0
76,21,1,1,3,27,127,248.3377119828947,249.73595338128507,"[86, 0, 168]",168,l,0.8762665600515902,1,colour,0.5,4.0
76,21,1,1,3,28,128,250.24373321980238,251.15192691143602,"[13, 0, 241]",241,a,0.386039259377867,1,colour,0.5,4.0
76,21,1,1,3,29,129,251.66579600423574,254.46394319459796,"[59, 0, 195]",195,l,2.276016388554126,1,colour,0.5,4.0
76,21,1,1,3,30,130,254.97848694585264,256.0399608043954,"[88, 0, 166]",166,l,0.5391295924782753,1,colour,0.5,4.0
76,21,1,1,3,31,131,256.55674987193197,257.6399612771347,"[3, 0, 251]",251,a,0.560894314199686,1,colour,0.5,4.0
76,21,1,1,3,32,132,258.150713078212,259.5119294007309,"[95, 0, 159]",159,l,0.8390390472486615,1,colour,0.5,4.0
76,21,1,1,3,33,133,260.02642667805776,261.383961327374,"[75, 0, 179]",179,l,0.8358823708258569,1,colour,0.5,4.0
76,21,1,1,3,34,134,261.9009957611561,263.3039377122186,"[78, 0, 176]",176,l,0.8807252910919487,1,colour,0.5,4.0
76,21,1,1,3,35,135,263.8229457088746,265.54392112372443,"[22, 0, 232]",232,a,1.1986453272402287,1,colour,0.5,4.0
76,21,1,1,3,36,136,266.0576047147624,267.3839471489191,"[52, 0, 202]",202,a,0.8041497985832393,0,colour,0.5,4.0
76,21,1,1,3,37,137,267.90149121917784,269.00792575860396,"[64, 0, 190]",190,l,0.5842127590440214,1,colour,0.5,4.0
76,21,1,1,3,38,138,269.5265627517365,270.40795127954334,"[21, 0, 233]",233,a,0.3591569014824927,1,colour,0.5,4.0
76,21,1,1,3,39,139,270.9172556963749,272.6479189367965,"[87, 0, 167]",167,l,1.2084280694834888,1,colour,0.5,4.0
76,21,1,1,3,40,140,273.1674917084165,274.647946506273,"[42, 0, 212]",212,a,0.958216869737953,1,colour,0.5,4.0
76,21,1,1,3,41,141,275.1676401887089,276.3439304186031,"[49, 0, 205]",205,a,0.6539404499344528,1,colour,0.5,4.0
76,21,1,1,3,42,142,276.8552946499549,278.75995436124504,"[80, 0, 174]",174,l,1.3824710142798722,1,colour,0.5,4.0
76,21,1,1,3,43,143,279.27736846217886,280.1999150868505,"[6, 0, 248]",248,a,0.4003071212209761,1,colour,0.5,4.0
76,21,1,1,3,44,144,280.71501022204757,281.8158978330903,"[70, 0, 184]",184,l,0.5787079720757902,1,colour,0.5,4.0
76,21,1,1,3,45,145,282.324422434438,283.2639253139496,"[48, 0, 206]",206,a,0.4172291113063693,1,colour,0.5,4.0
76,21,1,1,3,46,146,283.7777211512439,285.49595776060596,"[61, 0, 193]",193,a,1.195992773398757,0,colour,0.5,4.0
76,21,1,1,3,47,147,286.012211591471,287.11994464090094,"[45, 0, 209]",209,a,0.5854829121381044,1,colour,0.5,4.0
76,21,1,1,3,48,148,287.63740127766505,288.7759342719801,"[35, 0, 219]",219,a,0.6162229925394058,1,colour,0.5,4.0
76,21,1,1,3,49,149,289.2937823915854,290.42393867345527,"[24, 0, 230]",230,a,0.6079384405165911,1,colour,0.5,4.0
76,21,1,1,3,50,150,290.9344581053592,292.0319468243979,"[66, 0, 188]",188,l,0.5752232219092548,1,colour,0.5,4.0
76,21,1,1,4,1,151,299.7938491483219,300.4159428104758,"[13, 0, 241]",241,a,0.09905662061646581,1,colour,0.5,4.0
76,21,1,1,4,2,152,300.9353348063305,303.5439262436703,"[38, 0, 216]",216,a,2.086398407816887,1,colour,0.5,4.0
76,21,1,1,4,3,153,304.06055186502635,305.15993459010497,"[57, 0, 197]",197,a,0.5771073820069432,0,colour,0.5,4.0
76,21,1,1,4,4,154,305.6700117327273,306.98392792930827,"[55, 0, 199]",199,a,0.7916199793107808,0,colour,0.5,4.0
76,21,1,1,4,5,155,307.49831650499254,308.5042446758598,"[23, 0, 231]",231,a,0.48374656308442354,1,colour,0.5,4.0
76,21,1,1,4,6,156,309.0139460894279,312.15194227173924,"[60, 0, 194]",194,a,2.615607805084437,0,colour,0.5,4.0
76,21,1,1,4,7,157,312.6705997446552,313.4639235022478,"[86, 0, 168]",168,l,0.2710870108567178,1,colour,0.5,4.0
76,21,1,1,4,8,158,313.98314456967637,316.2399251218885,"[41, 0, 213]",213,a,1.734686378389597,1,colour,0.5,4.0
76,21,1,1,4,9,159,316.7491039019078,317.655948670581,"[97, 0, 157]",157,l,0.38470648415386677,1,colour,0.5,4.0
76,21,1,1,4,10,160,318.17100205877796,319.823942927178,"[99, 0, 155]",155,l,1.1305178329348564,1,colour,0.5,4.0
76,21,1,1,4,11,161,320.34307537879795,321.70393448276445,"[93, 0, 161]",161,l,0.8385664317756891,1,colour,0.5,4.0
76,21,1,1,4,12,162,322.21820766152814,323.6319307554513,"[28, 0, 226]",226,a,0.8914788644760847,1,colour,0.5,4.0
76,21,1,1,4,13,163,324.1402344093658,325.4719087318517,"[72, 0, 182]",182,l,0.8093954348005354,1,colour,0.5,4.0
76,21,1,1,4,14,164,325.98413666756824,327.05592574877664,"[37, 0, 217]",217,a,0.5494960146024823,1,colour,0.5,4.0
76,21,1,1,4,15,165,327.5623696614057,329.2719172388315,"[91, 0, 163]",163,l,1.187296258751303,1,colour,0.5,4.0
76,21,1,1,4,16,166,329.7813587137498,330.78401756845415,"[30, 0, 224]",224,a,0.48039650823920965,1,colour,0.5,4.0
76,21,1,1,4,17,167,331.29705328308046,332.37593435076997,"[29, 0, 225]",225,a,0.556550192181021,1,colour,0.5,4.0
76,21,1,1,4,18,168,332.8909814367071,333.8799793468788,"[88, 0, 166]",166,l,0.4667651019990444,1,colour,0.5,4.0
76,21,1,1,4,19,169,334.391114753671,335.5279380623251,"[7, 0, 247]",247,a,0.6146736023947597,1,colour,0.5,4.0
76,21,1,1,4,20,170,336.0474954736419,338.40793355647475,"[4, 0, 250]",250,a,1.838838579133153,1,colour,0.5,4.0
76,21,1,1,4,21,171,338.9227557568811,339.9439419186674,"[26, 0, 228]",228,a,0.49902345845475793,1,colour,0.5,4.0
76,21,1,1,4,22,172,340.45413603354245,342.1919184359722,"[2, 0, 252]",252,a,1.2155153299681842,1,colour,0.5,4.0
76,21,1,1,4,23,173,342.70443978719413,343.84793130354956,"[78, 0, 176]",176,l,0.6213012435473502,1,colour,0.5,4.0
76,21,1,1,4,24,174,344.36066769529134,345.55190123291686,"[80, 0, 174]",174,l,0.6688888776116073,1,colour,0.5,4.0
76,21,1,1,4,25,175,346.0639984118752,347.1839198162779,"[1, 0, 253]",253,a,0.5977165596559644,1,colour,0.5,4.0
76,21,1,1,4,26,176,347.6891337474808,348.98392005218193,"[16, 0, 238]",238,a,0.7726326598785818,1,colour,0.5,4.0
76,21,1,1,4,27,177,349.50174769200385,350.49590931786224,"[79, 0, 175]",175,l,0.47191227646544576,1,colour,0.5,4.0
76,21,1,1,4,28,178,351.00190463941544,352.1119089992717,"[76, 0, 178]",178,l,0.5878117238171399,1,colour,0.5,4.0
76,21,1,1,4,29,179,352.62693284871057,353.7119358596392,"[66, 0, 188]",188,l,0.5626934031024575,1,colour,0.5,4.0
76,21,1,1,4,30,180,354.22086572879925,355.7758988258429,"[59, 0, 195]",195,a,1.0327778398059309,0,colour,0.5,4.0
76,21,1,1,4,31,181,356.2835136423819,357.25591369718313,"[54, 0, 200]",200,a,0.4503050926141441,0,colour,0.5,4.0
76,21,1,1,4,32,182,357.7679726732895,358.71991478744894,"[17, 0, 237]",237,a,0.42961084470152855,1,colour,0.5,4.0
76,21,1,1,4,33,183,359.2369114118628,360.151904462371,"[46, 0, 208]",208,a,0.3926732027903199,1,colour,0.5,4.0
76,21,1,1,4,34,184,360.65891787642613,361.6079144156538,"[94, 0, 160]",160,l,0.42681926349177957,1,colour,0.5,4.0
76,21,1,1,4,35,185,362.12781683634967,363.11189994122833,"[75, 0, 179]",179,l,0.4617916140705347,1,colour,0.5,4.0
76,21,1,1,4,36,186,363.6279844180681,364.56793943280354,"[43, 0, 211]",211,a,0.4177875854074955,1,colour,0.5,4.0
76,21,1,1,4,37,187,365.0811590733938,366.2319040526636,"[25, 0, 229]",229,a,0.6285235928371549,1,colour,0.5,4.0
76,21,1,1,4,38,188,366.73747795959935,368.1598959933035,"[70, 0, 184]",184,l,0.9001489919610322,1,colour,0.5,4.0
76,21,1,1,4,39,189,368.67511834111065,369.92792853107676,"[96, 0, 158]",158,l,0.7307687913998961,1,colour,0.5,4.0
76,21,1,1,4,40,190,370.4409177717753,371.47990577621385,"[87, 0, 167]",167,l,0.5167886735871434,1,colour,0.5,4.0
76,21,1,1,4,41,191,371.9878246425651,372.9679432925768,"[40, 0, 214]",214,a,0.45769837172701955,1,colour,0.5,4.0
76,21,1,1,4,42,192,373.48790478985757,374.68790691671893,"[15, 0, 239]",239,a,0.6776551031507552,1,colour,0.5,4.0
76,21,1,1,4,43,193,375.2069306666963,376.76790020568296,"[24, 0, 230]",230,a,1.0386914387345314,1,colour,0.5,4.0
76,21,1,1,4,44,194,377.28508823923767,378.767947467044,"[21, 0, 233]",233,a,0.9603944444097579,1,colour,0.5,4.0
76,21,1,1,4,45,195,379.28535329783335,380.4799034129828,"[6, 0, 248]",248,a,0.6722846180200577,1,colour,0.5,4.0
76,21,1,1,4,46,196,380.9886635346338,381.91990273585543,"[33, 0, 221]",221,a,0.40888115018606186,1,colour,0.5,4.0
76,21,1,1,4,47,197,382.4262257376686,383.5519130481407,"[74, 0, 180]",180,l,0.6034533209167421,1,colour,0.5,4.0
76,21,1,1,4,48,198,384.06695225741714,385.3998975213617,"[85, 0, 169]",169,l,0.8109483695589006,1,colour,0.5,4.0
76,21,1,1,4,49,199,385.9108612113632,387.063924762886,"[71, 0, 183]",183,l,0.6308177467435598,1,colour,0.5,4.0
76,21,1,1,4,50,200,387.58287604525685,388.74391616135836,"[5, 0, 249]",249,a,0.6389987175352871,1,colour,0.5,4.0
76,21,1,1,5,1,201,397.3328278977424,399.63190436782315,"[82, 0, 172]",172,l,1.776428154669702,1,colour,0.4,4.0
76,21,1,1,5,2,202,400.1464347280562,401.53590635582805,"[75, 0, 179]",179,l,0.8672348815016448,1,colour,0.4,4.0
76,21,1,1,5,3,203,402.0527261435054,403.3919067783281,"[8, 0, 246]",246,a,0.8168206145055592,1,colour,0.4,4.0
76,21,1,1,5,4,204,403.91228654049337,405.8399318959564,"[69, 0, 185]",185,l,1.4053727691061795,1,colour,0.4,4.0
76,21,1,1,5,5,205,406.3500035246834,410.15192927466705,"[61, 0, 193]",193,a,3.279859538655728,0,colour,0.4,4.0
76,21,1,1,5,6,206,410.6628185277805,412.03188420273364,"[23, 0, 231]",231,a,0.847348805051297,1,colour,0.4,4.0
76,21,1,1,5,7,207,412.53796262620017,413.84792382083833,"[91, 0, 163]",163,l,0.7877402021549642,1,colour,0.4,4.0
76,21,1,1,5,8,208,414.36626621708274,416.04786805203184,"[9, 0, 245]",245,a,1.1595013593323529,1,colour,0.4,4.0
76,21,1,1,5,9,209,416.5539275710471,418.4959211330861,"[12, 0, 242]",242,a,1.4196871048770845,1,colour,0.4,4.0
76,21,1,1,5,10,210,419.0072243185714,420.5039244792424,"[95, 0, 159]",159,l,0.9743893714621663,1,colour,0.4,4.0
76,21,1,1,5,11,211,421.02307859249413,422.1358851669356,"[26, 0, 228]",228,a,0.5906237852759659,1,colour,0.4,4.0
76,21,1,1,5,12,212,422.6481650909409,423.84792933473364,"[28, 0, 226]",226,a,0.6775196203961968,1,colour,0.4,4.0
76,21,1,1,5,13,213,424.36701294919476,426.0718824225478,"[80, 0, 174]",174,l,1.182796566747129,1,colour,0.4,4.0
76,21,1,1,5,14,214,426.5859602536075,427.9039598465897,"[6, 0, 248]",248,a,0.7957506370730698,1,colour,0.4,4.0
76,21,1,1,5,15,215,428.4142717216164,430.511928612832,"[20, 0, 234]",234,a,1.5753622497431934,1,colour,0.4,4.0
76,21,1,1,5,16,216,431.0238024815917,432.3999341488816,"[86, 0, 168]",168,l,0.8538925577886403,1,colour,0.4,4.0
76,21,1,1,5,17,217,432.9145499737933,434.9039964741096,"[3, 0, 251]",251,a,1.4671420124359429,1,colour,0.4,4.0
76,21,1,1,5,18,218,435.4147108597681,437.1199095887132,"[59, 0, 195]",195,a,1.1828194102272391,0,colour,0.4,4.0
76,21,1,1,5,19,219,437.6336617092602,438.9599277372472,"[92, 0, 162]",162,l,0.8042498356662691,1,colour,0.4,4.0
76,21,1,1,5,20,220,439.47759980754927,440.7279338873923,"[53, 0, 201]",201,a,0.7280217153020203,0,colour,0.4,4.0
76,21,1,1,5,21,221,441.2434252318926,442.43188766855747,"[79, 0, 175]",175,l,0.6662713764235377,1,colour,0.4,4.0
76,21,1,1,5,22,222,442.9465842321515,444.1119153010659,"[18, 0, 236]",236,a,0.6430592704564333,1,colour,0.4,4.0
76,21,1,1,5,23,223,444.61859433958307,445.807912603952,"[62, 0, 192]",192,a,0.6669602133333683,0,colour,0.4,4.0
76,21,1,1,5,24,224,446.3218695241958,447.25589124811813,"[36, 0, 218]",218,a,0.4116743067279458,1,colour,0.4,4.0
76,21,1,1,5,25,225,447.7751493365504,449.21589617896825,"[98, 0, 156]",156,l,0.9184919791296124,1,colour,0.4,4.0
76,21,1,1,5,26,226,449.72840098896995,451.57591048348695,"[38, 0, 216]",216,a,1.325247542001307,1,colour,0.4,4.0
76,21,1,1,5,27,227,452.087950555142,453.4078732980415,"[64, 0, 190]",190,l,0.7976726060733199,1,colour,0.4,4.0
76,21,1,1,5,28,228,453.91624981351197,454.7599098565988,"[94, 0, 160]",160,l,0.3216225830838084,1,colour,0.4,4.0
76,21,1,1,5,29,229,455.2756591704674,456.2479261048138,"[45, 0, 209]",209,a,0.44990848982706666,1,colour,0.4,4.0
76,21,1,1,5,30,230,456.76023123506457,457.7359206918627,"[10, 0, 244]",244,a,0.45343735069036484,1,colour,0.4,4.0
76,21,1,1,5,31,231,458.24470483791083,459.311893009115,"[97, 0, 157]",157,l,0.544891559984535,1,colour,0.4,4.0
76,21,1,1,5,32,232,459.8229244411923,461.02389700431377,"[74, 0, 180]",180,l,0.6787007646635175,1,colour,0.4,4.0
76,21,1,1,5,33,233,461.5418156227097,463.09591333474964,"[96, 0, 158]",158,l,1.031841667369008,1,colour,0.4,4.0
76,21,1,1,5,34,234,463.6045816899277,464.8559102313593,"[55, 0, 199]",199,a,0.7290764348581433,0,colour,0.4,4.0
76,21,1,1,5,35,235,465.3704252317548,466.78390729194507,"[60, 0, 194]",194,a,0.8913831599056721,0,colour,0.4,4.0
76,21,1,1,5,36,236,467.29225663188845,468.9518905202858,"[35, 0, 219]",219,a,1.1372974989935756,1,colour,0.4,4.0
76,21,1,1,5,37,237,469.46434019180015,470.9278879649937,"[54, 0, 200]",200,a,0.9412917285226285,0,colour,0.4,4.0
76,21,1,1,5,38,238,471.433263767045,473.3838979182765,"[67, 0, 187]",187,a,1.428643558640033,0,colour,0.4,4.0
76,21,1,1,5,39,239,473.9022355885245,475.1998835792765,"[46, 0, 208]",208,a,0.7753316876478493,1,colour,0.4,4.0
76,21,1,1,5,40,240,475.7148337792605,476.59191008657217,"[78, 0, 176]",176,l,0.3547710315324366,1,colour,0.4,4.0
76,21,1,1,5,41,241,477.1055637453683,478.191885353066,"[50, 0, 204]",204,a,0.5640647751279175,1,colour,0.4,4.0
76,21,1,1,5,42,242,478.6995048960671,479.65588014153764,"[87, 0, 167]",167,l,0.43434448074549437,1,colour,0.4,4.0
76,21,1,1,5,43,243,480.1683014561422,481.21590287424624,"[42, 0, 212]",212,a,0.5252792071551085,1,colour,0.4,4.0
76,21,1,1,5,44,244,481.7309420835227,483.16791863786057,"[7, 0, 247]",247,a,0.9147161771543324,1,colour,0.4,4.0
76,21,1,1,5,45,245,483.6842453298159,485.9518838250078,"[44, 0, 210]",210,a,1.7455470780842006,1,colour,0.4,4.0
76,21,1,1,5,46,246,486.4657828495838,487.663876792416,"[24, 0, 230]",230,a,0.6760206422768533,1,colour,0.4,4.0
76,21,1,1,5,47,247,488.1689229453914,489.247900899034,"[90, 0, 164]",164,l,0.5566474720835686,1,colour,0.4,4.0
76,21,1,1,5,48,248,489.762655751314,492.0398879428394,"[88, 0, 166]",166,l,1.7548130941577256,1,colour,0.4,4.0
76,21,1,1,5,49,249,492.5598888252862,494.1039277086966,"[56, 0, 198]",198,a,1.021701312623918,0,colour,0.4,4.0
76,21,1,1,5,50,250,494.6225769110024,497.4879071530886,"[52, 0, 202]",202,a,2.343154147733003,0,colour,0.4,4.0
76,21,1,1,6,1,251,507.26346490811557,513.3119229418226,"[75, 0, 179]",179,l,5.52540129981935,1,colour,0.28,3.9
76,21,1,1,6,2,252,513.8273689937778,515.2558995187283,"[46, 0, 208]",208,a,0.9063532492145896,1,colour,0.28,3.9
76,21,1,1,6,3,253,515.7648502616212,520.5198744577356,"[59, 0, 195]",195,a,4.232641726732254,0,colour,0.28,3.9
76,21,1,1,6,4,254,521.0310157723725,522.103925739415,"[58, 0, 196]",196,a,0.5508110667578876,0,colour,0.28,3.9
76,21,1,1,6,5,255,522.6091810245998,523.5118825328536,"[97, 0, 157]",157,l,0.3804241959005594,1,colour,0.28,3.9
76,21,1,1,6,6,256,524.0311626768671,524.991906857118,"[54, 0, 200]",200,a,0.43853460904210806,0,colour,0.28,3.9
76,21,1,1,6,7,257,525.50011008,526.3998341117986,"[57, 0, 197]",197,a,0.3778378083370626,0,colour,0.28,3.9
76,21,1,1,6,8,258,526.9064194154926,527.7758968565613,"[73, 0, 181]",181,l,0.3473115870729089,1,colour,0.28,3.9
76,21,1,1,6,9,259,528.281463673804,528.9918804694898,"[84, 0, 170]",170,l,0.1880138460546732,1,colour,0.28,3.9
76,21,1,1,6,10,260,529.500298732426,530.6158665618859,"[63, 0, 191]",191,l,0.5934090646915138,1,colour,0.28,3.9
76,21,1,1,6,11,261,531.1255380427465,532.1198800504208,"[92, 0, 162]",162,l,0.47269012266770005,1,colour,0.28,3.9
76,21,1,1,6,12,262,532.625566596631,533.5118498438969,"[18, 0, 236]",236,a,0.3639232269488275,1,colour,0.28,3.9
76,21,1,1,6,13,263,534.0319775445387,534.8559082620777,"[98, 0, 156]",156,l,0.30174202052876353,1,colour,0.28,3.9
76,21,1,1,6,14,264,535.3758102888241,536.2399018849246,"[41, 0, 213]",213,a,0.3418119200505316,1,colour,0.28,3.9
76,21,1,1,6,15,265,536.7509218952619,537.5598683450371,"[95, 0, 159]",159,l,0.2868577893823385,1,colour,0.28,3.9
76,21,1,1,6,16,266,538.0791760580614,539.7198714641854,"[71, 0, 183]",183,a,1.1184153365902603,0,colour,0.28,3.9
76,21,1,1,6,17,267,540.2355939964764,541.3838864965364,"[51, 0, 203]",203,a,0.6260679624974728,0,colour,0.28,3.9
76,21,1,1,6,18,268,541.8919443907216,543.2078999220394,"[64, 0, 190]",190,a,0.7936849142424762,0,colour,0.28,3.9
76,21,1,1,6,19,269,543.7202019011602,544.6318649831228,"[55, 0, 199]",199,a,0.3893459909595549,0,colour,0.28,3.9
76,21,1,1,6,20,270,545.1421930058859,546.1518713794649,"[94, 0, 160]",160,l,0.48747274093329906,1,colour,0.28,3.9
76,21,1,1,6,21,271,546.657930504065,547.7758677117527,"[65, 0, 189]",189,a,0.5956524116918445,0,colour,0.28,3.9
76,21,1,1,6,22,272,548.2830910459161,548.9999094153754,"[77, 0, 177]",177,l,0.19475924782454967,1,colour,0.28,3.9
76,21,1,1,6,23,273,549.5175933009014,550.2879022695124,"[83, 0, 171]",171,l,0.24864605581387877,1,colour,0.28,3.9
76,21,1,1,6,24,274,550.7988888025284,551.5598754342645,"[80, 0, 174]",174,l,0.23883731896057725,1,colour,0.28,3.9
76,21,1,1,6,25,275,552.0803509010002,552.8078822777607,"[76, 0, 178]",178,l,0.2053505564108491,1,colour,0.28,3.9
76,21,1,1,6,26,276,553.3146865596063,553.8798887622543,"[90, 0, 164]",164,l,0.042807918041944504,1,colour,0.28,3.9
76,21,1,1,6,27,277,554.3929280210286,554.9278540941887,"[13, 0, 241]",241,a,0.012665302027016878,1,colour,0.28,3.9
76,21,1,1,6,28,278,555.4399142516777,556.0078847985715,"[44, 0, 210]",210,a,0.04569165874272585,1,colour,0.28,3.9
76,21,1,1,6,29,279,556.5181155409664,557.583892561961,"[72, 0, 182]",182,l,0.5434571728110313,1,colour,0.28,3.9
76,21,1,1,6,30,280,558.096383980941,558.9438922940753,"[35, 0, 219]",219,a,0.32526526506990194,1,colour,0.28,3.9
76,21,1,1,6,31,281,559.4558721072972,560.359846919775,"[48, 0, 206]",206,a,0.3817959614098072,1,colour,0.28,3.9
76,21,1,1,6,32,282,560.8778935377486,561.5518965064548,"[85, 0, 169]",169,l,0.15173550229519606,1,colour,0.28,3.9
76,21,1,1,6,33,283,562.0653969594277,563.735894698184,"[67, 0, 187]",187,l,1.1482932879589498,1,colour,0.28,3.9
76,21,1,1,6,34,284,564.2531303870492,565.2398778605275,"[61, 0, 193]",193,a,0.46446070866659284,0,colour,0.28,3.9
76,21,1,1,6,35,285,565.7532101408578,567.6238513970748,"[70, 0, 184]",184,l,1.3482796605676413,1,colour,0.28,3.9
76,21,1,1,6,36,286,568.1440594424494,568.9039275511168,"[74, 0, 180]",180,l,0.23758567636832595,1,colour,0.28,3.9
76,21,1,1,6,37,287,569.4097279193811,570.2158753052354,"[81, 0, 173]",173,l,0.283797605894506,1,colour,0.28,3.9
76,21,1,1,6,38,288,570.7223428483121,571.4798919917084,"[60, 0, 194]",194,a,0.23531279060989618,0,colour,0.28,3.9
76,21,1,1,6,39,289,571.9880290483125,572.6398852649145,"[25, 0, 229]",229,a,0.12950328551232815,1,colour,0.28,3.9
76,21,1,1,6,40,290,573.160050380975,573.9440009957179,"[91, 0, 163]",163,l,0.262335357721895,1,colour,0.28,3.9
76,21,1,1,6,41,291,574.4570434051566,576.1598491254263,"[34, 0, 220]",220,a,1.1805642475374043,1,colour,0.28,3.9
76,21,1,1,6,42,292,576.6760206422769,577.4158652229235,"[89, 0, 165]",165,l,0.21759641263633966,1,colour,0.28,3.9
76,21,1,1,6,43,293,577.9260479160585,578.5518768145703,"[37, 0, 217]",217,a,0.10356576461344957,1,colour,0.28,3.9
76,21,1,1,6,44,294,579.0668132300489,580.2958760769106,"[17, 0, 237]",237,a,0.7070218422450125,1,colour,0.28,3.9
76,21,1,1,6,45,295,580.8012558175251,581.9438812662847,"[12, 0, 242]",242,a,0.6203501052223146,1,colour,0.28,3.9
76,21,1,1,6,46,296,582.4576270850375,583.887878717389,"[52, 0, 202]",202,a,0.9079266642220318,0,colour,0.28,3.9
76,21,1,1,6,47,297,584.3953107898124,590.407880387269,"[68, 0, 186]",186,a,5.490270229522139,0,colour,0.28,3.9
76,21,1,1,6,48,298,590.9270266233943,591.8559232284315,"[56, 0, 198]",198,a,0.40648184018209577,0,colour,0.28,3.9
76,21,1,1,6,49,299,592.3646884695627,599.4718945533969,"[1, 0, 253]",253,a,6.58486339263618,1,colour,0.28,3.9
76,21,1,1,6,50,300,599.9903421066701,600.8638745867647,"[23, 0, 231]",231,a,0.3512614690698683,1,colour,0.28,3.9
76,21,1,1,7,1,301,612.4124159188941,614.4478742750362,"[72, 0, 182]",182,l,1.5124626685865223,1,colour,0.14,3.9
76,21,1,1,7,2,302,614.9602621123195,616.2078585680574,"[74, 0, 180]",180,l,0.7253010263666511,1,colour,0.14,3.9
76,21,1,1,7,3,303,616.7259867126122,617.6798582784832,"[87, 0, 167]",167,l,0.43158952752128243,1,colour,0.14,3.9
76,21,1,1,7,4,304,618.1948856725357,619.1599105652422,"[62, 0, 192]",192,a,0.4432828170247376,0,colour,0.14,3.9
76,21,1,1,7,5,305,619.6793273738585,620.5758514064364,"[77, 0, 177]",177,l,0.3741880371235311,1,colour,0.14,3.9
76,21,1,1,7,6,306,621.0857780999504,622.5998571123928,"[78, 0, 176]",176,l,0.9917540443129838,1,colour,0.14,3.9
76,21,1,1,7,7,307,623.1171270660125,624.4718551686965,"[86, 0, 168]",168,l,0.8327016700059175,1,colour,0.14,3.9
76,21,1,1,7,8,308,624.976664619986,626.3758847261779,"[31, 0, 223]",223,a,0.8769589415751398,1,colour,0.14,3.9
76,21,1,1,7,9,309,626.8830706444569,628.1438640947454,"[85, 0, 169]",169,l,0.738755595870316,1,colour,0.14,3.9
76,21,1,1,7,10,310,628.6488543213345,629.9518889449537,"[92, 0, 162]",162,l,0.7808699510060251,1,colour,0.14,3.9
76,21,1,1,7,11,311,630.4614265183918,631.6318448972888,"[83, 0, 171]",171,l,0.6482084142044187,1,colour,0.14,3.9
76,21,1,1,7,12,312,632.149087281432,634.1518398714252,"[96, 0, 158]",158,l,1.480579252820462,1,colour,0.14,3.9
76,21,1,1,7,13,313,634.6649834997952,635.8718802961521,"[82, 0, 172]",172,l,0.6846419330686331,1,colour,0.14,3.9
76,21,1,1,7,14,314,636.3837982751429,638.3278630739078,"[71, 0, 183]",183,l,1.4219028833322227,1,colour,0.14,3.9
76,21,1,1,7,15,315,638.8371485858224,639.8798773405142,"[97, 0, 157]",157,l,0.5203372268006206,1,colour,0.14,3.9
76,21,1,1,7,16,316,640.3996844505891,641.3598863044754,"[53, 0, 201]",201,a,0.43808129196986556,0,colour,0.14,3.9
76,21,1,1,7,17,317,641.8685991642997,643.2318749083206,"[75, 0, 179]",179,l,0.8415104313753545,1,colour,0.14,3.9
76,21,1,1,7,18,318,643.7437775274739,644.9278477928601,"[89, 0, 165]",165,l,0.661820522043854,1,colour,0.14,3.9
76,21,1,1,7,19,319,645.4470471981913,646.4238315471448,"[30, 0, 224]",224,a,0.4544995534233749,1,colour,0.14,3.9
76,21,1,1,7,20,320,646.9314865367487,648.1198438163847,"[65, 0, 189]",189,a,0.6660839058458805,0,colour,0.14,3.9
76,21,1,1,7,21,321,648.6348066194914,649.5198319223709,"[95, 0, 159]",159,l,0.3628661441616714,1,colour,0.14,3.9
76,21,1,1,7,22,322,650.025487748906,651.3198349154554,"[25, 0, 229]",229,a,0.7719749370589852,1,colour,0.14,3.9
76,21,1,1,7,23,323,651.838167859707,653.6798259830102,"[76, 0, 178]",178,l,1.3192988908849657,1,colour,0.14,3.9
76,21,1,1,7,24,324,654.1976764658466,655.0958696180023,"[51, 0, 203]",203,a,0.37584849214181304,0,colour,0.14,3.9
76,21,1,1,7,25,325,655.6040803240612,656.5118321208283,"[57, 0, 197]",197,a,0.38551859511062503,0,colour,0.14,3.9
76,21,1,1,7,26,326,657.0260930904187,657.9438674817793,"[52, 0, 202]",202,a,0.3955439468845725,0,colour,0.14,3.9
76,21,1,1,7,27,327,658.4637037361972,659.591865581926,"[63, 0, 191]",191,a,0.6058967420831323,0,colour,0.14,3.9
76,21,1,1,7,28,328,660.1044920901768,661.0558603703976,"[60, 0, 194]",194,a,0.429150044452399,0,colour,0.14,3.9
76,21,1,1,7,29,329,661.57330361614,662.7438763827085,"[42, 0, 212]",212,a,0.6482765492983162,1,colour,0.14,3.9
76,21,1,1,7,30,330,663.2609277516603,664.4638585178182,"[68, 0, 186]",186,a,0.6805967399850488,0,colour,0.14,3.9
76,21,1,1,7,31,331,664.9798405948095,665.8158466331661,"[94, 0, 160]",160,l,0.31374644907191396,1,colour,0.14,3.9
76,21,1,1,7,32,332,666.3236536472104,667.3198266448453,"[58, 0, 196]",196,a,0.47389410994946957,0,colour,0.14,3.9
76,21,1,1,7,33,333,667.8394222594798,668.7439228566363,"[64, 0, 190]",190,a,0.3822807865217328,0,colour,0.14,3.9
76,21,1,1,7,34,334,669.2613814622164,670.1038375180215,"[80, 0, 174]",174,l,0.3201192724518478,1,colour,0.14,3.9
76,21,1,1,7,35,335,670.6208471390419,671.5278585054912,"[98, 0, 156]",156,l,0.38472932763397694,1,colour,0.14,3.9
76,21,1,1,7,36,336,672.0428725085221,672.9438694510609,"[91, 0, 163]",163,l,0.37874286714941263,1,colour,0.14,3.9
76,21,1,1,7,37,337,673.4492444652133,674.4878484699875,"[93, 0, 161]",161,l,0.5165066798217595,1,colour,0.14,3.9
76,21,1,1,7,38,338,674.9962824867107,675.8318805010058,"[99, 0, 155]",155,l,0.3133490583859384,1,colour,0.14,3.9
76,21,1,1,7,39,339,676.3401424069889,677.4319936134852,"[13, 0, 241]",241,a,0.5696873217821121,1,colour,0.14,3.9
76,21,1,1,7,40,340,677.9495999114588,679.2718526478857,"[59, 0, 195]",195,a,0.8001002729870379,0,colour,0.14,3.9
76,21,1,1,7,41,341,679.777905471623,680.9358546831645,"[73, 0, 181]",181,l,0.6357242809608579,1,colour,0.14,3.9
76,21,1,1,7,42,342,681.4498348408379,682.4958522100933,"[18, 0, 236]",236,a,0.5239035030826926,1,colour,0.14,3.9
76,21,1,1,7,43,343,683.0124943731353,684.5598423513584,"[6, 0, 248]",248,a,1.025059244595468,1,colour,0.14,3.9
76,21,1,1,7,44,344,685.0752249942161,685.9918611706235,"[81, 0, 173]",173,l,0.39446402061730623,1,colour,0.14,3.9
76,21,1,1,7,45,345,686.4971373300068,687.4878697376698,"[50, 0, 204]",204,a,0.468475969042629,1,colour,0.14,3.9
76,21,1,1,7,46,346,687.9972930960357,689.4478813642636,"[67, 0, 187]",187,l,0.9283735775388777,1,colour,0.14,3.9
76,21,1,1,7,47,347,689.9661843758076,691.1598499133252,"[79, 0, 175]",175,l,0.67145045241341,1,colour,0.14,3.9
76,21,1,1,7,48,348,691.6694670435973,692.7038458674215,"[56, 0, 198]",198,a,0.5121389268897474,0,colour,0.14,3.9
76,21,1,1,7,49,349,693.216388092842,695.3198309768923,"[70, 0, 184]",184,a,1.5813404391519725,0,colour,0.14,3.9
76,21,1,1,7,50,350,695.8259700527415,696.7838568794541,"[66, 0, 188]",188,a,0.43588441889733076,0,colour,0.14,3.9
76,21,1,1,8,1,351,705.388511037454,706.5758718866855,"[63, 0, 191]",191,a,0.6643348354846239,0,colour,0.06,3.9
76,21,1,1,8,2,352,707.0832247957587,708.1758321868256,"[98, 0, 156]",156,l,0.570547875482589,1,colour,0.06,3.9
76,21,1,1,8,3,353,708.6927271988243,709.6878596553579,"[55, 0, 199]",199,a,0.4728334825485945,0,colour,0.06,3.9
76,21,1,1,8,4,354,710.1928935986944,711.2638504835777,"[44, 0, 210]",210,a,0.5494684455916286,1,colour,0.06,3.9
76,21,1,1,8,5,355,711.7712026052177,712.8958702483214,"[83, 0, 171]",171,l,0.6025041523389518,1,colour,0.06,3.9
76,21,1,1,8,6,356,713.4118054574355,727.9838692462072,"[94, 0, 160]",160,l,14.049684076569974,1,colour,0.06,3.9
76,21,1,1,8,7,357,728.4912071893923,729.6398423356004,"[58, 0, 196]",196,a,0.6264035198837519,0,colour,0.06,3.9
76,21,1,1,8,8,358,730.147502050735,730.9598225802183,"[96, 0, 158]",158,l,0.29010347509756684,1,colour,0.06,3.9
76,21,1,1,8,9,359,731.4757885094732,732.3438575570472,"[51, 0, 203]",203,a,0.3458653842099011,0,colour,0.06,3.9
76,21,1,1,8,10,360,732.8508926322684,733.7678379779682,"[81, 0, 173]",173,l,0.3949401807039976,1,colour,0.06,3.9
76,21,1,1,8,11,361,734.2728679832071,737.5118502378464,"[69, 0, 185]",185,a,2.7167848930694163,0,colour,0.06,3.9
76,21,1,1,8,12,362,738.023215257097,739.1758656636812,"[56, 0, 198]",198,a,0.6305865589529276,0,colour,0.06,3.9
76,21,1,1,8,13,363,739.6951639247127,740.7198541350663,"[54, 0, 200]",200,a,0.5024581900797784,0,colour,0.06,3.9
76,21,1,1,8,14,364,741.2265954012983,742.1198339704424,"[87, 0, 167]",167,l,0.37102860398590565,1,colour,0.06,3.9
76,21,1,1,8,15,365,742.6328909522854,743.6158098480664,"[66, 0, 188]",188,a,0.46084717102348804,0,colour,0.06,3.9
76,21,1,1,8,16,366,744.133036872372,745.0078375367448,"[65, 0, 189]",189,a,0.352717911824584,0,colour,0.06,3.9
76,21,1,1,8,17,367,745.5237215459347,746.3758465228602,"[89, 0, 165]",165,l,0.3298366367816925,1,colour,0.06,3.9
76,21,1,1,8,18,368,746.8832758385688,747.8638336267322,"[67, 0, 187]",187,a,0.4585648328065872,0,colour,0.06,3.9
76,21,1,1,8,19,369,748.3833646504208,749.2958299969323,"[80, 0, 174]",174,l,0.39039047062397003,1,colour,0.06,3.9
76,21,1,1,8,20,370,749.8052951027639,750.8958296822384,"[99, 0, 155]",155,l,0.5681879497133195,1,colour,0.06,3.9
76,21,1,1,8,21,371,751.414865641389,752.7278503919952,"[78, 0, 176]",176,l,0.7907424904406071,1,colour,0.06,3.9
76,21,1,1,8,22,372,753.2431676569395,754.3918654243462,"[75, 0, 179]",179,a,0.6264720489270985,0,colour,0.06,3.9
76,21,1,1,8,23,373,754.8995302598923,756.0878627272323,"[82, 0, 172]",172,l,0.6662174193188548,1,colour,0.06,3.9
76,21,1,1,8,24,374,756.6028070198372,757.5998208788224,"[68, 0, 186]",186,a,0.47480783285573125,0,colour,0.06,3.9
76,21,1,1,8,25,375,758.1184704750776,758.9998133168556,"[61, 0, 193]",193,a,0.35904741240665317,0,colour,0.06,3.9
76,21,1,1,8,26,376,759.5092772413045,760.7678446732461,"[72, 0, 182]",182,a,0.7362621566280723,0,colour,0.06,3.9
76,21,1,1,8,27,377,761.2750042043626,762.1518197855912,"[92, 0, 162]",162,l,0.35445949947461486,1,colour,0.06,3.9
76,21,1,1,8,28,378,762.6657286565751,763.9198499605991,"[93, 0, 161]",161,l,0.7319263052195311,1,colour,0.06,3.9
76,21,1,1,8,29,379,764.4315288751386,765.439837845508,"[77, 0, 177]",177,a,0.48609231039881706,0,colour,0.06,3.9
76,21,1,1,8,30,380,765.9472525888123,766.7678533378057,"[97, 0, 157]",157,l,0.2982749934308231,1,colour,0.06,3.9
76,21,1,1,8,31,381,767.2777343452908,768.2319028712809,"[73, 0, 181]",181,a,0.4326072256080806,0,colour,0.06,3.9
76,21,1,1,8,32,382,768.7464741915464,769.6718529630452,"[38, 0, 216]",216,a,0.4031747146509588,1,colour,0.06,3.9
76,21,1,1,8,33,383,770.1840769606642,771.0878229490481,"[62, 0, 192]",192,a,0.38167426362633705,0,colour,0.06,3.9
76,21,1,1,8,34,384,771.6061818869784,772.2958902553655,"[47, 0, 207]",207,a,0.1673960038460791,1,colour,0.06,3.9
76,21,1,1,8,35,385,772.8093076068908,774.4158195364289,"[70, 0, 184]",184,a,1.084333078470081,0,colour,0.06,3.9
76,21,1,1,8,36,386,774.9344262038358,775.7678643655963,"[86, 0, 168]",168,l,0.3112439508549869,1,colour,0.06,3.9
76,21,1,1,8,37,387,776.2783325975761,777.1757979220711,"[76, 0, 178]",178,l,0.37525732908397913,1,colour,0.06,3.9
76,21,1,1,8,38,388,777.6846915576607,778.6718021570705,"[84, 0, 170]",170,l,0.46496837632730603,1,colour,0.06,3.9
76,21,1,1,8,39,389,779.1848158161156,780.1038217642345,"[53, 0, 201]",201,a,0.3968168571591377,0,colour,0.06,3.9
76,21,1,1,8,40,390,780.6224099206738,781.5118352714926,"[50, 0, 204]",204,a,0.3671287400647998,1,colour,0.06,3.9
76,21,1,1,8,41,391,782.0287503697909,783.0159038985148,"[79, 0, 175]",175,l,0.46485494868829846,1,colour,0.06,3.9
76,21,1,1,8,42,392,783.528885262087,784.5758191114292,"[95, 0, 159]",159,l,0.5246356632560492,1,colour,0.06,3.9
76,21,1,1,8,43,393,785.0915117110126,786.1598380976357,"[60, 0, 194]",194,a,0.5458399415947497,0,colour,0.06,3.9
76,21,1,1,8,44,394,786.6699408404529,790.511808489915,"[64, 0, 190]",190,a,3.3195647369138896,0,colour,0.06,3.9
76,21,1,1,8,45,395,791.0296333725564,791.9758020970039,"[91, 0, 163]",163,l,0.4238835349678993,1,colour,0.06,3.9
76,21,1,1,8,46,396,792.4829588709399,793.8638056637719,"[52, 0, 202]",202,a,0.8588120895437896,0,colour,0.06,3.9
76,21,1,1,8,47,397,794.3737437785603,795.319852638524,"[85, 0, 169]",169,l,0.42393749207258224,1,colour,0.06,3.9
76,21,1,1,8,48,398,795.8269408834167,796.8078168993816,"[90, 0, 164]",164,l,0.4585912204347551,1,colour,0.06,3.9
76,21,1,1,8,49,399,797.3270509634167,798.239836900495,"[59, 0, 195]",195,a,0.39051689533516765,0,colour,0.06,3.9
76,21,1,1,8,50,400,798.7499321601354,802.5518319159746,"[71, 0, 183]",183,a,3.27985244942829,0,colour,0.06,3.9
76,21,1,1,9,1,401,814.9378471504897,816.4238079166971,"[75, 0, 179]",179,l,0.96316909044981,1,colour,0.06,3.8
76,21,1,1,9,2,402,816.9388412181288,817.7918263548054,"[1, 0, 253]",253,a,0.3306924640201032,1,colour,0.06,3.8
76,21,1,1,9,3,403,818.2983029563911,819.2318237083964,"[91, 0, 163]",163,l,0.41125210374593735,1,colour,0.06,3.8
76,21,1,1,9,4,404,819.7391368388198,820.8398389485665,"[89, 0, 165]",165,l,0.5783590245991945,1,colour,0.06,3.8
76,21,1,1,9,5,405,821.3486928050406,822.5918352557346,"[70, 0, 184]",184,l,0.7209525718353689,1,colour,0.06,3.8
76,21,1,1,9,6,406,823.098860878963,823.9838578244671,"[59, 0, 195]",195,a,0.36285905446857214,0,colour,0.06,3.8
76,21,1,1,9,7,407,824.4895238913596,825.4558484763838,"[97, 0, 157]",157,l,0.4441240727901459,1,colour,0.06,3.8
76,21,1,1,9,8,408,825.9740077340975,826.9998349784873,"[87, 0, 167]",167,l,0.5035491441376507,1,colour,0.06,3.8
76,21,1,1,9,9,409,827.5053246021271,828.6958452784456,"[68, 0, 186]",186,a,0.668141751550138,0,colour,0.06,3.8
76,21,1,1,9,10,410,829.2086931280792,830.3837892166339,"[8, 0, 246]",246,a,0.6528912438079715,1,colour,0.06,3.8
76,21,1,1,9,11,411,830.896294420585,831.8078188686632,"[88, 0, 166]",166,l,0.38923335121944547,1,colour,0.06,3.8
76,21,1,1,9,12,412,832.3182949773036,833.679807078559,"[72, 0, 182]",182,a,0.8392907148227096,0,colour,0.06,3.8
76,21,1,1,9,13,413,834.1934890942648,834.9998085908592,"[77, 0, 177]",177,l,0.28413158701732755,1,colour,0.06,3.8
76,21,1,1,9,14,414,835.5061067803763,836.5678315190598,"[71, 0, 183]",183,a,0.5395628232508898,0,colour,0.06,3.8
76,21,1,1,9,15,415,837.0842759711668,838.0318042519502,"[69, 0, 185]",185,a,0.42553611285984516,0,colour,0.06,3.8
76,21,1,1,9,16,416,838.5375589341857,839.415805357974,"[93, 0, 161]",161,l,0.35341738257557154,1,colour,0.06,3.8
76,21,1,1,9,17,417,839.9309489368461,840.935855077114,"[56, 0, 198]",198,a,0.4826528523117304,0,colour,0.06,3.8
76,21,1,1,9,18,418,841.4466899796389,842.9038401171565,"[79, 0, 175]",175,l,0.9348736125975847,1,colour,0.06,3.8
76,21,1,1,9,19,419,843.4156805090606,844.5278435391374,"[95, 0, 159]",159,l,0.5900570405647159,1,colour,0.06,3.8
76,21,1,1,9,20,420,845.0407752781175,846.2158126835711,"[94, 0, 160]",160,l,0.6528274407610297,1,colour,0.06,3.8
76,21,1,1,9,21,421,846.7283521518111,847.7998360022902,"[98, 0, 156]",156,l,0.5492352885194123,1,colour,0.06,3.8
76,21,1,1,9,22,422,848.306642647367,849.4958203085698,"[92, 0, 162]",162,l,0.6669846316799521,1,colour,0.06,3.8
76,21,1,1,9,23,423,850.009888687171,851.4318297733553,"[82, 0, 172]",172,l,0.8997169425711036,1,colour,0.06,3.8
76,21,1,1,9,24,424,851.9475373397581,852.5037988424301,"[61, 0, 193]",193,a,0.03401451651006937,0,colour,0.06,3.8
76,21,1,1,9,25,425,853.0101017579436,854.119856025558,"[64, 0, 190]",190,a,0.5875399704091251,0,colour,0.06,3.8
76,21,1,1,9,26,426,854.6380566372536,856.0797916394658,"[58, 0, 196]",196,a,0.9194561140611768,0,colour,0.06,3.8
76,21,1,1,9,27,427,856.591379575897,858.0638322089799,"[74, 0, 180]",180,l,0.950236760545522,1,colour,0.06,3.8
76,21,1,1,9,28,428,858.5758829144761,859.8238090192899,"[81, 0, 173]",173,l,0.7380703040398657,1,colour,0.06,3.8
76,21,1,1,9,29,429,860.3292080583051,861.4638214963488,"[60, 0, 194]",194,a,0.6123818117193878,0,colour,0.06,3.8
76,21,1,1,9,30,430,861.9699712060392,863.1278400733136,"[78, 0, 176]",176,l,0.6356002194806933,1,colour,0.06,3.8
76,21,1,1,9,31,431,863.6419746181928,864.5438159666955,"[84, 0, 170]",170,l,0.3795880605466664,1,colour,0.06,3.8
76,21,1,1,9,32,432,865.0639499691315,866.0238434416242,"[63, 0, 191]",191,a,0.43765830155462027,0,colour,0.06,3.8
76,21,1,1,9,33,433,866.5376692111604,867.6718009752221,"[57, 0, 197]",197,a,0.6118902917951345,0,colour,0.06,3.8
76,21,1,1,9,34,434,868.178461109288,869.2798166093417,"[80, 0, 174]",174,l,0.579278654884547,1,colour,0.06,3.8
76,21,1,1,9,35,435,869.7879091617651,870.7437917059287,"[41, 0, 213]",213,a,0.433631619438529,1,colour,0.06,3.8
76,21,1,1,9,36,436,871.2566950879991,873.3198077399284,"[67, 0, 187]",187,a,1.541606883984059,0,colour,0.06,3.8
76,21,1,1,9,37,437,873.8351364261471,874.9678460126743,"[54, 0, 200]",200,a,0.610461812466383,0,colour,0.06,3.8
76,21,1,1,9,38,438,875.475775512401,876.6237895633094,"[66, 0, 188]",188,a,0.6256595444865525,0,colour,0.06,3.8
76,21,1,1,9,39,439,877.1322357892059,878.2238168176264,"[73, 0, 181]",181,l,0.5693805157206953,1,colour,0.06,3.8
76,21,1,1,9,40,440,878.7416842356324,879.8478265409358,"[76, 0, 178]",178,l,0.5838519958779216,1,colour,0.06,3.8
76,21,1,1,9,41,441,880.366905035451,881.2798292124644,"[62, 0, 192]",192,a,0.39095564000308514,0,colour,0.06,3.8
76,21,1,1,9,42,442,881.7888008290902,882.7918385639787,"[53, 0, 201]",201,a,0.4807478189468384,0,colour,0.06,3.8
76,21,1,1,9,43,443,883.3045383277349,884.2638197634369,"[50, 0, 204]",204,a,0.4368702154606581,1,colour,0.06,3.8
76,21,1,1,9,44,444,884.7743561305106,885.7278078566305,"[55, 0, 199]",199,a,0.43118465365841985,0,colour,0.06,3.8
76,21,1,1,9,45,445,886.2431889246218,887.1678233267739,"[96, 0, 158]",158,l,0.4029348618350923,1,colour,0.06,3.8
76,21,1,1,9,46,446,887.6808653427288,888.6558222463354,"[86, 0, 168]",168,l,0.45268746791407466,1,colour,0.06,3.8
76,21,1,1,9,47,447,889.1653424906544,890.1038331855088,"[83, 0, 171]",171,l,0.4162082625553012,1,colour,0.06,3.8
76,21,1,1,9,48,448,890.6186160012148,891.5757998125628,"[85, 0, 169]",169,l,0.43492461554706097,1,colour,0.06,3.8
76,21,1,1,9,49,449,892.0874550966546,893.1037969519384,"[90, 0, 164]",164,l,0.494061391800642,1,colour,0.06,3.8
76,21,1,1,9,50,450,893.6188479764387,894.7837785040028,"[99, 0, 155]",155,l,0.6426638485863805,1,colour,0.06,3.8
76,21,1,1,10,1,451,899.7904388350435,901.3598217135295,"[87, 0, 167]",167,l,1.0463899476453662,1,colour,0.06,3.8
76,21,1,1,10,2,452,901.8695302163251,903.3758079260588,"[51, 0, 203]",203,a,0.9845624156296253,0,colour,0.06,3.8
76,21,1,1,10,3,453,903.8853053273633,904.9118253467605,"[90, 0, 164]",164,l,0.504317537881434,1,colour,0.06,3.8
76,21,1,1,10,4,454,905.4167852471583,907.7438271520659,"[74, 0, 180]",180,l,1.8049689983017743,1,colour,0.06,3.8
76,21,1,1,10,5,455,908.2606185823679,909.2798134586774,"[64, 0, 190]",190,a,0.5000009844079614,0,colour,0.06,3.8
76,21,1,1,10,6,456,909.7889016540721,911.071775296703,"[38, 0, 216]",216,a,0.7605207120068371,1,colour,0.06,3.8
76,21,1,1,10,7,457,911.585912598297,912.8318304824643,"[35, 0, 219]",219,a,0.7235724362544715,1,colour,0.06,3.8
76,21,1,1,10,8,458,913.3380014593713,914.5037795440294,"[58, 0, 196]",196,a,0.6435866304673254,0,colour,0.06,3.8
76,21,1,1,10,9,459,915.0098745087162,916.4237791658379,"[61, 0, 193]",193,a,0.8916336460970342,0,colour,0.06,3.8
76,21,1,1,10,10,460,916.9319630903192,918.3278221138753,"[83, 0, 171]",171,l,0.8736632373183966,1,colour,0.06,3.8
76,21,1,1,10,11,461,918.838650714606,921.4798033763655,"[71, 0, 183]",183,l,2.118799730669707,1,colour,0.06,3.8
76,21,1,1,10,12,462,921.9952305238694,923.1838386836462,"[50, 0, 204]",204,a,0.666424582246691,1,colour,0.06,3.8
76,21,1,1,10,13,463,923.6984986192547,924.5997826755047,"[81, 0, 173]",173,l,0.379153648391366,1,colour,0.06,3.8
76,21,1,1,10,14,464,925.1048288284801,926.0238178414293,"[55, 0, 199]",199,a,0.3967030355706811,0,colour,0.06,3.8
76,21,1,1,10,15,465,926.5424201763235,927.4558260273188,"[96, 0, 158]",158,l,0.3911391724832356,1,colour,0.06,3.8
76,21,1,1,10,16,466,927.9644002532586,929.183798905462,"[67, 0, 187]",187,a,0.6972138937562704,0,colour,0.06,3.8
76,21,1,1,10,17,467,929.6989456345327,930.4957939209417,"[85, 0, 169]",169,l,0.27467967523261905,1,colour,0.06,3.8
76,21,1,1,10,18,468,931.0000149663538,931.9998062276281,"[76, 0, 178]",178,l,0.4777624658308923,1,colour,0.06,3.8
76,21,1,1,10,19,469,932.5156343108974,933.6637842385098,"[91, 0, 163]",163,l,0.6259742276743054,1,colour,0.06,3.8
76,21,1,1,10,20,470,934.1720331474207,935.3598165935837,"[79, 0, 175]",175,l,0.6654198812320828,1,colour,0.06,3.8
76,21,1,1,10,21,471,935.8753658337519,936.72780825058,"[59, 0, 195]",195,a,0.3307901378720999,0,colour,0.06,3.8
76,21,1,1,10,22,472,937.2347098123282,938.1757699591108,"[73, 0, 181]",181,a,0.42335184291005135,0,colour,0.06,3.8
76,21,1,1,10,23,473,938.6833749301732,939.6237911386415,"[57, 0, 197]",197,a,0.41836457001045346,0,colour,0.06,3.8
76,21,1,1,10,24,474,940.1366090560332,941.2398105128668,"[56, 0, 198]",198,a,0.5809202059172094,0,colour,0.06,3.8
76,21,1,1,10,25,475,941.7460894039832,942.7198234149255,"[60, 0, 194]",194,a,0.451442520134151,0,colour,0.06,3.8
76,21,1,1,10,26,476,943.2305890005082,944.6637936909683,"[72, 0, 182]",182,a,0.9109041406773031,0,colour,0.06,3.8
76,21,1,1,10,27,477,945.1838658591732,946.2477918034419,"[98, 0, 156]",156,l,0.5419117207638919,1,colour,0.06,3.8
76,21,1,1,10,28,478,946.7621185453609,947.8078184747137,"[70, 0, 184]",184,a,0.5234493985772133,0,colour,0.06,3.8
76,21,1,1,10,29,479,948.3247319976799,950.4478140166029,"[94, 0, 160]",160,l,1.601586096920073,1,colour,0.06,3.8
76,21,1,1,10,30,480,950.965617631562,952.0237946044654,"[93, 0, 161]",161,l,0.5360477468930185,1,colour,0.06,3.8
76,21,1,1,10,31,481,952.5438466868363,953.4638092871755,"[69, 0, 185]",185,a,0.39772427873685956,0,colour,0.06,3.8
76,21,1,1,10,32,482,953.9814644223079,955.1517847329378,"[62, 0, 192]",192,a,0.64805638929829,0,colour,0.06,3.8
76,21,1,1,10,33,483,955.6691224281676,957.6638212599792,"[75, 0, 179]",179,a,1.4725333712995052,0,colour,0.06,3.8
76,21,1,1,10,34,484,958.1693372712471,959.1677977270447,"[66, 0, 188]",188,a,0.4762091371230781,0,colour,0.06,3.8
76,21,1,1,10,35,485,959.6850472004153,960.6077757817693,"[82, 0, 172]",172,l,0.40048750257119536,1,colour,0.06,3.8
76,21,1,1,10,36,486,961.1226294897497,962.0317900734954,"[7, 0, 247]",247,a,0.38685806514695287,1,colour,0.06,3.8
76,21,1,1,10,37,487,962.5446804589592,964.1998044159263,"[80, 0, 174]",174,l,1.1329128104262054,1,colour,0.06,3.8
76,21,1,1,10,38,488,964.7167084864341,965.5997700728476,"[54, 0, 200]",200,a,0.36101861204952,0,colour,0.06,3.8
76,21,1,1,10,39,489,966.1074026124552,968.1117806057446,"[99, 0, 155]",155,l,1.4826457635499537,1,colour,0.06,3.8
76,21,1,1,10,40,490,968.6232326650061,969.847786762286,"[63, 0, 191]",191,a,0.7023409819230437,0,colour,0.06,3.8
76,21,1,1,10,41,491,970.3577969511971,973.1357748899609,"[78, 0, 176]",176,l,2.2557226815260947,1,colour,0.06,3.8
76,21,1,1,10,42,492,973.6549199447036,974.5437998189591,"[65, 0, 189]",189,a,0.36660571210086346,0,colour,0.06,3.8
76,21,1,1,10,43,493,975.0612934771925,975.8398042898625,"[88, 0, 166]",166,l,0.25629139551892877,1,colour,0.06,3.8
76,21,1,1,10,44,494,976.3582404218614,978.1277845408767,"[95, 0, 159]",159,l,1.2473199758678675,1,colour,0.06,3.8
76,21,1,1,10,45,495,978.6396363540553,979.6078021693975,"[84, 0, 170]",170,l,0.4459432475268841,1,colour,0.06,3.8
76,21,1,1,10,46,496,980.1241300432011,981.1677681882866,"[86, 0, 168]",168,l,0.5214108508080244,1,colour,0.06,3.8
76,21,1,1,10,47,497,981.6867880001664,982.8798060542904,"[89, 0, 165]",165,l,0.6706718187779188,1,colour,0.06,3.8
76,21,1,1,10,48,498,983.3899737815373,984.5117923421785,"[68, 0, 186]",186,a,0.5998141835443676,0,colour,0.06,3.8
76,21,1,1,10,49,499,985.0308243632317,986.4158274135552,"[52, 0, 202]",202,a,0.8627485809847713,0,colour,0.06,3.8
76,21,1,1,10,50,500,986.9215958798304,988.055813502986,"[53, 0, 201]",201,a,0.6119340090081096,0,colour,0.06,3.8
76,21,1,1,11,1,501,1003.6096193753183,1004.5837996141054,"[87, 0, 167]",167,l,0.451155012473464,1,colour,0.06,3.7
76,21,1,1,11,2,502,1005.094940929208,1006.0237796385773,"[38, 0, 216]",216,a,0.40661574760451913,1,colour,0.06,3.7
76,21,1,1,11,3,503,1006.5324901351705,1007.4558094856329,"[97, 0, 157]",157,l,0.401167674921453,1,colour,0.06,3.7
76,21,1,1,11,4,504,1007.9701330764219,1009.0958069963381,"[73, 0, 181]",181,l,0.6034174808301032,1,colour,0.06,3.7
76,21,1,1,11,5,505,1009.6108217872679,1010.6397698679939,"[83, 0, 171]",171,l,0.5066388663835824,1,colour,0.06,3.7
76,21,1,1,11,6,506,1011.1578475995921,1012.1758191897534,"[71, 0, 183]",183,l,0.49567773612216115,1,colour,0.06,3.7
76,21,1,1,11,7,507,1012.6891526519321,1013.5118045513518,"[53, 0, 201]",201,a,0.30030960217118263,0,colour,0.06,3.7
76,21,1,1,11,8,508,1014.0174591965042,1015.1437790240161,"[69, 0, 185]",185,l,0.6042815796099603,1,colour,0.06,3.7
76,21,1,1,11,9,509,1015.6582337655127,1016.6798023520969,"[59, 0, 195]",195,a,0.4993987940251827,0,colour,0.06,3.7
76,21,1,1,11,10,510,1017.1895719012246,1018.255758128129,"[94, 0, 160]",160,l,0.5438738623633981,1,colour,0.06,3.7
76,21,1,1,11,11,511,1018.767883663997,1019.9997648736462,"[85, 0, 169]",169,l,0.70986816752702,1,colour,0.06,3.7
76,21,1,1,11,12,512,1020.518015504349,1021.6157972449437,"[76, 0, 178]",178,l,0.5757064712233841,1,colour,0.06,3.7
76,21,1,1,11,13,513,1022.1274607996456,1023.3597941445187,"[89, 0, 165]",165,l,0.7100757248699665,1,colour,0.06,3.7
76,21,1,1,11,14,514,1023.8777103992179,1025.039759942796,"[91, 0, 163]",163,l,0.6398789631202817,1,colour,0.06,3.7
76,21,1,1,11,15,515,1025.5495566669852,1026.6878186953254,"[88, 0, 166]",166,l,0.6160520631819963,1,colour,0.06,3.7
76,21,1,1,11,16,516,1027.205995282624,1028.3597957198508,"[70, 0, 184]",184,a,0.631569204851985,0,colour,0.06,3.7
76,21,1,1,11,17,517,1028.8780814022757,1029.9837625138462,"[62, 0, 192]",192,a,0.5835148636251688,0,colour,0.06,3.7
76,21,1,1,11,18,518,1030.503152540885,1031.6557734091766,"[96, 0, 158]",158,l,0.6303364667110145,1,colour,0.06,3.7
76,21,1,1,11,19,519,1032.1751291714609,1033.3517955243587,"[93, 0, 161]",161,l,0.654368166346103,1,colour,0.06,3.7
76,21,1,1,11,20,520,1033.8628159286454,1035.111785331741,"[75, 0, 179]",179,l,0.7273084595799446,1,colour,0.06,3.7
76,21,1,1,11,21,521,1035.6285393470898,1036.8397692376748,"[78, 0, 176]",176,l,0.6889789658598602,1,colour,0.06,3.7
76,21,1,1,11,22,522,1037.347428953275,1039.8557944404893,"[72, 0, 182]",182,a,1.9868715344928205,0,colour,0.06,3.7
76,21,1,1,11,23,523,1040.3632643222809,1041.671795067843,"[57, 0, 197]",197,a,0.7862703683786094,0,colour,0.06,3.7
76,21,1,1,11,24,524,1042.1915324670263,1044.6237820801325,"[66, 0, 188]",188,a,1.9100034143775702,0,colour,0.06,3.7
76,21,1,1,11,25,525,1045.1293236915953,1046.2477728989907,"[79, 0, 175]",175,l,0.5962498765438795,1,colour,0.06,3.7
76,21,1,1,11,26,526,1046.7544735991396,1047.935791274067,"[74, 0, 180]",180,l,0.6590856546536088,1,colour,0.06,3.7
76,21,1,1,11,27,527,1048.4420843436383,1049.4798100716434,"[67, 0, 187]",187,a,0.5154948891140521,0,colour,0.06,3.7
76,21,1,1,11,28,528,1049.989027841948,1050.9437910756096,"[98, 0, 156]",156,l,0.4325067945756018,1,colour,0.06,3.7
76,21,1,1,11,29,529,1051.457940980792,1052.431803385727,"[82, 0, 172]",172,l,0.4515870618633926,1,colour,0.06,3.7
76,21,1,1,11,30,530,1052.9424078883603,1053.8878027051687,"[80, 0, 174]",174,l,0.4231285322457552,1,colour,0.06,3.7
76,21,1,1,11,31,531,1054.395725115668,1055.4477710872889,"[92, 0, 162]",162,l,0.529826554004103,1,colour,0.06,3.7
76,21,1,1,11,32,532,1055.9583062729798,1056.7997564454563,"[50, 0, 204]",204,a,0.3192744725383818,1,colour,0.06,3.7
76,21,1,1,11,33,533,1057.3177298083901,1058.4237720766105,"[90, 0, 164]",164,l,0.5839579403400421,1,colour,0.06,3.7
76,21,1,1,11,34,534,1058.9429829036817,1062.423797282856,"[77, 0, 177]",177,l,2.9586122916080058,1,colour,0.06,3.7
76,21,1,1,11,35,535,1062.9432755312882,1063.7757920934819,"[61, 0, 193]",193,a,0.3102762713097036,0,colour,0.06,3.7
76,21,1,1,11,36,536,1064.2870669220574,1064.9037979757413,"[81, 0, 173]",173,l,0.09445807337760925,1,colour,0.06,3.7
76,21,1,1,11,37,537,1065.4121540109627,1066.2397652203217,"[86, 0, 168]",168,l,0.30539612425491214,1,colour,0.06,3.7
76,21,1,1,11,38,538,1066.756008811295,1067.6397584462538,"[65, 0, 189]",189,a,0.3614258486777544,0,colour,0.06,3.7
76,21,1,1,11,39,539,1068.1467887954786,1068.975788706448,"[51, 0, 203]",203,a,0.30675568152219057,0,colour,0.06,3.7
76,21,1,1,11,40,540,1069.4906085431576,1071.1278101410717,"[68, 0, 186]",186,a,1.1180006167851388,0,colour,0.06,3.7
76,21,1,1,11,41,541,1071.6439336086623,1072.5357897775248,"[63, 0, 191]",191,a,0.36960524413734674,0,colour,0.06,3.7
76,21,1,1,11,42,542,1073.0502909929492,1073.9837963846512,"[60, 0, 194]",194,a,0.4114620233885944,0,colour,0.06,3.7
76,21,1,1,11,43,543,1074.5035282699391,1075.647787392605,"[55, 0, 199]",199,a,0.621990080922842,0,colour,0.06,3.7
76,21,1,1,11,44,544,1076.1600350206718,1077.0797900641337,"[54, 0, 200]",200,a,0.39762384770438075,0,colour,0.06,3.7
76,21,1,1,11,45,545,1077.5975239686668,1079.3037986848503,"[64, 0, 190]",190,a,1.183962351642549,0,colour,0.06,3.7
76,21,1,1,11,46,546,1079.8164598513395,1081.3357679583132,"[58, 0, 196]",196,a,0.9972111759707332,0,colour,0.06,3.7
76,21,1,1,11,47,547,1081.847868682351,1082.7357859965414,"[56, 0, 198]",198,a,0.36567978002130985,0,colour,0.06,3.7
76,21,1,1,11,48,548,1083.2541654147208,1084.1917845285498,"[95, 0, 159]",159,l,0.4152130139991641,1,colour,0.06,3.7
76,21,1,1,11,49,549,1084.7074700389057,1085.6717891599983,"[6, 0, 248]",248,a,0.4420355069451034,1,colour,0.06,3.7
76,21,1,1,11,50,550,1086.1919318269938,1087.0877977428026,"[43, 0, 211]",211,a,0.3735299203544855,1,colour,0.06,3.7
76,21,1,1,12,1,551,1100.442353734281,1101.7117728074081,"[58, 0, 196]",196,a,0.7463946342468262,0,colour,0.06,3.6
76,21,1,1,12,2,552,1102.2245135311969,1102.847780067008,"[74, 0, 180]",180,l,0.10100615862756968,1,colour,0.06,3.6
76,21,1,1,12,3,553,1103.3652244941331,1104.207756956108,"[73, 0, 181]",181,l,0.3210798632353544,1,colour,0.06,3.6
76,21,1,1,12,4,554,1104.7246826882474,1105.927800137084,"[66, 0, 188]",188,l,0.6808117795735598,1,colour,0.06,3.6
76,21,1,1,12,5,555,1106.4436802081764,1107.4157454934902,"[93, 0, 161]",161,l,0.4497584346681833,1,colour,0.06,3.6
76,21,1,1,12,6,556,1107.928181773983,1108.6717367786914,"[77, 0, 177]",177,l,0.2212954149581492,1,colour,0.06,3.6
76,21,1,1,12,7,557,1109.1782114109956,1109.7837615688331,"[54, 0, 200]",200,a,0.0832689069211483,0,colour,0.06,3.6
76,21,1,1,12,8,558,1110.3033879031427,1111.1197603209876,"[55, 0, 199]",199,a,0.2941608773544431,0,colour,0.06,3.6
76,21,1,1,12,9,559,1111.6315955924802,1113.1677614930086,"[79, 0, 175]",175,l,1.0139492400921881,1,colour,0.06,3.6
76,21,1,1,12,10,560,1113.6786184511147,1114.679747607559,"[88, 0, 166]",166,l,0.47890501329675317,1,colour,0.06,3.6
76,21,1,1,12,11,561,1115.183528332971,1116.0797786428593,"[39, 0, 215]",215,a,0.37417031405493617,1,colour,0.06,3.6
76,21,1,1,12,12,562,1116.5898947762325,1117.5997948851436,"[76, 0, 178]",178,l,0.4876948702149093,1,colour,0.06,3.6
76,21,1,1,12,13,563,1118.1055688653141,1118.9997873231769,"[12, 0, 242]",242,a,0.3719265731051564,1,colour,0.06,3.6
76,21,1,1,12,14,564,1119.5089909150265,1120.4557311101817,"[96, 0, 158]",158,l,0.42449596570804715,1,colour,0.06,3.6
76,21,1,1,12,15,565,1120.9622108628973,1121.975769801531,"[56, 0, 198]",198,a,0.4913753615692258,0,colour,0.06,3.6
76,21,1,1,12,16,566,1122.4936159518547,1123.287765998859,"[97, 0, 157]",157,l,0.2719522910192609,1,colour,0.06,3.6
76,21,1,1,12,17,567,1123.8061777120456,1124.9917528629303,"[94, 0, 160]",160,l,0.6632891739718616,1,colour,0.06,3.6
76,21,1,1,12,18,568,1125.5094465948641,1126.463784868829,"[72, 0, 182]",182,l,0.4321066471748054,1,colour,0.06,3.6
76,21,1,1,12,19,569,1126.9782975059934,1127.7277712291107,"[75, 0, 179]",179,l,0.22740357369184494,1,colour,0.06,3.6
76,21,1,1,12,20,570,1128.2440766533837,1129.143772722222,"[63, 0, 191]",191,a,0.3777779438532889,0,colour,0.06,3.6
76,21,1,1,12,21,571,1129.6504147397354,1130.6397273326293,"[78, 0, 176]",176,l,0.46730073262006044,1,colour,0.06,3.6
76,21,1,1,12,22,572,1131.1504842536524,1132.055803656578,"[90, 0, 164]",164,l,0.3832445275038481,1,colour,0.06,3.6
76,21,1,1,12,23,573,1132.572370594833,1133.4317419459112,"[62, 0, 192]",192,a,0.33701448142528534,0,colour,0.06,3.6
76,21,1,1,12,24,574,1133.9476606133394,1134.7837718087249,"[53, 0, 201]",201,a,0.31389256566762924,0,colour,0.06,3.6
76,21,1,1,12,25,575,1135.291461456567,1135.8157635317184,"[87, 0, 167]",167,l,0.0020802952349185944,1,colour,0.06,3.6
76,21,1,1,12,26,576,1136.3384197242558,1137.3277831231244,"[81, 0, 173]",173,l,0.4670821479521692,1,colour,0.06,3.6
76,21,1,1,12,27,577,1137.838585336227,1139.151766222436,"[89, 0, 165]",165,l,0.7909602872096002,1,colour,0.06,3.6
76,21,1,1,12,28,578,1139.6668404839002,1141.1277514579706,"[91, 0, 163]",163,l,0.9388628797605634,1,colour,0.06,3.6
76,21,1,1,12,29,579,1141.635671111755,1143.1677532223985,"[98, 0, 156]",156,l,1.009851271752268,1,colour,0.06,3.6
76,21,1,1,12,30,580,1143.6827711639926,1144.6077631786466,"[61, 0, 193]",193,a,0.40283364383503795,0,colour,0.06,3.6
76,21,1,1,12,31,581,1145.1203503026627,1146.1037780470215,"[71, 0, 183]",183,a,0.46106417989358306,0,colour,0.06,3.6
76,21,1,1,12,32,582,1146.6204552622512,1147.5517685068771,"[68, 0, 186]",186,a,0.4089800058864057,0,colour,0.06,3.6
76,21,1,1,12,33,583,1148.0580871761777,1148.9677680311725,"[92, 0, 162]",162,l,0.3874263856559992,1,colour,0.06,3.6
76,21,1,1,12,34,584,1149.4800979732536,1150.431733280886,"[69, 0, 185]",185,a,0.4293776876293123,0,colour,0.06,3.6
76,21,1,1,12,35,585,1150.9490016591735,1152.2637858926319,"[57, 0, 197]",197,a,0.7925679669715464,0,colour,0.06,3.6
76,21,1,1,12,36,586,1152.7772654714063,1153.8397908993065,"[50, 0, 204]",204,a,0.5403485461138189,1,colour,0.06,3.6
76,21,1,1,12,37,587,1154.3554330868647,1155.1837811823934,"[86, 0, 168]",168,l,0.30604281974956393,1,colour,0.06,3.6
76,21,1,1,12,38,588,1155.6993662621826,1156.7197411013767,"[84, 0, 170]",170,l,0.498206228017807,1,colour,0.06,3.6
76,21,1,1,12,39,589,1157.2307059732266,1158.1677406192757,"[20, 0, 234]",234,a,0.41485658288002014,1,colour,0.06,3.6
76,21,1,1,12,40,590,1158.6839326159097,1160.247769354377,"[67, 0, 187]",187,a,1.04177249642089,0,colour,0.06,3.6
76,21,1,1,12,41,591,1160.7622481207363,1161.6717738001607,"[80, 0, 174]",174,l,0.3872373392805457,1,colour,0.06,3.6
76,21,1,1,12,42,592,1162.1842116559856,1163.7837466024794,"[85, 0, 169]",169,l,1.0775057571008801,1,colour,0.06,3.6
76,21,1,1,12,43,593,1164.2937831790186,1165.3837561337277,"[99, 0, 155]",155,l,0.5773058803752065,1,colour,0.06,3.6
76,21,1,1,12,44,594,1165.8939667902887,1170.2957685571164,"[70, 0, 184]",184,l,3.879576442297548,1,colour,0.06,3.6
76,21,1,1,12,45,595,1170.8162881345488,1171.7837525103241,"[65, 0, 189]",189,a,0.4453481463715434,0,colour,0.06,3.6
76,21,1,1,12,46,596,1172.3007503161207,1173.0557422167622,"[59, 0, 195]",195,a,0.23304541874676943,0,colour,0.06,3.6
76,21,1,1,12,47,597,1173.5664625097997,1174.4237452950329,"[64, 0, 190]",190,a,0.335181915666908,0,colour,0.06,3.6
76,21,1,1,12,48,598,1174.941534731537,1175.719780486077,"[52, 0, 202]",202,a,0.25597592489793897,0,colour,0.06,3.6
76,21,1,1,12,49,599,1176.2384919160977,1176.8237554561347,"[51, 0, 203]",203,a,0.06293187662959099,0,colour,0.06,3.6
76,21,1,1,12,50,600,1177.3323328332044,1177.927759571001,"[83, 0, 171]",171,l,0.07311909925192595,1,colour,0.06,3.6
76,21,1,1,13,1,601,1185.61348221777,1186.775738924276,"[51, 0, 203]",203,a,0.6391468034125865,0,colour,0.06,3.6
76,21,1,1,13,2,602,1187.2863548481837,1188.6717568645254,"[61, 0, 193]",193,a,0.8632385251112282,0,colour,0.06,3.6
76,21,1,1,13,3,603,1189.1770491711795,1190.3917724764906,"[95, 0, 159]",159,l,0.6924645034596324,1,colour,0.06,3.6
76,21,1,1,13,4,604,1190.9116107006557,1192.2237116605975,"[81, 0, 173]",173,l,0.7899248660542071,1,colour,0.06,3.6
76,21,1,1,13,5,605,1192.7398150418885,1193.6637696661055,"[47, 0, 207]",207,a,0.4016123269684613,1,colour,0.06,3.6
76,21,1,1,13,6,606,1194.1774804326706,1195.2557699433528,"[97, 0, 157]",157,l,0.5560917551629245,1,colour,0.06,3.6
76,21,1,1,13,7,607,1195.7713550236076,1196.8157131192274,"[57, 0, 197]",197,a,0.5221607340499759,0,colour,0.06,3.6
76,21,1,1,13,8,608,1197.333925940562,1198.4157462813891,"[85, 0, 169]",169,l,0.5598478652536869,1,colour,0.06,3.6
76,21,1,1,13,9,609,1198.9277509064414,1201.12775185192,"[82, 0, 172]",172,l,1.6776783405803144,1,colour,0.06,3.6
76,21,1,1,13,10,610,1201.6467507896014,1202.5997255682014,"[54, 0, 200]",200,a,0.43070534290745854,0,colour,0.06,3.6
76,21,1,1,13,11,611,1203.1156343896873,1204.3677439275198,"[64, 0, 190]",190,l,0.7297573946416378,1,colour,0.06,3.6
76,21,1,1,13,12,612,1204.881408220157,1205.9837680277415,"[65, 0, 189]",189,a,0.5800805259495974,0,colour,0.06,3.6
76,21,1,1,13,13,613,1206.4908609986305,1207.5917163142003,"[86, 0, 168]",168,l,0.5785677628591657,1,colour,0.06,3.6
76,21,1,1,13,14,614,1208.1003555250354,1209.143781780731,"[56, 0, 198]",198,a,0.5212285001762211,0,colour,0.06,3.6
76,21,1,1,13,15,615,1209.663122577127,1210.5037606391124,"[55, 0, 199]",199,a,0.31848599249497056,0,colour,0.06,3.6
76,21,1,1,13,16,616,1211.0225216941908,1211.9117658757605,"[74, 0, 180]",180,l,0.3670090106315911,1,colour,0.06,3.6
76,21,1,1,13,17,617,1212.4288806538098,1213.3677301430143,"[73, 0, 181]",181,l,0.4157380103133619,1,colour,0.06,3.6
76,21,1,1,13,18,618,1213.88213762315,1214.7277680779807,"[53, 0, 201]",201,a,0.3233751975931227,0,colour,0.06,3.6
76,21,1,1,13,19,619,1215.2415749430656,1216.2717325249687,"[66, 0, 188]",188,a,0.5078700291924179,0,colour,0.06,3.6
76,21,1,1,13,20,620,1216.7885440415703,1218.0397812104784,"[71, 0, 183]",183,l,0.7289003855548799,1,colour,0.06,3.6
76,21,1,1,13,21,621,1218.5544116077945,1219.519734248519,"[92, 0, 162]",162,l,0.4430902265012264,1,colour,0.06,3.6
76,21,1,1,13,22,622,1220.0389194753952,1220.9277721741237,"[63, 0, 191]",191,a,0.3665895648300648,0,colour,0.06,3.6
76,21,1,1,13,23,623,1221.445229598321,1222.2317173695192,"[75, 0, 179]",179,l,0.2642439352348447,1,colour,0.06,3.6
76,21,1,1,13,24,624,1222.7421639398672,1223.4797273641452,"[40, 0, 214]",214,a,0.21527981013059616,1,colour,0.06,3.6
76,21,1,1,13,25,625,1223.9922908567823,1225.2557199248113,"[60, 0, 194]",194,a,0.7412131954915822,0,colour,0.06,3.6
76,21,1,1,13,26,626,1225.7736897431314,1226.4877401622944,"[68, 0, 186]",186,a,0.19196215271949768,0,colour,0.06,3.6
76,21,1,1,13,27,627,1227.0081734876148,1227.9917323831469,"[67, 0, 187]",187,a,0.4613800444640219,0,colour,0.06,3.6
76,21,1,1,13,28,628,1228.5083020781167,1229.1917872852646,"[62, 0, 192]",192,a,0.1611787499859929,0,colour,0.06,3.6
76,21,1,1,13,29,629,1229.712128056679,1230.4237385997549,"[90, 0, 164]",164,l,0.18942735996097326,1,colour,0.06,3.6
76,21,1,1,13,30,630,1230.9309958042577,1231.8957650912926,"[59, 0, 195]",195,a,0.44257783284410834,0,colour,0.06,3.6
76,21,1,1,13,31,631,1232.4155091857538,1233.503724405542,"[96, 0, 158]",158,l,0.5659737470559776,1,colour,0.06,3.6
76,21,1,1,13,32,632,1234.0093416352756,1234.815712725278,"[50, 0, 204]",204,a,0.28414497757330537,1,colour,0.06,3.6
76,21,1,1,13,33,633,1235.321948687546,1236.1037292103283,"[79, 0, 175]",175,l,0.25952841667458415,1,colour,0.06,3.6
76,21,1,1,13,34,634,1236.618928715121,1237.4637490287423,"[84, 0, 170]",170,l,0.32259026262909174,1,colour,0.06,3.6
76,21,1,1,13,35,635,1237.978351068683,1238.6957267308608,"[52, 0, 202]",202,a,0.19508535275235772,0,colour,0.06,3.6
76,21,1,1,13,36,636,1239.2128698658198,1240.2237652237527,"[77, 0, 177]",177,l,0.48866333765909076,1,colour,0.06,3.6
76,21,1,1,13,37,637,1240.7441977611743,1241.5277533484623,"[70, 0, 184]",184,a,0.26125543192029,0,colour,0.06,3.6
76,21,1,1,13,38,638,1242.0412175673991,1242.7917211977765,"[76, 0, 178]",178,l,0.22822001622989774,1,colour,0.06,3.6
76,21,1,1,13,39,639,1243.306932517793,1244.0797691904008,"[58, 0, 196]",196,a,0.2506400984711945,0,colour,0.06,3.6
76,21,1,1,13,40,640,1244.5883430223912,1245.207742777653,"[78, 0, 176]",176,l,0.09765886096283793,1,colour,0.06,3.6
76,21,1,1,13,41,641,1245.7133040810004,1246.4397330824286,"[98, 0, 156]",156,l,0.20411466713994741,1,colour,0.06,3.6
76,21,1,1,13,42,642,1246.9478358747438,1247.5277651636861,"[87, 0, 167]",167,l,0.05832624062895775,1,colour,0.06,3.6
76,21,1,1,13,43,643,1248.0416661580093,1250.6237312741578,"[94, 0, 160]",160,l,2.059731483925134,1,colour,0.06,3.6
76,21,1,1,13,44,644,1251.135622471571,1252.1917435685173,"[99, 0, 155]",155,l,0.5338107012212276,1,colour,0.06,3.6
76,21,1,1,13,45,645,1252.6983091793954,1253.7597259301692,"[88, 0, 166]",166,l,0.5391544043086469,1,colour,0.06,3.6
76,21,1,1,13,46,646,1254.276543748565,1255.6957578444853,"[83, 0, 171]",171,l,0.8969635646790266,1,colour,0.06,3.6
76,21,1,1,13,47,647,1256.2142317853868,1257.0876973117702,"[72, 0, 182]",182,a,0.35129258316010237,0,colour,0.06,3.6
76,21,1,1,13,48,648,1257.6049574194476,1259.1277345223352,"[80, 0, 174]",174,l,1.0005631996318698,1,colour,0.06,3.6
76,21,1,1,13,49,649,1259.6363780652173,1260.6717608030885,"[89, 0, 165]",165,l,0.5131054250523448,1,colour,0.06,3.6
76,21,1,1,13,50,650,1261.1833507083356,1262.0717622996308,"[2, 0, 252]",252,a,0.36629733070731163,1,colour,0.06,3.6
76,21,1,1,14,1,651,1268.5424824040383,1269.6477562785149,"[76, 0, 178]",178,l,0.5821789377368987,1,colour,0.06,3.6
76,21,1,1,14,2,652,1270.1528839576058,1271.791732225567,"[64, 0, 190]",190,a,1.1167052569799125,0,colour,0.06,3.6
76,21,1,1,14,3,653,1272.30921485601,1273.0557363089174,"[26, 0, 228]",228,a,0.22424256475642323,1,colour,0.06,3.6
76,21,1,1,14,4,654,1273.5748010189272,1274.471725593321,"[50, 0, 204]",204,a,0.37450744630768895,1,colour,0.06,3.6
76,21,1,1,14,5,655,1274.9813135792501,1275.6637255554087,"[91, 0, 163]",163,l,0.16014923620969057,1,colour,0.06,3.6
76,21,1,1,14,6,656,1276.1689052223228,1277.0877288198099,"[80, 0, 174]",174,l,0.3965951222926378,1,colour,0.06,3.6
76,21,1,1,14,7,657,1277.6065162620507,1278.807728677988,"[74, 0, 180]",180,l,0.6789024141617119,1,colour,0.06,3.6
76,21,1,1,14,8,658,1279.3254346190952,1280.2477476927452,"[75, 0, 179]",179,l,0.40003654872998595,1,colour,0.06,3.6
76,21,1,1,14,9,659,1280.7629976095632,1281.7517639379948,"[94, 0, 160]",160,l,0.4665008313022554,1,colour,0.06,3.6
76,21,1,1,14,10,660,1282.263104538899,1283.0797353195958,"[95, 0, 159]",159,l,0.29436252638697624,1,colour,0.06,3.6
76,21,1,1,14,11,661,1283.5913811512291,1284.5277234162204,"[79, 0, 175]",175,l,0.4140767678618431,1,colour,0.06,3.6
76,21,1,1,14,12,662,1285.0445955852047,1285.9757363246754,"[78, 0, 176]",176,l,0.40877835638821125,1,colour,0.06,3.6
76,21,1,1,14,13,663,1286.4821952036582,1287.7757172626443,"[71, 0, 183]",183,l,0.7712994911707938,1,colour,0.06,3.6
76,21,1,1,14,14,664,1288.294901308138,1289.247762659099,"[82, 0, 172]",172,l,0.43070849403738976,1,colour,0.06,3.6
76,21,1,1,14,15,665,1289.7638057819568,1290.631734620314,"[93, 0, 161]",161,l,0.3457747995853424,1,colour,0.06,3.6
76,21,1,1,14,16,666,1291.138980009593,1294.5037181037478,"[73, 0, 181]",181,l,2.8425954771228135,1,colour,0.06,3.6
76,21,1,1,14,17,667,1295.014168612659,1295.7517509413883,"[77, 0, 177]",177,l,0.21533297933638096,1,colour,0.06,3.6
76,21,1,1,14,18,668,1296.2642065202817,1296.8877455973998,"[66, 0, 188]",188,a,0.1012026877142489,0,colour,0.06,3.6
76,21,1,1,14,19,669,1297.4050277601928,1298.1837173793465,"[57, 0, 197]",197,a,0.2564717773348093,0,colour,0.06,3.6
76,21,1,1,14,20,670,1298.702010938432,1299.847741076257,"[43, 0, 211]",211,a,0.6236643204465508,1,colour,0.06,3.6
76,21,1,1,14,21,671,1300.358321160078,1301.2557522202842,"[69, 0, 185]",185,a,0.3751458707265556,0,colour,0.06,3.6
76,21,1,1,14,22,672,1301.7647009938955,1302.5677247866988,"[56, 0, 198]",198,a,0.2808284000493586,0,colour,0.06,3.6
76,21,1,1,14,23,673,1303.0772674800828,1303.9837400647812,"[63, 0, 191]",191,a,0.3842062996700406,0,colour,0.06,3.6
76,21,1,1,14,24,674,1304.4992664614692,1306.5197393684648,"[54, 0, 200]",200,a,1.4989624125882983,0,colour,0.06,3.6
76,21,1,1,14,25,675,1307.030761347618,1307.559732468333,"[88, 0, 166]",166,l,0.006732798647135496,1,colour,0.06,3.6
76,21,1,1,14,26,676,1308.0776609322056,1308.7437216010876,"[65, 0, 189]",189,a,0.14374869782477617,0,colour,0.06,3.6
76,21,1,1,14,27,677,1309.2495924676768,1309.7837371504866,"[97, 0, 157]",157,l,0.011917782481759787,1,colour,0.06,3.6
76,21,1,1,14,28,678,1310.2966499845497,1311.0717244902626,"[98, 0, 156]",156,l,0.2528176731429994,1,colour,0.06,3.6
76,21,1,1,14,29,679,1311.57795769535,1312.3357703215443,"[67, 0, 187]",187,a,0.23555736895650625,0,colour,0.06,3.6
76,21,1,1,14,30,680,1312.8436659509316,1313.5117529574782,"[99, 0, 155]",155,l,0.1457486478611827,1,colour,0.06,3.6
76,21,1,1,14,31,681,1314.031306036748,1314.9357451940887,"[60, 0, 194]",194,a,0.38219925994053483,0,colour,0.06,3.6
76,21,1,1,14,32,682,1315.4532715412788,1317.255698657129,"[58, 0, 196]",196,a,1.2802163632586598,0,colour,0.06,3.6
76,21,1,1,14,33,683,1317.7659774492495,1318.8317111469805,"[70, 0, 184]",184,a,0.5435631177388132,0,colour,0.06,3.6
76,21,1,1,14,34,684,1319.3441639691591,1320.1037390562706,"[51, 0, 203]",203,a,0.23728950368240476,0,colour,0.06,3.6
76,21,1,1,14,35,685,1320.6097969999537,1321.5436997823417,"[92, 0, 162]",162,l,0.4115218883380294,1,colour,0.06,3.6
76,21,1,1,14,36,686,1322.0631685783155,1323.0557071645744,"[85, 0, 169]",169,l,0.47029317542910576,1,colour,0.06,3.6
76,21,1,1,14,37,687,1323.563279052265,1326.7437125425786,"[72, 0, 182]",182,a,2.658222737722099,0,colour,0.06,3.6
76,21,1,1,14,38,688,1327.2511316183954,1327.95973987272,"[86, 0, 168]",168,l,0.1867204555310309,1,colour,0.06,3.6
76,21,1,1,14,39,689,1328.46994501492,1329.271731343586,"[61, 0, 193]",193,a,0.2795283142477274,0,colour,0.06,3.6
76,21,1,1,14,40,690,1329.7825304060243,1330.4637383949012,"[83, 0, 171]",171,l,0.15893067652359605,1,colour,0.06,3.6
76,21,1,1,14,41,691,1330.9701283504255,1332.0397469461896,"[59, 0, 195]",195,a,0.54747558478266,0,colour,0.06,3.6
76,21,1,1,14,42,692,1332.5483971843496,1333.359724433627,"[53, 0, 201]",201,a,0.2890810505487025,0,colour,0.06,3.6
76,21,1,1,14,43,693,1333.8764646644704,1334.5597241972573,"[87, 0, 167]",167,l,0.16139063891023397,1,colour,0.06,3.6
76,21,1,1,14,44,694,1335.0798125136644,1335.9437477528118,"[48, 0, 206]",206,a,0.3416311452165246,1,colour,0.06,3.6
76,21,1,1,14,45,695,1336.4549572025426,1338.7517099813558,"[68, 0, 186]",186,a,1.7744183582253754,0,colour,0.06,3.6
76,21,1,1,14,46,696,1339.2676786673255,1340.0556890475564,"[55, 0, 199]",199,a,0.26599182467907667,0,colour,0.06,3.6
76,21,1,1,14,47,697,1340.5646358518861,1341.5517433006316,"[81, 0, 173]",173,l,0.4646647209301591,1,colour,0.06,3.6
76,21,1,1,14,48,698,1342.0654422515072,1342.9917457737029,"[52, 0, 202]",202,a,0.40472843684256077,0,colour,0.06,3.6
76,21,1,1,14,49,699,1343.502360122744,1344.6317228046246,"[62, 0, 192]",192,a,0.6077619972638786,0,colour,0.06,3.6
76,21,1,1,14,50,700,1345.1431543841027,1345.8557223668322,"[89, 0, 165]",165,l,0.19036392541602254,1,colour,0.06,3.6
76,21,1,1,15,1,701,1358.3934073317796,1359.6237304862589,"[85, 0, 169]",169,l,0.7080407221801579,1,colour,0.06,3.5
76,21,1,1,15,2,702,1360.1287041716278,1360.8957623345777,"[94, 0, 160]",160,l,0.2448072382248938,1,colour,0.06,3.5
76,21,1,1,15,3,703,1361.4100292115472,1362.6077119787224,"[83, 0, 171]",171,l,0.6737938364967704,1,colour,0.06,3.5
76,21,1,1,15,4,704,1363.11498651281,1363.9997349414043,"[53, 0, 201]",201,a,0.3625002605840564,0,colour,0.06,3.5
76,21,1,1,15,5,705,1364.5057349894196,1365.9757379000075,"[70, 0, 184]",184,a,0.947723628487438,0,colour,0.06,3.5
76,21,1,1,15,6,706,1366.4878740701824,1367.3917212765664,"[90, 0, 164]",164,l,0.3814647370018065,1,colour,0.06,3.5
76,21,1,1,15,7,707,1367.9098931378685,1368.959746567998,"[93, 0, 161]",161,l,0.5275832070037723,1,colour,0.06,3.5
76,21,1,1,15,8,708,1369.4724479070865,1370.4317120132037,"[63, 0, 191]",191,a,0.4349805419333279,0,colour,0.06,3.5
76,21,1,1,15,9,709,1370.9433972295374,1372.0237386785448,"[65, 0, 189]",189,a,0.5580574409104884,0,colour,0.06,3.5
76,21,1,1,15,10,710,1372.5376940234564,1373.4557240209542,"[52, 0, 202]",202,a,0.39647972490638494,0,colour,0.06,3.5
76,21,1,1,15,11,711,1373.975252287928,1374.9757233280689,"[89, 0, 165]",165,l,0.47830794285982847,1,colour,0.06,3.5
76,21,1,1,15,12,712,1375.481426415965,1376.6317432848737,"[81, 0, 173]",173,l,0.6279958393424749,1,colour,0.06,3.5
76,21,1,1,15,13,713,1377.1378713329323,1378.1197079396807,"[55, 0, 199]",199,a,0.45961482683196664,0,colour,0.06,3.5
76,21,1,1,15,14,714,1378.6379829882644,1381.5037350393832,"[77, 0, 177]",177,l,2.343506640288979,1,colour,0.06,3.5
76,21,1,1,15,15,715,1382.0131946313195,1383.0557193737477,"[74, 0, 180]",180,l,0.5202887835912406,1,colour,0.06,3.5
76,21,1,1,15,16,716,1383.5758683420718,1384.7917345887981,"[75, 0, 179]",179,l,0.6936113834381104,1,colour,0.06,3.5
76,21,1,1,15,17,717,1385.3103369236924,1386.3517399923876,"[59, 0, 195]",195,a,0.5191344209015369,0,colour,0.06,3.5
76,21,1,1,15,18,718,1386.8573489510454,1388.431719102431,"[46, 0, 208]",208,a,1.052170820068568,1,colour,0.06,3.5
76,21,1,1,15,19,719,1388.9513178681955,1390.3997372258455,"[51, 0, 203]",203,a,0.9264716943725944,0,colour,0.06,3.5
76,21,1,1,15,20,720,1390.904539981857,1392.1037154258229,"[66, 0, 188]",188,a,0.6769260945729911,0,colour,0.06,3.5
76,21,1,1,15,21,721,1392.6234012311324,1393.6557072433643,"[97, 0, 157]",157,l,0.510078324470669,1,colour,0.06,3.5
76,21,1,1,15,22,722,1394.1702954987995,1396.327679935377,"[71, 0, 183]",183,l,1.6349716410040855,1,colour,0.06,3.5
76,21,1,1,15,23,723,1396.8425214341842,1397.799705245532,"[95, 0, 159]",159,l,0.4349399758502841,1,colour,0.06,3.5
76,21,1,1,15,24,724,1398.3113786461763,1399.5037118024193,"[84, 0, 170]",170,l,0.6700475728139281,1,colour,0.06,3.5
76,21,1,1,15,25,725,1400.0146542247385,1401.567719666753,"[62, 0, 192]",192,a,1.030849569477141,0,colour,0.06,3.5
76,21,1,1,15,26,726,1402.0786104951985,1403.0397189827636,"[96, 0, 158]",158,l,0.43881384562700987,1,colour,0.06,3.5
76,21,1,1,15,27,727,1403.5475547476672,1404.7677036765963,"[54, 0, 200]",200,a,0.6979972533881664,0,colour,0.06,3.5
76,21,1,1,15,28,728,1405.282040658407,1406.2557262266055,"[80, 0, 174]",174,l,0.45143385557457805,1,colour,0.06,3.5
76,21,1,1,15,29,729,1406.7665957873687,1408.0156971290708,"[73, 0, 181]",181,l,0.7269697519950569,1,colour,0.06,3.5
76,21,1,1,15,30,730,1408.5322916368023,1409.7597133275121,"[99, 0, 155]",155,l,0.7052247230894864,1,colour,0.06,3.5
76,21,1,1,15,31,731,1410.2668216582388,1411.3676880015992,"[32, 0, 222]",222,a,0.5788288828916848,1,colour,0.06,3.5
76,21,1,1,15,32,732,1411.8762799506076,1412.8877381142229,"[79, 0, 175]",175,l,0.4897416881285608,1,colour,0.06,3.5
76,21,1,1,15,33,733,1413.407642110251,1414.7677028886974,"[67, 0, 187]",187,a,0.8378090658225119,0,colour,0.06,3.5
76,21,1,1,15,34,734,1415.2828354397789,1415.9996652309783,"[76, 0, 178]",178,l,0.19459974020719528,1,colour,0.06,3.5
76,21,1,1,15,35,735,1416.517323516775,1417.9117131005041,"[86, 0, 168]",168,l,0.8723501544445753,1,colour,0.06,3.5
76,21,1,1,15,36,736,1418.4237279659137,1419.6876836060546,"[12, 0, 242]",242,a,0.7424522354267538,1,colour,0.06,3.5
76,21,1,1,15,37,737,1420.2051331535913,1421.4237007903866,"[50, 0, 204]",204,a,0.6962922937236726,1,colour,0.06,3.5
76,21,1,1,15,38,738,1421.9396261535585,1423.247718941886,"[72, 0, 182]",182,a,0.7856543930247426,0,colour,0.06,3.5
76,21,1,1,15,39,739,1423.7679998488165,1424.7356914733537,"[58, 0, 196]",196,a,0.44569276133552194,0,colour,0.06,3.5
76,21,1,1,15,40,740,1425.253665230237,1426.1837173793465,"[98, 0, 156]",156,l,0.40773505810648203,1,colour,0.06,3.5
76,21,1,1,15,41,741,1426.6912888730876,1427.7116908873431,"[91, 0, 163]",163,l,0.4981818092055619,1,colour,0.06,3.5
76,21,1,1,15,42,742,1428.2226396114565,1429.415715167299,"[87, 0, 167]",167,l,0.6710345507599413,1,colour,0.06,3.5
76,21,1,1,15,43,743,1429.9259482729249,1431.2077211160213,"[60, 0, 194]",194,a,0.7595845395699143,0,colour,0.06,3.5
76,21,1,1,15,44,744,1431.7228643004782,1432.8717759265564,"[61, 0, 193]",193,a,0.6265106457285583,0,colour,0.06,3.5
76,21,1,1,15,45,745,1433.3792911008932,1435.1117349197157,"[88, 0, 166]",166,l,1.2102373987436295,1,colour,0.06,3.5
76,21,1,1,15,46,746,1435.6295255376026,1436.7197115630843,"[78, 0, 176]",176,l,0.5680008730851114,1,colour,0.06,3.5
76,21,1,1,15,47,747,1437.2391019836068,1438.415687598288,"[56, 0, 198]",198,a,0.6543965237215161,0,colour,0.06,3.5
76,21,1,1,15,48,748,1438.9265961498022,1440.0957171996124,"[68, 0, 186]",186,a,0.6466980143450201,0,colour,0.06,3.5
76,21,1,1,15,49,749,1440.6142486422323,1442.01567783067,"[57, 0, 197]",197,a,0.8791727498173714,0,colour,0.06,3.5
76,21,1,1,15,50,750,1442.5207137437537,1443.5916765355505,"[92, 0, 162]",162,l,0.5487173809669912,1,colour,0.06,3.5
76,21,1,1,16,1,751,1455.621033034753,1457.0636837291531,"[23, 0, 231]",231,a,0.9196203481405973,1,colour,0.06,3.5
76,21,1,1,16,2,752,1457.575163751375,1458.6477180756629,"[59, 0, 195]",195,a,0.5503731104545295,0,colour,0.06,3.5
76,21,1,1,16,3,753,1459.153391231317,1460.431667509023,"[61, 0, 193]",193,a,0.7560383495874703,0,colour,0.06,3.5
76,21,1,1,16,4,754,1460.9503998127766,1462.3196801338345,"[62, 0, 192]",192,a,0.8472456177696586,0,colour,0.06,3.5
76,21,1,1,16,5,755,1462.8255053143948,1463.7197080184706,"[95, 0, 159]",159,l,0.37187537318095565,1,colour,0.06,3.5
76,21,1,1,16,6,756,1464.2318690004759,1465.5676861898974,"[71, 0, 183]",183,a,0.8135796552523971,0,colour,0.06,3.5
76,21,1,1,16,7,757,1466.0758248218335,1467.215681138914,"[94, 0, 160]",160,l,0.6176006658934057,1,colour,0.06,3.5
76,21,1,1,16,8,758,1467.7321299235336,1468.791721591726,"[90, 0, 164]",164,l,0.5372832417488098,1,colour,0.06,3.5
76,21,1,1,16,9,759,1469.3103975756094,1470.3277327106334,"[99, 0, 155]",155,l,0.4956162958405912,1,colour,0.06,3.5
76,21,1,1,16,10,760,1470.8417782466859,1471.5517220329493,"[27, 0, 227]",227,a,0.18766686785966158,1,colour,0.06,3.5
76,21,1,1,16,11,761,1472.0606117295101,1473.5677094268613,"[70, 0, 184]",184,a,0.9849255415610969,0,colour,0.06,3.5
76,21,1,1,16,12,762,1474.07649002783,1474.8717676559463,"[75, 0, 179]",179,l,0.2731101983226836,1,colour,0.06,3.5
76,21,1,1,16,13,763,1475.389103775844,1476.2957138125785,"[92, 0, 162]",162,l,0.38451231829822063,1,colour,0.06,3.5
76,21,1,1,16,14,764,1476.8109751511365,1477.4156970502809,"[65, 0, 189]",189,a,0.08243867894634604,0,colour,0.06,3.5
76,21,1,1,16,15,765,1477.920513197314,1478.9437024602666,"[83, 0, 171]",171,l,0.5009024981409311,1,colour,0.06,3.5
76,21,1,1,16,16,766,1479.4518737816252,1480.1436935593374,"[98, 0, 156]",156,l,0.16984533285722136,1,colour,0.06,3.5
76,21,1,1,16,17,767,1480.6551779140718,1481.495685219299,"[63, 0, 191]",191,a,0.31839895248413086,0,colour,0.06,3.5
76,21,1,1,16,18,768,1482.0145778185688,1482.967690049205,"[74, 0, 180]",180,l,0.4309837920591235,1,colour,0.06,3.5
76,21,1,1,16,19,769,1483.483426366467,1485.3437110460363,"[88, 0, 166]",166,l,1.3381420625373721,1,colour,0.06,3.5
76,21,1,1,16,20,770,1485.8586462801322,1486.6237123692408,"[69, 0, 185]",185,a,0.24280807515606284,0,colour,0.06,3.5
76,21,1,1,16,21,771,1487.139983529225,1488.0236729062162,"[97, 0, 157]",157,l,0.3614971349015832,1,colour,0.06,3.5
76,21,1,1,16,22,772,1488.530677655246,1489.4476938932203,"[51, 0, 203]",203,a,0.39480745419859886,0,colour,0.06,3.5
76,21,1,1,16,23,773,1489.952693572268,1490.8956729313359,"[54, 0, 200]",200,a,0.4300716444849968,0,colour,0.06,3.5
76,21,1,1,16,24,774,1491.4122749217786,1492.2316756220534,"[80, 0, 174]",174,l,0.297190735116601,1,colour,0.06,3.5
76,21,1,1,16,25,775,1492.7405302664265,1494.023675662931,"[93, 0, 161]",161,l,0.7609429145231843,1,colour,0.06,3.5
76,21,1,1,16,26,776,1494.5375534202904,1495.3196864356287,"[57, 0, 197]",197,a,0.2598848473280668,0,colour,0.06,3.5
76,21,1,1,16,27,777,1495.8345393557101,1496.8796835681424,"[53, 0, 201]",201,a,0.5231721308082342,0,colour,0.06,3.5
76,21,1,1,16,28,778,1497.3971457188018,1498.3436755998991,"[58, 0, 196]",196,a,0.4242951041087508,0,colour,0.06,3.5
76,21,1,1,16,29,779,1498.850603155326,1500.3196931309067,"[55, 0, 199]",199,a,0.9471915429458022,0,colour,0.06,3.5
76,21,1,1,16,30,780,1500.8245864715427,1501.943717032671,"[73, 0, 181]",181,a,0.5968304057605565,0,colour,0.06,3.5
76,21,1,1,16,31,781,1502.4497785205022,1503.2317063421942,"[85, 0, 169]",169,l,0.25974424416199327,1,colour,0.06,3.5
76,21,1,1,16,32,782,1503.7467309790663,1504.7277121520601,"[96, 0, 158]",158,l,0.45874521415680647,1,colour,0.06,3.5
76,21,1,1,16,33,783,1505.2467898591422,1506.0557055892423,"[14, 0, 240]",240,a,0.2866486576385796,1,colour,0.06,3.5
76,21,1,1,16,34,784,1506.575090889819,1507.5197346424684,"[68, 0, 186]",186,a,0.42244402784854174,0,colour,0.06,3.5
76,21,1,1,16,35,785,1508.0282391575165,1509.3997017797083,"[67, 0, 187]",187,a,0.8491451372392476,0,colour,0.06,3.5
76,21,1,1,16,36,786,1509.9190729022957,1510.967692412436,"[64, 0, 190]",190,a,0.5264300256967545,0,colour,0.06,3.5
76,21,1,1,16,37,787,1511.5041729961522,1512.3196832844988,"[86, 0, 168]",168,l,0.30019066063687205,1,colour,0.06,3.5
76,21,1,1,16,38,788,1512.825497831218,1515.8716747085564,"[78, 0, 176]",176,l,2.5238570291548967,1,colour,0.06,3.5
76,21,1,1,16,39,789,1516.3884039111435,1517.2076927591115,"[89, 0, 165]",165,l,0.29711196618154645,1,colour,0.06,3.5
76,21,1,1,16,40,790,1517.7165722157806,1518.4716988117434,"[52, 0, 202]",202,a,0.2329824035987258,0,colour,0.06,3.5
76,21,1,1,16,41,791,1518.982319462113,1524.679688530974,"[81, 0, 173]",173,l,5.175173282623291,1,colour,0.06,3.5
76,21,1,1,16,42,792,1525.1858673850074,1527.1677134437487,"[66, 0, 188]",188,l,1.4594620140269399,1,colour,0.06,3.5
76,21,1,1,16,43,793,1527.6860479633324,1528.503667297773,"[77, 0, 177]",177,l,0.2953680157661438,1,colour,0.06,3.5
76,21,1,1,16,44,794,1529.0143521446735,1530.3756700800732,"[79, 0, 175]",175,l,0.8391134841367602,1,colour,0.06,3.5
76,21,1,1,16,45,795,1530.8894237754866,1531.847648522351,"[56, 0, 198]",198,a,0.43587339110672474,0,colour,0.06,3.5
76,21,1,1,16,46,796,1532.3583621201105,1533.2876506019384,"[84, 0, 170]",170,l,0.40712656592950225,1,colour,0.06,3.5
76,21,1,1,16,47,797,1533.7959203845821,1534.9596847342327,"[82, 0, 172]",172,l,0.641530754044652,1,colour,0.06,3.5
76,21,1,1,16,48,798,1535.4679553047754,1536.5196968331002,"[91, 0, 163]",163,l,0.5297678713686764,1,colour,0.06,3.5
76,21,1,1,16,49,799,1537.030595538672,1537.935687692836,"[50, 0, 204]",204,a,0.3828585585579276,1,colour,0.06,3.5
76,21,1,1,16,50,800,1538.452562618535,1539.39167992305,"[76, 0, 178]",178,a,0.42921502934768796,0,colour,0.06,3.5
