id,age,condition,counterbalance,block,trialinblock,trial,tstart,tend,trialstim,trialintensity,response,RT,accuracy,trialtype,colourfreq,credits
87,20,0,1,Practice,1,NA,5.907699232921004e-06,1.023668967653066,"[6, 0, 248]",248,a,0.40560671397543047,1,colour,0.5,4
87,20,0,1,Practice,2,NA,1.5320907752320636,2.6156645187729737,"[60, 0, 194]",194,a,0.5603594712010818,0,colour,0.5,4
87,20,0,1,Practice,3,NA,3.125756627545343,4.4556247718282975,"[69, 0, 185]",185,a,0.8066483580769273,0,colour,0.5,4
87,20,0,1,Practice,4,NA,4.969560030614957,6.695668835323886,"[66, 0, 188]",188,a,1.2013329326582607,0,colour,0.5,4
87,20,0,1,Practice,5,NA,7.205663664120948,8.615668063386693,"[56, 0, 198]",198,a,0.8870047730306396,0,colour,0.5,4
87,20,0,1,Practice,6,NA,9.12720913188241,10.59163124350016,"[1, 0, 253]",253,a,0.9411381285171956,1,colour,0.5,4
87,20,0,1,Practice,7,NA,11.111580925731687,12.759656613488914,"[75, 0, 179]",179,l,1.1248342400358524,1,colour,0.5,4
87,20,0,1,Practice,8,NA,13.267729079598212,14.271689201894333,"[48, 0, 206]",206,a,0.4807143422658555,1,colour,0.5,4
87,20,0,1,Practice,9,NA,14.783520928787766,15.799680039461236,"[29, 0, 225]",225,a,0.4928956075600581,1,colour,0.5,4
87,20,0,1,Practice,10,NA,16.31470034418453,17.335621447768062,"[47, 0, 207]",207,a,0.4976540558564011,1,colour,0.5,4
87,20,0,1,1,1,1,6.964726357720792,8.168002920763684,"[98, 0, 156]",156,l,0.6792080385639565,1,colour,0.5,4.0
87,20,0,1,1,2,2,8.6841614406585,9.808004370119306,"[27, 0, 227]",227,a,0.6005085340584628,1,colour,0.5,4.0
87,20,0,1,1,3,3,10.324843062189757,11.391991061274894,"[18, 0, 236]",236,a,0.5442358066793531,1,colour,0.5,4.0
87,20,0,1,1,4,4,11.902903945272556,13.352041284524603,"[6, 0, 248]",248,a,0.9258301192312501,1,colour,0.5,4.0
87,20,0,1,1,5,5,13.872940529632615,15.543998317487421,"[64, 0, 190]",190,a,1.1482133369718213,0,colour,0.5,4.0
87,20,0,1,1,6,6,16.0604313481017,17.063985808941652,"[81, 0, 173]",173,l,0.4804256530915154,1,colour,0.5,4.0
87,20,0,1,1,7,7,17.575978618886438,18.45602767635137,"[40, 0, 214]",214,a,0.3568099728145171,1,colour,0.5,4.0
87,20,0,1,1,8,8,18.966647538880352,21.232007634316687,"[69, 0, 185]",185,a,1.7422868199791992,0,colour,0.5,4.0
87,20,0,1,1,9,9,21.747847138889483,22.65601759389392,"[73, 0, 181]",181,l,0.38484236113436054,1,colour,0.5,4.0
87,20,0,1,1,10,10,23.16976065580093,24.12004270867328,"[78, 0, 176]",176,l,0.4270153989928076,1,colour,0.5,4.0
87,20,0,1,1,11,11,24.638532009645132,25.591983341888408,"[76, 0, 178]",178,l,0.4301374168426264,1,colour,0.5,4.0
87,20,0,1,1,12,12,26.107193480434944,26.952007886371575,"[96, 0, 158]",158,l,0.3215930443548132,1,colour,0.5,4.0
87,20,0,1,1,13,13,27.466645372725907,28.14399997163855,"[13, 0, 241]",241,a,0.15411433271947317,1,colour,0.5,4.0
87,20,0,1,1,14,14,28.655941187753342,29.424225393377128,"[46, 0, 208]",208,a,0.2449852563731838,1,colour,0.5,4.0
87,20,0,1,1,15,15,29.937076393922325,30.736045147365076,"[28, 0, 226]",226,a,0.27561466573388316,1,colour,0.5,4.0
87,20,0,1,1,16,16,31.250256886109128,31.887986631292733,"[35, 0, 219]",219,a,0.11510190964327194,1,colour,0.5,4.0
87,20,0,1,1,17,17,32.40590840006189,33.25601137112244,"[57, 0, 197]",197,a,0.3267866925743874,0,colour,0.5,4.0
87,20,0,1,1,18,18,33.76530515390914,34.45604539941996,"[11, 0, 243]",243,a,0.1679599915369181,1,colour,0.5,4.0
87,20,0,1,1,19,19,34.96837691699329,36.544034551334335,"[65, 0, 189]",189,a,1.0524630542931845,0,colour,0.5,4.0
87,20,0,1,1,20,20,37.062213501587394,37.911976583491196,"[7, 0, 247]",247,a,0.3267299787403317,1,colour,0.5,4.0
87,20,0,1,1,21,21,38.42150155392301,39.25599601112481,"[42, 0, 212]",212,a,0.31125261563283857,1,colour,0.5,4.0
87,20,0,1,1,22,22,39.76527719083242,40.68002960146987,"[37, 0, 217]",217,a,0.39149363368051127,1,colour,0.5,4.0
87,20,0,1,1,23,23,41.18788663376472,42.25597395574732,"[54, 0, 200]",200,a,0.5464945139246993,0,colour,0.5,4.0
87,20,0,1,1,24,24,42.765262224682374,43.77603549025662,"[29, 0, 225]",225,a,0.48749676553416066,1,colour,0.5,4.0
87,20,0,1,1,25,25,44.296489689309965,45.37606195671833,"[79, 0, 175]",175,l,0.5562760750763118,1,colour,0.5,4.0
87,20,0,1,1,26,26,45.89024612623325,46.776010677960585,"[34, 0, 220]",220,a,0.36248568863084074,1,colour,0.5,4.0
87,20,0,1,1,27,27,47.29651332006324,48.13599977629201,"[92, 0, 162]",162,l,0.31625918694771826,1,colour,0.5,4.0
87,20,0,1,1,28,28,48.65987374082033,49.59196404342947,"[77, 0, 177]",177,l,0.4090083625342231,1,colour,0.5,4.0
87,20,0,1,1,29,29,50.113036580820335,51.368002290604636,"[72, 0, 182]",182,l,0.7317337143613258,1,colour,0.5,4.0
87,20,0,1,1,30,30,51.878670990045066,52.80802327473066,"[8, 0, 246]",246,a,0.40613013540860265,1,colour,0.5,4.0
87,20,0,1,1,31,31,53.3162839992583,54.343986344567384,"[26, 0, 228]",228,a,0.5045408483420033,1,colour,0.5,4.0
87,20,0,1,1,32,32,54.862984494669945,55.871986240599654,"[38, 0, 216]",216,a,0.4857012212887639,1,colour,0.5,4.0
87,20,0,1,1,33,33,56.37869639311975,57.36805664136773,"[33, 0, 221]",221,a,0.46611368052253965,1,colour,0.5,4.0
87,20,0,1,1,34,34,57.878666657736176,58.767989608764765,"[90, 0, 164]",164,l,0.36616696789860725,1,colour,0.5,4.0
87,20,0,1,1,35,35,59.284932276190375,60.1679942561459,"[83, 0, 171]",171,l,0.3598477076011477,1,colour,0.5,4.0
87,20,0,1,1,36,36,60.67555157157767,61.51999536836229,"[84, 0, 170]",170,l,0.3212850567215355,1,colour,0.5,4.0
87,20,0,1,1,37,37,62.03486010390043,63.000131150736706,"[39, 0, 215]",215,a,0.4419835191074526,1,colour,0.5,4.0
87,20,0,1,1,38,38,63.52050618673093,64.53600718060625,"[9, 0, 245]",245,a,0.49217014308669604,1,colour,0.5,4.0
87,20,0,1,1,39,39,65.05182817441528,66.1279609840276,"[59, 0, 195]",195,a,0.5529953372461023,0,colour,0.5,4.0
87,20,0,1,1,40,40,66.64553183595126,67.50402609151206,"[85, 0, 169]",169,l,0.33515040784550365,1,colour,0.5,4.0
87,20,0,1,1,41,41,68.0205252882588,69.07998226117343,"[36, 0, 218]",218,a,0.5361623559583677,1,colour,0.5,4.0
87,20,0,1,1,42,42,69.59862161750789,70.5840485249937,"[50, 0, 204]",204,a,0.46200153364043217,1,colour,0.5,4.0
87,20,0,1,1,43,43,71.09859385134769,72.00800689072639,"[97, 0, 157]",157,l,0.3860191732092062,1,colour,0.5,4.0
87,20,0,1,1,44,44,72.5205081559543,73.48799222390517,"[89, 0, 165]",165,l,0.44246598056633957,1,colour,0.5,4.0
87,20,0,1,1,45,45,74.0065795925475,74.97600453394989,"[93, 0, 161]",161,l,0.4460491921636276,1,colour,0.5,4.0
87,20,0,1,1,46,46,75.49098190946097,76.33600859844591,"[30, 0, 224]",224,a,0.32175215818278957,1,colour,0.5,4.0
87,20,0,1,1,47,47,76.85036212176783,77.70409162750002,"[0, 0, 254]",254,a,0.3307216087123379,1,colour,0.5,4.0
87,20,0,1,1,48,48,78.22541228792397,79.09601927954645,"[47, 0, 207]",207,a,0.3474352546472801,1,colour,0.5,4.0
87,20,0,1,1,49,49,79.61595045101421,80.56809972813062,"[45, 0, 209]",209,a,0.4288550540077267,1,colour,0.5,4.0
87,20,0,1,1,50,50,81.08469935563335,82.0879938780563,"[55, 0, 199]",199,a,0.4799959670199314,0,colour,0.5,4.0
87,20,0,1,2,1,51,87.47660337691195,88.16002241772367,"[18, 0, 236]",236,a,0.15931034402456135,1,colour,0.5,4.0
87,20,0,1,2,2,52,88.68055262905546,89.47201073782344,"[41, 0, 213]",213,a,0.26819775642070454,1,colour,0.5,4.0
87,20,0,1,2,3,53,89.99301395830116,90.83998033920943,"[39, 0, 215]",215,a,0.32374698856438044,1,colour,0.5,4.0
87,20,0,1,2,4,54,91.35244458289526,92.12001513944415,"[91, 0, 163]",163,l,0.24436731188325211,1,colour,0.5,4.0
87,20,0,1,2,5,55,92.63360341984662,93.56805601120868,"[29, 0, 225]",225,a,0.41113158673397265,1,colour,0.5,4.0
87,20,0,1,2,6,56,94.08680958290643,95.00000630153227,"[33, 0, 221]",221,a,0.3898965878324816,1,colour,0.5,4.0
87,20,0,1,2,7,57,95.50860967214976,96.33600544767978,"[47, 0, 207]",207,a,0.30408579857612494,1,colour,0.5,4.0
87,20,0,1,2,8,58,96.85239791213826,97.69602014601696,"[6, 0, 248]",248,a,0.3203477030765498,1,colour,0.5,4.0
87,20,0,1,2,9,59,98.2138584194181,99.23213366504933,"[60, 0, 194]",194,a,0.4953102778381435,0,colour,0.5,4.0
87,20,0,1,2,10,60,99.7451020317385,100.70402703674335,"[53, 0, 201]",201,a,0.4357410588127095,0,colour,0.5,4.0
87,20,0,1,2,11,61,101.21386787173105,102.12002222867159,"[74, 0, 180]",180,l,0.38293102613533847,1,colour,0.5,4.0
87,20,0,1,2,12,62,102.63577863172395,103.55214620511106,"[36, 0, 218]",218,a,0.39310328257852234,1,colour,0.5,4.0
87,20,0,1,2,13,63,104.07325576402945,104.95999035864952,"[72, 0, 182]",182,l,0.3634612453461159,1,colour,0.5,4.0
87,20,0,1,2,14,64,105.47943788713019,106.17599484534003,"[3, 0, 251]",251,a,0.1732450120325666,1,colour,0.5,4.0
87,20,0,1,2,15,65,106.68270539170771,107.84808214684017,"[70, 0, 184]",184,l,0.6421136458666297,1,colour,0.5,4.0
87,20,0,1,2,16,66,108.3557800653216,109.2801029356051,"[31, 0, 223]",223,a,0.40105582255637273,1,colour,0.5,4.0
87,20,0,1,2,17,67,109.79327058840136,110.7199943443702,"[49, 0, 205]",205,a,0.4034838836232666,1,colour,0.5,4.0
87,20,0,1,2,18,68,111.23083830531687,112.03198975369742,"[79, 0, 175]",175,l,0.2779147268156521,1,colour,0.5,4.0
87,20,0,1,2,19,69,112.5433504406974,113.59198964342067,"[92, 0, 162]",162,l,0.5253536442323821,1,colour,0.5,4.0
87,20,0,1,2,20,70,114.10581186838681,115.13600607783883,"[83, 0, 171]",171,l,0.5068999863433419,1,colour,0.5,4.0
87,20,0,1,2,21,71,115.65274236991536,116.67203098151367,"[75, 0, 179]",179,l,0.49617988998943474,1,colour,0.5,4.0
87,20,0,1,2,22,72,117.18398598223575,118.11997496713593,"[51, 0, 203]",203,a,0.41277983254985884,0,colour,0.5,4.0
87,20,0,1,2,23,73,118.63827207122813,119.65604516312305,"[54, 0, 200]",200,a,0.4945363703154726,0,colour,0.5,4.0
87,20,0,1,2,24,74,120.16938847125857,121.11202360871539,"[7, 0, 247]",247,a,0.4191963728371775,1,colour,0.5,4.0
87,20,0,1,2,25,75,121.62260526815953,123.32804227386077,"[69, 0, 185]",185,a,1.1821282102901023,0,colour,0.5,4.0
87,20,0,1,2,26,76,123.84134580355021,124.75998823187547,"[40, 0, 214]",214,a,0.39525958985905163,1,colour,0.5,4.0
87,20,0,1,2,27,77,125.27888280047046,126.14401218087005,"[56, 0, 198]",198,a,0.34179222807870246,0,colour,0.5,4.0
87,20,0,1,2,28,78,126.6538801912393,127.59201130495057,"[94, 0, 160]",160,l,0.41481404754449613,1,colour,0.5,4.0
87,20,0,1,2,29,79,128.10702570200374,129.11198776871606,"[12, 0, 242]",242,a,0.48162845900515094,1,colour,0.5,4.0
87,20,0,1,2,30,80,129.62261235738697,130.6800114845537,"[43, 0, 211]",211,a,0.534127353283111,1,colour,0.5,4.0
87,20,0,1,2,31,81,131.20072877277562,132.86402779292257,"[71, 0, 183]",183,l,1.1399276032025227,1,colour,0.5,4.0
87,20,0,1,2,32,82,133.3739162832935,134.375984369035,"[28, 0, 226]",226,a,0.47886720416136086,1,colour,0.5,4.0
87,20,0,1,2,33,83,134.8896080955892,135.9919387585105,"[65, 0, 189]",189,l,0.5791163905814756,1,colour,0.5,4.0
87,20,0,1,2,34,84,136.49898446789302,137.4240068088111,"[50, 0, 204]",204,a,0.4016989732044749,1,colour,0.5,4.0
87,20,0,1,2,35,85,137.93641552020563,138.8800080974761,"[30, 0, 224]",224,a,0.4202696033898974,1,colour,0.5,4.0
87,20,0,1,2,36,86,139.38960632328235,140.88000730978092,"[68, 0, 186]",186,l,0.9671611141529866,1,colour,0.5,4.0
87,20,0,1,2,37,87,141.38956142481766,142.36798771830217,"[73, 0, 181]",181,l,0.45509229191520717,1,colour,0.5,4.0
87,20,0,1,2,38,88,142.87402478788863,143.71997110744996,"[87, 0, 167]",167,l,0.3214658320794115,1,colour,0.5,4.0
87,20,0,1,2,39,89,144.2344620830554,144.90396339121799,"[44, 0, 210]",210,a,0.15675861528143287,1,colour,0.5,4.0
87,20,0,1,2,40,90,145.41141948821314,146.31202337240393,"[63, 0, 191]",191,a,0.3776081964169862,0,colour,0.5,4.0
87,20,0,1,2,41,91,146.83342516511038,147.72798823818448,"[17, 0, 237]",237,a,0.37128420996305067,1,colour,0.5,4.0
87,20,0,1,2,42,92,148.23963800819183,149.03998207212135,"[37, 0, 217]",217,a,0.27705732389586046,1,colour,0.5,4.0
87,20,0,1,2,43,93,149.55210760819318,150.3519912660704,"[32, 0, 222]",222,a,0.27671822243428323,1,colour,0.5,4.0
87,20,0,1,2,44,94,150.86460162665753,151.6480170046998,"[0, 0, 254]",254,a,0.2601959856838221,1,colour,0.5,4.0
87,20,0,1,2,45,95,152.16146862051392,152.9439883925661,"[25, 0, 229]",229,a,0.259407111996552,1,colour,0.5,4.0
87,20,0,1,2,46,96,153.46065339852066,154.21596785901056,"[22, 0, 232]",232,a,0.23228253886918537,1,colour,0.5,4.0
87,20,0,1,2,47,97,154.72626004159974,155.46395579786622,"[81, 0, 173]",173,l,0.214552376215579,1,colour,0.5,4.0
87,20,0,1,2,48,98,155.97627983236453,156.72001127974363,"[82, 0, 172]",172,l,0.22052347657154314,1,colour,0.5,4.0
87,20,0,1,2,49,99,157.2262236108363,157.967968104771,"[76, 0, 178]",178,l,0.21851958773913793,1,colour,0.5,4.0
87,20,0,1,2,50,100,158.47622449698974,159.23196312969958,"[21, 0, 233]",233,a,0.23253460036357865,1,colour,0.5,4.0
87,20,0,1,3,1,101,164.55358098636498,165.51997488837515,"[57, 0, 197]",197,a,0.44242383903474547,0,colour,0.5,4.0
87,20,0,1,3,2,102,166.03868080468965,166.70397977522225,"[86, 0, 168]",168,l,0.14202601512079127,1,colour,0.5,4.0
87,20,0,1,3,3,103,167.21049851854332,168.09598383340926,"[50, 0, 204]",204,a,0.3622927040414652,1,colour,0.5,4.0
87,20,0,1,3,4,104,168.60248524750932,169.26394933879783,"[89, 0, 165]",165,l,0.13824903123895638,1,colour,0.5,4.0
87,20,0,1,3,5,105,169.77438803212135,170.39212024278822,"[25, 0, 229]",229,a,0.09440372294920962,1,colour,0.5,4.0
87,20,0,1,3,6,106,170.89933294290677,171.6479870723997,"[17, 0, 237]",237,a,0.22534257716324646,1,colour,0.5,4.0
87,20,0,1,3,7,107,172.16494352444715,172.9359358156944,"[45, 0, 209]",209,a,0.24768428353127092,1,colour,0.5,4.0
87,20,0,1,3,8,108,173.44624414597638,174.2079723898205,"[76, 0, 178]",178,l,0.2387920268229209,1,colour,0.5,4.0
87,20,0,1,3,9,109,174.72746166597062,175.71998095359595,"[61, 0, 193]",193,l,0.46941529217292555,1,colour,0.5,4.0
87,20,0,1,3,10,110,176.22747446596622,177.7279496412666,"[20, 0, 234]",234,a,0.9772931983170565,1,colour,0.5,4.0
87,20,0,1,3,11,111,178.2430739213596,181.1599960300373,"[68, 0, 186]",186,l,2.393615282489918,1,colour,0.5,4.0
87,20,0,1,3,12,112,181.6806542413542,182.21600566823327,"[13, 0, 241]",241,a,0.012131246839999221,1,colour,0.5,4.0
87,20,0,1,3,13,113,182.72744118598348,183.36802670906764,"[98, 0, 156]",156,l,0.11522636500012595,1,colour,0.5,4.0
87,20,0,1,3,14,114,183.88576021941844,184.60001268183987,"[94, 0, 160]",160,l,0.19102007315086666,1,colour,0.5,4.0
87,20,0,1,3,15,115,185.12025420401187,185.84796596223896,"[85, 0, 169]",169,l,0.20462981815217063,1,colour,0.5,4.0
87,20,0,1,3,16,116,186.35451936403115,187.25598852804978,"[62, 0, 192]",192,a,0.37816351937362924,0,colour,0.5,4.0
87,20,0,1,3,17,117,187.77638325633598,188.56798157430603,"[14, 0, 240]",240,a,0.26829306717263535,1,colour,0.5,4.0
87,20,0,1,3,18,118,189.0888682163495,189.86412231599388,"[30, 0, 224]",224,a,0.2520248611399438,1,colour,0.5,4.0
87,20,0,1,3,19,119,190.37011803172936,191.15199150238186,"[36, 0, 218]",218,a,0.25871985059347935,1,colour,0.5,4.0
87,20,0,1,3,20,120,191.66704646556173,192.4479538317828,"[7, 0, 247]",247,a,0.257748232310405,1,colour,0.5,4.0
87,20,0,1,3,21,121,192.96390637019067,193.77597680718463,"[19, 0, 235]",235,a,0.28755883566918783,1,colour,0.5,4.0
87,20,0,1,3,22,122,194.29333773916005,195.44000050412433,"[42, 0, 212]",212,a,0.6234985110640991,1,colour,0.5,4.0
87,20,0,1,3,23,123,195.94962196683628,196.71200793363096,"[12, 0, 242]",242,a,0.2390858359867707,1,colour,0.5,4.0
87,20,0,1,3,24,124,197.2308087668498,198.1519859885302,"[96, 0, 158]",158,l,0.3979369554872392,1,colour,0.5,4.0
87,20,0,1,3,25,125,198.66835994222492,199.40795521812106,"[48, 0, 206]",206,a,0.21652672658092342,1,colour,0.5,4.0
87,20,0,1,3,26,126,199.9183084468532,200.6879447260726,"[29, 0, 225]",225,a,0.246425551478751,1,colour,0.5,4.0
87,20,0,1,3,27,127,201.1997031975916,201.92001655728382,"[6, 0, 248]",248,a,0.19737281036213972,1,colour,0.5,4.0
87,20,0,1,3,28,128,202.43404358222324,203.20802516519325,"[15, 0, 239]",239,a,0.25142660895653535,1,colour,0.5,4.0
87,20,0,1,3,29,129,203.71505827149667,204.4880115223641,"[41, 0, 213]",213,a,0.25047350145177916,1,colour,0.5,4.0
87,20,0,1,3,30,130,204.9964467207028,205.80001323322358,"[27, 0, 227]",227,a,0.28037193247291725,1,colour,0.5,4.0
87,20,0,1,3,31,131,206.30882100995223,207.01597085224057,"[82, 0, 172]",172,l,0.18380599457304925,1,colour,0.5,4.0
87,20,0,1,3,32,132,207.5276769422344,208.19198026988306,"[79, 0, 175]",175,l,0.1411276522121625,1,colour,0.5,4.0
87,20,0,1,3,33,133,208.69961556684575,209.93601812951965,"[28, 0, 226]",226,a,0.713172930321889,1,colour,0.5,4.0
87,20,0,1,3,34,134,210.44963437299884,213.28799758020614,"[18, 0, 236]",236,a,2.3152596056024777,1,colour,0.5,4.0
87,20,0,1,3,35,135,213.79457421891857,214.8560067237413,"[71, 0, 183]",183,l,0.5384076724440092,1,colour,0.5,4.0
87,20,0,1,3,36,136,215.37272568659682,217.1040379856713,"[64, 0, 190]",190,a,1.2080834544176469,0,colour,0.5,4.0
87,20,0,1,3,37,137,217.62269309583644,218.38401292130584,"[84, 0, 170]",170,l,0.23807325774396304,1,colour,0.5,4.0
87,20,0,1,3,38,138,218.90394606199698,219.68807548296172,"[11, 0, 243]",243,a,0.26085882862389553,1,colour,0.5,4.0
87,20,0,1,3,39,139,220.20077800353465,220.9439785464201,"[70, 0, 184]",184,l,0.21987914439523593,1,colour,0.5,4.0
87,20,0,1,3,40,140,221.45077337585099,222.31195129857224,"[60, 0, 194]",194,a,0.33786952115769964,0,colour,0.5,4.0
87,20,0,1,3,41,141,222.8258050312288,223.5761286742345,"[95, 0, 159]",159,l,0.2255304417340085,1,colour,0.5,4.0
87,20,0,1,3,42,142,224.0930201416777,224.76799787953496,"[47, 0, 207]",207,a,0.1520714531361591,1,colour,0.5,4.0
87,20,0,1,3,43,143,225.28049599399674,226.04811696283286,"[23, 0, 231]",231,a,0.2444645918585593,1,colour,0.5,4.0
87,20,0,1,3,44,144,226.56221921235556,227.34406747686444,"[59, 0, 195]",195,a,0.25909715513989795,0,colour,0.5,4.0
87,20,0,1,3,45,145,227.8591133815935,228.60006663875538,"[55, 0, 199]",199,a,0.21778664019075222,0,colour,0.5,4.0
87,20,0,1,3,46,146,229.10913514158165,229.88794409591355,"[21, 0, 233]",233,a,0.25587549422925804,1,colour,0.5,4.0
87,20,0,1,3,47,147,230.40591430776112,231.19196057757654,"[88, 0, 166]",166,l,0.2627524405543227,1,colour,0.5,4.0
87,20,0,1,3,48,148,231.70288212620653,232.67200774459343,"[56, 0, 198]",198,a,0.4458755060477415,0,colour,0.5,4.0
87,20,0,1,3,49,149,233.18720646158908,233.86397895601112,"[91, 0, 163]",163,l,0.15354719437891617,1,colour,0.5,4.0
87,20,0,1,3,50,150,234.37473115081957,235.07197064429056,"[40, 0, 214]",214,a,0.17402207035047468,1,colour,0.5,4.0
87,20,0,1,4,1,151,240.42078081560612,241.47197647321445,"[1, 0, 253]",253,a,0.5271617915859679,1,colour,0.5,3.9
87,20,0,1,4,2,152,241.98399291392707,243.11198816256365,"[63, 0, 191]",191,a,0.6046781824697973,0,colour,0.5,3.9
87,20,0,1,4,3,153,243.61423682673194,244.41598298269673,"[34, 0, 220]",220,a,0.27845744670776185,1,colour,0.5,3.9
87,20,0,1,4,4,154,244.92671784826962,245.64801897392317,"[5, 0, 249]",249,a,0.1980714933015406,1,colour,0.5,3.9
87,20,0,1,4,5,155,246.16106492828112,246.9199354250013,"[37, 0, 217]",217,a,0.23575665512180422,1,colour,0.5,3.9
87,20,0,1,4,6,156,247.42668141752074,248.21594028978143,"[10, 0, 244]",244,a,0.26597016300365794,1,colour,0.5,3.9
87,20,0,1,4,7,157,248.723614183662,249.52795499756758,"[13, 0, 241]",241,a,0.28113008617947344,1,colour,0.5,3.9
87,20,0,1,4,8,158,250.03606645444233,250.79197325943096,"[82, 0, 172]",172,l,0.23258028650889173,1,colour,0.5,3.9
87,20,0,1,4,9,159,251.3017467467289,252.08803523189272,"[77, 0, 177]",177,l,0.2630143482092535,1,colour,0.5,3.9
87,20,0,1,4,10,160,252.59858695905132,253.31196075087064,"[90, 0, 164]",164,l,0.1900823256437434,1,colour,0.5,3.9
87,20,0,1,4,11,161,253.83295176213142,254.81597148239962,"[67, 0, 187]",187,l,0.45971683255629614,1,colour,0.5,3.9
87,20,0,1,4,12,162,255.33294683904387,256.1440523531637,"[92, 0, 162]",162,l,0.28806807864748407,1,colour,0.5,3.9
87,20,0,1,4,13,163,256.66100171598373,257.53596700829803,"[54, 0, 200]",200,a,0.35178843533503823,0,colour,0.5,3.9
87,20,0,1,4,14,164,258.05172459289315,258.8799702882534,"[17, 0, 237]",237,a,0.30296333726437297,1,colour,0.5,3.9
87,20,0,1,4,15,165,259.3974127463589,260.2399645065889,"[30, 0, 224]",224,a,0.31914410945319105,1,colour,0.5,3.9
87,20,0,1,4,16,166,260.7568138325005,261.5519603097637,"[4, 0, 250]",250,a,0.27181208186084405,1,colour,0.5,3.9
87,20,0,1,4,17,167,262.069772195493,262.8560031791276,"[36, 0, 218]",218,a,0.26339559121697675,1,colour,0.5,3.9
87,20,0,1,4,18,168,263.3662303771125,264.1519406962325,"[49, 0, 205]",205,a,0.2623971913999412,1,colour,0.5,3.9
87,20,0,1,4,19,169,264.66314778325614,266.3359514907643,"[73, 0, 181]",181,a,1.1496244874579133,0,colour,0.5,3.9
87,20,0,1,4,20,170,266.85052359866677,267.89595531894884,"[58, 0, 196]",196,a,0.5221611279412173,0,colour,0.5,3.9
87,20,0,1,4,21,171,268.4143288291816,269.24010865425225,"[33, 0, 221]",221,a,0.30236350969062187,1,colour,0.5,3.9
87,20,0,1,4,22,172,269.7582738199126,270.58394533731916,"[57, 0, 197]",197,a,0.3025332573452033,0,colour,0.5,3.9
87,20,0,1,4,23,173,271.10188285993354,271.90396614813653,"[25, 0, 229]",229,a,0.2788245112460572,1,colour,0.5,3.9
87,20,0,1,4,24,174,272.414313469184,273.4799727300997,"[39, 0, 215]",215,a,0.5422031670750584,1,colour,0.5,3.9
87,20,0,1,4,25,175,273.99248699225427,275.0479905382381,"[35, 0, 219]",219,a,0.5322569782583741,1,colour,0.5,3.9
87,20,0,1,4,26,176,275.55496102302277,276.8799911620881,"[40, 0, 214]",214,a,0.8017339467332931,1,colour,0.5,3.9
87,20,0,1,4,27,177,277.3987482783996,278.3279780769517,"[62, 0, 192]",192,a,0.4058969785255613,0,colour,0.5,3.9
87,20,0,1,4,28,178,278.8362332876277,280.3359759092273,"[64, 0, 190]",190,a,0.9763802631205181,0,colour,0.5,3.9
87,20,0,1,4,29,179,280.85192569070205,281.66396422617254,"[81, 0, 173]",173,l,0.2894662322214572,1,colour,0.5,3.9
87,20,0,1,4,30,180,282.1800199522404,282.9119643742597,"[8, 0, 246]",246,a,0.2087978911877144,1,colour,0.5,3.9
87,20,0,1,4,31,181,283.4312594843068,284.2159926713066,"[46, 0, 208]",208,a,0.2614236038934905,1,colour,0.5,3.9
87,20,0,1,4,32,182,284.72811623815505,286.04799329515663,"[70, 0, 184]",184,a,0.7967226492473856,0,colour,0.5,3.9
87,20,0,1,4,33,183,286.55621148431965,287.3279780769517,"[74, 0, 180]",180,l,0.24842825876839925,1,colour,0.5,3.9
87,20,0,1,4,34,184,287.8375270719989,288.5759774373437,"[44, 0, 210]",210,a,0.21517977300391067,1,colour,0.5,3.9
87,20,0,1,4,35,185,289.0875267766096,289.8320187407662,"[97, 0, 157]",157,l,0.22120167950924952,1,colour,0.5,3.9
87,20,0,1,4,36,186,290.3530774935498,291.18406750836584,"[19, 0, 235]",235,a,0.3076217486523092,1,colour,0.5,3.9
87,20,0,1,4,37,187,291.69684131508984,292.5359776421392,"[42, 0, 212]",212,a,0.31597916239115875,1,colour,0.5,3.9
87,20,0,1,4,38,188,293.05624988430645,294.0319724244764,"[55, 0, 199]",199,a,0.4523629386094399,0,colour,0.5,3.9
87,20,0,1,4,39,189,294.5405927304673,295.3759548305825,"[99, 0, 155]",155,l,0.31212931699701585,1,colour,0.5,3.9
87,20,0,1,4,40,190,295.8842876289418,296.72002191359934,"[60, 0, 194]",194,a,0.31235892926633824,0,colour,0.5,3.9
87,20,0,1,4,41,191,297.228147942762,298.11999032713356,"[69, 0, 185]",185,a,0.3687624135345686,0,colour,0.5,3.9
87,20,0,1,4,42,192,298.63552105639246,299.42397018113115,"[50, 0, 204]",204,a,0.26514111702272203,1,colour,0.5,3.9
87,20,0,1,4,43,193,299.93241089330695,300.7119732751744,"[0, 0, 254]",254,a,0.2566139556147391,1,colour,0.5,3.9
87,20,0,1,4,44,194,301.2294314871251,302.0399292967486,"[59, 0, 195]",195,a,0.2877490633254638,0,colour,0.5,3.9
87,20,0,1,4,45,195,302.55741113946715,303.3039503155305,"[20, 0, 234]",234,a,0.2235710575187113,1,colour,0.5,3.9
87,20,0,1,4,46,196,303.82307331483753,304.59193844343827,"[86, 0, 168]",168,l,0.24598601926118135,1,colour,0.5,3.9
87,20,0,1,4,47,197,305.10428059485275,305.89607307892584,"[6, 0, 248]",248,a,0.2688590239849873,1,colour,0.5,3.9
87,20,0,1,4,48,198,306.4168963117554,307.20003284675477,"[24, 0, 230]",230,a,0.25990926573285833,1,colour,0.5,3.9
87,20,0,1,4,49,199,307.7136817794526,308.43199321955035,"[87, 0, 167]",167,l,0.19304168506641872,1,colour,0.5,3.9
87,20,0,1,4,50,200,308.95015523443,309.7360490858264,"[91, 0, 163]",163,l,0.2626425575144822,1,colour,0.5,3.9
87,20,0,1,5,1,201,314.7618306438235,315.6719581199868,"[62, 0, 192]",192,a,0.38601365937211085,0,colour,0.5,3.9
87,20,0,1,5,2,202,316.1844133052218,316.9519302987028,"[66, 0, 188]",188,a,0.24409713347267825,0,colour,0.5,3.9
87,20,0,1,5,3,203,317.4656603636831,318.24793831424904,"[10, 0, 244]",244,a,0.25895025054342113,1,colour,0.5,3.9
87,20,0,1,5,4,204,318.763955049566,319.53597330984485,"[33, 0, 221]",221,a,0.24868032026279252,1,colour,0.5,3.9
87,20,0,1,5,5,205,320.0451532711013,320.7919437209639,"[27, 0, 227]",227,a,0.22365849133348092,1,colour,0.5,3.9
87,20,0,1,5,6,206,321.3108252926322,322.0719986073527,"[75, 0, 179]",179,l,0.23810240233433433,1,colour,0.5,3.9
87,20,0,1,5,7,207,322.59204596340714,323.3679333675391,"[77, 0, 177]",177,l,0.2526617102412274,1,colour,0.5,3.9
87,20,0,1,5,8,208,323.88892949878937,324.68807863372786,"[88, 0, 166]",166,l,0.2759439210349228,1,colour,0.5,3.9
87,20,0,1,5,9,209,325.2013309634349,326.01598503069545,"[36, 0, 218]",218,a,0.29125035494507756,1,colour,0.5,3.9
87,20,0,1,5,10,210,326.52936496652546,327.34395719996246,"[24, 0, 230]",230,a,0.2911641026730649,1,colour,0.5,3.9
87,20,0,1,5,11,211,327.8577160157147,328.64797368162544,"[56, 0, 198]",198,a,0.265526298477198,0,colour,0.5,3.9
87,20,0,1,5,12,212,329.1559906154289,329.9120238450123,"[37, 0, 217]",217,a,0.23270040955685545,1,colour,0.5,3.9
87,20,0,1,5,13,213,330.4215661446797,331.1759830299561,"[91, 0, 163]",163,l,0.2311128160217777,1,colour,0.5,3.9
87,20,0,1,5,14,214,331.6872007508209,332.46397115786385,"[15, 0, 239]",239,a,0.2535076916246908,1,colour,0.5,3.9
87,20,0,1,5,15,215,332.9839724339254,334.0399611982866,"[70, 0, 184]",184,a,0.5325326705205953,0,colour,0.5,3.9
87,20,0,1,5,16,216,334.5465713138983,335.34399146457145,"[42, 0, 212]",212,a,0.2740948137216037,1,colour,0.5,3.9
87,20,0,1,5,17,217,335.8590491846844,336.6079329264321,"[92, 0, 162]",162,l,0.22593255857646,1,colour,0.5,3.9
87,20,0,1,5,18,218,337.1246562216111,337.895924205106,"[26, 0, 228]",228,a,0.2479792742378777,1,colour,0.5,3.9
87,20,0,1,5,19,219,338.40739123054664,339.14397240242397,"[79, 0, 175]",175,l,0.21041147857613396,1,colour,0.5,3.9
87,20,0,1,5,20,220,339.6604034638003,340.3919489197433,"[43, 0, 211]",211,a,0.2084268881881144,1,colour,0.5,3.9
87,20,0,1,5,21,221,340.9104153776425,341.6559439446719,"[50, 0, 204]",204,a,0.2222993285249686,1,colour,0.5,3.9
87,20,0,1,5,22,222,342.17613662993244,342.96797913245973,"[57, 0, 197]",197,a,0.26864437786571216,0,colour,0.5,3.9
87,20,0,1,5,23,223,343.48862867915886,344.3040846170479,"[94, 0, 160]",160,l,0.29225702553230803,1,colour,0.5,3.9
87,20,0,1,5,24,224,344.816655593022,345.6559337046783,"[81, 0, 173]",173,l,0.31594568547734525,1,colour,0.5,3.9
87,20,0,1,5,25,225,346.17600272226264,346.935936209542,"[83, 0, 171]",171,l,0.23674048262182623,1,colour,0.5,3.9
87,20,0,1,5,26,226,347.44159282380133,347.9839413200825,"[39, 0, 215]",215,a,0.018996771643287502,1,colour,0.5,3.9
87,20,0,1,5,27,227,348.5053588666342,349.303947558612,"[23, 0, 231]",231,a,0.2752850165707059,1,colour,0.5,3.9
87,20,0,1,5,28,228,349.81787494047603,350.76792580570327,"[6, 0, 248]",248,a,0.4267920882703038,1,colour,0.5,3.9
87,20,0,1,5,29,229,351.2866088789451,352.08794149653113,"[0, 0, 254]",254,a,0.27800216064497363,1,colour,0.5,3.9
87,20,0,1,5,30,230,352.59897883588565,353.5759207235096,"[25, 0, 229]",229,a,0.4535444768407615,1,colour,0.5,3.9
87,20,0,1,5,31,231,354.08354735585453,354.87998486055585,"[93, 0, 161]",161,l,0.27321378004853614,1,colour,0.5,3.9
87,20,0,1,5,32,232,355.39589013742807,356.20792473443726,"[95, 0, 159]",159,l,0.2885871677863179,1,colour,0.5,3.9
87,20,0,1,5,33,233,356.72410924817086,357.51991069146607,"[90, 0, 164]",164,l,0.272563540172996,1,colour,0.5,3.9
87,20,0,1,5,34,234,358.0365638820367,358.80794135473843,"[4, 0, 250]",250,a,0.24662562528101262,1,colour,0.5,3.9
87,20,0,1,5,35,235,359.31924296481884,360.1280196670996,"[5, 0, 249]",249,a,0.2855722760723438,1,colour,0.5,3.9
87,20,0,1,5,36,236,360.64744632173097,361.4559422117454,"[7, 0, 247]",247,a,0.2852705899713328,1,colour,0.5,3.9
87,20,0,1,5,37,237,361.97545078636904,362.8080295762629,"[63, 0, 191]",191,a,0.30921091756317765,0,colour,0.5,3.9
87,20,0,1,5,38,238,363.3192677771294,364.1439133255044,"[98, 0, 156]",156,l,0.30139779910678044,1,colour,0.5,3.9
87,20,0,1,5,39,239,364.6629666140652,365.3359463707602,"[14, 0, 240]",240,a,0.14998288737842813,1,colour,0.5,3.9
87,20,0,1,5,40,240,365.8504968171328,366.65598726774624,"[46, 0, 208]",208,a,0.28229075056151487,1,colour,0.5,3.9
87,20,0,1,5,41,241,367.1630475494312,367.9759328539658,"[22, 0, 232]",232,a,0.2896206198929576,1,colour,0.5,3.9
87,20,0,1,5,42,242,368.4910386233096,369.28794953098986,"[65, 0, 189]",189,a,0.2736032938119024,0,colour,0.5,3.9
87,20,0,1,5,43,243,369.8036200755887,370.59194395727536,"[3, 0, 251]",251,a,0.2649847601278452,1,colour,0.5,3.9
87,20,0,1,5,44,244,371.1004642263724,371.89591554050276,"[51, 0, 203]",203,a,0.27218741716933437,0,colour,0.5,3.9
87,20,0,1,5,45,245,372.412925161756,372.95995924480667,"[9, 0, 245]",245,a,0.023735921480692923,1,colour,0.5,3.9
87,20,0,1,5,46,246,373.4754143556056,374.21593477594433,"[52, 0, 202]",202,a,0.21718129877990577,0,colour,0.5,3.9
87,20,0,1,5,47,247,374.72543060175667,375.49591168080224,"[86, 0, 168]",168,l,0.24712187133263797,1,colour,0.5,3.9
87,20,0,1,5,48,248,376.0066040110105,376.67995043841074,"[32, 0, 222]",222,a,0.15003369352780282,1,colour,0.5,3.9
87,20,0,1,5,49,249,377.1941578448459,377.9999803076935,"[89, 0, 165]",165,l,0.28265978433773853,1,colour,0.5,3.9
87,20,0,1,5,50,250,378.50795313074195,379.2959355478815,"[11, 0, 243]",243,a,0.26467598481394816,1,colour,0.5,3.9
87,20,0,1,6,1,251,383.6790469555126,385.9359401480033,"[34, 0, 220]",220,a,1.7328880772256525,1,colour,0.5,3.9
87,20,0,1,6,2,252,386.44582548759354,387.57608850194083,"[63, 0, 191]",191,a,0.607449283459573,0,colour,0.5,3.9
87,20,0,1,6,3,253,388.0860270107514,388.8799454759428,"[10, 0, 244]",244,a,0.2706711097707739,1,colour,0.5,3.9
87,20,0,1,6,4,254,389.39860688765475,390.19190937759413,"[39, 0, 215]",215,a,0.27010712219635025,1,colour,0.5,3.9
87,20,0,1,6,5,255,390.7111257184297,391.56790910662676,"[44, 0, 210]",210,a,0.33349704202555586,1,colour,0.5,3.9
87,20,0,1,6,6,256,392.08600613690214,392.83994213613914,"[86, 0, 168]",168,l,0.2306453207420418,1,colour,0.5,3.9
87,20,0,1,6,7,257,393.3517076969001,394.1359036778449,"[90, 0, 164]",164,l,0.2607131055701757,1,colour,0.5,3.9
87,20,0,1,6,8,258,394.6485754784371,395.2959375171049,"[26, 0, 228]",228,a,0.12404260941548273,1,colour,0.5,3.9
87,20,0,1,6,9,259,395.80479570613534,396.56794770354463,"[61, 0, 193]",193,a,0.2399263035185868,0,colour,0.5,3.9
87,20,0,1,6,10,260,397.08600101691263,397.91192065733776,"[29, 0, 225]",225,a,0.3026577127020573,1,colour,0.5,3.9
87,20,0,1,6,11,261,398.43155723193195,399.20793339905504,"[1, 0, 253]",253,a,0.2530433470965363,1,colour,0.5,3.9
87,20,0,1,6,12,262,399.7285148103838,400.74402289348654,"[53, 0, 201]",201,a,0.4925056999345543,0,colour,0.5,3.9
87,20,0,1,6,13,263,401.2596958011709,402.0959487811051,"[84, 0, 170]",170,l,0.3129788429796463,1,colour,0.5,3.9
87,20,0,1,6,14,264,402.60350255192316,403.5282515636645,"[78, 0, 176]",176,l,0.401429976336658,1,colour,0.5,3.9
87,20,0,1,6,15,265,404.04101828114653,404.8639742298692,"[13, 0, 241]",241,a,0.2997129255963955,1,colour,0.5,3.9
87,20,0,1,6,16,266,405.38473326577514,406.8959364143375,"[74, 0, 180]",180,l,0.9879120762197999,1,colour,0.5,3.9
87,20,0,1,6,17,267,407.41596525962814,408.872074068262,"[80, 0, 174]",174,a,0.9328145855251933,0,colour,0.5,3.9
87,20,0,1,6,18,268,409.38594434245897,410.2240444604977,"[0, 0, 254]",254,a,0.3148271626268979,1,colour,0.5,3.9
87,20,0,1,6,19,269,410.74535015475703,412.0399355982954,"[96, 0, 158]",158,l,0.7718697803211398,1,colour,0.5,3.9
87,20,0,1,6,20,270,412.5578329486161,413.59195695420203,"[50, 0, 204]",204,a,0.5108565640257439,1,colour,0.5,3.9
87,20,0,1,6,21,271,414.1046870440041,415.0320082644612,"[69, 0, 185]",185,a,0.4039899758208776,0,colour,0.5,3.9
87,20,0,1,6,22,272,415.54219135169114,416.26396076033416,"[91, 0, 163]",163,l,0.19844604092941154,1,colour,0.5,3.9
87,20,0,1,6,23,273,416.77653173630824,417.5759628650412,"[4, 0, 250]",250,a,0.27612745331134647,1,colour,0.5,3.9
87,20,0,1,6,24,274,418.0890163024742,418.91995551114087,"[3, 0, 251]",251,a,0.3076241117232712,1,colour,0.5,3.9
87,20,0,1,6,25,275,419.43282699168776,420.4559110979171,"[56, 0, 198]",198,a,0.49986904617981054,0,colour,0.5,3.9
87,20,0,1,6,26,276,420.96412771167525,421.9679102093942,"[62, 0, 192]",192,a,0.4806777145713568,0,colour,0.5,3.9
87,20,0,1,6,27,277,422.4796690747753,423.5279624806426,"[75, 0, 179]",179,l,0.5250716504378943,1,colour,0.5,3.9
87,20,0,1,6,28,278,424.04342468068353,424.81594470086566,"[45, 0, 209]",209,a,0.24920452939113602,1,colour,0.5,3.9
87,20,0,1,6,29,279,425.32471466835705,426.28793180792127,"[58, 0, 196]",196,a,0.4402458702388685,0,colour,0.5,3.9
87,20,0,1,6,30,280,426.8090437299106,427.719936842841,"[95, 0, 159]",159,l,0.38763433597341646,1,colour,0.5,3.9
87,20,0,1,6,31,281,428.230900532988,429.49594909617736,"[17, 0, 237]",237,a,0.7418169616139494,1,colour,0.5,3.9
87,20,0,1,6,32,282,430.0122033206717,433.21600369899534,"[64, 0, 190]",190,a,2.680529785982799,0,colour,0.5,3.9
87,20,0,1,6,33,283,433.73091687759734,434.76791399031936,"[98, 0, 156]",156,l,0.5137119480641559,1,colour,0.5,3.9
87,20,0,1,6,34,284,435.27779381605797,436.51190537611546,"[71, 0, 183]",183,l,0.7110146538325353,1,colour,0.5,3.9
87,20,0,1,6,35,285,437.02776654221816,437.9519397510012,"[94, 0, 160]",160,l,0.4008403887564782,1,colour,0.5,3.9
87,20,0,1,6,36,286,438.46528502837464,439.1678961884754,"[15, 0, 239]",239,a,0.1793909800617257,1,colour,0.5,3.9
87,20,0,1,6,37,287,439.6840598283743,440.4559764763544,"[46, 0, 208]",208,a,0.24870513255882543,1,colour,0.5,3.9
87,20,0,1,6,38,288,440.9652698652935,441.7999951163074,"[82, 0, 172]",172,l,0.31141094175109174,1,colour,0.5,3.9
87,20,0,1,6,39,289,442.30905574221106,443.07991845811193,"[88, 0, 166]",166,l,0.2476622281537857,1,colour,0.5,3.9
87,20,0,1,6,40,290,443.5902126099245,444.40797609197034,"[79, 0, 175]",175,l,0.29455629891890567,1,colour,0.5,3.9
87,20,0,1,6,41,291,444.9183698868437,445.7360349073715,"[24, 0, 230]",230,a,0.29442081587330904,1,colour,0.5,3.9
87,20,0,1,6,42,292,446.2466728868021,447.03990172751946,"[25, 0, 229]",229,a,0.2701811652514152,1,colour,0.5,3.9
87,20,0,1,6,43,293,447.5590081853006,448.36792194600275,"[6, 0, 248]",248,a,0.2856573468161514,1,colour,0.5,3.9
87,20,0,1,6,44,294,448.88835527122137,449.67193094460526,"[30, 0, 224]",224,a,0.2603109887422761,1,colour,0.5,3.9
87,20,0,1,6,45,295,450.18522147736803,451.0079950753425,"[8, 0, 246]",246,a,0.2995857133064419,1,colour,0.5,3.9
87,20,0,1,6,46,296,451.52894473276683,452.24792886195064,"[11, 0, 243]",243,a,0.19575173991324846,1,colour,0.5,3.9
87,20,0,1,6,47,297,452.7633536466019,453.61591185409634,"[47, 0, 207]",207,a,0.32935220591025427,1,colour,0.5,3.9
87,20,0,1,6,48,298,454.1227208619821,454.9039582712139,"[42, 0, 212]",212,a,0.25795500150707085,1,colour,0.5,3.9
87,20,0,1,6,49,299,455.41957604045456,456.2319229574059,"[12, 0, 242]",242,a,0.2890924723033095,1,colour,0.5,3.9
87,20,0,1,6,50,300,456.74774158812943,457.583920131161,"[16, 0, 238]",238,a,0.3129024368390674,1,colour,0.5,3.9
87,20,0,1,7,1,301,462.0608543387789,463.0559277182183,"[10, 0, 244]",244,a,0.4713502579543274,1,colour,0.5,3.9
87,20,0,1,7,2,302,463.57720308633,464.33603734920325,"[46, 0, 208]",208,a,0.23570230434415862,1,colour,0.5,3.9
87,20,0,1,7,3,303,464.8428660494101,465.6079136279732,"[35, 0, 219]",219,a,0.2418210969917709,1,colour,0.5,3.9
87,20,0,1,7,4,304,466.12406505864055,466.88003881747136,"[16, 0, 238]",238,a,0.23272876648115925,1,colour,0.5,3.9
87,20,0,1,7,5,305,467.3897441693989,468.15994325465,"[72, 0, 182]",182,l,0.24700489905080758,1,colour,0.5,3.9
87,20,0,1,7,6,306,468.6617736542976,469.43994063952414,"[87, 0, 167]",167,l,0.2550948913121829,1,colour,0.5,3.9
87,20,0,1,7,7,307,469.9587009065872,470.69594098295784,"[74, 0, 180]",180,l,0.21400689940492157,1,colour,0.5,3.9
87,20,0,1,7,8,308,471.20865295582917,471.999889723098,"[64, 0, 190]",190,l,0.26861365787044633,1,colour,0.5,3.9
87,20,0,1,7,9,309,472.52114106660883,473.2960655170755,"[89, 0, 165]",165,l,0.2516373165999539,1,colour,0.5,3.9
87,20,0,1,7,10,310,473.80240112198226,474.4478904225689,"[1, 0, 253]",253,a,0.12226439439109527,1,colour,0.5,3.9
87,20,0,1,7,11,311,474.9586989373638,475.8239578931243,"[98, 0, 156]",156,l,0.3420442895585438,1,colour,0.5,3.9
87,20,0,1,7,12,312,476.3336766358261,477.2639190126356,"[69, 0, 185]",185,a,0.40715807366359513,0,colour,0.5,3.9
87,20,0,1,7,13,313,477.7712049681286,478.59192032650753,"[54, 0, 200]",200,a,0.29745067372277845,0,colour,0.5,3.9
87,20,0,1,7,14,314,479.09929332198226,479.9039492127631,"[99, 0, 155]",155,l,0.28134039998985827,1,colour,0.5,3.9
87,20,0,1,7,15,315,480.41179246045067,481.1840785360546,"[60, 0, 194]",194,a,0.24938884934817906,0,colour,0.5,3.9
87,20,0,1,7,16,316,481.693098595817,482.46392468402337,"[42, 0, 212]",212,a,0.24764292969484814,1,colour,0.5,3.9
87,20,0,1,7,17,317,482.97425034352636,483.69598627525556,"[40, 0, 214]",214,a,0.197256231927895,1,colour,0.5,3.9
87,20,0,1,7,18,318,484.2098341002129,484.9198948588455,"[84, 0, 170]",170,l,0.18678189552156255,1,colour,0.5,3.9
87,20,0,1,7,19,319,485.42870145404595,486.3359073800093,"[29, 0, 225]",225,a,0.3842370197235141,1,colour,0.5,3.9
87,20,0,1,7,20,320,486.8505106017401,487.6079211110482,"[45, 0, 209]",209,a,0.2342407415562775,1,colour,0.5,3.9
87,20,0,1,7,21,321,488.11614205712976,488.9039094343025,"[52, 0, 202]",202,a,0.26457122174906544,0,colour,0.5,3.9
87,20,0,1,7,22,322,489.4130326817394,490.1838950037927,"[34, 0, 220]",220,a,0.24768231430789456,1,colour,0.5,3.9
87,20,0,1,7,23,323,490.6942064848263,491.5278947391198,"[7, 0, 247]",247,a,0.310503126544063,1,colour,0.5,3.9
87,20,0,1,7,24,324,492.03799787559547,492.895948623569,"[44, 0, 210]",210,a,0.33476719561440405,1,colour,0.5,3.9
87,20,0,1,7,25,325,493.4129657279118,494.2079660882737,"[75, 0, 179]",179,l,0.27175339878886007,1,colour,0.5,3.9
87,20,0,1,7,26,326,494.72553103251266,495.5919219018979,"[59, 0, 195]",195,a,0.3432081047212705,0,colour,0.5,3.9
87,20,0,1,7,27,327,496.100506367904,496.8400118468853,"[25, 0, 229]",229,a,0.21628529894223902,1,colour,0.5,3.9
87,20,0,1,7,28,328,497.3505178878986,498.5919636495819,"[21, 0, 233]",233,a,0.7182149478030624,1,colour,0.5,3.9
87,20,0,1,7,29,329,499.10047131559986,499.88793385592,"[31, 0, 223]",223,a,0.2642021879728418,1,colour,0.5,3.9
87,20,0,1,7,30,330,500.39732216176344,501.4959211331152,"[81, 0, 173]",173,l,0.5753228651738027,1,colour,0.5,3.9
87,20,0,1,7,31,331,502.0066973525245,503.1919018945191,"[63, 0, 191]",191,a,0.6621324480802286,0,colour,0.5,3.9
87,20,0,1,7,32,332,503.70996032789117,504.9118726081215,"[38, 0, 216]",216,a,0.6788547586183995,1,colour,0.5,3.9
87,20,0,1,7,33,333,505.428625835586,506.5282306898298,"[95, 0, 159]",159,l,0.5749857329356018,1,colour,0.5,3.9
87,20,0,1,7,34,334,507.0394145399332,508.295950120184,"[13, 0, 241]",241,a,0.7350211475713877,1,colour,0.5,3.9
87,20,0,1,7,35,335,508.8047894045885,510.1200765794347,"[90, 0, 164]",164,l,0.7920350932690781,1,colour,0.5,3.9
87,20,0,1,7,36,336,510.6329358507501,511.7759043395199,"[82, 0, 172]",172,l,0.619692382591893,1,colour,0.5,3.9
87,20,0,1,7,37,337,512.2891704538197,513.3038975401578,"[48, 0, 206]",206,a,0.4915545616677264,1,colour,0.5,3.9
87,20,0,1,7,38,338,513.8203419922938,514.6080534433422,"[78, 0, 176]",176,l,0.2644479479349684,1,colour,0.5,3.9
87,20,0,1,7,39,339,515.1172924815182,515.7519447134691,"[20, 0, 234]",234,a,0.11129696269927081,1,colour,0.5,3.9
87,20,0,1,7,40,340,516.2734875030728,516.8958903343446,"[80, 0, 174]",174,l,0.09914208509144373,1,colour,0.5,3.9
87,20,0,1,7,41,341,517.4141011861502,518.0158885384153,"[36, 0, 218]",218,a,0.07880229833244812,1,colour,0.5,3.9
87,20,0,1,7,42,342,518.5247660258901,519.2318800281791,"[15, 0, 239]",239,a,0.1838536499417387,1,colour,0.5,3.9
87,20,0,1,7,43,343,519.7435498843406,520.3999372997059,"[79, 0, 175]",175,l,0.1330782261065906,1,colour,0.5,3.9
87,20,0,1,7,44,344,520.9154818135721,521.551915017466,"[18, 0, 236]",236,a,0.11314646387472749,1,colour,0.5,3.9
87,20,0,1,7,45,345,522.0716370566661,522.8079693178152,"[6, 0, 248]",248,a,0.21307112112117466,1,colour,0.5,3.9
87,20,0,1,7,46,346,523.3216517274268,524.0879426780593,"[30, 0, 224]",224,a,0.2432751767046284,1,colour,0.5,3.9
87,20,0,1,7,47,347,524.6029673151061,525.303915657074,"[43, 0, 211]",211,a,0.17772698038606904,1,colour,0.5,3.9
87,20,0,1,7,48,348,525.8216097828263,526.4478809702559,"[83, 0, 171]",171,l,0.1029706627887208,1,colour,0.5,3.9
87,20,0,1,7,49,349,526.9622758474288,527.6639114507998,"[77, 0, 177]",177,l,0.17856193406623788,1,colour,0.5,3.9
87,20,0,1,7,50,350,528.1810853058705,528.8639013683423,"[93, 0, 161]",161,l,0.1576640674174996,1,colour,0.5,3.9
87,20,0,1,8,1,351,533.3227434687578,534.0478983782523,"[84, 0, 170]",170,l,0.20112380039063282,1,colour,0.5,3.9
87,20,0,1,8,2,352,534.5579188070551,535.1199123456172,"[8, 0, 246]",246,a,0.038702466219547205,1,colour,0.5,3.9
87,20,0,1,8,3,353,535.6359716162988,536.207945214439,"[47, 0, 207]",207,a,0.048744753483333625,1,colour,0.5,3.9
87,20,0,1,8,4,354,536.7141516378324,537.2719637125992,"[77, 0, 177]",177,l,0.03455959935672581,1,colour,0.5,3.9
87,20,0,1,8,5,355,537.7922304409149,538.415920361178,"[99, 0, 155]",155,l,0.09795030686655082,1,colour,0.5,3.9
87,20,0,1,8,6,356,538.9354746219324,539.495927828495,"[83, 0, 171]",171,l,0.03725350651075132,1,colour,0.5,3.9
87,20,0,1,8,7,357,540.0135309757898,540.5439506621187,"[15, 0, 239]",239,a,0.007190053976955824,1,colour,0.5,3.9
87,20,0,1,8,8,358,541.0603269788844,541.5999413957034,"[36, 0, 218]",218,a,0.016333190636942163,1,colour,0.5,3.9
87,20,0,1,8,9,359,542.1072312896576,542.679905146113,"[80, 0, 174]",174,l,0.04937215028621722,1,colour,0.5,3.9
87,20,0,1,8,10,360,543.201000132729,544.3039463770692,"[63, 0, 191]",191,a,0.5803861503227381,0,colour,0.5,3.9
87,20,0,1,8,11,361,544.8103383019625,545.5519260451547,"[18, 0, 236]",236,a,0.21835692929744255,1,colour,0.5,3.9
87,20,0,1,8,12,362,546.0603817234951,546.6958838752762,"[65, 0, 189]",189,a,0.11239579325774685,0,colour,0.5,3.9
87,20,0,1,8,13,363,547.216607858878,548.1919042575901,"[59, 0, 195]",195,a,0.45188874793529976,0,colour,0.5,3.9
87,20,0,1,8,14,364,548.7023295601539,549.2559058203769,"[12, 0, 242]",242,a,0.03031669557094574,1,colour,0.5,3.9
87,20,0,1,8,15,365,549.7648093017051,550.3519152537774,"[95, 0, 159]",159,l,0.06387435049691703,1,colour,0.5,3.9
87,20,0,1,8,16,366,550.8585147355479,551.5198650053208,"[68, 0, 186]",186,a,0.1382935358415125,0,colour,0.5,3.9
87,20,0,1,8,17,367,552.0304805355408,552.7525106702669,"[45, 0, 209]",209,a,0.19884776390972547,1,colour,0.5,3.9
87,20,0,1,8,18,368,553.2648169816966,553.8959253866487,"[2, 0, 252]",252,a,0.10782599722733721,1,colour,0.5,3.9
87,20,0,1,8,19,369,554.4054704432347,555.0558776997641,"[17, 0, 237]",237,a,0.12723867033491842,1,colour,0.5,3.9
87,20,0,1,8,20,370,555.5772712217004,556.2079400944349,"[71, 0, 183]",183,a,0.10753967112395912,0,colour,0.5,3.9
87,20,0,1,8,21,371,556.7179140493972,557.271873915699,"[38, 0, 216]",216,a,0.030688092432683334,1,colour,0.5,3.9
87,20,0,1,8,22,372,557.7804083632363,558.4159113027126,"[89, 0, 165]",165,l,0.11220989791036118,1,colour,0.5,3.9
87,20,0,1,8,23,373,558.9366482832411,559.591915206518,"[75, 0, 179]",179,l,0.1323606385558378,1,colour,0.5,3.9
87,20,0,1,8,24,374,560.1126691224345,561.0479476090259,"[9, 0, 245]",245,a,0.4161109826818574,1,colour,0.5,3.9
87,20,0,1,8,25,375,561.5616890955425,562.2638768711186,"[67, 0, 187]",187,a,0.17925864778226241,0,colour,0.5,3.9
87,20,0,1,8,26,376,562.7804123016977,563.3119509047247,"[58, 0, 196]",196,a,0.008364896813873202,0,colour,0.5,3.9
87,20,0,1,8,27,377,563.8272752586345,564.44788609026,"[69, 0, 185]",185,a,0.09744185158342589,0,colour,0.5,3.9
87,20,0,1,8,28,378,564.9678436494141,566.0319354029343,"[60, 0, 194]",194,a,0.5407916227268288,0,colour,0.5,3.9
87,20,0,1,8,29,379,566.5460608893918,567.2158957851789,"[88, 0, 166]",166,l,0.14662534958915785,1,colour,0.5,3.9
87,20,0,1,8,30,380,567.7333788094256,568.5038980915415,"[91, 0, 163]",163,l,0.24473713334009517,1,colour,0.5,3.9
87,20,0,1,8,31,381,569.0195331900031,569.9441951617628,"[72, 0, 182]",182,a,0.40139334865671117,0,colour,0.5,3.9
87,20,0,1,8,32,382,570.4570138669224,571.207884168296,"[34, 0, 220]",220,a,0.22762609671917744,1,colour,0.5,3.9
87,20,0,1,8,33,383,571.7226579253766,572.7119338905759,"[31, 0, 223]",223,a,0.46609123129746877,1,colour,0.5,3.9
87,20,0,1,8,34,384,573.2226092853962,573.951889732547,"[29, 0, 225]",225,a,0.20603742403909564,1,colour,0.5,3.9
87,20,0,1,8,35,385,574.4726527069288,575.1118735533528,"[22, 0, 232]",232,a,0.11596561408077832,1,colour,0.5,3.9
87,20,0,1,8,36,386,575.6289028669271,576.3282458922768,"[57, 0, 197]",197,a,0.17637175602430943,0,colour,0.5,3.9
87,20,0,1,8,37,387,576.8475870823167,577.5439167913573,"[98, 0, 156]",156,l,0.17295317210664507,1,colour,0.5,3.9
87,20,0,1,8,38,388,578.0507836946199,578.6640193646163,"[21, 0, 233]",233,a,0.08867405021737795,1,colour,0.5,3.9
87,20,0,1,8,39,389,579.1770389312878,579.9039129789162,"[85, 0, 169]",169,l,0.20360384913510643,1,colour,0.5,3.9
87,20,0,1,8,40,390,580.4114206697559,581.0719068412291,"[16, 0, 238]",238,a,0.13747000369767193,1,colour,0.5,3.9
87,20,0,1,8,41,391,581.5833486605115,582.2319107481744,"[40, 0, 214]",214,a,0.12527613532438409,1,colour,0.5,3.9
87,20,0,1,8,42,392,582.7395810974413,583.5039091192302,"[14, 0, 240]",240,a,0.24108421098208055,1,colour,0.5,3.9
87,20,0,1,8,43,393,584.0208671466535,584.7439189181168,"[27, 0, 227]",227,a,0.20002772676525638,1,colour,0.5,3.9
87,20,0,1,8,44,394,585.2551905958971,585.9438978079706,"[46, 0, 208]",208,a,0.1653846320550656,1,colour,0.5,3.9
87,20,0,1,8,45,395,586.4583659405034,587.0718875427701,"[96, 0, 158]",158,l,0.09032308375753928,1,colour,0.5,3.9
87,20,0,1,8,46,396,587.5833010051283,588.3120052554877,"[49, 0, 205]",205,a,0.20540569494187366,1,colour,0.5,3.9
87,20,0,1,8,47,397,588.819940269299,589.5519173805515,"[35, 0, 219]",219,a,0.20866004507115576,1,colour,0.5,3.9
87,20,0,1,8,48,398,590.0699513954605,590.7919098502025,"[62, 0, 192]",192,a,0.19875678546668496,0,colour,0.5,3.9
87,20,0,1,8,49,399,591.3042878416163,591.9519429017673,"[28, 0, 226]",226,a,0.12437777243030723,1,colour,0.5,3.9
87,20,0,1,8,50,400,592.460564389301,593.1518981608533,"[10, 0, 244]",244,a,0.16811359151324723,1,colour,0.5,3.9
87,20,0,1,9,1,401,599.6941694632987,600.8959147528076,"[50, 0, 204]",204,a,0.6778803834313294,1,colour,0.5,3.8
87,20,0,1,9,2,402,601.4136470816156,602.5759707419638,"[64, 0, 190]",190,a,0.6393799602519721,0,colour,0.5,3.8
87,20,0,1,9,3,403,603.0855748754548,603.8640092821588,"[20, 0, 234]",234,a,0.2549062390316976,1,colour,0.5,3.8
87,20,0,1,9,4,404,604.3823020539421,605.0958463811257,"[16, 0, 238]",238,a,0.19020796254335437,1,colour,0.5,3.8
87,20,0,1,9,5,405,605.6168251831405,606.2478973542602,"[43, 0, 211]",211,a,0.10775274185289163,1,colour,0.5,3.8
87,20,0,1,9,6,406,606.757441623151,607.4638711209554,"[29, 0, 225]",225,a,0.18318726238794625,1,colour,0.5,3.8
87,20,0,1,9,7,407,607.9761455308471,608.6079514371959,"[54, 0, 200]",200,a,0.1072820957924705,0,colour,0.5,3.8
87,20,0,1,9,8,408,609.1181825736421,609.8718936867663,"[2, 0, 252]",252,a,0.2304192530864384,1,colour,0.5,3.8
87,20,0,1,9,9,409,610.383819936731,611.1519875639206,"[87, 0, 167]",167,l,0.2449226348544471,1,colour,0.5,3.8
87,20,0,1,9,10,410,611.6651548228547,612.3199065954686,"[55, 0, 199]",199,a,0.1315871248662006,0,colour,0.5,3.8
87,20,0,1,9,11,411,612.8369583582535,613.5599490835739,"[66, 0, 188]",188,a,0.19969177605526056,0,colour,0.5,3.8
87,20,0,1,9,12,412,614.0719698565954,614.7759838964266,"[11, 0, 243]",243,a,0.18139447506109718,1,colour,0.5,3.8
87,20,0,1,9,13,413,615.2901404967124,616.0399864044302,"[18, 0, 236]",236,a,0.2266406938288128,1,colour,0.5,3.8
87,20,0,1,9,14,414,616.5558176382328,617.231893812801,"[76, 0, 178]",178,l,0.15290286220260896,1,colour,0.5,3.8
87,20,0,1,9,15,415,617.7432123582548,618.4639136563346,"[77, 0, 177]",177,l,0.19737753651861567,1,colour,0.5,3.8
87,20,0,1,9,16,416,618.9777102813096,619.6158933433326,"[40, 0, 214]",214,a,0.1151401127135614,1,colour,0.5,3.8
87,20,0,1,9,17,417,620.1339549274708,620.8080484808743,"[42, 0, 212]",212,a,0.15092299797106534,1,colour,0.5,3.8
87,20,0,1,9,18,418,621.3213894259388,621.9358818587789,"[27, 0, 227]",227,a,0.09128170509939082,1,colour,0.5,3.8
87,20,0,1,9,19,419,622.4463938074769,623.0158664830233,"[31, 0, 223]",223,a,0.046491560075082816,1,colour,0.5,3.8
87,20,0,1,9,20,420,623.5258274410735,624.1278881225007,"[45, 0, 209]",209,a,0.07884050138818566,1,colour,0.5,3.8
87,20,0,1,9,21,421,624.6350886134023,625.3038778478513,"[58, 0, 196]",196,a,0.14539970060286578,0,colour,0.5,3.8
87,20,0,1,9,22,422,625.8227444533695,626.4558847102307,"[33, 0, 221]",221,a,0.10994291989482008,1,colour,0.5,3.8
87,20,0,1,9,23,423,626.9632931518427,627.575895517366,"[86, 0, 168]",168,l,0.08933374240587,1,colour,0.5,3.8
87,20,0,1,9,24,424,628.0881833180174,628.6558742339257,"[96, 0, 158]",158,l,0.04430059435253497,1,colour,0.5,3.8
87,20,0,1,9,25,425,629.1663022934081,630.1438711839728,"[53, 0, 201]",201,a,0.4541509997943649,0,colour,0.5,3.8
87,20,0,1,9,26,426,630.650770382621,631.375876455204,"[10, 0, 244]",244,a,0.20183941870345734,1,colour,0.5,3.8
87,20,0,1,9,27,427,631.885098164159,632.6399022001424,"[12, 0, 242]",242,a,0.2313853575178655,1,colour,0.5,3.8
87,20,0,1,9,28,428,633.150826899524,633.9598989863589,"[62, 0, 192]",192,a,0.28585899602330755,0,colour,0.5,3.8
87,20,0,1,9,29,429,634.4788916226244,635.2479198034853,"[0, 0, 254]",254,a,0.24635387148009613,1,colour,0.5,3.8
87,20,0,1,9,30,430,635.760169794914,636.4560217686667,"[14, 0, 240]",240,a,0.17268023677752353,1,colour,0.5,3.8
87,20,0,1,9,31,431,636.9632494349353,637.8079027578206,"[69, 0, 185]",185,a,0.32142329670023173,0,colour,0.5,3.8
87,20,0,1,9,32,432,638.3226312226179,639.0798971904151,"[34, 0, 220]",220,a,0.2340516954427585,1,colour,0.5,3.8
87,20,0,1,9,33,433,639.5882402287825,640.3038857247739,"[56, 0, 198]",198,a,0.1923981405707309,0,colour,0.5,3.8
87,20,0,1,9,34,434,640.8227377579897,641.5680449835199,"[88, 0, 166]",166,l,0.22215439316642005,1,colour,0.5,3.8
87,20,0,1,9,35,435,642.0882396380039,642.7598763795977,"[44, 0, 210]",210,a,0.1483401554141892,1,colour,0.5,3.8
87,20,0,1,9,36,436,643.2778863698913,643.9679212370829,"[79, 0, 175]",175,l,0.16692929634882603,1,colour,0.5,3.8
87,20,0,1,9,37,437,644.481019572966,645.1518741362524,"[61, 0, 193]",193,a,0.1479140139563242,0,colour,0.5,3.8
87,20,0,1,9,38,438,645.6684670683608,646.3518329399521,"[65, 0, 189]",189,a,0.16007164848269895,0,colour,0.5,3.8
87,20,0,1,9,39,439,646.8716577729647,647.5438880405854,"[47, 0, 207]",207,a,0.14903726296324749,1,colour,0.5,3.8
87,20,0,1,9,40,440,648.0591296868224,648.7279307366553,"[91, 0, 163]",163,l,0.14558283903170377,1,colour,0.5,3.8
87,20,0,1,9,41,441,649.2465799391357,649.9598761432862,"[3, 0, 251]",251,a,0.19000788874109276,1,colour,0.5,3.8
87,20,0,1,9,42,442,650.4810841637227,651.1038438195537,"[84, 0, 170]",170,l,0.09965093422215432,1,colour,0.5,3.8
87,20,0,1,9,43,443,651.6216100191232,652.3438697661331,"[28, 0, 226]",226,a,0.19901829927403014,1,colour,0.5,3.8
87,20,0,1,9,44,444,652.8560366560414,653.5439293944219,"[15, 0, 239]",239,a,0.16461741988314316,1,colour,0.5,3.8
87,20,0,1,9,45,445,654.0590710037504,654.7838868117833,"[6, 0, 248]",248,a,0.20153891415975522,1,colour,0.5,3.8
87,20,0,1,9,46,446,655.2934267483652,656.0638881351042,"[59, 0, 195]",195,a,0.24714786517142784,0,colour,0.5,3.8
87,20,0,1,9,47,447,656.5747490314388,657.3122191138973,"[13, 0, 241]",241,a,0.2142290285846684,1,colour,0.5,3.8
87,20,0,1,9,48,448,657.8247660652705,659.8798891559563,"[70, 0, 184]",184,l,1.5318887321773218,1,colour,0.5,3.8
87,20,0,1,9,49,449,660.3872121329769,661.1839127268613,"[72, 0, 182]",182,l,0.27350246922287624,1,colour,0.5,3.8
87,20,0,1,9,50,450,661.699773892964,662.5278974960383,"[93, 0, 161]",161,l,0.30486246303189546,1,colour,0.5,3.8
87,20,0,1,10,1,451,666.7001606498088,672.7998966547893,"[78, 0, 176]",176,l,5.575726163544459,1,colour,0.5,3.8
87,20,0,1,10,2,452,673.3109564433835,674.0878733611607,"[46, 0, 208]",208,a,0.2543083806958748,1,colour,0.5,3.8
87,20,0,1,10,3,453,674.6071877696668,675.399918001247,"[53, 0, 201]",201,a,0.26949075308220927,0,colour,0.5,3.8
87,20,0,1,10,4,454,675.919671548123,676.7838734210236,"[76, 0, 178]",178,l,0.341003748239018,1,colour,0.5,3.8
87,20,0,1,10,5,455,677.2946236465941,677.887909437457,"[24, 0, 230]",230,a,0.0701479246490635,1,colour,0.5,3.8
87,20,0,1,10,6,456,678.4011657056108,679.0478566305683,"[75, 0, 179]",179,l,0.12347074490389787,1,colour,0.5,3.8
87,20,0,1,10,7,457,679.5574477671471,681.0799019165715,"[91, 0, 163]",163,l,0.9994911508692894,1,colour,0.5,3.8
87,20,0,1,10,8,458,681.5886356502306,682.6159193371714,"[73, 0, 181]",181,l,0.5039583499892615,1,colour,0.5,3.8
87,20,0,1,10,9,459,683.1356236532883,683.8958863958833,"[10, 0, 244]",244,a,0.2370551656204043,1,colour,0.5,3.8
87,20,0,1,10,10,460,684.416882133286,685.023884401453,"[86, 0, 168]",168,l,0.08371986044221558,1,colour,0.5,3.8
87,20,0,1,10,11,461,685.5418116840738,686.2878699740832,"[92, 0, 162]",162,l,0.22309174684050959,1,colour,0.5,3.8
87,20,0,1,10,12,462,686.8074293548416,687.4799045947293,"[50, 0, 204]",204,a,0.14918377369758673,1,colour,0.5,3.8
87,20,0,1,10,13,463,687.9948882717727,688.5518961128546,"[12, 0, 242]",242,a,0.033788054875913076,1,colour,0.5,3.8
87,20,0,1,10,14,464,689.0730072471633,689.6878344491706,"[56, 0, 198]",198,a,0.0915097419929225,0,colour,0.5,3.8
87,20,0,1,10,15,465,690.1980616471556,690.9358920987725,"[16, 0, 238]",238,a,0.21520064685319085,1,colour,0.5,3.8
87,20,0,1,10,16,466,691.448089708676,692.0961626395292,"[61, 0, 193]",193,a,0.12516388919902965,0,colour,0.5,3.8
87,20,0,1,10,17,467,692.6043308102235,693.2398676204612,"[32, 0, 222]",222,a,0.1122028086829232,1,colour,0.5,3.8
87,20,0,1,10,18,468,693.7461835330614,694.455864230229,"[54, 0, 200]",200,a,0.18641680020664353,0,colour,0.5,3.8
87,20,0,1,10,19,469,694.9648866530624,695.6718864400027,"[4, 0, 250]",250,a,0.18372210537199862,1,colour,0.5,3.8
87,20,0,1,10,20,470,696.1836429422983,696.8878991974634,"[87, 0, 167]",167,l,0.18087499207467772,1,colour,0.5,3.8
87,20,0,1,10,21,471,697.402427588444,698.0558824259206,"[45, 0, 209]",209,a,0.13019527282449417,1,colour,0.5,3.8
87,20,0,1,10,22,472,698.5742724776792,699.295900889425,"[57, 0, 197]",197,a,0.198307013255544,0,colour,0.5,3.8
87,20,0,1,10,23,473,699.8086498838384,700.5438970990508,"[1, 0, 253]",253,a,0.21253509660891723,1,colour,0.5,3.8
87,20,0,1,10,24,474,701.058644468445,701.7598468411306,"[21, 0, 233]",233,a,0.17802906032011379,1,colour,0.5,3.8
87,20,0,1,10,25,475,702.2773751576897,702.9998515200277,"[38, 0, 216]",216,a,0.19926169615064282,1,colour,0.5,3.8
87,20,0,1,10,26,476,703.513929351102,704.2638792341895,"[39, 0, 215]",215,a,0.22669780151045416,1,colour,0.5,3.8
87,20,0,1,10,27,477,704.7795545049448,705.4239126796019,"[98, 0, 156]",156,l,0.12117540999315679,1,colour,0.5,3.8
87,20,0,1,10,28,478,705.9357885172649,707.1038465764723,"[71, 0, 183]",183,a,0.644838273015921,0,colour,0.5,3.8
87,20,0,1,10,29,479,707.6232610218867,708.5438868590427,"[28, 0, 226]",226,a,0.3973119217553176,1,colour,0.5,3.8
87,20,0,1,10,30,480,709.0605845542159,709.8401394530229,"[81, 0, 173]",173,l,0.256927457099664,1,colour,0.5,3.8
87,20,0,1,10,31,481,710.357808372617,711.3919170182053,"[93, 0, 161]",161,l,0.5113445393071743,1,colour,0.5,3.8
87,20,0,1,10,32,482,711.9043981972936,713.0479097997886,"[69, 0, 185]",185,a,0.6203638901351951,0,colour,0.5,3.8
87,20,0,1,10,33,483,713.5605516680807,714.3439268738148,"[11, 0, 243]",243,a,0.2605406010115985,1,colour,0.5,3.8
87,20,0,1,10,34,484,714.8575789572787,715.592177508006,"[79, 0, 175]",175,l,0.21133937992271967,1,colour,0.5,3.8
87,20,0,1,10,35,485,716.1074735049915,716.8558385514625,"[84, 0, 170]",170,l,0.22569822016521357,1,colour,0.5,3.8
87,20,0,1,10,36,486,717.373116381903,718.1358512963197,"[97, 0, 157]",157,l,0.23934656209894456,1,colour,0.5,3.8
87,20,0,1,10,37,487,718.6558482400724,719.3759560121252,"[19, 0, 235]",235,a,0.197069548885338,1,colour,0.5,3.8
87,20,0,1,10,38,488,719.8902488831518,720.6159016141028,"[25, 0, 229]",229,a,0.2028874431271106,1,colour,0.5,3.8
87,20,0,1,10,39,489,721.1246136862319,721.8399047207495,"[30, 0, 224]",224,a,0.1927959251042921,1,colour,0.5,3.8
87,20,0,1,10,40,490,722.3591966800304,723.1678969761706,"[68, 0, 186]",186,a,0.28661360510159284,0,colour,0.5,3.8
87,20,0,1,10,41,491,723.6871420677635,724.4318675826507,"[23, 0, 231]",231,a,0.22134661488234997,1,colour,0.5,3.8
87,20,0,1,10,42,492,724.9370354339335,725.671860839997,"[43, 0, 211]",211,a,0.212079810546129,1,colour,0.5,3.8
87,20,0,1,10,43,493,726.1870993354678,726.8879322805296,"[83, 0, 171]",171,l,0.17826773105480243,1,colour,0.5,3.8
87,20,0,1,10,44,494,727.4058422339294,728.111862525664,"[49, 0, 205]",205,a,0.18288990859582555,1,colour,0.5,3.8
87,20,0,1,10,45,495,728.6287677777145,729.3678782290954,"[17, 0, 237]",237,a,0.2160887697536964,1,colour,0.5,3.8
87,20,0,1,10,46,496,729.8788123807899,730.6558667508507,"[89, 0, 165]",165,l,0.2540126022940967,1,colour,0.5,3.8
87,20,0,1,10,47,497,731.1757093069318,731.9678692494053,"[8, 0, 246]",246,a,0.26897284550068434,1,colour,0.5,3.8
87,20,0,1,10,48,498,732.4881690607872,733.1518910716259,"[41, 0, 213]",213,a,0.1407495599705726,1,colour,0.5,3.8
87,20,0,1,10,49,499,733.6600009531103,734.3839278505475,"[9, 0, 245]",245,a,0.20066654510446824,1,colour,0.5,3.8
87,20,0,1,10,50,500,734.8944264084857,735.5119183730421,"[15, 0, 239]",239,a,0.09429699066095054,1,colour,0.5,3.8
87,20,0,1,11,1,501,740.0499176270969,741.351839635332,"[44, 0, 210]",210,a,0.7778889298933791,1,colour,0.5,3.8
87,20,0,1,11,2,502,741.8631424269552,742.527886074502,"[27, 0, 227]",227,a,0.14150613828678615,1,colour,0.5,3.8
87,20,0,1,11,3,503,743.0349644731177,743.687922276833,"[12, 0, 242]",242,a,0.12838909470883664,1,colour,0.5,3.8
87,20,0,1,11,4,504,744.2081968820712,744.9598048571497,"[45, 0, 209]",209,a,0.2290616656682687,1,colour,0.5,3.8
87,20,0,1,11,5,505,745.47384094054,746.2079381252115,"[60, 0, 194]",194,a,0.210845890789642,0,colour,0.5,3.8
87,20,0,1,11,6,506,746.7237709343899,747.4558437502274,"[59, 0, 195]",195,a,0.20873920811573043,0,colour,0.5,3.8
87,20,0,1,11,7,507,747.9737781220902,748.7278492105106,"[69, 0, 185]",185,a,0.23131604060472455,0,colour,0.5,3.8
87,20,0,1,11,8,508,749.239420605154,750.38392076132,"[73, 0, 181]",181,a,0.621286671506823,0,colour,0.5,3.8
87,20,0,1,11,9,509,750.8957249189989,751.5838882296375,"[30, 0, 224]",224,a,0.16508924750087317,1,colour,0.5,3.8
87,20,0,1,11,10,510,752.0989321651286,752.8478722268774,"[32, 0, 222]",222,a,0.22575375247106422,1,colour,0.5,3.8
87,20,0,1,11,11,511,753.3664887401392,753.975840300147,"[96, 0, 158]",158,l,0.0860596999846166,1,colour,0.5,3.8
87,20,0,1,11,12,512,754.4915403831983,755.1038221580093,"[28, 0, 226]",226,a,0.08902733014838304,1,colour,0.5,3.8
87,20,0,1,11,13,513,755.616506561666,756.3758713352145,"[86, 0, 168]",168,l,0.23599178122822195,1,colour,0.5,3.8
87,20,0,1,11,14,514,756.8821214755153,757.6558994400693,"[34, 0, 220]",220,a,0.2505227322108112,1,colour,0.5,3.8
87,20,0,1,11,15,515,758.1633705032145,758.9438659064326,"[18, 0, 236]",236,a,0.25712910627771635,1,colour,0.5,3.8
87,20,0,1,11,16,516,759.4602107155224,760.1758601499896,"[94, 0, 160]",160,l,0.19234536521253176,1,colour,0.5,3.8
87,20,0,1,11,17,517,760.6945924539905,761.4638695455797,"[97, 0, 157]",157,l,0.24605415463156532,1,colour,0.5,3.8
87,20,0,1,11,18,518,761.9758733832132,762.8080547824065,"[51, 0, 203]",203,a,0.30899272684473544,0,colour,0.5,3.8
87,20,0,1,11,19,519,763.3196927370445,764.2078782605968,"[2, 0, 252]",252,a,0.36510909732896835,1,colour,0.5,3.8
87,20,0,1,11,20,520,764.7258835247485,765.4798939608881,"[40, 0, 214]",214,a,0.23073944995121565,1,colour,0.5,3.8
87,20,0,1,11,21,521,765.9915161616664,766.7198820982449,"[36, 0, 218]",218,a,0.20513000269420445,1,colour,0.5,3.8
87,20,0,1,11,22,522,767.2415123216779,767.9679066647805,"[54, 0, 200]",200,a,0.2031375353835756,0,colour,0.5,3.8
87,20,0,1,11,23,523,768.4778770751291,769.231859548192,"[50, 0, 204]",204,a,0.23078159148280974,1,colour,0.5,3.8
87,20,0,1,11,24,524,769.7435691827995,770.4558543840831,"[99, 0, 155]",155,l,0.18905123662261758,1,colour,0.5,3.8
87,20,0,1,11,25,525,770.9622494597425,771.7038895844598,"[84, 0, 170]",170,l,0.21870351384859532,1,colour,0.5,3.8
87,20,0,1,11,26,526,772.2122735828161,772.9678074155672,"[76, 0, 178]",178,l,0.23251254498609342,1,colour,0.5,3.8
87,20,0,1,11,27,527,773.4778711674298,774.3519262814661,"[53, 0, 201]",201,a,0.3511657646886306,0,colour,0.5,3.8
87,20,0,1,11,28,528,774.8684156320669,775.6638996354159,"[48, 0, 206]",206,a,0.27209131872223224,1,colour,0.5,3.8
87,20,0,1,11,29,529,776.1810069305066,776.9678460124851,"[11, 0, 243]",243,a,0.2635523419448873,1,colour,0.5,3.8
87,20,0,1,11,30,530,777.4778884966654,778.191864479144,"[62, 0, 192]",192,a,0.1909133408771595,0,colour,0.5,3.8
87,20,0,1,11,31,531,778.7135076994891,779.4718618640036,"[46, 0, 208]",208,a,0.23510995985998306,1,colour,0.5,3.8
87,20,0,1,11,32,532,779.9790631425858,780.7198978520755,"[25, 0, 229]",229,a,0.21780160634079948,1,colour,0.5,3.8
87,20,0,1,11,33,533,781.2290218872076,781.9918725923635,"[15, 0, 239]",239,a,0.23973331894376315,1,colour,0.5,3.8
87,20,0,1,11,34,534,782.5103548041079,783.2798323633615,"[9, 0, 245]",245,a,0.24621287459740415,1,colour,0.5,3.8
87,20,0,1,11,35,535,783.791541997969,784.6078695172182,"[13, 0, 241]",241,a,0.2930514130566735,1,colour,0.5,3.8
87,20,0,1,11,36,536,785.1196882471995,785.86393169449,"[56, 0, 198]",198,a,0.22103547648293898,0,colour,0.5,3.8
87,20,0,1,11,37,537,786.3696387210512,787.1518079701054,"[17, 0, 237]",237,a,0.25892189363366924,1,colour,0.5,3.8
87,20,0,1,11,38,538,787.6665088656737,788.3758843321266,"[26, 0, 228]",228,a,0.18611905256693717,1,colour,0.5,3.8
87,20,0,1,11,39,539,788.8864821392781,789.6159130356391,"[38, 0, 216]",216,a,0.20610792249499355,1,colour,0.5,3.8
87,20,0,1,11,40,540,790.1455324267299,790.8960711097025,"[64, 0, 190]",190,a,0.23636239038023632,0,colour,0.5,3.8
87,20,0,1,11,41,541,791.4021904930996,792.1518883147073,"[80, 0, 174]",174,l,0.22632994927698746,1,colour,0.5,3.8
87,20,0,1,11,42,542,792.6680322622997,793.4478360718058,"[24, 0, 230]",230,a,0.25678212789352983,1,colour,0.5,3.8
87,20,0,1,11,43,543,793.9646471946471,794.7358549197088,"[31, 0, 223]",223,a,0.24798478808952495,1,colour,0.5,3.8
87,20,0,1,11,44,544,795.2458828315721,796.0078745584469,"[52, 0, 202]",202,a,0.23894365756132174,0,colour,0.5,3.8
87,20,0,1,11,45,545,796.5271917238715,797.2078565990669,"[92, 0, 162]",162,l,0.1574277597683249,1,colour,0.5,3.8
87,20,0,1,11,46,546,797.7146912069584,798.5198653991683,"[41, 0, 213]",213,a,0.28197370447742287,1,colour,0.5,3.8
87,20,0,1,11,47,547,799.0271529300371,799.7918791302072,"[78, 0, 176]",176,l,0.24137014323787298,1,colour,0.5,3.8
87,20,0,1,11,48,548,800.3084090469638,801.1438156516815,"[77, 0, 177]",177,l,0.3120883570081787,1,colour,0.5,3.8
87,20,0,1,11,49,549,801.6520590469736,802.5839394296199,"[65, 0, 189]",189,a,0.40846761186548974,0,colour,0.5,3.8
87,20,0,1,11,50,550,803.1052474869648,803.8878460282431,"[93, 0, 161]",161,l,0.25810978302615695,1,colour,0.5,3.8
87,20,0,1,12,1,551,815.4818568897317,816.1198544502404,"[45, 0, 209]",209,a,0.11390579910948873,1,colour,0.5,3.7
87,20,0,1,12,2,552,816.63888213881,817.9839007539413,"[76, 0, 178]",178,a,0.8218161581608001,0,colour,0.5,3.7
87,20,0,1,12,3,553,818.498272788027,819.2878628848557,"[8, 0, 246]",246,a,0.2663407721702242,1,colour,0.5,3.7
87,20,0,1,12,4,554,819.7950775541976,820.7199317228369,"[50, 0, 204]",204,a,0.40169936703750864,1,colour,0.5,3.7
87,20,0,1,12,5,555,821.2326015541912,821.9998475815664,"[77, 0, 177]",177,l,0.24400182272074744,1,colour,0.5,3.7
87,20,0,1,12,6,556,822.5139033572632,823.1998607360292,"[79, 0, 175]",175,l,0.16277343255933374,1,colour,0.5,3.7
87,20,0,1,12,7,557,823.7181783201086,824.3919288335892,"[92, 0, 162]",162,l,0.15040902883629315,1,colour,0.5,3.7
87,20,0,1,12,8,558,824.9057293970254,825.6718620215397,"[28, 0, 226]",226,a,0.24279035218933132,1,colour,0.5,3.7
87,20,0,1,12,9,559,826.1869091078115,826.9438761464407,"[7, 0, 247]",247,a,0.23367005860200152,1,colour,0.5,3.7
87,20,0,1,12,10,560,827.4526339047152,828.2638678126532,"[30, 0, 224]",224,a,0.2879578017600579,1,colour,0.5,3.7
87,20,0,1,12,11,561,828.78079945239,829.4958722962037,"[88, 0, 166]",166,l,0.19197160527983215,1,colour,0.5,3.7
87,20,0,1,12,12,562,830.0149307047541,830.8558117699286,"[12, 0, 242]",242,a,0.31748798670014367,1,colour,0.5,3.7
87,20,0,1,12,13,563,831.3744349785702,832.5678606635629,"[65, 0, 189]",189,a,0.6705146741151111,0,colour,0.5,3.7
87,20,0,1,12,14,564,833.0775668031856,833.8798383498215,"[62, 0, 192]",192,a,0.27908129889692646,0,colour,0.5,3.7
87,20,0,1,12,15,565,834.3900998124154,835.1358331794036,"[56, 0, 198]",198,a,0.22244229466014076,0,colour,0.5,3.7
87,20,0,1,12,16,566,835.6556308370491,836.3118571693631,"[55, 0, 199]",199,a,0.1329510138311889,0,colour,0.5,3.7
87,20,0,1,12,17,567,836.8280739784677,837.6318740417191,"[69, 0, 185]",185,a,0.2811320554028498,0,colour,0.5,3.7
87,20,0,1,12,18,568,838.1401174370258,838.967850344794,"[46, 0, 208]",208,a,0.31521510099992156,1,colour,0.5,3.7
87,20,0,1,12,19,569,839.4888303283515,840.2958540217369,"[21, 0, 233]",233,a,0.2841260732820956,1,colour,0.5,3.7
87,20,0,1,12,20,570,840.8169769714295,841.6318933401781,"[75, 0, 179]",179,l,0.29159575795347337,1,colour,0.5,3.7
87,20,0,1,12,21,571,842.1450602052792,842.9919052815967,"[83, 0, 171]",171,l,0.3236390747333644,1,colour,0.5,3.7
87,20,0,1,12,22,572,843.5044140298996,844.2558290203888,"[19, 0, 235]",235,a,0.22807862584886607,1,colour,0.5,3.7
87,20,0,1,12,23,573,844.7700549375877,846.3278221139044,"[78, 0, 176]",176,l,1.03466751317319,1,colour,0.5,3.7
87,20,0,1,12,24,574,846.848159734509,847.6958177091292,"[6, 0, 248]",248,a,0.3244259791827062,1,colour,0.5,3.7
87,20,0,1,12,25,575,848.2075198606763,849.0318467875768,"[32, 0, 222]",222,a,0.30047068545536604,1,colour,0.5,3.7
87,20,0,1,12,26,576,849.5525294173422,850.2238199682324,"[94, 0, 160]",160,l,0.14801720161631238,1,colour,0.5,3.7
87,20,0,1,12,27,577,850.7400399281178,852.4318159888062,"[74, 0, 180]",180,l,1.1687146006152034,1,colour,0.5,3.7
87,20,0,1,12,28,578,852.9431223250431,853.7358789443242,"[0, 0, 254]",254,a,0.26945924540632404,1,colour,0.5,3.7
87,20,0,1,12,29,579,854.2556049219711,855.0318188245001,"[90, 0, 164]",164,l,0.25294055326958187,1,colour,0.5,3.7
87,20,0,1,12,30,580,855.5525313865801,856.3518290014908,"[2, 0, 252]",252,a,0.2760467148764292,1,colour,0.5,3.7
87,20,0,1,12,31,581,856.8650762111793,857.6718695046147,"[81, 0, 173]",173,l,0.2836054087674711,1,colour,0.5,3.7
87,20,0,1,12,32,582,858.1930850081262,858.9678790955513,"[40, 0, 214]",214,a,0.25083190137229394,1,colour,0.5,3.7
87,20,0,1,12,33,583,859.4755998571054,860.2558754942293,"[53, 0, 201]",201,a,0.2569912601611577,0,colour,0.5,3.7
87,20,0,1,12,34,584,860.7724585801916,861.5758620404376,"[64, 0, 190]",190,a,0.2802108494215645,0,colour,0.5,3.7
87,20,0,1,12,35,585,862.084977410952,862.9358298711013,"[13, 0, 241]",241,a,0.32765433548775036,1,colour,0.5,3.7
87,20,0,1,12,36,586,863.4442879125127,864.2798433910502,"[47, 0, 207]",207,a,0.3123152123444015,1,colour,0.5,3.7
87,20,0,1,12,37,587,864.7880509463575,865.615851201801,"[22, 0, 232]",232,a,0.30479550920426846,1,colour,0.5,3.7
87,20,0,1,12,38,588,866.1318675432558,866.9278493680467,"[82, 0, 172]",172,l,0.2727833062817808,1,colour,0.5,3.7
87,20,0,1,12,39,589,867.4443769217178,868.2558392603823,"[29, 0, 225]",225,a,0.28830556783941574,1,colour,0.5,3.7
87,20,0,1,12,40,590,868.7724400694278,869.57583171429,"[41, 0, 213]",213,a,0.28060233242285904,1,colour,0.5,3.7
87,20,0,1,12,41,591,870.0849329063494,870.91182377121,"[1, 0, 253]",253,a,0.3034485556272557,1,colour,0.5,3.7
87,20,0,1,12,42,592,871.4287514724856,872.1998406498751,"[61, 0, 193]",193,a,0.24798163732339162,0,colour,0.5,3.7
87,20,0,1,12,43,593,872.7099544201919,873.4958427577367,"[5, 0, 249]",249,a,0.26261183751921635,1,colour,0.5,3.7
87,20,0,1,12,44,594,874.006837167879,874.9118284973665,"[59, 0, 195]",195,a,0.38172034329909366,0,colour,0.5,3.7
87,20,0,1,12,45,595,875.4287502909574,876.4638683640369,"[99, 0, 155]",155,l,0.512203123755171,1,colour,0.5,3.7
87,20,0,1,12,46,596,876.9755587002,877.8718483944685,"[16, 0, 238]",238,a,0.3730328865494812,1,colour,0.5,3.7
87,20,0,1,12,47,597,878.3818164417316,879.4078622704546,"[49, 0, 205]",205,a,0.5028146209806437,1,colour,0.5,3.7
87,20,0,1,12,48,598,879.928763090953,880.8398417053832,"[25, 0, 229]",229,a,0.3880947420402663,1,colour,0.5,3.7
87,20,0,1,12,49,599,881.350652583249,882.2958685940393,"[18, 0, 236]",236,a,0.4219958307367051,1,colour,0.5,3.7
87,20,0,1,12,50,600,882.8036858478881,883.5518453067198,"[86, 0, 168]",168,l,0.2227514638361754,1,colour,0.5,3.7
87,20,0,1,13,1,601,888.0549694907095,889.983901935484,"[81, 0, 173]",173,l,1.4048564372060355,1,colour,0.5,3.7
87,20,0,1,13,2,602,890.4932280136418,891.2638430003572,"[25, 0, 229]",229,a,0.24747869589191396,1,colour,0.5,3.7
87,20,0,1,13,3,603,891.7745306043944,892.5518134051817,"[65, 0, 189]",189,l,0.254026386901387,1,colour,0.5,3.7
87,20,0,1,13,4,604,893.0713625459466,893.8558046807011,"[84, 0, 170]",170,l,0.2599045395909343,1,colour,0.5,3.7
87,20,0,1,13,5,605,894.3694772441668,895.1758369130694,"[58, 0, 196]",196,a,0.28312097809975967,0,colour,0.5,3.7
87,20,0,1,13,6,606,895.6820067087683,896.4717736424791,"[39, 0, 215]",215,a,0.26657077827258036,1,colour,0.5,3.7
87,20,0,1,13,7,607,896.978826441089,897.7118444875086,"[88, 0, 166]",166,l,0.20996603864477947,1,colour,0.5,3.7
87,20,0,1,13,8,608,898.2288816780056,898.975786737079,"[20, 0, 234]",234,a,0.22387589438585564,1,colour,0.5,3.7
87,20,0,1,13,9,609,899.4944674472354,900.351822699944,"[34, 0, 220]",220,a,0.3341271957324352,1,colour,0.5,3.7
87,20,0,1,13,10,610,900.86954203184,901.6877875814826,"[13, 0, 241]",241,a,0.2950245819083648,1,colour,0.5,3.7
87,20,0,1,13,11,611,902.1975835180201,903.095884584196,"[29, 0, 225]",225,a,0.3756409352645278,1,colour,0.5,3.7
87,20,0,1,13,12,612,903.6038408657041,904.4558559594589,"[49, 0, 205]",205,a,0.32869842142099515,1,colour,0.5,3.7
87,20,0,1,13,13,613,904.9632596749288,905.8878708405391,"[74, 0, 180]",180,a,0.40146817940694746,0,colour,0.5,3.7
87,20,0,1,13,14,614,906.4007592564594,907.2238057897775,"[4, 0, 250]",250,a,0.29982083942741156,1,colour,0.5,3.7
87,20,0,1,13,15,615,907.7444261918718,908.5918258034508,"[46, 0, 208]",208,a,0.3241392592462944,1,colour,0.5,3.7
87,20,0,1,13,16,616,909.1040718564327,909.8399287453649,"[92, 0, 162]",162,l,0.21277219193871133,1,colour,0.5,3.7
87,20,0,1,13,17,617,910.3538947241614,911.1518028501014,"[80, 0, 174]",174,l,0.2750916381337447,1,colour,0.5,3.7
87,20,0,1,13,18,618,911.6663233641739,912.7838852364075,"[68, 0, 186]",186,a,0.594253076822497,0,colour,0.5,3.7
87,20,0,1,13,19,619,913.2912861949444,914.3278587415844,"[23, 0, 231]",231,a,0.5136544465349289,1,colour,0.5,3.7
87,20,0,1,13,20,620,914.8381903087866,915.5918710957485,"[5, 0, 249]",249,a,0.2303660838661017,1,colour,0.5,3.7
87,20,0,1,13,21,621,916.103882022624,916.8638757683366,"[43, 0, 211]",211,a,0.23672394106688444,1,colour,0.5,3.7
87,20,0,1,13,22,622,917.3850117149559,918.0958396857459,"[86, 0, 168]",168,l,0.1874415877100546,1,colour,0.5,3.7
87,20,0,1,13,23,623,918.6053855300124,919.1838477422571,"[37, 0, 217]",217,a,0.05516129375610035,1,colour,0.5,3.7
87,20,0,1,13,24,624,919.6991894253879,920.4158313519583,"[94, 0, 160]",160,l,0.19346191882505082,1,colour,0.5,3.7
87,20,0,1,13,25,625,920.9335305977002,921.5517791405728,"[22, 0, 232]",232,a,0.09497401207045186,1,colour,0.5,3.7
87,20,0,1,13,26,626,922.0585302530817,922.7838340364106,"[1, 0, 253]",253,a,0.20282954775029793,1,colour,0.5,3.7
87,20,0,1,13,27,627,923.2928879669344,923.9918592016038,"[83, 0, 171]",171,l,0.17572663616738282,1,colour,0.5,3.7
87,20,0,1,13,28,628,924.5116288961726,925.143903873206,"[95, 0, 159]",159,l,0.10919540004397277,1,colour,0.5,3.7
87,20,0,1,13,29,629,925.6521898038773,926.3358286107832,"[70, 0, 184]",184,a,0.1607191314251395,0,colour,0.5,3.7
87,20,0,1,13,30,630,926.8553340346407,927.5998382080288,"[24, 0, 230]",230,a,0.2211563872115221,1,colour,0.5,3.7
87,20,0,1,13,31,631,928.1209938469401,928.775877557986,"[67, 0, 187]",187,a,0.13044063893903513,0,colour,0.5,3.7
87,20,0,1,13,32,632,929.2943455912609,930.0478034613479,"[69, 0, 185]",185,a,0.23049762845039368,0,colour,0.5,3.7
87,20,0,1,13,33,633,930.559777760529,931.3197935616336,"[72, 0, 182]",182,a,0.2368566671939334,0,colour,0.5,3.7
87,20,0,1,13,34,634,931.8408897297923,932.5680713712063,"[7, 0, 247]",247,a,0.2039555536757689,1,colour,0.5,3.7
87,20,0,1,13,35,635,933.0752663482563,933.799858451719,"[36, 0, 218]",218,a,0.20126519113546237,1,colour,0.5,3.7
87,20,0,1,13,36,636,934.3096429667203,935.0238335953036,"[47, 0, 207]",207,a,0.1908152731921291,1,colour,0.5,3.7
87,20,0,1,13,37,637,935.5440570005594,936.2878821833147,"[96, 0, 158]",158,l,0.22058964271855075,1,colour,0.5,3.7
87,20,0,1,13,38,638,936.7940622190217,937.527795096059,"[51, 0, 203]",203,a,0.21056941083224956,0,colour,0.5,3.7
87,20,0,1,13,39,639,938.0440477451775,938.7598358134419,"[44, 0, 210]",210,a,0.19253716823004652,1,colour,0.5,3.7
87,20,0,1,13,40,640,939.2784074282536,940.1038166441722,"[78, 0, 176]",176,l,0.30229064816376194,1,colour,0.5,3.7
87,20,0,1,13,41,641,940.6221263513289,941.3518069460988,"[28, 0, 226]",226,a,0.20636904242564924,1,colour,0.5,3.7
87,20,0,1,13,42,642,941.8720921851927,942.6318263863504,"[48, 0, 206]",206,a,0.23643525190709624,1,colour,0.5,3.7
87,20,0,1,13,43,643,943.1534794528561,944.0158909014863,"[73, 0, 181]",181,a,0.33788685039326083,0,colour,0.5,3.7
87,20,0,1,13,44,644,944.5297493602993,945.2958772586571,"[6, 0, 248]",248,a,0.2429624629294267,1,colour,0.5,3.7
87,20,0,1,13,45,645,945.8109302526136,946.631811814048,"[93, 0, 161]",161,l,0.2975605567917228,1,colour,0.5,3.7
87,20,0,1,13,46,646,947.1391564525984,947.9198538988567,"[60, 0, 194]",194,a,0.2574646631401265,0,colour,0.5,3.7
87,20,0,1,13,47,647,948.4360368372145,949.2238183928421,"[76, 0, 178]",178,a,0.2645345940545667,0,colour,0.5,3.7
87,20,0,1,13,48,648,949.7328301818488,950.4398453287722,"[97, 0, 157]",157,l,0.1837437669018982,1,colour,0.5,3.7
87,20,0,1,13,49,649,950.9515793818427,951.7118322782917,"[15, 0, 239]",239,a,0.2370209010259714,1,colour,0.5,3.7
87,20,0,1,13,50,650,952.2328406187589,952.9998448246479,"[41, 0, 213]",213,a,0.24361230895738117,1,colour,0.5,3.7
87,20,0,1,14,1,651,957.5658063624287,958.9758375432139,"[57, 0, 197]",197,a,0.8859709270618623,0,colour,0.5,3.7
87,20,0,1,14,2,652,959.4884502668865,960.2959123109613,"[11, 0, 243]",243,a,0.2841339502047049,1,colour,0.5,3.7
87,20,0,1,14,3,653,960.8165862761234,961.5998425403377,"[21, 0, 233]",233,a,0.2598844534368254,1,colour,0.5,3.7
87,20,0,1,14,4,654,962.1134737499669,962.8879157389892,"[70, 0, 184]",184,a,0.2511615505354712,0,colour,0.5,3.7
87,20,0,1,14,5,655,963.3946991468838,964.1438424332155,"[49, 0, 205]",205,a,0.22623582006781362,1,colour,0.5,3.7
87,20,0,1,14,6,656,964.6603475376469,965.311893797043,"[18, 0, 236]",236,a,0.12830284242227208,1,colour,0.5,3.7
87,20,0,1,14,7,657,965.8322515038017,966.6638129892817,"[62, 0, 192]",192,a,0.3083330346707953,0,colour,0.5,3.7
87,20,0,1,14,8,658,967.1759377376584,967.9118537035101,"[81, 0, 173]",173,l,0.2126221365906531,1,colour,0.5,3.7
87,20,0,1,14,9,659,968.4259016022843,969.2078061867651,"[9, 0, 245]",245,a,0.25857885369623546,1,colour,0.5,3.7
87,20,0,1,14,10,660,969.7227819869004,970.535826799096,"[66, 0, 188]",188,a,0.2897781583160395,0,colour,0.5,3.7
87,20,0,1,14,11,661,971.0510215776449,971.7598740165122,"[93, 0, 161]",161,l,0.18561689883063082,1,colour,0.5,3.7
87,20,0,1,14,12,662,972.2696451407392,973.071918656613,"[96, 0, 158]",158,l,0.2790647573565366,1,colour,0.5,3.7
87,20,0,1,14,13,663,973.5821111961413,974.3597870553058,"[86, 0, 168]",168,l,0.25440841758972965,1,colour,0.5,3.7
87,20,0,1,14,14,664,974.879001820751,975.879821020586,"[34, 0, 220]",220,a,0.47762304441130254,1,colour,0.5,3.7
87,20,0,1,14,15,665,976.3946680330555,979.063828270504,"[14, 0, 240]",240,a,2.146032217395259,1,colour,0.5,3.7
87,20,0,1,14,16,666,979.5709015491157,980.3999243027793,"[2, 0, 252]",252,a,0.3057576751743909,1,colour,0.5,3.7
87,20,0,1,14,17,667,980.9146456783492,981.6078175295406,"[26, 0, 228]",228,a,0.1699158311530482,1,colour,0.5,3.7
87,20,0,1,14,18,668,982.1178249614168,982.8638706483471,"[88, 0, 166]",166,l,0.22291097149718553,1,colour,0.5,3.7
87,20,0,1,14,19,669,983.3834276660345,984.1677949700388,"[64, 0, 190]",190,a,0.26103842245356645,0,colour,0.5,3.7
87,20,0,1,14,20,670,984.6802131337463,985.4637939271342,"[54, 0, 200]",200,a,0.2602231610653689,0,colour,0.5,3.7
87,20,0,1,14,21,671,985.9770883983583,986.7438763827377,"[37, 0, 217]",217,a,0.2435114843538031,1,colour,0.5,3.7
87,20,0,1,14,22,672,987.2584374629514,988.023857619919,"[20, 0, 234]",234,a,0.2422070661559701,1,colour,0.5,3.7
87,20,0,1,14,23,673,988.5395978752786,989.3358427892526,"[52, 0, 202]",202,a,0.2729124877951108,0,colour,0.5,3.7
87,20,0,1,14,24,674,989.8518859122414,990.5118191238289,"[24, 0, 230]",230,a,0.13644442851364147,1,colour,0.5,3.7
87,20,0,1,14,25,675,991.0239856198896,991.791819265607,"[42, 0, 212]",212,a,0.2445425733749289,1,colour,0.5,3.7
87,20,0,1,14,26,676,992.3051393368369,993.0398402875435,"[83, 0, 171]",171,l,0.2113744322268758,1,colour,0.5,3.7
87,20,0,1,14,27,677,993.5574268933124,994.4157911796647,"[6, 0, 248]",248,a,0.33520790937473066,1,colour,0.5,3.7
87,20,0,1,14,28,678,994.9323967148521,995.6798689122661,"[90, 0, 164]",164,l,0.2243059742904734,1,colour,0.5,3.7
87,20,0,1,14,29,679,996.1980167486909,996.9678070217196,"[0, 0, 254]",254,a,0.24722702823055442,1,colour,0.5,3.7
87,20,0,1,14,30,680,997.4791980348673,998.2397841250931,"[75, 0, 179]",179,l,0.23744152863218915,1,colour,0.5,3.7
87,20,0,1,14,31,681,998.760462028702,999.5277990345203,"[48, 0, 206]",206,a,0.2440786226943601,1,colour,0.5,3.7
87,20,0,1,14,32,682,1000.0417094810109,1000.7198049044091,"[27, 0, 227]",227,a,0.15489690488902852,1,colour,0.5,3.7
87,20,0,1,14,33,683,1001.229555942482,1001.9677826032712,"[82, 0, 172]",172,l,0.21586742826912086,1,colour,0.5,3.7
87,20,0,1,14,34,684,1002.4791117825807,1004.3758169844514,"[72, 0, 182]",182,a,1.373622474115109,0,colour,0.5,3.7
87,20,0,1,14,35,685,1004.8867751607613,1005.6878391753125,"[44, 0, 210]",210,a,0.2779533237189753,1,colour,0.5,3.7
87,20,0,1,14,36,686,1006.1991663853987,1006.9598277002224,"[80, 0, 174]",174,l,0.23801142390584573,1,colour,0.5,3.7
87,20,0,1,14,37,687,1007.4804154130834,1008.2638504834322,"[5, 0, 249]",249,a,0.26020465030160267,1,colour,0.5,3.7
87,20,0,1,14,38,688,1008.7772209669492,1009.5038606761664,"[19, 0, 235]",235,a,0.20327577536227182,1,colour,0.5,3.7
87,20,0,1,14,39,689,1010.0116562684707,1010.7438208504464,"[98, 0, 156]",156,l,0.20896882038505282,1,colour,0.5,3.7
87,20,0,1,14,40,690,1011.2616536100104,1012.0478471782699,"[55, 0, 199]",199,a,0.26310060049581807,0,colour,0.5,3.7
87,20,0,1,14,41,691,1012.5585891330702,1013.4558197256265,"[77, 0, 177]",177,a,0.37402065251080785,0,colour,0.5,3.7
87,20,0,1,14,42,692,1013.9647346284764,1014.7358458612434,"[87, 0, 167]",167,l,0.24787726810609456,1,colour,0.5,3.7
87,20,0,1,14,43,693,1015.245916702348,1016.5597958774597,"[84, 0, 170]",170,l,0.7909665888582822,1,colour,0.5,3.7
87,20,0,1,14,44,694,1017.0741844530858,1017.8958320451347,"[8, 0, 246]",246,a,0.2983533689402975,1,colour,0.5,3.7
87,20,0,1,14,45,695,1018.4021243269672,1019.1757849253772,"[45, 0, 209]",209,a,0.2502218337904196,1,colour,0.5,3.7
87,20,0,1,14,46,696,1019.6834899331006,1020.4878386239288,"[71, 0, 183]",183,a,0.2809843631257536,0,colour,0.5,3.7
87,20,0,1,14,47,697,1020.9960233361635,1021.7038041198684,"[29, 0, 225]",225,a,0.18461889287573285,1,colour,0.5,3.7
87,20,0,1,14,48,698,1022.2146898284846,1023.0078225707693,"[41, 0, 213]",213,a,0.26989286992466077,1,colour,0.5,3.7
87,20,0,1,14,49,699,1023.5294898157299,1024.3118075447564,"[43, 0, 211]",211,a,0.2595839488931233,1,colour,0.5,3.7
87,20,0,1,14,50,700,1024.8262733142037,1025.5278671698907,"[60, 0, 194]",194,a,0.17835831563570537,0,colour,0.5,3.7
87,20,0,1,15,1,701,1029.6380125266733,1030.2717994787818,"[4, 0, 250]",250,a,0.10984563990496099,1,colour,0.5,3.7
87,20,0,1,15,2,702,1030.7793835757475,1031.5438163606013,"[15, 0, 239]",239,a,0.24124253711488564,1,colour,0.5,3.7
87,20,0,1,15,3,703,1032.0606459942064,1032.7998249748052,"[29, 0, 225]",225,a,0.21596273900649976,1,colour,0.5,3.7
87,20,0,1,15,4,704,1033.310586621912,1034.1198233363975,"[75, 0, 179]",179,l,0.28584875601518434,1,colour,0.5,3.7
87,20,0,1,15,5,705,1034.6387163296022,1035.3759532551921,"[2, 0, 252]",252,a,0.21437711470935028,1,colour,0.5,3.7
87,20,0,1,15,6,706,1035.888771172671,1036.6557785293262,"[43, 0, 211]",211,a,0.24378638892085291,1,colour,0.5,3.7
87,20,0,1,15,7,707,1037.1699910557509,1037.9837782678078,"[11, 0, 243]",243,a,0.29051937663462013,1,colour,0.5,3.7
87,20,0,1,15,8,708,1038.4972637543833,1039.3199581892986,"[3, 0, 251]",251,a,0.2993600395129761,1,colour,0.5,3.7
87,20,0,1,15,9,709,1039.8410326959129,1040.5997992172634,"[51, 0, 203]",203,a,0.23551286438305397,0,colour,0.5,3.7
87,20,0,1,15,10,710,1041.1066992036067,1041.8638198421977,"[22, 0, 232]",232,a,0.23391188008827157,1,colour,0.5,3.7
87,20,0,1,15,11,711,1042.3721979328548,1043.1118168395187,"[16, 0, 238]",238,a,0.21628017895272933,1,colour,0.5,3.7
87,20,0,1,15,12,712,1043.6222622282367,1044.327828021589,"[7, 0, 247]",247,a,0.18228062870912254,1,colour,0.5,3.7
87,20,0,1,15,13,713,1044.8409901605482,1045.543869135974,"[84, 0, 170]",170,l,0.17952803849766497,1,colour,0.5,3.7
87,20,0,1,15,14,714,1046.0597141543985,1046.783794651812,"[5, 0, 249]",249,a,0.2008516527566826,1,colour,0.5,3.7
87,20,0,1,15,15,715,1047.294090772848,1048.1118341687397,"[87, 0, 167]",167,l,0.2944542927725706,1,colour,0.5,3.7
87,20,0,1,15,16,716,1048.6243188924418,1049.4318081118836,"[94, 0, 160]",160,l,0.2841886948008323,1,colour,0.5,3.7
87,20,0,1,15,17,717,1049.9525549385726,1051.2718337433907,"[78, 0, 176]",176,l,0.7960633509210311,1,colour,0.5,3.7
87,20,0,1,15,18,718,1051.7804686216987,1052.76784821802,"[85, 0, 169]",169,l,0.4640782839996973,1,colour,0.5,3.7
87,20,0,1,15,19,719,1053.280523957059,1054.1598341592908,"[99, 0, 155]",155,l,0.35610892678960226,1,colour,0.5,3.7
87,20,0,1,15,20,720,1054.6710349447821,1055.5278073052905,"[97, 0, 157]",157,l,0.33341984818980563,1,colour,0.5,3.7
87,20,0,1,15,21,721,1056.0461831785942,1056.8638202360453,"[80, 0, 174]",174,l,0.29457205276412424,1,colour,0.5,3.7
87,20,0,1,15,22,722,1057.374193944779,1058.1598140731367,"[60, 0, 194]",194,a,0.26227667450439185,0,colour,0.5,3.7
87,20,0,1,15,23,723,1058.6710940216872,1059.455817362541,"[56, 0, 198]",198,a,0.2613980039022863,0,colour,0.5,3.7
87,20,0,1,15,24,724,1059.9679858278396,1060.743841330448,"[0, 0, 254]",254,a,0.25259278719022404,1,colour,0.5,3.7
87,20,0,1,15,25,725,1061.2649221385946,1062.1038225518569,"[81, 0, 173]",173,l,0.3157601839629933,1,colour,0.5,3.7
87,20,0,1,15,26,726,1062.624190104776,1063.4158364719624,"[40, 0, 214]",214,a,0.26840137483668514,1,colour,0.5,3.7
87,20,0,1,15,27,727,1063.9257048761647,1064.6878935260756,"[36, 0, 218]",218,a,0.23885622373200022,1,colour,0.5,3.7
87,20,0,1,15,28,728,1065.2069310607912,1065.9917953985423,"[14, 0, 240]",240,a,0.2621258314611623,1,colour,0.5,3.7
87,20,0,1,15,29,729,1066.503822473096,1067.3278240831423,"[50, 0, 204]",204,a,0.30067666695686057,1,colour,0.5,3.7
87,20,0,1,15,30,730,1067.8474854700326,1068.623826191004,"[42, 0, 212]",212,a,0.2530142024916131,1,colour,0.5,3.7
87,20,0,1,15,31,731,1069.144448168474,1069.9198129388678,"[48, 0, 206]",206,a,0.25224974725279026,1,colour,0.5,3.7
87,20,0,1,15,32,732,1070.4413423376973,1071.223800275926,"[49, 0, 205]",205,a,0.25953117350582033,1,colour,0.5,3.7
87,20,0,1,15,33,733,1071.7382235100085,1072.5758151727641,"[33, 0, 221]",221,a,0.31443055962154176,1,colour,0.5,3.7
87,20,0,1,15,34,734,1073.081898322329,1073.8638005437388,"[19, 0, 235]",235,a,0.25923893971776124,1,colour,0.5,3.7
87,20,0,1,15,35,735,1074.3788362084742,1075.191840060681,"[63, 0, 191]",191,a,0.28995184443192557,0,colour,0.5,3.7
87,20,0,1,15,36,736,1075.7068765131116,1076.5597962713073,"[66, 0, 188]",188,a,0.32963419970474206,0,colour,0.5,3.7
87,20,0,1,15,37,737,1077.0663520361704,1077.895800931292,"[55, 0, 199]",199,a,0.30621335508476477,0,colour,0.5,3.7
87,20,0,1,15,38,738,1078.4100327561755,1079.2477847142873,"[79, 0, 175]",175,l,0.3143994457786903,1,colour,0.5,3.7
87,20,0,1,15,39,739,1079.7538040607906,1080.6877879753301,"[30, 0, 224]",224,a,0.41083856525074225,1,colour,0.5,3.7
87,20,0,1,15,40,740,1081.2069109746371,1082.0237772753171,"[28, 0, 226]",226,a,0.29427627436234616,1,colour,0.5,3.7
87,20,0,1,15,41,741,1082.5350288669433,1083.3199038385355,"[89, 0, 165]",165,l,0.2616662130749319,1,colour,0.5,3.7
87,20,0,1,15,42,742,1083.8331203282432,1084.599824817269,"[98, 0, 156]",156,l,0.24342365669144783,1,colour,0.5,3.7
87,20,0,1,15,43,743,1085.1143910174724,1086.4398303626222,"[71, 0, 183]",183,l,0.8025795342691708,1,colour,0.5,3.7
87,20,0,1,15,44,744,1086.9580904451723,1088.0398438321572,"[20, 0, 234]",234,a,0.5584953977086116,1,colour,0.5,3.7
87,20,0,1,15,45,745,1088.5517692944268,1089.3677994598838,"[25, 0, 229]",229,a,0.2926808039046591,1,colour,0.5,3.7
87,20,0,1,15,46,746,1089.8799502020993,1090.7037489814102,"[90, 0, 164]",164,l,0.3004431162116816,1,colour,0.5,3.7
87,20,0,1,15,47,747,1091.223717568253,1092.1117687903024,"[83, 0, 171]",171,l,0.36474990971328225,1,colour,0.5,3.7
87,20,0,1,15,48,748,1092.6299583744112,1093.4157872412034,"[38, 0, 216]",216,a,0.2626252282934729,1,colour,0.5,3.7
87,20,0,1,15,49,749,1093.9269025620888,1094.927835977287,"[72, 0, 182]",182,a,0.47777506899728905,0,colour,0.5,3.7
87,20,0,1,15,50,750,1095.4424415621033,1096.175797922304,"[58, 0, 196]",196,a,0.21005347248865291,0,colour,0.5,3.7
87,20,0,1,16,1,751,1100.769838322245,1101.5118010069127,"[61, 0, 193]",193,a,0.21792803093558177,0,colour,0.5,3.6
87,20,0,1,16,2,752,1102.0206068144034,1102.8157686516643,"[21, 0, 233]",233,a,0.2719475649064407,1,colour,0.5,3.6
87,20,0,1,16,3,753,1103.3330350605684,1104.0238509245391,"[27, 0, 227]",227,a,0.16680720407748595,1,colour,0.5,3.6
87,20,0,1,16,4,754,1104.5373419249518,1105.2797780125984,"[75, 0, 179]",179,l,0.2190930276265135,1,colour,0.5,3.6
87,20,0,1,16,5,755,1105.7874507249362,1106.9038168804836,"[53, 0, 201]",201,a,0.5931570031971205,0,colour,0.5,3.6
87,20,0,1,16,6,756,1107.4124407310883,1108.1357863117155,"[81, 0, 173]",173,l,0.20022464980138466,1,colour,0.5,3.6
87,20,0,1,16,7,757,1108.6467811157054,1109.4398268180084,"[76, 0, 178]",178,l,0.26982709763979074,1,colour,0.5,3.6
87,20,0,1,16,8,758,1109.9593271218619,1110.6078053203091,"[18, 0, 236]",236,a,0.12560066449805163,1,colour,0.5,3.6
87,20,0,1,16,9,759,1111.1155375033995,1111.8878023113211,"[85, 0, 169]",169,l,0.2489347448281478,1,colour,0.5,3.6
87,20,0,1,16,10,760,1112.3967695957108,1113.5918084742298,"[54, 0, 200]",200,a,0.6717355969594792,0,colour,0.5,3.6
87,20,0,1,16,11,761,1114.1011818139232,1115.0157755045802,"[57, 0, 197]",197,a,0.3913833567639813,0,colour,0.5,3.6
87,20,0,1,16,12,762,1115.523024044698,1116.319751026269,"[29, 0, 225]",225,a,0.2734024323144695,1,colour,0.5,3.6
87,20,0,1,16,13,763,1116.83541290625,1117.6158240264194,"[14, 0, 240]",240,a,0.25704758014762774,1,colour,0.5,3.6
87,20,0,1,16,14,764,1118.1323602447083,1118.9277871403756,"[65, 0, 189]",189,a,0.2720814725762466,0,colour,0.5,3.6
87,20,0,1,16,15,765,1119.4448306324048,1120.2237758574774,"[34, 0, 220]",220,a,0.2558207496331306,1,colour,0.5,3.6
87,20,0,1,16,16,766,1120.7417137739394,1121.5278041545243,"[52, 0, 202]",202,a,0.26273747441882733,0,colour,0.5,3.6
87,20,0,1,16,17,767,1122.038653629308,1123.6638295308076,"[73, 0, 181]",181,a,1.1017832168727182,0,colour,0.5,3.6
87,20,0,1,16,18,768,1124.1805768505874,1124.9678105663334,"[1, 0, 253]",253,a,0.2640926987514831,1,colour,0.5,3.6
87,20,0,1,16,19,769,1125.477339081379,1126.2637874680513,"[10, 0, 244]",244,a,0.26310926511359867,1,colour,0.5,3.6
87,20,0,1,16,20,770,1126.774291145979,1127.4798136162863,"[83, 0, 171]",171,l,0.1822380933444947,1,colour,0.5,3.6
87,20,0,1,16,21,771,1127.992954093701,1128.7437566535373,"[9, 0, 245]",245,a,0.227462256749277,1,colour,0.5,3.6
87,20,0,1,16,22,772,1129.2586202075327,1130.015793621511,"[5, 0, 249]",249,a,0.23391542471654247,1,colour,0.5,3.6
87,20,0,1,16,23,773,1130.5243079829088,1131.28774906334,"[70, 0, 184]",184,l,0.240379226510413,1,colour,0.5,3.6
87,20,0,1,16,24,774,1131.8054656383028,1132.5357846575644,"[8, 0, 246]",246,a,0.20736704839509912,1,colour,0.5,3.6
87,20,0,1,16,25,775,1133.0555074844597,1133.7837469964288,"[23, 0, 231]",231,a,0.20494528887502383,1,colour,0.5,3.6
87,20,0,1,16,26,776,1134.2897844598629,1135.015751873827,"[91, 0, 163]",163,l,0.2026176585641224,1,colour,0.5,3.6
87,20,0,1,16,27,777,1135.524232758311,1136.2477500558307,"[2, 0, 252]",252,a,0.20033768363646232,1,colour,0.5,3.6
87,20,0,1,16,28,778,1136.7585727490805,1137.5517846544099,"[98, 0, 156]",156,l,0.2698487591551384,1,colour,0.5,3.6
87,20,0,1,16,29,779,1138.0711404167523,1138.8079039393633,"[80, 0, 174]",174,l,0.21354531179531477,1,colour,0.5,3.6
87,20,0,1,16,30,780,1139.3211893521366,1140.271810900318,"[71, 0, 183]",183,a,0.4274234235199401,0,colour,0.5,3.6
87,20,0,1,16,31,781,1140.7898740598466,1141.591795477303,"[87, 0, 167]",167,l,0.27859765590983443,1,colour,0.5,3.6
87,20,0,1,16,32,782,1142.1022727675445,1142.8558298868447,"[69, 0, 185]",185,a,0.23008724083774723,0,colour,0.5,3.6
87,20,0,1,16,33,783,1143.3680219829112,1144.231805197429,"[48, 0, 206]",206,a,0.33913613013282884,1,colour,0.5,3.6
87,20,0,1,16,34,784,1144.7442221795936,1145.551768112884,"[47, 0, 207]",207,a,0.284235956336488,1,colour,0.5,3.6
87,20,0,1,16,35,785,1146.0724097826605,1146.8477686453552,"[90, 0, 164]",164,l,0.2521170211111894,1,colour,0.5,3.6
87,20,0,1,16,36,786,1147.3692535395967,1148.1517654347263,"[30, 0, 224]",224,a,0.25923815202258993,1,colour,0.5,3.6
87,20,0,1,16,37,787,1148.6660772103787,1149.4318325303466,"[84, 0, 170]",170,l,0.2427423029730562,1,colour,0.5,3.6
87,20,0,1,16,38,788,1149.947364047286,1150.7278110074403,"[25, 0, 229]",229,a,0.2572291431861231,1,colour,0.5,3.6
87,20,0,1,16,39,789,1151.244152665764,1152.079800698135,"[68, 0, 186]",186,a,0.3126582522818353,0,colour,0.5,3.6
87,20,0,1,16,40,790,1152.5879952565156,1153.2638032218965,"[89, 0, 165]",165,l,0.15258424072817434,1,colour,0.5,3.6
87,20,0,1,16,41,791,1153.7768507516303,1154.5357909591112,"[59, 0, 195]",195,a,0.2356861566659063,0,colour,0.5,3.6
87,20,0,1,16,42,792,1155.0424333701085,1155.743740899692,"[6, 0, 248]",248,a,0.17800897418055683,1,colour,0.5,3.6
87,20,0,1,16,43,793,1156.2611632716435,1157.0237969676236,"[97, 0, 157]",157,l,0.23939933747169562,1,colour,0.5,3.6
87,20,0,1,16,44,794,1157.5423803978047,1158.2559385095956,"[20, 0, 234]",234,a,0.19050964862981346,1,colour,0.5,3.6
87,20,0,1,16,45,795,1158.776814517798,1159.5037519746402,"[19, 0, 235]",235,a,0.20370073526282795,1,colour,0.5,3.6
87,20,0,1,16,46,796,1160.0111631731852,1160.8158107931959,"[46, 0, 208]",208,a,0.2814502830442507,1,colour,0.5,3.6
87,20,0,1,16,47,797,1161.3236969700956,1162.1357485024928,"[17, 0, 237]",237,a,0.288814810817712,1,colour,0.5,3.6
87,20,0,1,16,48,798,1162.6517345178145,1163.399788425886,"[15, 0, 239]",239,a,0.2247655926621519,1,colour,0.5,3.6
87,20,0,1,16,49,799,1163.9186152529437,1164.711782653685,"[4, 0, 250]",250,a,0.26987160224234685,1,colour,0.5,3.6
87,20,0,1,16,50,800,1165.2310848529596,1165.9678810647893,"[45, 0, 209]",209,a,0.21380879482603632,1,colour,0.5,3.6
