id,age,condition,counterbalance,block,trialinblock,trial,tstart,tend,trialstim,trialintensity,response,RT,accuracy,trialtype,colourfreq,credits
35,21,1,2,Practice,1,NA,6.301503162831068e-06,0.88028446646058,"[16, 0, 238]",238,a,0.35599347634706646,1,colour,0.5,4
35,21,1,2,Practice,2,NA,1.3915502099262085,2.1923665721551515,"[38, 0, 216]",216,a,0.27775495665264316,1,colour,0.5,4
35,21,1,2,Practice,3,NA,2.704042702273,4.872227182466304,"[25, 0, 229]",229,a,1.644813906197669,1,colour,0.5,4
35,21,1,2,Practice,4,NA,5.393107473646523,6.88028446646058,"[56, 0, 198]",198,a,0.9639450522954576,0,colour,0.5,4
35,21,1,2,Practice,5,NA,7.393693121382967,8.640310286951717,"[32, 0, 222]",222,a,0.723748350283131,1,colour,0.5,4
35,21,1,2,Practice,6,NA,9.159677031217143,10.3522677012661,"[93, 0, 161]",161,l,0.6693504587747157,1,colour,0.5,4
35,21,1,2,Practice,7,NA,10.86298048615572,11.53628042404307,"[67, 0, 187]",187,a,0.14998489603749476,0,colour,0.5,4
35,21,1,2,Practice,8,NA,12.050506701460108,12.60829107047175,"[98, 0, 156]",156,l,0.03483717850758694,1,colour,0.5,4
35,21,1,2,Practice,9,NA,13.128675116749946,14.560234873497393,"[34, 0, 220]",220,a,0.9088445410598069,1,colour,0.5,4
35,21,1,2,Practice,10,NA,15.066408986895112,15.696319792798022,"[65, 0, 189]",189,a,0.10661821320536546,0,colour,0.5,4
35,21,1,2,1,1,1,4.513316495140316,6.3679482518928126,"[29, 0, 225]",225,a,1.3306385135801975,1,colour,0.5,4.0
35,21,1,2,1,2,2,6.889305095683085,7.44793583790306,"[90, 0, 164]",164,l,0.03528694968554191,1,colour,0.5,4.0
35,21,1,2,1,3,3,7.9675168339163065,9.83194903327967,"[44, 0, 210]",210,a,1.3409123580495361,1,colour,0.5,4.0
35,21,1,2,1,4,4,10.342683479655534,11.535918086505262,"[98, 0, 156]",156,l,0.6698628512967844,1,colour,0.5,4.0
35,21,1,2,1,5,5,12.045938885450596,12.599923830333864,"[64, 0, 190]",190,a,0.029685684014111757,0,colour,0.5,4.0
35,21,1,2,1,6,6,13.109564568731003,13.751939391950145,"[34, 0, 220]",220,a,0.11894320321152918,1,colour,0.5,4.0
35,21,1,2,1,7,7,14.265901399281574,14.89596186633571,"[5, 0, 249]",249,a,0.10681434810976498,1,colour,0.5,4.0
35,21,1,2,1,8,8,15.40847924965783,16.98391339502996,"[36, 0, 218]",218,a,1.0521411588415504,1,colour,0.5,4.0
35,21,1,2,1,9,9,17.50234436322353,18.10389950015815,"[46, 0, 208]",208,a,0.07825860581942834,1,colour,0.5,4.0
35,21,1,2,1,10,10,18.611827406013617,19.143865330144763,"[2, 0, 252]",252,a,0.008947374008130282,1,colour,0.5,4.0
35,21,1,2,1,11,11,19.658776898140786,20.74388525870745,"[69, 0, 185]",185,l,0.5618488508916926,1,colour,0.5,4.0
35,21,1,2,1,12,12,21.25261700252304,21.84791000164114,"[94, 0, 160]",160,l,0.0707318312197458,1,colour,0.5,4.0
35,21,1,2,1,13,13,22.363333568326198,27.623914907395374,"[60, 0, 194]",194,a,4.737690074602142,0,colour,0.5,4.0
35,21,1,2,1,14,14,28.130816452787258,30.63191390229622,"[66, 0, 188]",188,a,1.977912376547465,0,colour,0.5,4.0
35,21,1,2,1,15,15,31.142480570619227,31.767914932599524,"[8, 0, 246]",246,a,0.10211813860223629,1,colour,0.5,4.0
35,21,1,2,1,16,16,32.2727354002418,32.91991395270452,"[93, 0, 161]",161,l,0.1238757198152598,1,colour,0.5,4.0
35,21,1,2,1,17,17,33.431152914708946,34.263846315298,"[79, 0, 175]",175,l,0.3093756018206477,1,colour,0.5,4.0
35,21,1,2,1,18,18,34.7783140198153,35.48786149566877,"[96, 0, 158]",158,l,0.18624464320600964,1,colour,0.5,4.0
35,21,1,2,1,19,19,35.99722339172149,36.55998714489397,"[21, 0, 233]",233,a,0.03951487730955705,1,colour,0.5,4.0
35,21,1,2,1,20,20,37.07540125926607,37.86386112388573,"[76, 0, 178]",178,a,0.27028174500446767,0,colour,0.5,4.0
35,21,1,2,1,21,21,38.38261189433979,38.92782630168949,"[97, 0, 157]",157,l,0.02180602418957278,1,colour,0.5,4.0
35,21,1,2,1,22,22,39.4358081643295,40.135832858417416,"[49, 0, 205]",205,a,0.16887607230455615,1,colour,0.5,4.0
35,21,1,2,1,23,23,40.64676895350567,41.55185227340553,"[70, 0, 184]",184,a,0.3820565727073699,0,colour,0.5,4.0
35,21,1,2,1,24,24,42.06873661171994,43.111890224332456,"[18, 0, 236]",236,a,0.5177216531010345,1,colour,0.5,4.0
35,21,1,2,1,25,25,43.633449504501186,44.25589379412122,"[40, 0, 214]",214,a,0.10405940128839575,1,colour,0.5,4.0
35,21,1,2,1,26,26,44.76919414161239,45.711822719255,"[13, 0, 241]",241,a,0.41182457032846287,1,colour,0.5,4.0
35,21,1,2,1,27,27,46.23149508735514,47.10384711876395,"[42, 0, 212]",212,a,0.349205161415739,1,colour,0.5,4.0
35,21,1,2,1,28,28,47.615890706394566,48.719803991145454,"[50, 0, 204]",204,a,0.5806498366291635,1,colour,0.5,4.0
35,21,1,2,1,29,29,49.23067746483139,50.23184324646718,"[11, 0, 243]",243,a,0.4778657058777753,1,colour,0.5,4.0
35,21,1,2,1,30,30,50.746476759784855,51.67982713348465,"[78, 0, 176]",176,l,0.4100455718289595,1,colour,0.5,4.0
35,21,1,2,1,31,31,52.19974959324463,53.48782762500923,"[92, 0, 162]",162,l,0.7692449476744514,1,colour,0.5,4.0
35,21,1,2,1,32,32,54.007796952326316,55.07184838221292,"[4, 0, 250]",250,a,0.5513008902198635,1,colour,0.5,4.0
35,21,1,2,1,33,33,55.591181649651844,56.76783852663357,"[54, 0, 200]",200,a,0.6535643576353323,0,colour,0.5,4.0
35,21,1,2,1,34,34,57.278788012452424,58.33595384765067,"[41, 0, 213]",213,a,0.5341906817047857,1,colour,0.5,4.0
35,21,1,2,1,35,35,58.85835950105684,60.31182216788875,"[6, 0, 248]",248,a,0.9302169417205732,1,colour,0.5,4.0
35,21,1,2,1,36,36,60.82718429469969,61.759762338071596,"[95, 0, 159]",159,l,0.4092326754471287,1,colour,0.5,4.0
35,21,1,2,1,37,37,62.280526838760125,63.33578410037444,"[12, 0, 242]",242,a,0.531924102891935,1,colour,0.5,4.0
35,21,1,2,1,38,38,63.84316495532403,64.95974705688423,"[71, 0, 183]",183,a,0.5933568563777953,0,colour,0.5,4.0
35,21,1,2,1,39,39,65.46818026606343,66.72773682005936,"[63, 0, 191]",191,a,0.7362029153155163,0,colour,0.5,4.0
35,21,1,2,1,40,40,67.23395031801192,68.39977921039099,"[59, 0, 195]",195,a,0.6428123851655982,0,colour,0.5,4.0
35,21,1,2,1,41,41,68.90599349603872,70.0638163043186,"[56, 0, 198]",198,a,0.6342104133509565,0,colour,0.5,4.0
35,21,1,2,1,42,42,70.57833560253493,71.69579991721548,"[33, 0, 221]",221,a,0.5944470197719056,1,colour,0.5,4.0
35,21,1,2,1,43,43,72.20353917122702,73.06374738141312,"[85, 0, 169]",169,l,0.3353622922440991,1,colour,0.5,4.0
35,21,1,2,1,44,44,73.58017722243676,74.89580314673367,"[45, 0, 209]",209,a,0.792369959235657,1,colour,0.5,4.0
35,21,1,2,1,45,45,75.40837842531619,76.77574575561448,"[30, 0, 224]",224,a,0.8441156975168269,1,colour,0.5,4.0
35,21,1,2,1,46,46,77.28359528628062,78.30377473001136,"[80, 0, 174]",174,l,0.4974067266448401,1,colour,0.5,4.0
35,21,1,2,1,47,47,78.81630944253993,79.87981854766258,"[1, 0, 253]",253,a,0.5402858291927259,1,colour,0.5,4.0
35,21,1,2,1,48,48,80.39454343303805,81.63188239466399,"[20, 0, 234]",234,a,0.7141042641887907,1,colour,0.5,4.0
35,21,1,2,1,49,49,82.14470579568297,83.4477479737543,"[72, 0, 182]",182,l,0.7797566746012308,1,colour,0.5,4.0
35,21,1,2,1,50,50,83.95730049084523,85.57578821212519,"[22, 0, 232]",232,a,1.0951482610253152,1,colour,0.5,4.0
35,21,1,2,2,1,51,93.77408727371949,95.39169160032179,"[29, 0, 225]",225,a,1.093525619013235,1,colour,0.5,4.0
35,21,1,2,2,2,52,95.9032881737221,97.15170796852908,"[79, 0, 175]",175,l,0.7250964822014794,1,colour,0.5,4.0
35,21,1,2,2,3,53,97.66902514267713,101.80772243684623,"[19, 0, 235]",235,a,3.615310966357356,1,colour,0.5,4.0
35,21,1,2,2,4,54,102.32695566760958,103.35173364725779,"[38, 0, 216]",216,a,0.5014649070217274,1,colour,0.5,4.0
35,21,1,2,2,5,55,103.85824134750874,104.71165415353607,"[92, 0, 162]",162,l,0.32996267528505996,1,colour,0.5,4.0
35,21,1,2,2,6,56,105.21774949794053,106.42372853987035,"[24, 0, 230]",230,a,0.6826096494623926,1,colour,0.5,4.0
35,21,1,2,2,7,57,106.93668387900107,108.39170420338633,"[53, 0, 201]",201,a,0.9317048886732664,0,colour,0.5,4.0
35,21,1,2,2,8,58,108.90559846934048,109.95176263424219,"[80, 0, 174]",174,l,0.5229605812055524,1,colour,0.5,4.0
35,21,1,2,2,9,59,110.47533446314628,111.90366311429534,"[36, 0, 218]",218,a,0.9050143969943747,1,colour,0.5,4.0
35,21,1,2,2,10,60,112.42234535570606,113.66372871314525,"[39, 0, 215]",215,a,0.7181112446996849,1,colour,0.5,4.0
35,21,1,2,2,11,61,114.17244037083583,115.61565203624195,"[26, 0, 228]",228,a,0.9287215117074084,1,colour,0.5,4.0
35,21,1,2,2,12,62,116.13259545131586,117.11961707222508,"[93, 0, 161]",161,l,0.46368767449166626,1,colour,0.5,4.0
35,21,1,2,2,13,63,117.62763635016745,118.93570596151403,"[84, 0, 170]",170,l,0.7848939906689338,1,colour,0.5,4.0
35,21,1,2,2,14,64,119.45566898732795,120.50370352281607,"[96, 0, 158]",158,l,0.5247143736633006,1,colour,0.5,4.0
35,21,1,2,2,15,65,121.01970289109158,121.93571068765596,"[44, 0, 210]",210,a,0.39266951783793047,1,colour,0.5,4.0
35,21,1,2,2,16,66,122.45728296472225,123.38360044566798,"[89, 0, 165]",165,l,0.4030059836804867,1,colour,0.5,4.0
35,21,1,2,2,17,67,123.89493117359234,124.84764770077891,"[7, 0, 247]",247,a,0.42941054378752597,1,colour,0.5,4.0
35,21,1,2,2,18,68,125.3637683733541,126.58363400126109,"[31, 0, 223]",223,a,0.6966648011293728,1,colour,0.5,4.0
35,21,1,2,2,19,69,127.09829744682065,128.53561128114234,"[46, 0, 208]",208,a,0.9126010360487271,1,colour,0.5,4.0
35,21,1,2,2,20,70,129.05295405519428,130.135620969726,"[45, 0, 209]",209,a,0.5593321804190055,1,colour,0.5,4.0
35,21,1,2,2,21,71,130.6583357915806,131.94365927038598,"[73, 0, 181]",181,l,0.7620076492603403,1,colour,0.5,4.0
35,21,1,2,2,22,72,132.44533724762732,133.47161498956848,"[18, 0, 236]",236,a,0.5029437955236062,1,colour,0.5,4.0
35,21,1,2,2,23,73,133.99234404420713,134.99160007073078,"[63, 0, 191]",191,a,0.4759071139851585,0,colour,0.5,4.0
35,21,1,2,2,24,74,135.50812285920256,136.40762027341407,"[10, 0, 244]",244,a,0.37619812617776915,1,colour,0.5,4.0
35,21,1,2,2,25,75,136.91449306812137,137.83161229567486,"[82, 0, 172]",172,l,0.3953886247181799,1,colour,0.5,4.0
35,21,1,2,2,26,76,138.3505312380148,139.31966441241093,"[98, 0, 156]",156,l,0.4434964154206682,1,colour,0.5,4.0
35,21,1,2,2,27,77,139.84067191556096,140.80757435105625,"[3, 0, 251]",251,a,0.44396351574687287,1,colour,0.5,4.0
35,21,1,2,2,28,78,141.32501834334107,142.31960257873288,"[91, 0, 163]",163,l,0.47123414132511243,1,colour,0.5,4.0
35,21,1,2,2,29,79,142.84086765660322,143.75159517128486,"[2, 0, 252]",252,a,0.38743058970430866,1,colour,0.5,4.0
35,21,1,2,2,30,80,144.26276009040885,145.11162674191291,"[99, 0, 155]",155,l,0.3256768524297513,1,colour,0.5,4.0
35,21,1,2,2,31,81,145.62229265921633,146.75159595898003,"[55, 0, 199]",199,a,0.6060044055629987,0,colour,0.5,4.0
35,21,1,2,2,32,82,147.26301057590172,148.23956851899857,"[4, 0, 250]",250,a,0.45326298734289594,1,colour,0.5,4.0
35,21,1,2,2,33,83,148.74749091101694,149.75158650669619,"[85, 0, 169]",169,l,0.48093612265074626,1,colour,0.5,4.0
35,21,1,2,2,34,84,150.2632476706931,151.1675401495595,"[59, 0, 195]",195,a,0.38096837856573984,0,colour,0.5,4.0
35,21,1,2,2,35,85,151.68522044891142,152.495554866764,"[50, 0, 204]",204,a,0.2869705392222386,1,colour,0.5,4.0
35,21,1,2,2,36,86,153.01486726038274,153.9516102161724,"[17, 0, 237]",237,a,0.4137083316745702,1,colour,0.5,4.0
35,21,1,2,2,37,87,154.4681007093459,155.38353664273745,"[54, 0, 200]",200,a,0.3921051377255935,0,colour,0.5,4.0
35,21,1,2,2,38,88,155.8901435919979,156.79963403908187,"[30, 0, 224]",224,a,0.3862336943275295,1,colour,0.5,4.0
35,21,1,2,2,39,89,157.31214472703869,158.11950403868104,"[83, 0, 171]",171,l,0.28415690947440453,1,colour,0.5,4.0
35,21,1,2,2,40,90,158.64031028695172,159.5675391255645,"[48, 0, 206]",206,a,0.40389843680895865,1,colour,0.5,4.0
35,21,1,2,2,41,91,160.07849885133328,161.0875108159671,"[12, 0, 242]",242,a,0.4853692436008714,1,colour,0.5,4.0
35,21,1,2,2,42,92,161.59447340737097,162.61561304554925,"[9, 0, 245]",245,a,0.4978880053968169,1,colour,0.5,4.0
35,21,1,2,2,43,93,163.12578744412167,164.04759264123277,"[34, 0, 220]",220,a,0.39844486306537874,1,colour,0.5,4.0
35,21,1,2,2,44,94,164.56337460697978,166.01550174492877,"[58, 0, 196]",196,a,0.928768379293615,0,colour,0.5,4.0
35,21,1,2,2,45,95,166.53230455730227,167.35155956770177,"[90, 0, 164]",164,l,0.2960010145616252,1,colour,0.5,4.0
35,21,1,2,2,46,96,167.8604634218209,169.6955458870798,"[69, 0, 185]",185,a,1.3117445803945884,0,colour,0.5,4.0
35,21,1,2,2,47,97,170.2044072059507,171.0635154066258,"[86, 0, 168]",168,l,0.33603734281496145,1,colour,0.5,4.0
35,21,1,2,2,48,98,171.57967546372674,172.47952852008166,"[0, 0, 254]",254,a,0.37667231570230797,1,colour,0.5,4.0
35,21,1,2,2,49,99,172.9858967991604,174.0397448828444,"[14, 0, 240]",240,a,0.5303837745159399,1,colour,0.5,4.0
35,21,1,2,2,50,100,174.54855854646303,175.53552975520142,"[87, 0, 167]",167,l,0.46398857221356593,1,colour,0.5,4.0
35,21,1,2,3,1,101,180.7839105593448,182.64785793531337,"[55, 0, 199]",199,a,1.339804077782901,0,colour,0.5,4.0
35,21,1,2,3,2,102,183.15994484591647,184.17550094146281,"[71, 0, 183]",183,a,0.49231273352052085,0,colour,0.5,4.0
35,21,1,2,3,3,103,184.69131756559364,185.5915077534155,"[67, 0, 187]",187,a,0.3768373368366156,0,colour,0.5,4.0
35,21,1,2,3,4,104,186.0976503592392,186.96751092624618,"[0, 0, 254]",254,a,0.34660972192068584,1,colour,0.5,4.0
35,21,1,2,3,5,105,187.48828802997014,188.21545022996725,"[45, 0, 209]",209,a,0.2036313310090918,1,colour,0.5,4.0
35,21,1,2,3,6,106,188.72276452509686,189.55957006287645,"[54, 0, 200]",200,a,0.31369490156066604,0,colour,0.5,4.0
35,21,1,2,3,7,107,190.06801429972984,190.92745333031053,"[44, 0, 210]",210,a,0.33616691787028685,1,colour,0.5,4.0
35,21,1,2,3,8,108,191.44309981333208,192.2314923304366,"[80, 0, 174]",174,l,0.2652897577791009,1,colour,0.5,4.0
35,21,1,2,3,9,109,192.73992514578276,193.59946027459227,"[3, 0, 251]",251,a,0.33644969869055785,1,colour,0.5,4.0
35,21,1,2,3,10,110,194.11519497894915,194.95947097142925,"[12, 0, 242]",242,a,0.3210700457566418,1,colour,0.5,4.0
35,21,1,2,3,11,111,195.47468776939786,196.35944159058272,"[41, 0, 213]",213,a,0.3613422872731462,1,colour,0.5,4.0
35,21,1,2,3,12,112,196.88103434760706,197.85546355770202,"[36, 0, 218]",218,a,0.4514725673070643,1,colour,0.5,4.0
35,21,1,2,3,13,113,198.36558675640845,199.20747407808085,"[62, 0, 192]",192,a,0.31934421631740406,0,colour,0.5,4.0
35,21,1,2,3,14,114,199.72500786703313,200.39144623480388,"[43, 0, 211]",211,a,0.14308512292336673,1,colour,0.5,4.0
35,21,1,2,3,15,115,200.91342850468936,201.71141351416009,"[92, 0, 162]",162,l,0.27537534426664934,1,colour,0.5,4.0
35,21,1,2,3,16,116,202.22523413109593,203.07186452986207,"[28, 0, 226]",226,a,0.3233011784905102,1,colour,0.5,4.0
35,21,1,2,3,17,117,203.5847497645591,204.50348927106825,"[50, 0, 204]",204,a,0.39552331977756694,1,colour,0.5,4.0
35,21,1,2,3,18,118,205.02472717361525,206.22346182793262,"[56, 0, 198]",198,a,0.6876744980108924,0,colour,0.5,4.0
35,21,1,2,3,19,119,206.7313452292874,207.3594033876143,"[37, 0, 217]",217,a,0.10496603284263983,1,colour,0.5,4.0
35,21,1,2,3,20,120,207.8666282798804,208.6554197621008,"[86, 0, 168]",168,l,0.2657694611407351,1,colour,0.5,4.0
35,21,1,2,3,21,121,209.1636044550105,209.68790174665628,"[47, 0, 207]",207,a,0.001031480438541621,1,colour,0.5,4.0
35,21,1,2,3,22,122,210.21065713456483,210.92747381026857,"[35, 0, 219]",219,a,0.19356701214564964,1,colour,0.5,4.0
35,21,1,2,3,23,123,211.4450717959844,212.09543734334875,"[85, 0, 169]",169,l,0.12739748306921683,1,colour,0.5,4.0
35,21,1,2,3,24,124,212.60203996030032,213.6554642666306,"[52, 0, 202]",202,a,0.5299655109993182,0,colour,0.5,4.0
35,21,1,2,3,25,125,214.16465799076832,215.2234157480416,"[20, 0, 234]",234,a,0.5356089180568233,1,colour,0.5,4.0
35,21,1,2,3,26,126,215.74290300894063,216.58339375571813,"[83, 0, 171]",171,l,0.317136714264052,1,colour,0.5,4.0
35,21,1,2,3,27,127,217.10241667318041,217.98338170407806,"[39, 0, 215]",215,a,0.3578693607705645,1,colour,0.5,4.0
35,21,1,2,3,28,128,218.4818695356371,219.3034163309494,"[60, 0, 194]",194,a,0.2984278883377556,0,colour,0.5,4.0
35,21,1,2,3,29,129,219.80997326184297,220.64735538890818,"[98, 0, 156]",156,l,0.31433096146793105,1,colour,0.5,4.0
35,21,1,2,3,30,130,221.15384733537212,222.07138915878022,"[38, 0, 216]",216,a,0.39409956958843395,1,colour,0.5,4.0
35,21,1,2,3,31,131,222.59144473820925,223.55136745003983,"[15, 0, 239]",239,a,0.43635363987414166,1,colour,0.5,4.0
35,21,1,2,3,32,132,224.06029808562016,224.95942174078664,"[78, 0, 176]",176,l,0.3757278750417754,1,colour,0.5,4.0
35,21,1,2,3,33,133,225.46862885568407,226.78346078816685,"[65, 0, 189]",189,a,0.7915271306119394,0,colour,0.5,4.0
35,21,1,2,3,34,134,227.29686550464248,228.23140056451666,"[58, 0, 196]",196,a,0.41123734723078087,0,colour,0.5,4.0
35,21,1,2,3,35,135,228.74878075387096,229.59137935991748,"[63, 0, 191]",191,a,0.31941432078019716,0,colour,0.5,4.0
35,21,1,2,3,36,136,230.10824518749723,230.92735644441564,"[89, 0, 165]",165,l,0.29599550072452985,1,colour,0.5,4.0
35,21,1,2,3,37,137,231.43651432867046,232.37547345107305,"[33, 0, 221]",221,a,0.41554483157233335,1,colour,0.5,4.0
35,21,1,2,3,38,138,232.89193322433857,233.62331311200978,"[93, 0, 161]",161,l,0.207973473763559,1,colour,0.5,4.0
35,21,1,2,3,39,139,234.1421391068725,234.95135224761907,"[14, 0, 240]",240,a,0.28747820560238324,1,colour,0.5,4.0
35,21,1,2,3,40,140,235.4687919075659,236.62334540730808,"[17, 0, 237]",237,a,0.6311147905071266,1,colour,0.5,4.0
35,21,1,2,3,41,141,237.1407783719187,237.99131532068714,"[82, 0, 172]",172,l,0.3246678211726248,1,colour,0.5,4.0
35,21,1,2,3,42,142,238.5035534678027,239.2473922528152,"[77, 0, 177]",177,l,0.22046860482078046,1,colour,0.5,4.0
35,21,1,2,3,43,143,239.75372508584405,240.65534571922035,"[9, 0, 245]",245,a,0.3783410376054235,1,colour,0.5,4.0
35,21,1,2,3,44,144,241.17554702135385,241.99135312982253,"[13, 0, 241]",241,a,0.2923725192376878,1,colour,0.5,4.0
35,21,1,2,3,45,145,242.50378347336664,243.4313218742609,"[27, 0, 227]",227,a,0.4041544361389242,1,colour,0.5,4.0
35,21,1,2,3,46,146,243.9414056884416,245.07131511587068,"[53, 0, 201]",201,a,0.6064908042899333,0,colour,0.5,4.0
35,21,1,2,3,47,147,245.58220276801148,246.34336049944977,"[4, 0, 250]",250,a,0.23830230688326992,1,colour,0.5,4.0
35,21,1,2,3,48,148,246.86351020785514,247.80728566256585,"[57, 0, 197]",197,l,0.4193832463643048,1,colour,0.5,4.0
35,21,1,2,3,49,149,248.3184501878277,249.26337685188628,"[30, 0, 224]",224,a,0.4215068593912292,1,colour,0.5,4.0
35,21,1,2,3,50,150,249.77170254135854,250.66334747103974,"[24, 0, 230]",230,a,0.36824087882996537,1,colour,0.5,4.0
35,21,1,2,4,1,151,256.46030887699453,257.64730025059544,"[37, 0, 217]",217,a,0.6632336498296354,1,colour,0.5,3.9
35,21,1,2,4,2,152,258.1641908904421,258.9593311563949,"[86, 0, 168]",168,l,0.27200757441460155,1,colour,0.5,3.9
35,21,1,2,4,3,153,259.47675073027494,261.46334069690784,"[50, 0, 204]",204,a,1.4633202169789001,1,colour,0.5,3.9
35,21,1,2,4,4,154,261.9768694746017,262.9832761535654,"[34, 0, 220]",220,a,0.48296560667222366,1,colour,0.5,3.9
35,21,1,2,4,5,155,263.49266286185593,264.16733338084305,"[99, 0, 155]",155,l,0.15119518217397854,1,colour,0.5,3.9
35,21,1,2,4,6,156,264.6803225906624,265.543256209261,"[85, 0, 169]",169,l,0.3396685950574465,1,colour,0.5,3.9
35,21,1,2,4,7,157,266.05532775988104,266.7033975839149,"[35, 0, 219]",219,a,0.12469334233901463,1,colour,0.5,3.9
35,21,1,2,4,8,158,267.2117327256419,268.14325526403263,"[63, 0, 191]",191,a,0.4082500318181701,0,colour,0.5,3.9
35,21,1,2,4,9,159,268.6377802257193,269.55930618662387,"[93, 0, 161]",161,l,0.39806598401628435,1,colour,0.5,3.9
35,21,1,2,4,10,160,270.0755138989771,270.74326889106305,"[36, 0, 218]",218,a,0.14449154393514618,1,colour,0.5,3.9
35,21,1,2,4,11,161,271.26299442825257,272.07124894991284,"[5, 0, 249]",249,a,0.28483904927270487,1,colour,0.5,3.9
35,21,1,2,4,12,162,272.5912202464533,273.5512579610804,"[17, 0, 237]",237,a,0.43669786051032133,1,colour,0.5,3.9
35,21,1,2,4,13,163,274.0622424991161,274.8796704618726,"[31, 0, 223]",223,a,0.29398413354647346,1,colour,0.5,3.9
35,21,1,2,4,14,164,275.39055850784644,276.39127885061316,"[74, 0, 180]",180,l,0.477318261138862,1,colour,0.5,3.9
35,21,1,2,4,15,165,276.904997067817,277.78326032098266,"[8, 0, 246]",246,a,0.3548788945772685,1,colour,0.5,3.9
35,21,1,2,4,16,166,278.2956922399462,279.7592074102722,"[73, 0, 181]",181,l,0.9401914638874587,1,colour,0.5,3.9
35,21,1,2,4,17,167,280.28023381798994,281.2473107268743,"[66, 0, 188]",188,a,0.44379140544333495,0,colour,0.5,3.9
35,21,1,2,4,18,168,281.76478977134684,282.88728506391635,"[57, 0, 197]",197,a,0.5994204962335061,0,colour,0.5,3.9
35,21,1,2,4,19,169,283.40564710923354,284.31118571411935,"[43, 0, 211]",211,a,0.3822897290228866,1,colour,0.5,3.9
35,21,1,2,4,20,170,284.8275824721495,285.67127124153194,"[52, 0, 202]",202,a,0.32038475520676,0,colour,0.5,3.9
35,21,1,2,4,21,171,286.1894761426083,287.15124716970604,"[23, 0, 231]",231,a,0.43836106854723766,1,colour,0.5,3.9
35,21,1,2,4,22,172,287.65837320685387,288.49522009838256,"[64, 0, 190]",190,a,0.3135192466143053,0,colour,0.5,3.9
35,21,1,2,4,23,173,289.00221537894686,289.94323116069427,"[89, 0, 165]",165,l,0.41769561992259696,1,colour,0.5,3.9
35,21,1,2,4,24,174,290.45553980610566,291.43123680370627,"[70, 0, 184]",184,a,0.4528364530415274,0,colour,0.5,3.9
35,21,1,2,4,25,175,291.9399713044404,292.9754173675319,"[39, 0, 215]",215,a,0.5121259012666997,1,colour,0.5,3.9
35,21,1,2,4,26,176,293.48705529465224,294.6072103593906,"[83, 0, 171]",171,l,0.5969703856098931,1,colour,0.5,3.9
35,21,1,2,4,27,177,295.1276905038685,296.0712115346105,"[24, 0, 230]",230,a,0.4201480936608277,1,colour,0.5,3.9
35,21,1,2,4,28,178,296.58094167584204,297.5351619038265,"[40, 0, 214]",214,a,0.43101191814639606,1,colour,0.5,3.9
35,21,1,2,4,29,179,298.04981589707313,299.13516686626826,"[58, 0, 196]",196,a,0.561983152088942,0,colour,0.5,3.9
35,21,1,2,4,30,180,299.6436776629416,300.5831357871648,"[82, 0, 172]",172,l,0.416116694745142,1,colour,0.5,3.9
35,21,1,2,4,31,181,301.0969083549862,302.111181696906,"[79, 0, 175]",175,l,0.4909961092052981,1,colour,0.5,3.9
35,21,1,2,4,32,182,302.62825508089736,303.46321033415734,"[13, 0, 241]",241,a,0.31155553471762687,1,colour,0.5,3.9
35,21,1,2,4,33,183,303.9721326990111,304.951182894205,"[56, 0, 198]",198,a,0.45576114711002447,0,colour,0.5,3.9
35,21,1,2,4,34,184,305.47223214490805,306.3432348628412,"[49, 0, 205]",205,a,0.3476896453066729,1,colour,0.5,3.9
35,21,1,2,4,35,185,306.86297182153794,307.81517280545086,"[29, 0, 225]",225,a,0.4288705820799805,1,colour,0.5,3.9
35,21,1,2,4,36,186,308.33177357527893,309.175148450071,"[90, 0, 164]",164,a,0.32007873750990257,0,colour,0.5,3.9
35,21,1,2,4,37,187,309.69125848883414,311.12715723755537,"[21, 0, 233]",233,a,0.912447042617714,1,colour,0.5,3.9
35,21,1,2,4,38,188,311.6445748421829,312.5911812557897,"[77, 0, 177]",177,l,0.42327719333115965,1,colour,0.5,3.9
35,21,1,2,4,39,189,313.099179659941,313.99116053953185,"[3, 0, 251]",251,a,0.3768176445737481,1,colour,0.5,3.9
35,21,1,2,4,40,190,314.4973740374844,315.3511550887197,"[20, 0, 234]",234,a,0.33059558444074355,1,colour,0.5,3.9
35,21,1,2,4,41,191,315.87245482497383,316.80710291842115,"[6, 0, 248]",248,a,0.41137558687478304,1,colour,0.5,3.9
35,21,1,2,4,42,192,317.3256985138869,318.10330636936123,"[47, 0, 207]",207,a,0.2613115279527847,1,colour,0.5,3.9
35,21,1,2,4,43,193,318.6077097550151,319.47111638161005,"[51, 0, 203]",203,a,0.340071498620091,0,colour,0.5,3.9
35,21,1,2,4,44,194,319.9828161424375,320.7671225161466,"[18, 0, 236]",236,a,0.26100866103661247,1,colour,0.5,3.9
35,21,1,2,4,45,195,321.27973442233633,322.14309615059756,"[55, 0, 199]",199,a,0.34037160864681937,0,colour,0.5,3.9
35,21,1,2,4,46,196,322.66317024073214,323.4631796142494,"[98, 0, 156]",156,l,0.2767782206647098,1,colour,0.5,3.9
35,21,1,2,4,47,197,323.9756414654257,324.9511773803679,"[38, 0, 216]",216,a,0.4602458617882803,1,colour,0.5,3.9
35,21,1,2,4,48,198,325.4681196139136,326.3831435852917,"[28, 0, 226]",226,a,0.38983146971440874,1,colour,0.5,3.9
35,21,1,2,4,49,199,326.8921297530469,327.7991039235203,"[25, 0, 229]",229,a,0.39282981283031404,1,colour,0.5,3.9
35,21,1,2,4,50,200,328.3205946746457,329.3671956138278,"[92, 0, 162]",162,l,0.5235533181694336,1,colour,0.5,3.9
35,21,1,2,5,1,201,334.48192703703535,335.3831928159343,"[28, 0, 226]",226,a,0.3778526696260087,1,colour,0.4,3.9
35,21,1,2,5,2,202,335.8890353117604,338.01512129051844,"[74, 0, 180]",180,l,1.6031545420992188,1,colour,0.4,3.9
35,21,1,2,5,3,203,338.5299887478468,339.73509069663123,"[32, 0, 222]",222,a,0.6818448021949735,1,colour,0.4,3.9
35,21,1,2,5,4,204,340.24891013200977,341.27909836242907,"[17, 0, 237]",237,a,0.5068420747993514,1,colour,0.4,3.9
35,21,1,2,5,5,205,341.79585194415995,342.34306157098035,"[30, 0, 224]",224,a,0.023914671095553786,1,colour,0.4,3.9
35,21,1,2,5,6,206,342.8584859253315,343.8630860366393,"[62, 0, 192]",192,l,0.4812724663934205,1,colour,0.4,3.9
35,21,1,2,5,7,207,344.37417848824407,345.3431147400697,"[22, 0, 232]",232,a,0.44598984901676886,1,colour,0.4,3.9
35,21,1,2,5,8,208,345.8587458631373,347.74312750066747,"[40, 0, 214]",214,a,1.3611524539301172,1,colour,0.4,3.9
35,21,1,2,5,9,209,348.2494496998552,349.2870189821406,"[18, 0, 236]",236,a,0.5142979572410695,1,colour,0.4,3.9
35,21,1,2,5,10,210,349.79641356732463,350.6470580358291,"[4, 0, 250]",250,a,0.3273152482288424,1,colour,0.4,3.9
35,21,1,2,5,11,211,351.15589611782343,352.09506594738923,"[63, 0, 191]",191,a,0.41536169359460473,0,colour,0.4,3.9
35,21,1,2,5,12,212,352.6095801256306,354.61506363158696,"[60, 0, 194]",194,a,1.4822212393628433,0,colour,0.4,3.9
35,21,1,2,5,13,213,355.12530813459307,356.03904423234053,"[36, 0, 218]",218,a,0.39034386226558127,1,colour,0.4,3.9
35,21,1,2,5,14,214,356.54730611888226,357.38303173327586,"[27, 0, 227]",227,a,0.3125086399668362,1,colour,0.4,3.9
35,21,1,2,5,15,215,357.8911246602365,358.8150727687753,"[68, 0, 186]",186,l,0.4005948636913672,1,colour,0.4,3.9
35,21,1,2,5,16,216,359.3287685367977,360.2230478966667,"[31, 0, 223]",223,a,0.3708879120531492,1,colour,0.4,3.9
35,21,1,2,5,17,217,360.73515686258906,361.4470134525618,"[53, 0, 201]",201,a,0.18848207750124857,0,colour,0.4,3.9
35,21,1,2,5,18,218,361.95406150835333,362.85504805107485,"[81, 0, 173]",173,l,0.37774554375209846,1,colour,0.4,3.9
35,21,1,2,5,19,219,363.3759507914074,364.21504456948605,"[95, 0, 159]",159,l,0.315716508688638,1,colour,0.4,3.9
35,21,1,2,5,20,220,364.73540971119655,365.74312395605375,"[13, 0, 241]",241,a,0.48442834755405784,1,colour,0.4,3.9
35,21,1,2,5,21,221,366.24671168840723,367.2709977554623,"[99, 0, 155]",155,l,0.5010340404405724,1,colour,0.4,3.9
35,21,1,2,5,22,222,367.78344976052176,368.7511442186078,"[97, 0, 157]",157,l,0.4443297917605378,1,colour,0.4,3.9
35,21,1,2,5,23,223,369.26791394798784,370.63904131788877,"[70, 0, 184]",184,a,0.8529768194421194,0,colour,0.4,3.9
35,21,1,2,5,24,224,371.15344285641913,372.40698263811646,"[94, 0, 160]",160,l,0.7301782661234029,1,colour,0.4,3.9
35,21,1,2,5,25,225,372.9244644395076,373.78299802012043,"[66, 0, 188]",188,a,0.33518348654615693,0,colour,0.4,3.9
35,21,1,2,5,26,226,374.29961375606945,375.2149835234741,"[98, 0, 156]",156,l,0.3920279440935701,1,colour,0.4,3.9
35,21,1,2,5,27,227,375.72158732195385,376.6950421591464,"[54, 0, 200]",200,a,0.45006023862515576,0,colour,0.4,3.9
35,21,1,2,5,28,228,377.20616887527285,378.2150197572191,"[73, 0, 181]",181,l,0.485625242930837,1,colour,0.4,3.9
35,21,1,2,5,29,229,378.72177439840743,379.6630280626414,"[58, 0, 196]",196,a,0.4182387323817238,0,colour,0.4,3.9
35,21,1,2,5,30,230,380.175122850138,381.2149402005016,"[79, 0, 175]",175,l,0.5166862341866363,1,colour,0.4,3.9
35,21,1,2,5,31,231,381.72197210867307,382.7189910947636,"[69, 0, 185]",185,a,0.4736358090303838,0,colour,0.4,3.9
35,21,1,2,5,32,232,383.2377139021992,383.83894766151207,"[11, 0, 243]",243,a,0.0781723537365906,1,colour,0.4,3.9
35,21,1,2,5,33,233,384.3472477510222,385.1829662762175,"[88, 0, 166]",166,l,0.31235622192616574,1,colour,0.4,3.9
35,21,1,2,5,34,234,385.69110685845953,386.6149891948444,"[87, 0, 167]",167,l,0.4005109746940434,1,colour,0.4,3.9
35,21,1,2,5,35,235,387.1287503411586,388.1910038679489,"[80, 0, 174]",174,l,0.5396229877951555,1,colour,0.4,3.9
35,21,1,2,5,36,236,388.7069228918117,389.6789429511118,"[0, 0, 254]",254,a,0.4487444019760005,1,colour,0.4,3.9
35,21,1,2,5,37,237,390.1914532452647,391.126981582609,"[44, 0, 210]",210,a,0.4120644220383838,1,colour,0.4,3.9
35,21,1,2,5,38,238,391.6446394327795,392.55896944901906,"[49, 0, 205]",205,a,0.39087476549320854,1,colour,0.4,3.9
35,21,1,2,5,39,239,393.0666063033277,393.9269200639974,"[56, 0, 198]",198,a,0.34883691620780155,0,colour,0.4,3.9
35,21,1,2,5,40,240,394.44538884132635,395.35900284710806,"[35, 0, 219]",219,a,0.3902099549304694,1,colour,0.4,3.9
35,21,1,2,5,41,241,395.8674140009389,396.7908910707047,"[90, 0, 164]",164,l,0.40017384325619787,1,colour,0.4,3.9
35,21,1,2,5,42,242,397.30506890517427,397.90295222381246,"[37, 0, 217]",217,a,0.0767367881780956,1,colour,0.4,3.9
35,21,1,2,5,43,243,398.41217981866794,399.07893562561367,"[92, 0, 162]",162,l,0.143375780666247,1,colour,0.4,3.9
35,21,1,2,5,44,244,399.5891013595683,400.34326558277826,"[39, 0, 215]",215,a,0.2307838030392304,1,colour,0.4,3.9
35,21,1,2,5,45,245,400.8560039132426,401.7589187217818,"[89, 0, 165]",165,l,0.3798423753178213,1,colour,0.4,3.9
35,21,1,2,5,46,246,402.2781314725871,403.07900218543364,"[75, 0, 179]",179,l,0.2826937747595366,1,colour,0.4,3.9
35,21,1,2,5,47,247,403.5854752273299,404.27089929417707,"[59, 0, 195]",195,a,0.16218031095922925,0,colour,0.4,3.9
35,21,1,2,5,48,248,404.78880762986955,405.55893479066435,"[61, 0, 193]",193,a,0.24681605739169754,0,colour,0.4,3.9
35,21,1,2,5,49,249,406.0700926205609,406.84694705027505,"[91, 0, 163]",163,l,0.2536153999972157,1,colour,0.4,3.9
35,21,1,2,5,50,250,407.3551400139113,408.2228844509518,"[8, 0, 246]",246,a,0.34855256002629176,1,colour,0.4,3.9
35,21,1,2,6,1,251,414.1850705908146,416.17490741683287,"[78, 0, 176]",176,l,1.4656277556787245,1,colour,0.28,3.9
35,21,1,2,6,2,252,416.68609478513827,417.2629345637979,"[33, 0, 221]",221,a,0.05346211543655954,1,colour,0.28,3.9
35,21,1,2,6,3,253,417.7798279605631,419.02289264291176,"[58, 0, 196]",196,a,0.7195054565090686,0,colour,0.28,3.9
35,21,1,2,6,4,254,419.5300525507482,420.34289339909446,"[54, 0, 200]",200,a,0.2895608587132301,0,colour,0.28,3.9
35,21,1,2,6,5,255,420.85942170140333,421.43093905679416,"[53, 0, 201]",201,a,0.04809558150009252,0,colour,0.28,3.9
35,21,1,2,6,6,256,421.93769330412033,422.5589095845644,"[91, 0, 163]",163,l,0.0978673679055646,1,colour,0.28,3.9
35,21,1,2,6,7,257,423.0785405989154,423.70288519136375,"[80, 0, 174]",174,l,0.10173177649267018,1,colour,0.28,3.9
35,21,1,2,6,8,258,424.21837413634057,424.8548448269721,"[82, 0, 172]",172,l,0.11314068266074173,1,colour,0.28,3.9
35,21,1,2,6,9,259,425.37462077633245,426.13482776560704,"[9, 0, 245]",245,a,0.23659144356497563,1,colour,0.28,3.9
35,21,1,2,6,10,260,426.6582121241954,427.29486437744345,"[30, 0, 224]",224,a,0.11326789465965703,1,colour,0.28,3.9
35,21,1,2,6,11,261,427.8145627393387,428.5108608706505,"[55, 0, 199]",199,a,0.17333636857802048,0,colour,0.28,3.9
35,21,1,2,6,12,262,429.0178340958664,429.89486658296664,"[22, 0, 232]",232,a,0.35382417726214044,1,colour,0.28,3.9
35,21,1,2,6,13,263,430.4084477420547,431.350854584889,"[60, 0, 194]",194,a,0.4190453272603918,0,colour,0.28,3.9
35,21,1,2,6,14,264,431.861748538533,432.72685066849226,"[27, 0, 227]",227,a,0.341726435959572,1,colour,0.28,3.9
35,21,1,2,6,15,265,433.2368714674376,434.0948627232865,"[64, 0, 190]",190,a,0.3346805462788325,0,colour,0.28,3.9
35,21,1,2,6,16,266,434.6122220388497,435.1908455421799,"[70, 0, 184]",184,a,0.0555349224305246,0,colour,0.28,3.9
35,21,1,2,6,17,267,435.70582327616285,436.2868338749395,"[21, 0, 233]",233,a,0.05789563024882227,1,colour,0.28,3.9
35,21,1,2,6,18,268,436.7995588146441,437.42282899754355,"[36, 0, 218]",218,a,0.09981493215309456,1,colour,0.28,3.9
35,21,1,2,6,19,269,437.94027180827106,438.54281943498063,"[0, 0, 254]",254,a,0.07914633277687244,1,colour,0.28,3.9
35,21,1,2,6,20,270,439.0497698171821,440.07878596446244,"[67, 0, 187]",187,a,0.5056369086669292,0,colour,0.28,3.9
35,21,1,2,6,21,271,440.596766767645,441.5748441652977,"[65, 0, 189]",189,a,0.45485136480419897,0,colour,0.28,3.9
35,21,1,2,6,22,272,442.08260035468265,442.74279745842796,"[69, 0, 185]",185,a,0.13688915109378286,0,colour,0.28,3.9
35,21,1,2,6,23,273,443.2544243579032,444.64684102716274,"[76, 0, 178]",178,l,0.8689397570560686,1,colour,0.28,3.9
35,21,1,2,6,24,274,445.16092985263094,446.32682136641233,"[35, 0, 219]",219,a,0.6425839549920056,1,colour,0.28,3.9
35,21,1,2,6,25,275,446.84858111376525,448.4628586304607,"[96, 0, 158]",158,l,1.0912212310940959,1,colour,0.28,3.9
35,21,1,2,6,26,276,448.9738758576277,449.80676499928813,"[57, 0, 197]",197,a,0.32104168890509754,0,colour,0.28,3.9
35,21,1,2,6,27,277,450.32181008075713,451.54284424721845,"[84, 0, 170]",170,l,0.6943978284834884,1,colour,0.28,3.9
35,21,1,2,6,28,278,452.0596785672242,453.09489108013804,"[72, 0, 182]",182,a,0.5185022541554645,0,colour,0.28,3.9
35,21,1,2,6,29,279,453.6038733094465,454.2467884882062,"[86, 0, 168]",168,l,0.11960761994123459,1,colour,0.28,3.9
35,21,1,2,6,30,280,454.7623971620924,455.7028792836936,"[50, 0, 204]",204,a,0.4171072152676061,1,colour,0.28,3.9
35,21,1,2,6,31,281,456.21564321409096,458.1508745922183,"[75, 0, 179]",179,a,1.4118954624864273,0,colour,0.28,3.9
35,21,1,2,6,32,282,458.66366727330023,459.74279155075783,"[77, 0, 177]",177,l,0.5559132107009646,1,colour,0.28,3.9
35,21,1,2,6,33,283,460.2629790682986,461.38291357972776,"[66, 0, 188]",188,a,0.5965572420391254,0,colour,0.28,3.9
35,21,1,2,6,34,284,461.90767363941995,462.83083208845346,"[31, 0, 223]",223,a,0.40693852747790515,1,colour,0.28,3.9
35,21,1,2,6,35,285,463.3381196020928,464.0147999128676,"[34, 0, 220]",220,a,0.15091988441417925,1,colour,0.28,3.9
35,21,1,2,6,36,286,464.5283806780935,465.1267783585063,"[46, 0, 208]",208,a,0.07495739578735083,1,colour,0.28,3.9
35,21,1,2,6,37,287,465.63777707496774,466.6708238334395,"[99, 0, 155]",155,l,0.5098671993473545,1,colour,0.28,3.9
35,21,1,2,6,38,288,467.1847878100234,468.5267643376137,"[89, 0, 165]",165,l,0.8192172012641095,1,colour,0.28,3.9
35,21,1,2,6,39,289,469.0444107663061,469.9667299313005,"[11, 0, 243]",243,a,0.3989348064060323,1,colour,0.28,3.9
35,21,1,2,6,40,290,470.48198375073844,471.4067455433251,"[98, 0, 156]",156,l,0.4014684122230392,1,colour,0.28,3.9
35,21,1,2,6,41,291,471.91997106024064,473.0707979972067,"[85, 0, 169]",169,l,0.6275323750451207,1,colour,0.28,3.9
35,21,1,2,6,42,292,473.59191498931614,474.86276347746025,"[52, 0, 202]",202,a,0.7474897294887342,0,colour,0.28,3.9
35,21,1,2,6,43,293,475.37328445975436,476.3507340682554,"[71, 0, 183]",183,a,0.4540388622554019,0,colour,0.28,3.9
35,21,1,2,6,44,294,476.85786601307336,477.67076987665496,"[93, 0, 161]",161,l,0.2896526246331632,1,colour,0.28,3.9
35,21,1,2,6,45,295,478.18601109302836,479.06276670700754,"[51, 0, 203]",203,a,0.35406087822047994,0,colour,0.28,3.9
35,21,1,2,6,46,296,479.5767405296792,480.4707020565402,"[15, 0, 239]",239,a,0.370489340799395,1,colour,0.28,3.9
35,21,1,2,6,47,297,480.9845333072881,481.8308313007583,"[92, 0, 162]",162,l,0.3229018195415847,1,colour,0.28,3.9
35,21,1,2,6,48,298,482.3447598312632,483.21479132704553,"[90, 0, 164]",164,l,0.34737456918810494,1,colour,0.28,3.9
35,21,1,2,6,49,299,483.7336547372106,484.7427076617314,"[87, 0, 167]",167,l,0.48586706386413425,1,colour,0.28,3.9
35,21,1,2,6,50,300,485.2494410352665,486.0947110929119,"[61, 0, 193]",193,a,0.32198140342370607,0,colour,0.28,3.9
35,21,1,2,7,1,301,491.7981106460502,495.10267030945397,"[50, 0, 204]",204,a,2.7804179405793548,1,colour,0.14,3.8
35,21,1,2,7,2,302,495.6130798335944,498.08669201191515,"[27, 0, 227]",227,a,1.9502573581121396,1,colour,0.14,3.8
35,21,1,2,7,3,303,498.5997781076294,499.46267785553937,"[57, 0, 197]",197,a,0.33960873060277663,0,colour,0.14,3.8
35,21,1,2,7,4,304,499.9748218736786,500.6946908492828,"[88, 0, 166]",166,l,0.1965236076794099,1,colour,0.14,3.8
35,21,1,2,7,5,305,501.2093424794439,501.87071087866207,"[63, 0, 191]",191,a,0.13815536323818378,0,colour,0.14,3.8
35,21,1,2,7,6,306,502.38122831634246,503.1347005536081,"[51, 0, 203]",203,a,0.2301611338625662,0,colour,0.14,3.8
35,21,1,2,7,7,307,503.6469544545689,504.1906561026699,"[94, 0, 160]",160,l,0.02049688290571794,1,colour,0.14,3.8
35,21,1,2,7,8,308,504.70958646651707,505.36665131981135,"[93, 0, 161]",161,l,0.13447921263286844,1,colour,0.14,3.8
35,21,1,2,7,9,309,505.88148136186646,506.65494911716087,"[76, 0, 178]",178,a,0.25057649082737043,0,colour,0.14,3.8
35,21,1,2,7,10,310,507.162654894375,508.1586900552793,"[75, 0, 179]",179,a,0.4708426592696924,0,colour,0.14,3.8
35,21,1,2,7,11,311,508.6649464823422,509.8946720234817,"[77, 0, 177]",177,a,0.7069736978446599,0,colour,0.14,3.8
35,21,1,2,7,12,312,510.402583781688,511.1906529519183,"[71, 0, 183]",183,a,0.2639857364993077,0,colour,0.14,3.8
35,21,1,2,7,13,313,511.70057016960345,512.4226238042174,"[53, 0, 201]",201,a,0.19868621134082787,0,colour,0.14,3.8
35,21,1,2,7,14,314,512.9350246094109,513.510658828076,"[62, 0, 192]",192,a,0.052161244908347726,0,colour,0.14,3.8
35,21,1,2,7,15,315,514.0289665227465,514.622638455272,"[52, 0, 202]",202,a,0.0707731849688571,0,colour,0.14,3.8
35,21,1,2,7,16,316,515.1383381073829,515.9346240689047,"[74, 0, 180]",180,a,0.2740280000434723,0,colour,0.14,3.8
35,21,1,2,7,17,317,516.4509259102342,516.9986802249041,"[67, 0, 187]",187,a,0.02437231913791038,0,colour,0.14,3.8
35,21,1,2,7,18,318,517.5135744636937,518.1586274339061,"[61, 0, 193]",193,a,0.12175486370688304,0,colour,0.14,3.8
35,21,1,2,7,19,319,518.6699687956425,519.3666426552227,"[79, 0, 175]",175,l,0.17388145023141988,1,colour,0.14,3.8
35,21,1,2,7,20,320,519.8730424419336,520.478583291726,"[90, 0, 164]",164,l,0.08221005415543914,1,colour,0.14,3.8
35,21,1,2,7,21,321,520.9981607431546,521.8946283066762,"[96, 0, 158]",158,l,0.37294260220369324,1,colour,0.14,3.8
35,21,1,2,7,22,322,522.4045620658435,522.9906201839913,"[59, 0, 195]",195,a,0.06306327239144593,0,colour,0.14,3.8
35,21,1,2,7,23,323,523.49826294597,524.3746562224114,"[91, 0, 163]",163,a,0.35849006072385237,0,colour,0.14,3.8
35,21,1,2,7,24,324,524.888009738992,525.886725409975,"[69, 0, 185]",185,a,0.47564323773258366,0,colour,0.14,3.8
35,21,1,2,7,25,325,526.4058676625136,527.3266401976289,"[87, 0, 167]",167,l,0.3974511917622294,1,colour,0.14,3.8
35,21,1,2,7,26,326,527.8435064190708,528.5425847032748,"[98, 0, 156]",156,l,0.1758376790676266,1,colour,0.14,3.8
35,21,1,2,7,27,327,529.0611239788996,529.8865981979761,"[89, 0, 165]",165,l,0.30229781073285267,1,colour,0.14,3.8
35,21,1,2,7,28,328,530.4049724524957,531.0226110436488,"[39, 0, 215]",215,a,0.09430543243070133,1,colour,0.14,3.8
35,21,1,2,7,29,329,531.5189795944898,533.9905713472108,"[66, 0, 188]",188,a,1.9488493617100175,0,colour,0.14,3.8
35,21,1,2,7,30,330,534.4994948935928,535.1425589458086,"[65, 0, 189]",189,a,0.11986795160919428,0,colour,0.14,3.8
35,21,1,2,7,31,331,535.6558116380475,536.4065785529965,"[85, 0, 169]",169,l,0.22741367013077252,1,colour,0.14,3.8
35,21,1,2,7,32,332,536.9215484100569,537.8865934718342,"[68, 0, 186]",186,a,0.4522003931342624,0,colour,0.14,3.8
35,21,1,2,7,33,333,538.3955323781993,539.3826028359181,"[84, 0, 170]",170,l,0.4640417413029354,1,colour,0.14,3.8
35,21,1,2,7,34,334,539.8988463881833,543.9188218201161,"[78, 0, 176]",176,l,3.496695442299824,1,colour,0.14,3.8
35,21,1,2,7,35,335,544.4347034286766,545.0785224820429,"[17, 0, 237]",237,a,0.12051031301962212,1,colour,0.14,3.8
35,21,1,2,7,36,336,545.5910229300498,546.6385553129658,"[2, 0, 252]",252,a,0.5085860210820101,1,colour,0.14,3.8
35,21,1,2,7,37,337,547.1537539940618,548.3906703598623,"[73, 0, 181]",181,a,0.7139896552544087,0,colour,0.14,3.8
35,21,1,2,7,38,338,548.9037702401693,549.7105596578913,"[97, 0, 157]",157,l,0.28348225276567973,1,colour,0.14,3.8
35,21,1,2,7,39,339,550.231939738529,551.6385604329698,"[70, 0, 184]",184,a,0.8832174312847201,0,colour,0.14,3.8
35,21,1,2,7,40,340,552.1540253533749,553.0225622068392,"[56, 0, 198]",198,a,0.3453143652295694,0,colour,0.14,3.8
35,21,1,2,7,41,341,553.5291396176908,554.3025219085976,"[83, 0, 171]",171,l,0.25016452878480777,1,colour,0.14,3.8
35,21,1,2,7,42,342,554.810444300645,555.4465924320975,"[8, 0, 246]",246,a,0.11276101594557986,1,colour,0.14,3.8
35,21,1,2,7,43,343,555.9668618694413,557.1905871797644,"[58, 0, 196]",196,a,0.7004323237924837,0,colour,0.14,3.8
35,21,1,2,7,44,344,557.7034712329623,558.7265596169163,"[5, 0, 249]",249,a,0.49969654230517335,1,colour,0.14,3.8
35,21,1,2,7,45,345,559.2333859378996,559.8065042737871,"[99, 0, 155]",155,l,0.049687897408148274,1,colour,0.14,3.8
35,21,1,2,7,46,346,560.3272723190894,561.4385776833806,"[64, 0, 190]",190,a,0.5878201813320629,0,colour,0.14,3.8
35,21,1,2,7,47,347,561.9524416232889,563.0145443073707,"[29, 0, 225]",225,a,0.5387604669376742,1,colour,0.14,3.8
35,21,1,2,7,48,348,563.5241432981857,564.4625049575116,"[60, 0, 194]",194,a,0.4150052637269255,0,colour,0.14,3.8
35,21,1,2,7,49,349,564.969076460693,565.9265466987854,"[95, 0, 159]",159,l,0.43403192271944135,1,colour,0.14,3.8
35,21,1,2,7,50,350,566.4378356791276,567.3745412196149,"[86, 0, 168]",168,l,0.41323847440071404,1,colour,0.14,3.8
35,21,1,2,8,1,351,576.3162462303881,584.6464562404435,"[74, 0, 180]",180,l,7.806048988830298,1,colour,0.06,3.8
35,21,1,2,8,2,352,585.1614615435828,586.1184426260006,"[63, 0, 191]",191,l,0.4339472459978424,1,colour,0.06,3.8
35,21,1,2,8,3,353,586.6303420663171,588.0711753008654,"[28, 0, 226]",226,a,0.9176725799916312,1,colour,0.06,3.8
35,21,1,2,8,4,354,588.5835745306686,589.486449954682,"[88, 0, 166]",166,l,0.379481219308218,1,colour,0.06,3.8
35,21,1,2,8,5,355,590.0055914195254,590.6304330445419,"[99, 0, 155]",155,l,0.1015135862689931,1,colour,0.06,3.8
35,21,1,2,8,6,356,591.1462610901799,592.062452024722,"[72, 0, 182]",182,a,0.39287510499707423,0,colour,0.06,3.8
35,21,1,2,8,7,357,592.5839561666071,593.3984641614661,"[65, 0, 189]",189,a,0.29126030052429996,0,colour,0.06,3.8
35,21,1,2,8,8,358,593.9120929758064,595.1904481524543,"[61, 0, 193]",193,a,0.7550070518045686,0,colour,0.06,3.8
35,21,1,2,8,9,359,595.7091520553222,596.8224045900279,"[75, 0, 179]",179,a,0.5898634499462787,0,colour,0.06,3.8
35,21,1,2,8,10,360,597.3342941841984,598.2304297362571,"[64, 0, 190]",190,a,0.37184534964035265,0,colour,0.06,3.8
35,21,1,2,8,11,361,598.7415726000327,599.5184364820307,"[95, 0, 159]",159,l,0.2534877941652667,1,colour,0.06,3.8
35,21,1,2,8,12,362,600.0385302644281,600.8865450288868,"[50, 0, 204]",204,a,0.32477770393597893,1,colour,0.06,3.8
35,21,1,2,8,13,363,601.3979163228651,602.3824216671346,"[96, 0, 158]",158,l,0.4612454407324549,1,colour,0.06,3.8
35,21,1,2,8,14,364,602.8987345361384,603.7903916750511,"[92, 0, 162]",162,l,0.36825387572753243,1,colour,0.06,3.8
35,21,1,2,8,15,365,604.305047243688,605.6784132294124,"[93, 0, 161]",161,l,0.8500210116326343,1,colour,0.06,3.8
35,21,1,2,8,16,366,606.1959576521767,606.9424143258657,"[82, 0, 172]",172,a,0.22313336108345538,0,colour,0.06,3.8
35,21,1,2,8,17,367,607.4616428304871,608.0944480043545,"[91, 0, 163]",163,l,0.10978866662480868,1,colour,0.06,3.8
35,21,1,2,8,18,368,608.5920725273609,609.2864408174646,"[79, 0, 175]",175,a,0.17097959920647554,0,colour,0.06,3.8
35,21,1,2,8,19,369,609.7951989489084,610.6223887574452,"[67, 0, 187]",187,a,0.3041469136951491,0,colour,0.06,3.8
35,21,1,2,8,20,370,611.1390407271101,611.9823974850588,"[55, 0, 199]",199,a,0.32122167613124475,0,colour,0.06,3.8
35,21,1,2,8,21,371,612.498681997211,613.2303749917774,"[84, 0, 170]",170,l,0.20827003914746456,1,colour,0.06,3.8
35,21,1,2,8,22,372,613.7486905633414,614.5743502835103,"[98, 0, 156]",156,l,0.3025581423717085,1,colour,0.06,3.8
35,21,1,2,8,23,373,615.0926170182647,615.7663698780816,"[66, 0, 188]",188,a,0.1482858480885625,0,colour,0.06,3.8
35,21,1,2,8,24,374,616.2823298618314,616.9343794910528,"[86, 0, 168]",168,l,0.12862470457912423,1,colour,0.06,3.8
35,21,1,2,8,25,375,617.4542212125671,618.3183410927304,"[83, 0, 171]",171,l,0.3405019713973161,1,colour,0.06,3.8
35,21,1,2,8,26,376,618.8280822616362,619.3823413227219,"[34, 0, 220]",220,a,0.031249249208485708,1,colour,0.06,3.8
35,21,1,2,8,27,377,619.8907449935214,620.8623530908371,"[77, 0, 177]",177,a,0.4482867539336439,0,colour,0.06,3.8
35,21,1,2,8,28,378,621.375196577952,622.3423601327813,"[56, 0, 198]",198,a,0.4421770341868978,0,colour,0.06,3.8
35,21,1,2,8,29,379,622.8614047117298,623.6303932661831,"[60, 0, 194]",194,a,0.2456904479477089,0,colour,0.06,3.8
35,21,1,2,8,30,380,624.1427172715485,625.1423541463446,"[57, 0, 197]",197,a,0.476300171460025,0,colour,0.06,3.8
35,21,1,2,8,31,381,625.6584917542641,626.4863963917305,"[90, 0, 164]",164,l,0.3045391834457405,1,colour,0.06,3.8
35,21,1,2,8,32,382,627.0024154522689,627.8463558887015,"[70, 0, 184]",184,a,0.3205934931174852,0,colour,0.06,3.8
35,21,1,2,8,33,383,628.3617660646269,629.2623138638446,"[59, 0, 195]",195,a,0.3775986394903157,0,colour,0.06,3.8
35,21,1,2,8,34,384,629.7681429689401,630.5583515059843,"[85, 0, 169]",169,l,0.26697226424585097,1,colour,0.06,3.8
35,21,1,2,8,35,385,631.0662928025995,632.0144367876346,"[78, 0, 176]",176,l,0.4246320206148084,1,colour,0.06,3.8
35,21,1,2,8,36,386,632.5353596140922,633.3982955957472,"[81, 0, 173]",173,l,0.3396823796501849,1,colour,0.06,3.8
35,21,1,2,8,37,387,633.9104002293607,634.6864937502542,"[54, 0, 200]",200,a,0.2526804115914274,0,colour,0.06,3.8
35,21,1,2,8,38,388,635.2072740047588,635.9982997704938,"[62, 0, 192]",192,a,0.26763392408611253,0,colour,0.06,3.8
35,21,1,2,8,39,389,636.5199925641937,637.2943346557149,"[68, 0, 186]",186,a,0.25103492656489834,0,colour,0.06,3.8
35,21,1,2,8,40,390,637.8012787364132,638.5583479613997,"[87, 0, 167]",167,l,0.23376245389226824,1,colour,0.06,3.8
35,21,1,2,8,41,391,639.0670627698419,639.8543178621621,"[80, 0, 174]",174,l,0.26242650355561636,1,colour,0.06,3.8
35,21,1,2,8,42,392,640.3658474818803,641.0383203449601,"[58, 0, 196]",196,a,0.1495327618031297,0,colour,0.06,3.8
35,21,1,2,8,43,393,641.5536119735043,642.686917527637,"[71, 0, 183]",183,a,0.6098302172904368,0,colour,0.06,3.8
35,21,1,2,8,44,394,643.1942097674182,644.3262947954354,"[76, 0, 178]",178,a,0.6087542323512025,0,colour,0.06,3.8
35,21,1,2,8,45,395,644.8349481640616,645.4943225252791,"[94, 0, 160]",160,l,0.1359714918944519,1,colour,0.06,3.8
35,21,1,2,8,46,396,646.0068399086304,646.9423387075949,"[69, 0, 185]",185,a,0.4120593020343222,0,colour,0.06,3.8
35,21,1,2,8,47,397,647.4601970249496,648.4302840923192,"[48, 0, 206]",206,a,0.4470953723648563,1,colour,0.06,3.8
35,21,1,2,8,48,398,648.9458388094208,649.5022900125769,"[52, 0, 202]",202,a,0.03306329995393753,0,colour,0.06,3.8
35,21,1,2,8,49,399,650.0240714214451,650.7662993798149,"[97, 0, 157]",157,l,0.21868330478901044,1,colour,0.06,3.8
35,21,1,2,8,50,400,651.2742209841381,651.9582886483113,"[73, 0, 181]",181,a,0.16079358221031725,0,colour,0.06,3.8
35,21,1,2,9,1,401,656.8558562213148,659.2863336915907,"[80, 0, 174]",174,a,1.906380251981318,0,colour,0.06,3.7
35,21,1,2,9,2,402,659.7943179173162,660.7102252833429,"[92, 0, 162]",162,l,0.39254585045273416,1,colour,0.06,3.7
35,21,1,2,9,3,403,661.2176392212859,662.7823001265351,"[95, 0, 159]",159,l,1.0412946635333356,1,colour,0.06,3.7
35,21,1,2,9,4,404,663.2959714761528,664.0142382897029,"[64, 0, 190]",190,a,0.19519634955213405,0,colour,0.06,3.7
35,21,1,2,9,5,405,664.5304322174634,665.2782901921892,"[99, 0, 155]",155,l,0.22493677801685408,1,colour,0.06,3.7
35,21,1,2,9,6,406,665.7961709587253,666.4462556944927,"[98, 0, 156]",156,l,0.12677323853131384,1,colour,0.06,3.7
35,21,1,2,9,7,407,666.9524794324243,667.5743049913144,"[79, 0, 175]",175,a,0.09842229573405348,0,colour,0.06,3.7
35,21,1,2,9,8,408,668.0932960073114,668.9742846688896,"[94, 0, 160]",160,l,0.35774057341041043,1,colour,0.06,3.7
35,21,1,2,9,9,409,669.484336187772,670.4142258442007,"[71, 0, 183]",183,a,0.40683927849750035,0,colour,0.06,3.7
35,21,1,2,9,10,410,670.9219521013438,671.9102399343974,"[78, 0, 176]",176,a,0.46502596032223664,0,colour,0.06,3.7
35,21,1,2,9,11,411,672.4220511533786,673.3902532778739,"[67, 0, 187]",187,a,0.4450068115547765,0,colour,0.06,3.7
35,21,1,2,9,12,412,673.9065882021969,674.8622904694348,"[65, 0, 189]",189,a,0.4323222409293521,0,colour,0.06,3.7
35,21,1,2,9,13,413,675.3754324911861,676.1582150780305,"[69, 0, 185]",185,a,0.25941004359629005,0,colour,0.06,3.7
35,21,1,2,9,14,414,676.6723314726551,677.6542268051708,"[70, 0, 184]",184,a,0.4585495707287919,0,colour,0.06,3.7
35,21,1,2,9,15,415,678.172502598376,679.02220262622,"[76, 0, 178]",178,a,0.3263432384119369,0,colour,0.06,3.7
35,21,1,2,9,16,416,679.5320422564109,680.4622048475139,"[75, 0, 179]",179,a,0.4068440046394244,0,colour,0.06,3.7
35,21,1,2,9,17,417,680.9696250869893,681.6382359045674,"[60, 0, 194]",194,a,0.14524851430905983,0,colour,0.06,3.7
35,21,1,2,9,18,418,682.1572454312991,683.0862552376348,"[91, 0, 163]",163,l,0.4061366587411612,1,colour,0.06,3.7
35,21,1,2,9,19,419,683.5948412587459,684.5502123022161,"[54, 0, 200]",200,a,0.43215564446290955,0,colour,0.06,3.7
35,21,1,2,9,20,420,685.0649434891238,686.0462078817072,"[84, 0, 170]",170,l,0.4579257200239226,1,colour,0.06,3.7
35,21,1,2,9,21,421,686.5650677472586,687.790181755583,"[90, 0, 164]",164,a,0.7018757662735879,0,colour,0.06,3.7
35,21,1,2,9,22,422,688.2995113563084,690.6863228214788,"[68, 0, 186]",186,a,1.8634085958474316,0,colour,0.06,3.7
35,21,1,2,9,23,423,691.2060251217918,691.8301676716947,"[97, 0, 157]",157,l,0.10080505887162872,1,colour,0.06,3.7
35,21,1,2,9,24,424,692.3467054262583,692.9742960903968,"[96, 0, 158]",158,l,0.10401568448287435,1,colour,0.06,3.7
35,21,1,2,9,25,425,693.4874164506618,694.198221474071,"[26, 0, 228]",228,a,0.18735607419512235,1,colour,0.06,3.7
35,21,1,2,9,26,426,694.7063553609478,695.4863404657226,"[88, 0, 166]",166,l,0.2569528437452391,1,colour,0.06,3.7
35,21,1,2,9,27,427,696.0031330381171,696.7902309862257,"[81, 0, 173]",173,a,0.26363600202603266,0,colour,0.06,3.7
35,21,1,2,9,28,428,697.3001604131132,697.9662336864276,"[50, 0, 204]",204,a,0.14264716711477377,1,colour,0.06,3.7
35,21,1,2,9,29,429,698.4878658279777,699.9261579736485,"[93, 0, 161]",161,l,0.9148617071914487,1,colour,0.06,3.7
35,21,1,2,9,30,430,700.4425673347141,701.2541561493417,"[89, 0, 165]",165,l,0.2881871268618852,1,colour,0.06,3.7
35,21,1,2,9,31,431,701.7706690916966,702.5903293687443,"[59, 0, 195]",195,a,0.2961782448692247,0,colour,0.06,3.7
35,21,1,2,9,32,432,703.0989713158633,703.9502030074655,"[82, 0, 172]",172,l,0.32791901283781044,1,colour,0.06,3.7
35,21,1,2,9,33,433,704.4584369310178,705.4061937662773,"[57, 0, 197]",197,a,0.42470763888559304,0,colour,0.06,3.7
35,21,1,2,9,34,434,705.9272650723578,706.870213846094,"[63, 0, 191]",191,a,0.41945532005047426,0,colour,0.06,3.7
35,21,1,2,9,35,435,707.3805682318925,708.5181273135822,"[53, 0, 201]",201,a,0.614709564804798,0,colour,0.06,3.7
35,21,1,2,9,36,436,709.0369296777644,709.8701787938771,"[83, 0, 171]",171,l,0.30989902204601094,1,colour,0.06,3.7
35,21,1,2,9,37,437,710.3807939051476,711.254141970916,"[85, 0, 169]",169,l,0.3502197065099608,1,colour,0.06,3.7
35,21,1,2,9,38,438,711.7716190461942,712.4862475182745,"[29, 0, 225]",225,a,0.191389836196322,1,colour,0.06,3.7
35,21,1,2,9,39,439,713.0059517878399,714.0141559760668,"[62, 0, 192]",192,a,0.4849553123640362,0,colour,0.06,3.7
35,21,1,2,9,40,440,714.5218050395488,715.334154369164,"[72, 0, 182]",182,a,0.28917685968917795,0,colour,0.06,3.7
35,21,1,2,9,41,441,715.8499662671529,716.7421129555732,"[56, 0, 198]",198,a,0.3688347973220516,0,colour,0.06,3.7
35,21,1,2,9,42,442,717.2564353312191,718.8141145435511,"[73, 0, 181]",181,l,1.0349139783065766,1,colour,0.06,3.7
35,21,1,2,9,43,443,719.3347333215352,720.1661026147776,"[52, 0, 202]",202,a,0.3066970610234421,0,colour,0.06,3.7
35,21,1,2,9,44,444,720.6800276006688,721.5261400930758,"[86, 0, 168]",168,l,0.3277134256786667,1,colour,0.06,3.7
35,21,1,2,9,45,445,722.034537856176,722.9501585029648,"[51, 0, 203]",203,a,0.3922343189478852,0,colour,0.06,3.7
35,21,1,2,9,46,446,723.4481942003185,724.5101066571951,"[61, 0, 193]",193,a,0.5387277777772397,0,colour,0.06,3.7
35,21,1,2,9,47,447,725.0298022621428,725.8940989787807,"[74, 0, 180]",180,l,0.3411017975304276,1,colour,0.06,3.7
35,21,1,2,9,48,448,726.4048436651356,727.6701326352195,"[77, 0, 177]",177,l,0.7420385188306682,1,colour,0.06,3.7
35,21,1,2,9,49,449,728.1769199655391,729.0140831147146,"[55, 0, 199]",199,a,0.31396744240191765,0,colour,0.06,3.7
35,21,1,2,9,50,450,729.5156319107336,730.382069963438,"[42, 0, 212]",212,a,0.34313285697135143,1,colour,0.06,3.7
35,21,1,2,10,1,451,735.2238328300591,736.3981931959861,"[45, 0, 209]",209,a,0.6502568461000919,1,colour,0.06,3.6
35,21,1,2,10,2,452,736.9123391290195,737.4940791289846,"[90, 0, 164]",164,l,0.05852696401416324,1,colour,0.06,3.6
35,21,1,2,10,3,453,738.0074023194902,738.5980333736516,"[87, 0, 167]",167,l,0.06735894142184407,1,colour,0.06,3.6
35,21,1,2,10,4,454,739.11689875304,739.8300818134448,"[50, 0, 204]",204,a,0.19002516276668757,1,colour,0.06,3.6
35,21,1,2,10,5,455,740.3513138083217,740.9580657319457,"[89, 0, 165]",165,l,0.08361805052845739,1,colour,0.06,3.6
35,21,1,2,10,6,456,741.4763848481234,742.4860907678958,"[55, 0, 199]",199,a,0.48674140009097755,0,colour,0.06,3.6
35,21,1,2,10,7,457,742.9921423954947,743.6220835274435,"[91, 0, 163]",163,l,0.10657016409095377,1,colour,0.06,3.6
35,21,1,2,10,8,458,744.1328171861242,745.0700890759472,"[75, 0, 179]",179,a,0.41213098185835406,0,colour,0.06,3.6
35,21,1,2,10,9,459,745.5906420817773,746.4620224972023,"[76, 0, 178]",178,a,0.3480827027524356,0,colour,0.06,3.6
35,21,1,2,10,10,460,746.9814116906491,747.6060012547823,"[97, 0, 157]",157,l,0.10141788190230727,1,colour,0.06,3.6
35,21,1,2,10,11,461,748.1221014473995,749.0220289405261,"[94, 0, 160]",160,l,0.37667782956850715,1,colour,0.06,3.6
35,21,1,2,10,12,462,749.5284673240385,750.3420182752016,"[66, 0, 188]",188,a,0.2901634417939931,0,colour,0.06,3.6
35,21,1,2,10,13,463,750.8580200065335,751.6541110147082,"[61, 0, 193]",193,a,0.27316587301902473,0,colour,0.06,3.6
35,21,1,2,10,14,464,752.1705223449972,752.8781399796426,"[73, 0, 181]",181,a,0.18145351702696644,0,colour,0.06,3.6
35,21,1,2,10,15,465,753.3922386512568,754.062037699623,"[69, 0, 185]",185,a,0.15021056929253973,0,colour,0.06,3.6
35,21,1,2,10,16,466,754.5761655157839,755.302002033015,"[72, 0, 182]",182,a,0.20243286024197005,0,colour,0.06,3.6
35,21,1,2,10,17,467,755.810674700042,756.4460827964649,"[96, 0, 158]",158,l,0.1120780884521082,1,colour,0.06,3.6
35,21,1,2,10,18,468,756.9670166505675,757.6862117571291,"[62, 0, 192]",192,a,0.19608171342406422,0,colour,0.06,3.6
35,21,1,2,10,19,469,758.2031886490586,759.1100545121008,"[92, 0, 162]",162,l,0.38367370088235475,1,colour,0.06,3.6
35,21,1,2,10,20,470,759.6255229771195,760.1900613965117,"[74, 0, 180]",180,a,0.04122022679075599,0,colour,0.06,3.6
35,21,1,2,10,21,471,760.7036941492988,761.3580024804396,"[67, 0, 187]",187,a,0.13102400919888169,0,colour,0.06,3.6
35,21,1,2,10,22,472,761.8756741151738,762.6059851071332,"[95, 0, 159]",159,l,0.20731299542239867,1,colour,0.06,3.6
35,21,1,2,10,23,473,763.1256023369206,764.2939754689578,"[81, 0, 173]",173,a,0.644789881655015,0,colour,0.06,3.6
35,21,1,2,10,24,474,764.8133965638408,765.4700128275144,"[93, 0, 161]",161,l,0.1334067723073531,1,colour,0.06,3.6
35,21,1,2,10,25,475,765.9867845261178,766.9420086653845,"[70, 0, 184]",184,a,0.4318133930210024,0,colour,0.06,3.6
35,21,1,2,10,26,476,767.4555835229403,768.3900177584728,"[63, 0, 191]",191,a,0.41109044299810193,0,colour,0.06,3.6
35,21,1,2,10,27,477,768.9088409964461,769.6861199912091,"[99, 0, 155]",155,l,0.25397143597365357,1,colour,0.06,3.6
35,21,1,2,10,28,478,770.2058534053212,771.4140108047286,"[84, 0, 170]",170,l,0.6848581113736145,1,colour,0.06,3.6
35,21,1,2,10,29,479,771.9247023219941,773.0619857120619,"[85, 0, 169]",169,l,0.6139695297752041,1,colour,0.06,3.6
35,21,1,2,10,30,480,773.5811082723667,774.2220065701113,"[77, 0, 177]",177,a,0.11786918749567121,0,colour,0.06,3.6
35,21,1,2,10,31,481,774.7373962661077,775.3739874733437,"[64, 0, 190]",190,a,0.11315919339540415,0,colour,0.06,3.6
35,21,1,2,10,32,482,775.8937200997607,777.0059864461946,"[80, 0, 174]",174,a,0.5889217662042938,0,colour,0.06,3.6
35,21,1,2,10,33,483,777.518934696127,778.3979356212658,"[65, 0, 189]",189,a,0.3556401972309686,0,colour,0.06,3.6
35,21,1,2,10,34,484,778.909664920473,779.4939869692316,"[57, 0, 197]",197,a,0.061112163559300825,0,colour,0.06,3.6
35,21,1,2,10,35,485,780.0034902556799,780.5819810332032,"[52, 0, 202]",202,a,0.05441797763342038,0,colour,0.06,3.6
35,21,1,2,10,36,486,781.0980319951777,781.8219930218474,"[82, 0, 172]",172,l,0.205566686054226,1,colour,0.06,3.6
35,21,1,2,10,37,487,782.3277595055406,783.141926824348,"[54, 0, 200]",200,a,0.3012289150210563,0,colour,0.06,3.6
35,21,1,2,10,38,488,783.6611966827186,784.2699501273746,"[53, 0, 201]",201,a,0.08554237792850472,0,colour,0.06,3.6
35,21,1,2,10,39,489,784.7862952916767,785.8221265353495,"[34, 0, 220]",220,a,0.5125520417059306,1,colour,0.06,3.6
35,21,1,2,10,40,490,786.3332308022946,787.725943249272,"[58, 0, 196]",196,a,0.8694363957911264,0,colour,0.06,3.6
35,21,1,2,10,41,491,788.2396547710814,788.8779083986883,"[48, 0, 206]",206,a,0.11499214867944829,1,colour,0.06,3.6
35,21,1,2,10,42,492,789.3960258661536,790.3179511860362,"[56, 0, 198]",198,a,0.3987583637936041,0,colour,0.06,3.6
35,21,1,2,10,43,493,790.8335614353127,791.7259653045912,"[83, 0, 171]",171,l,0.3691097012197133,1,colour,0.06,3.6
35,21,1,2,10,44,494,792.239867841301,793.093954122538,"[79, 0, 175]",175,l,0.3294069597905036,1,colour,0.06,3.6
35,21,1,2,10,45,495,793.6007253052085,794.6059216980648,"[60, 0, 194]",194,a,0.4823185191198718,0,colour,0.06,3.6
35,21,1,2,10,46,496,795.1164600095362,796.0299125387974,"[51, 0, 203]",203,a,0.39010401055566035,0,colour,0.06,3.6
35,21,1,2,10,47,497,796.538506830635,797.5099034330924,"[71, 0, 183]",183,l,0.4482769077876583,1,colour,0.06,3.6
35,21,1,2,10,48,498,798.0242344733269,798.7419550236664,"[86, 0, 168]",168,l,0.1944484375999309,1,colour,0.06,3.6
35,21,1,2,10,49,499,799.2586085687217,799.8859908887825,"[98, 0, 156]",156,l,0.10399835530552082,1,colour,0.06,3.6
35,21,1,2,10,50,500,800.3994070267363,801.1099733799929,"[78, 0, 176]",176,a,0.18731747739366256,0,colour,0.06,3.6
35,21,1,2,11,1,501,806.3872265779064,807.7899076393514,"[66, 0, 188]",188,a,0.8786125938058831,0,colour,0.06,3.6
35,21,1,2,11,2,502,808.3114216273534,809.9979338883422,"[89, 0, 165]",165,l,1.1634555815544445,1,colour,0.06,3.6
35,21,1,2,11,3,503,810.5146283933136,811.5178925818764,"[67, 0, 187]",187,a,0.4801228324358817,0,colour,0.06,3.6
35,21,1,2,11,4,504,812.0303548268857,813.3258399043116,"[98, 0, 156]",156,l,0.7722543184354436,1,colour,0.06,3.6
35,21,1,2,11,5,505,813.8443141954776,814.7418475039303,"[68, 0, 186]",186,a,0.37426513418904506,0,colour,0.06,3.6
35,21,1,2,11,6,506,815.2506765274738,816.1099103647866,"[86, 0, 168]",168,l,0.3365780922176782,1,colour,0.06,3.6
35,21,1,2,11,7,507,816.6254705956962,817.5018745059497,"[81, 0, 173]",173,l,0.35304357620771043,1,colour,0.06,3.6
35,21,1,2,11,8,508,818.016127171024,820.0859011708526,"[20, 0, 234]",234,a,1.5464176042587496,1,colour,0.06,3.6
35,21,1,2,11,9,509,820.5958680130425,822.5018516629352,"[96, 0, 158]",158,l,1.3826107128115837,1,colour,0.06,3.6
35,21,1,2,11,10,510,823.01842525744,823.8938228933548,"[52, 0, 202]",202,a,0.35273125700769015,0,colour,0.06,3.6
35,21,1,2,11,11,511,824.4087163444492,825.2298314854561,"[62, 0, 192]",192,a,0.2977398408402223,0,colour,0.06,3.6
35,21,1,2,11,12,512,825.7369193196355,826.5178717080853,"[49, 0, 205]",205,a,0.2575069838494528,1,colour,0.06,3.6
35,21,1,2,11,13,513,827.0338631994673,827.8539181093511,"[57, 0, 197]",197,a,0.2966370744688902,0,colour,0.06,3.6
35,21,1,2,11,14,514,828.3621323406114,829.2778463287104,"[82, 0, 172]",172,l,0.3926659732533153,1,colour,0.06,3.6
35,21,1,2,11,15,515,829.7841322941531,830.3659136478673,"[94, 0, 160]",160,l,0.058445438073249534,1,colour,0.06,3.6
35,21,1,2,11,16,516,830.8779915000196,831.4458338863333,"[64, 0, 190]",190,a,0.04545524361310527,0,colour,0.06,3.6
35,21,1,2,11,17,517,831.9585848198622,832.9100071719149,"[53, 0, 201]",201,a,0.4282750882266555,0,colour,0.06,3.6
35,21,1,2,11,18,518,833.4273885427974,834.3179027430888,"[95, 0, 159]",159,l,0.3674362532037776,1,colour,0.06,3.6
35,21,1,2,11,19,519,834.8337071580172,836.0058293019829,"[60, 0, 194]",194,a,0.6486806778411847,0,colour,0.06,3.6
35,21,1,2,11,20,520,836.5215356494591,837.4298000566196,"[79, 0, 175]",175,l,0.3851053279649932,1,colour,0.06,3.6
35,21,1,2,11,21,521,837.9435163046,838.7818302692613,"[55, 0, 199]",199,a,0.3149689905985724,0,colour,0.06,3.6
35,21,1,2,11,22,522,839.3030843194865,840.2058612822148,"[74, 0, 180]",180,l,0.3781464780913666,1,colour,0.06,3.6
35,21,1,2,11,23,523,840.7263815989136,841.5738256817567,"[63, 0, 191]",191,a,0.3241562163166236,0,colour,0.06,3.6
35,21,1,2,11,24,524,842.0859689122299,844.9577900403528,"[76, 0, 178]",178,l,2.3485746153455693,1,colour,0.06,3.6
35,21,1,2,11,25,525,845.4771536338667,847.8138526365219,"[78, 0, 176]",176,l,1.8136954923102167,1,colour,0.06,3.6
35,21,1,2,11,26,526,848.3353280276933,849.7018088125915,"[50, 0, 204]",204,a,0.8430306541558821,1,colour,0.06,3.6
35,21,1,2,11,27,527,850.2244933083712,850.7658169195056,"[59, 0, 195]",195,a,0.018132630502805114,0,colour,0.06,3.6
35,21,1,2,11,28,528,851.2869610869093,851.8617678369337,"[56, 0, 198]",198,a,0.0511888412584085,0,colour,0.06,3.6
35,21,1,2,11,29,529,852.3810144584277,853.2058801867825,"[93, 0, 161]",161,l,0.2996846481983084,1,colour,0.06,3.6
35,21,1,2,11,30,530,853.7274670361367,854.6217853866692,"[51, 0, 203]",203,a,0.3710411178180948,0,colour,0.06,3.6
35,21,1,2,11,31,531,855.1337943159451,856.0457423567423,"[91, 0, 163]",163,l,0.3882718429667875,1,colour,0.06,3.6
35,21,1,2,11,32,532,856.5450663215306,857.4697765204473,"[92, 0, 162]",162,l,0.40133608027826995,1,colour,0.06,3.6
35,21,1,2,11,33,533,857.9826204013953,858.9017482392082,"[58, 0, 196]",196,a,0.39581870363326743,0,colour,0.06,3.6
35,21,1,2,11,34,534,859.4202319826582,860.7338429951924,"[61, 0, 193]",193,a,0.7902128693531267,0,colour,0.06,3.6
35,21,1,2,11,35,535,861.2485603975074,862.1900629719021,"[83, 0, 171]",171,l,0.41686775744892657,1,colour,0.06,3.6
35,21,1,2,11,36,536,862.703121892293,863.7097384907538,"[90, 0, 164]",164,l,0.4833752056292724,1,colour,0.06,3.6
35,21,1,2,11,37,537,864.2188132736774,865.0297203423688,"[85, 0, 169]",169,l,0.288683765596943,1,colour,0.06,3.6
35,21,1,2,11,38,538,865.5460257283121,866.181719756336,"[99, 0, 155]",155,l,0.11239867843687534,1,colour,0.06,3.6
35,21,1,2,11,39,539,866.7022900913435,867.4297929674212,"[54, 0, 200]",200,a,0.20405156377819367,0,colour,0.06,3.6
35,21,1,2,11,40,540,867.9367492572928,868.9337603664899,"[87, 0, 167]",167,l,0.4737031565455254,1,colour,0.06,3.6
35,21,1,2,11,41,541,869.4525646998954,870.413781980722,"[84, 0, 170]",170,l,0.4378782144340221,1,colour,0.06,3.6
35,21,1,2,11,42,542,870.9214026873524,873.3817162904888,"[77, 0, 177]",177,a,1.9370280996663496,0,colour,0.06,3.6
35,21,1,2,11,43,543,873.890553584788,875.5257399464026,"[65, 0, 189]",189,a,1.1119315780815668,0,colour,0.06,3.6
35,21,1,2,11,44,544,876.0469246798602,877.2057257994893,"[72, 0, 182]",182,a,0.6334164215368219,0,colour,0.06,3.6
35,21,1,2,11,45,545,877.7210123080586,878.325740261469,"[11, 0, 243]",243,a,0.08133886868017726,1,colour,0.06,3.6
35,21,1,2,11,46,546,878.846025846462,880.4937163976138,"[69, 0, 185]",185,a,1.124295558722224,0,colour,0.06,3.6
35,21,1,2,11,47,547,881.0025060366606,881.5657053825562,"[97, 0, 157]",157,l,0.03988509174087085,1,colour,0.06,3.6
35,21,1,2,11,48,548,882.0806835103722,883.2377784928249,"[80, 0, 174]",174,l,0.6315468386455905,1,colour,0.06,3.6
35,21,1,2,11,49,549,883.7547325417108,884.6537144126487,"[88, 0, 166]",166,l,0.3755297709722072,1,colour,0.06,3.6
35,21,1,2,11,50,550,885.1611433166836,886.0456612246344,"[73, 0, 181]",181,a,0.3612335860088933,0,colour,0.06,3.6
35,21,1,2,12,1,551,891.1452709634905,893.1017187795951,"[63, 0, 191]",191,a,1.432447483704891,0,colour,0.06,3.5
35,21,1,2,12,2,552,893.6149655641348,894.157675116352,"[70, 0, 184]",184,a,0.019564257614547387,0,colour,0.06,3.5
35,21,1,2,12,3,553,894.6795959463634,895.6857127553376,"[95, 0, 159]",159,l,0.4828769915329758,1,colour,0.06,3.5
35,21,1,2,12,4,554,896.1952865400526,897.597698211408,"[69, 0, 185]",185,a,0.8790198297065217,0,colour,0.06,3.5
35,21,1,2,12,5,555,898.1173402534332,899.3015963725047,"[80, 0, 174]",174,a,0.6609127203701064,0,colour,0.06,3.5
35,21,1,2,12,6,556,899.8205105887027,900.7019360245613,"[99, 0, 155]",155,l,0.358048954163678,1,colour,0.06,3.5
35,21,1,2,12,7,557,901.2112664129818,901.8616508649429,"[78, 0, 176]",176,a,0.12703514556051232,0,colour,0.06,3.5
35,21,1,2,12,8,558,902.3676142712065,903.0056430132245,"[66, 0, 188]",188,a,0.11002773063955829,0,colour,0.06,3.5
35,21,1,2,12,9,559,903.5129903913476,904.1416365604673,"[53, 0, 201]",201,a,0.10532403804245405,0,colour,0.06,3.5
35,21,1,2,12,10,560,904.6537652186526,905.2456297957979,"[64, 0, 190]",190,a,0.06876890704734251,0,colour,0.06,3.5
35,21,1,2,12,11,561,905.7631844585412,906.4456109699968,"[65, 0, 189]",189,a,0.15913667567656375,0,colour,0.06,3.5
35,21,1,2,12,12,562,906.9664219444094,907.7656117261795,"[87, 0, 167]",167,l,0.2759168813354336,1,colour,0.06,3.5
35,21,1,2,12,13,563,908.2803224331292,909.1256448721979,"[84, 0, 170]",170,a,0.32211373539757915,0,colour,0.06,3.5
35,21,1,2,12,14,564,909.639805377461,910.2376032317115,"[74, 0, 180]",180,a,0.07443791403784417,0,colour,0.06,3.5
35,21,1,2,12,15,565,910.7492545495916,911.3495938865817,"[20, 0, 234]",234,l,0.07691953232279047,0,colour,0.06,3.5
35,21,1,2,12,16,566,911.8587584661727,912.7256269916252,"[68, 0, 186]",186,a,0.3436113788338844,0,colour,0.06,3.5
35,21,1,2,12,17,567,913.2338085337542,914.0696022833581,"[96, 0, 158]",158,l,0.3124767385306768,1,colour,0.06,3.5
35,21,1,2,12,18,568,914.5776463735092,915.5256001313683,"[71, 0, 183]",183,a,0.42467810050584376,0,colour,0.06,3.5
35,21,1,2,12,19,569,916.0316399435978,916.6215927964076,"[89, 0, 165]",165,l,0.06663781095994636,1,colour,0.06,3.5
35,21,1,2,12,20,570,917.1410075897875,917.8056063068798,"[73, 0, 181]",181,a,0.14117418631212786,0,colour,0.06,3.5
35,21,1,2,12,21,571,918.3130226078792,919.1976377955871,"[81, 0, 173]",173,a,0.3612540659669321,0,colour,0.06,3.5
35,21,1,2,12,22,572,919.7037366845761,920.3736483726825,"[31, 0, 223]",223,a,0.1465470217517577,1,colour,0.06,3.5
35,21,1,2,12,23,573,920.8913495458255,921.5495789992274,"[90, 0, 164]",164,l,0.13521215846412815,1,colour,0.06,3.5
35,21,1,2,12,24,574,922.0633480224351,923.4136157780595,"[76, 0, 178]",178,l,0.8273556173662655,1,colour,0.06,3.5
35,21,1,2,12,25,575,923.9228634590108,924.845559533831,"[85, 0, 169]",169,l,0.398649662558455,1,colour,0.06,3.5
35,21,1,2,12,26,576,925.361157573876,926.2935477531282,"[82, 0, 172]",172,l,0.4093508289952297,1,colour,0.06,3.5
35,21,1,2,12,27,577,926.8143878720875,927.5735941008315,"[79, 0, 175]",175,a,0.23602154964464717,0,colour,0.06,3.5
35,21,1,2,12,28,578,928.0799753767787,928.9096026929328,"[59, 0, 195]",195,a,0.30633787423721515,0,colour,0.06,3.5
35,21,1,2,12,29,579,929.4238585087587,930.2695673099079,"[60, 0, 194]",194,a,0.3226257340866141,0,colour,0.06,3.5
35,21,1,2,12,30,580,930.7846368097817,931.5496105068305,"[97, 0, 157]",157,l,0.24152238477836363,1,colour,0.06,3.5
35,21,1,2,12,31,581,932.0660777631274,932.8215944505646,"[98, 0, 156]",156,l,0.2322028271155432,1,colour,0.06,3.5
35,21,1,2,12,32,582,933.3316542401735,934.2135991577816,"[51, 0, 203]",203,a,0.35859088506549597,0,colour,0.06,3.5
35,21,1,2,12,33,583,934.7227078113938,935.5735291163728,"[58, 0, 196]",196,a,0.3276220535917673,0,colour,0.06,3.5
35,21,1,2,12,34,584,936.0820485776349,937.1015931429865,"[93, 0, 161]",161,l,0.49718735489295796,1,colour,0.06,3.5
35,21,1,2,12,35,585,937.6134181465604,938.229554612335,"[61, 0, 193]",193,a,0.09304827873711474,0,colour,0.06,3.5
35,21,1,2,12,36,586,938.7384793402452,939.5495352824219,"[86, 0, 168]",168,l,0.2877030911913607,1,colour,0.06,3.5
35,21,1,2,12,37,587,940.066730758379,941.0135340945853,"[50, 0, 204]",204,a,0.42352374040638097,1,colour,0.06,3.5
35,21,1,2,12,38,588,941.5198661398899,942.877574024169,"[72, 0, 182]",182,a,0.8343369163922034,0,colour,0.06,3.5
35,21,1,2,12,39,589,943.3951424715051,944.2455817466835,"[88, 0, 166]",166,l,0.327468453993788,1,colour,0.06,3.5
35,21,1,2,12,40,590,944.7545576744888,945.8775590580481,"[67, 0, 187]",187,a,0.599689098628005,0,colour,0.06,3.5
35,21,1,2,12,41,591,946.3953070987773,947.301577467937,"[62, 0, 192]",192,a,0.38296674881712534,0,colour,0.06,3.5
35,21,1,2,12,42,592,947.8172637293465,948.6775251085928,"[92, 0, 162]",162,l,0.3369672111875843,1,colour,0.06,3.5
35,21,1,2,12,43,593,949.1924315565848,950.3495194498391,"[77, 0, 177]",177,a,0.6340465737739578,0,colour,0.06,3.5
35,21,1,2,12,44,594,950.8644916699559,951.909603086795,"[56, 0, 198]",198,a,0.5220405589789152,0,colour,0.06,3.5
35,21,1,2,12,45,595,952.4287878746109,953.2135018780536,"[49, 0, 205]",205,a,0.2617794160032645,1,colour,0.06,3.5
35,21,1,2,12,46,596,953.7257195452112,954.5815206282132,"[54, 0, 200]",200,a,0.33244468740304,0,colour,0.06,3.5
35,21,1,2,12,47,597,955.101672305871,955.9575726378243,"[52, 0, 202]",202,a,0.33333595894509926,0,colour,0.06,3.5
35,21,1,2,12,48,598,956.4760000614333,957.3814929802902,"[94, 0, 160]",160,l,0.3825126453884877,1,colour,0.06,3.5
35,21,1,2,12,49,599,957.8980204949039,958.7895346680016,"[55, 0, 199]",199,a,0.3684669459471479,0,colour,0.06,3.5
35,21,1,2,12,50,600,959.3042981502076,960.1174584069813,"[57, 0, 197]",197,a,0.28982315957546234,0,colour,0.06,3.5
35,21,1,2,13,1,601,965.3352079049218,972.7974541061849,"[58, 0, 196]",196,a,6.938674766221084,0,colour,0.06,3.4
35,21,1,2,13,2,602,973.3098537298501,974.5654860108043,"[79, 0, 175]",175,a,0.7323235406365711,0,colour,0.06,3.4
35,21,1,2,13,3,603,975.0756556832348,976.1654090534721,"[76, 0, 178]",178,a,0.5663879162166268,0,colour,0.06,3.4
35,21,1,2,13,4,604,976.68507512004,977.6854669959575,"[91, 0, 163]",163,l,0.4769708897219971,1,colour,0.06,3.4
35,21,1,2,13,5,605,978.2008677196281,980.2934122704028,"[81, 0, 173]",173,l,1.569459514488699,1,colour,0.06,3.4
35,21,1,2,13,6,606,980.8103797100193,981.7014968872245,"[75, 0, 179]",179,a,0.3677359693683684,0,colour,0.06,3.4
35,21,1,2,13,7,607,982.2168200234009,982.8855923174997,"[98, 0, 156]",156,l,0.1453761201701127,1,colour,0.06,3.4
35,21,1,2,13,8,608,983.3988367389538,984.1894119458739,"[74, 0, 180]",180,a,0.2673153033829294,0,colour,0.06,3.4
35,21,1,2,13,9,609,984.6867406911624,985.4294396883051,"[66, 0, 188]",188,a,0.21969312374130823,0,colour,0.06,3.4
35,21,1,2,13,10,610,985.9367791895347,986.7893751607335,"[99, 0, 155]",155,l,0.32922933564987034,1,colour,0.06,3.4
35,21,1,2,13,11,611,987.296258983115,987.9974624557071,"[52, 0, 202]",202,a,0.17792860296322033,0,colour,0.06,3.4
35,21,1,2,13,12,612,988.5150891921367,989.5894487310143,"[44, 0, 210]",210,a,0.5509661218384281,1,colour,0.06,3.4
35,21,1,2,13,13,613,990.1090092470695,991.0374215903576,"[56, 0, 198]",198,a,0.4039055260072928,0,colour,0.06,3.4
35,21,1,2,13,14,614,991.5478133914294,992.3813976697566,"[90, 0, 164]",164,l,0.3103342209069524,1,colour,0.06,3.4
35,21,1,2,13,15,615,992.8917433909664,993.933715074294,"[55, 0, 199]",199,a,0.5186731829599012,0,colour,0.06,3.4
35,21,1,2,13,16,616,994.456621304882,995.4853790897178,"[64, 0, 190]",190,a,0.5054955182422418,0,colour,0.06,3.4
35,21,1,2,13,17,617,996.0034587480477,996.6854091007262,"[70, 0, 184]",184,a,0.15854433257482015,0,colour,0.06,3.4
35,21,1,2,13,18,618,997.206686781632,998.0774063249119,"[93, 0, 161]",161,l,0.3476341131317895,1,colour,0.06,3.4
35,21,1,2,13,19,619,998.5975099534553,999.4773718240613,"[68, 0, 186]",186,a,0.3569119232124649,0,colour,0.06,3.4
35,21,1,2,13,20,620,999.9895229314279,1000.8134324037528,"[97, 0, 157]",157,l,0.3005774951307103,1,colour,0.06,3.4
35,21,1,2,13,21,621,1001.3334001557087,1002.3493690009927,"[83, 0, 171]",171,l,0.49263686808990315,1,colour,0.06,3.4
35,21,1,2,13,22,622,1002.8646787464095,1003.749369552359,"[50, 0, 204]",204,a,0.36141396706807427,1,colour,0.06,3.4
35,21,1,2,13,23,623,1004.2552699434164,1005.3414397166634,"[57, 0, 197]",197,a,0.5626247258333024,0,colour,0.06,3.4
35,21,1,2,13,24,624,1005.8493203610997,1006.6614176298317,"[89, 0, 165]",165,l,0.2886093288543634,1,colour,0.06,3.4
35,21,1,2,13,25,625,1007.1801502834132,1008.0934129793022,"[21, 0, 233]",233,a,0.39000121696153656,1,colour,0.06,3.4
35,21,1,2,13,26,626,1008.6022219167498,1009.3413428307686,"[54, 0, 200]",200,a,0.2156215526338201,0,colour,0.06,3.4
35,21,1,2,13,27,627,1009.8522111844795,1010.5174026385066,"[60, 0, 194]",194,a,0.14178740317584015,0,colour,0.06,3.4
35,21,1,2,13,28,628,1011.0157085136161,1011.9173897991714,"[86, 0, 168]",168,l,0.3851199002529029,1,colour,0.06,3.4
35,21,1,2,13,29,629,1012.4210799312568,1013.3093708756787,"[78, 0, 176]",176,l,0.3659199493995402,1,colour,0.06,3.4
35,21,1,2,13,30,630,1013.826750277367,1014.6933383850555,"[77, 0, 177]",177,l,0.3432088691042736,1,colour,0.06,3.4
35,21,1,2,13,31,631,1015.20181964332,1016.1093837938097,"[9, 0, 245]",245,a,0.38404982298379764,1,colour,0.06,3.4
35,21,1,2,13,32,632,1016.6238385014294,1018.3093649680086,"[72, 0, 182]",182,a,1.1623949565691873,0,colour,0.06,3.4
35,21,1,2,13,33,633,1018.8284256946063,1022.3973641519551,"[80, 0, 174]",174,a,3.0456017540127505,0,colour,0.06,3.4
35,21,1,2,13,34,634,1022.9080430661561,1024.1574120277946,"[51, 0, 203]",203,a,0.7259491569711827,0,colour,0.06,3.4
35,21,1,2,13,35,635,1024.674479897949,1025.5973260277533,"[87, 0, 167]",167,a,0.4001415479287971,0,colour,0.06,3.4
35,21,1,2,13,36,636,1026.111396736349,1027.053321512707,"[96, 0, 158]",158,l,0.41853529776562937,1,colour,0.06,3.4
35,21,1,2,13,37,637,1027.5646305791452,1028.3015085450606,"[63, 0, 191]",191,a,0.21362712082918733,0,colour,0.06,3.4
35,21,1,2,13,38,638,1028.8147210650786,1029.7013271399774,"[65, 0, 189]",189,a,0.36335286672692746,0,colour,0.06,3.4
35,21,1,2,13,39,639,1030.221089304774,1031.7814643871388,"[85, 0, 169]",169,a,1.0374751533090603,0,colour,0.06,3.4
35,21,1,2,13,40,640,1032.3001986161107,1032.997267108527,"[95, 0, 159]",159,l,0.17458131306921132,1,colour,0.06,3.4
35,21,1,2,13,41,641,1033.5180465753365,1034.3813141745923,"[88, 0, 166]",166,l,0.3400281756767072,1,colour,0.06,3.4
35,21,1,2,13,42,642,1034.893378636014,1036.3493111057614,"[62, 0, 192]",192,a,0.9321318168367725,0,colour,0.06,3.4
35,21,1,2,13,43,643,1036.8628741479479,1038.46929878628,"[67, 0, 187]",187,a,1.0830942364991643,0,colour,0.06,3.4
35,21,1,2,13,44,644,1038.9880093845422,1040.6612675748474,"[84, 0, 170]",170,l,1.1497871857718565,1,colour,0.06,3.4
35,21,1,2,13,45,645,1041.1756533595617,1042.0612783661927,"[59, 0, 195]",195,a,0.3620827161357738,0,colour,0.06,3.4
35,21,1,2,13,46,646,1042.5821401466383,1044.1013517159154,"[53, 0, 201]",201,a,0.9957716785138473,0,colour,0.06,3.4
35,21,1,2,13,47,647,1044.6136583921034,1046.149287002423,"[71, 0, 183]",183,a,1.0125089156499598,0,colour,0.06,3.4
35,21,1,2,13,48,648,1046.660620487266,1047.5413196726586,"[92, 0, 162]",162,l,0.35737429742584936,1,colour,0.06,3.4
35,21,1,2,13,49,649,1048.052819360164,1049.1733076178643,"[61, 0, 193]",193,a,0.5972094495955389,0,colour,0.06,3.4
35,21,1,2,13,50,650,1049.6957176035794,1050.9413135286886,"[69, 0, 185]",185,a,0.7221272836613934,0,colour,0.06,3.4
35,21,1,2,14,1,651,1056.3244267879054,1059.1732422395726,"[85, 0, 169]",169,l,2.324644978158176,1,colour,0.06,3.4
35,21,1,2,14,2,652,1059.66951547988,1061.0852851970412,"[70, 0, 184]",184,a,0.8925480166217312,0,colour,0.06,3.4
35,21,1,2,14,3,653,1061.5914994826599,1062.2932633969176,"[74, 0, 180]",180,a,0.1784571431344375,0,colour,0.06,3.4
35,21,1,2,14,4,654,1062.8104127930128,1063.541244842083,"[98, 0, 156]",156,l,0.20779821265023202,1,colour,0.06,3.4
35,21,1,2,14,5,655,1064.0604386883497,1064.6932273207058,"[60, 0, 194]",194,a,0.10970753451692872,0,colour,0.06,3.4
35,21,1,2,14,6,656,1065.2011615280935,1066.0133111782197,"[96, 0, 158]",158,l,0.28865777180180885,1,colour,0.06,3.4
35,21,1,2,14,7,657,1066.5293987678015,1067.3332418299688,"[90, 0, 164]",164,l,0.2805036019126419,1,colour,0.06,3.4
35,21,1,2,14,8,658,1067.8419818445109,1068.6612132242008,"[44, 0, 210]",210,a,0.2959411500778515,1,colour,0.06,3.4
35,21,1,2,14,9,659,1069.1716235360072,1070.3252877334016,"[66, 0, 188]",188,a,0.6309678862453438,0,colour,0.06,3.4
35,21,1,2,14,10,660,1070.8435257175006,1071.7172554192075,"[56, 0, 198]",198,a,0.3503295893315226,0,colour,0.06,3.4
35,21,1,2,14,11,661,1072.2342181327112,1073.0051987559127,"[67, 0, 187]",187,a,0.24761950148968026,0,colour,0.06,3.4
35,21,1,2,14,12,662,1073.5155736216693,1074.4292218919436,"[86, 0, 168]",168,l,0.3902375240577385,1,colour,0.06,3.4
35,21,1,2,14,13,663,1074.93762516891,1075.8051451141946,"[52, 0, 202]",202,a,0.3442419248749502,0,colour,0.06,3.4
35,21,1,2,14,14,664,1076.3127319501655,1077.3971628971049,"[77, 0, 177]",177,a,0.5611938864167314,0,colour,0.06,3.4
35,21,1,2,14,15,665,1077.9066264051653,1078.805229003221,"[97, 0, 157]",157,l,0.3753738082887139,1,colour,0.06,3.4
35,21,1,2,14,16,666,1079.3129359619634,1083.6852484119008,"[84, 0, 170]",170,a,3.849094294011593,0,colour,0.06,3.4
35,21,1,2,14,17,667,1084.205299265188,1085.3731773338804,"[78, 0, 176]",176,a,0.6446362820279319,0,colour,0.06,3.4
35,21,1,2,14,18,668,1085.8929304402554,1086.8691863041022,"[95, 0, 159]",159,l,0.45293136971304193,1,colour,0.06,3.4
35,21,1,2,14,19,669,1087.3774084122851,1088.3091806484736,"[83, 0, 171]",171,a,0.4085375387512613,0,colour,0.06,3.4
35,21,1,2,14,20,670,1088.8306032644177,1091.309203491517,"[88, 0, 166]",166,a,1.955538427690044,0,colour,0.06,3.4
35,21,1,2,14,21,671,1091.8168025366613,1092.6853263932571,"[92, 0, 162]",162,l,0.3456014783587307,1,colour,0.06,3.4
35,21,1,2,14,22,672,1093.1916978230875,1093.9891680769506,"[31, 0, 223]",223,a,0.2740343015466351,1,colour,0.06,3.4
35,21,1,2,14,23,673,1094.5044289855869,1095.4051441689662,"[64, 0, 190]",190,a,0.3774942705349531,0,colour,0.06,3.4
35,21,1,2,14,24,674,1095.9264246067905,1096.7811296187574,"[65, 0, 189]",189,a,0.33126945348340087,0,colour,0.06,3.4
35,21,1,2,14,25,675,1097.3015593510645,1098.1811089024995,"[51, 0, 203]",203,a,0.35607775920652784,0,colour,0.06,3.4
35,21,1,2,14,26,676,1098.692230104789,1099.3411384251376,"[71, 0, 183]",183,a,0.12548812181921676,0,colour,0.06,3.4
35,21,1,2,14,27,677,1099.8486496428377,1100.6211934374296,"[89, 0, 165]",165,l,0.24926065420731902,1,colour,0.06,3.4
35,21,1,2,14,28,678,1101.129863741371,1102.1171590846789,"[82, 0, 172]",172,l,0.46385466484935023,1,colour,0.06,3.4
35,21,1,2,14,29,679,1102.630054953217,1103.4851435703167,"[58, 0, 196]",196,a,0.33032540665590204,0,colour,0.06,3.4
35,21,1,2,14,30,680,1104.0065457063029,1104.8691878794925,"[69, 0, 185]",185,a,0.33932082980754785,0,colour,0.06,3.4
35,21,1,2,14,31,681,1105.3815465432417,1106.4130797547987,"[93, 0, 161]",161,l,0.5080700839462224,1,colour,0.06,3.4
35,21,1,2,14,32,682,1106.9286856717954,1107.8451377256715,"[62, 0, 192]",192,a,0.3931590673746541,0,colour,0.06,3.4
35,21,1,2,14,33,683,1108.3662019425246,1109.5171348238073,"[73, 0, 181]",181,a,0.6280309830035549,0,colour,0.06,3.4
35,21,1,2,14,34,684,1110.0239828062768,1111.0131319786888,"[55, 0, 199]",199,a,0.46591368727968074,0,colour,0.06,3.4
35,21,1,2,14,35,685,1111.5240814645076,1112.6771103896608,"[81, 0, 173]",173,l,0.6297197910025716,1,colour,0.06,3.4
35,21,1,2,14,36,686,1113.1947119199904,1114.1410532758164,"[57, 0, 197]",197,a,0.4206494585087057,0,colour,0.06,3.4
35,21,1,2,14,37,687,1114.6387163956533,1115.6450726624462,"[61, 0, 193]",193,a,0.4830510710889939,0,colour,0.06,3.4
35,21,1,2,14,38,688,1116.1544731553004,1117.2290489151492,"[72, 0, 182]",182,l,0.5513981699477881,1,colour,0.06,3.4
35,21,1,2,14,39,689,1117.7483266504132,1118.5811035462248,"[53, 0, 201]",201,a,0.31518836235045455,0,colour,0.06,3.4
35,21,1,2,14,40,690,1119.1020437018306,1119.9170790553326,"[87, 0, 167]",167,l,0.3009638572111726,1,colour,0.06,3.4
35,21,1,2,14,41,691,1120.4365745869873,1121.469145186682,"[5, 0, 249]",249,a,0.5091823026596103,1,colour,0.06,3.4
35,21,1,2,14,42,692,1121.983647943387,1122.7733137618343,"[50, 0, 204]",204,a,0.26636141040944494,1,colour,0.06,3.4
35,21,1,2,14,43,693,1123.280561890977,1124.2290709704976,"[94, 0, 160]",160,l,0.425346061878372,1,colour,0.06,3.4
35,21,1,2,14,44,694,1124.7495869548875,1125.5090637552494,"[59, 0, 195]",195,a,0.23621335221105255,0,colour,0.06,3.4
35,21,1,2,14,45,695,1126.0165517360729,1127.149127888988,"[79, 0, 175]",175,l,0.6093083724845201,1,colour,0.06,3.4
35,21,1,2,14,46,696,1127.65732912338,1128.5570632385206,"[63, 0, 191]",191,a,0.37637653801357374,0,colour,0.06,3.4
35,21,1,2,14,47,697,1129.0634878374694,1130.2370211285888,"[75, 0, 179]",179,a,0.6507333987392485,0,colour,0.06,3.4
35,21,1,2,14,48,698,1130.751079627982,1131.6610801045608,"[54, 0, 200]",200,a,0.3866342348337639,0,colour,0.06,3.4
35,21,1,2,14,49,699,1132.1734045037592,1133.1330302563438,"[91, 0, 163]",163,l,0.436331978358794,1,colour,0.06,3.4
35,21,1,2,14,50,700,1133.6422858141887,1134.8210686672828,"[99, 0, 155]",155,l,0.6555225556949154,1,colour,0.06,3.4
35,21,1,2,15,1,701,1141.268294008536,1142.437110610219,"[53, 0, 201]",201,a,0.6444822885969188,0,colour,0.06,3.3
35,21,1,2,15,2,702,1142.9414785497938,1143.7090654094063,"[65, 0, 189]",189,a,0.24432656221324578,0,colour,0.06,3.3
35,21,1,2,15,3,703,1144.222726519045,1145.3810101261479,"[81, 0, 173]",173,l,0.6350004667183384,1,colour,0.06,3.3
35,21,1,2,15,4,704,1145.8947874201112,1146.5010037143365,"[95, 0, 159]",159,l,0.08294103073421866,1,colour,0.06,3.3
35,21,1,2,15,5,705,1147.0198289215332,1147.9649863788509,"[71, 0, 183]",183,a,0.42205863643903285,0,colour,0.06,3.3
35,21,1,2,15,6,706,1148.4731490164122,1149.3730639064743,"[99, 0, 155]",155,l,0.37667152800713666,1,colour,0.06,3.3
35,21,1,2,15,7,707,1149.880717302265,1150.9730310598097,"[56, 0, 198]",198,a,0.5691125369339716,0,colour,0.06,3.3
35,21,1,2,15,8,708,1151.4902403203596,1152.9809690086986,"[80, 0, 174]",174,l,0.9674372771987692,1,colour,0.06,3.3
35,21,1,2,15,9,709,1153.4904006153229,1154.6130518705759,"[91, 0, 163]",163,l,0.5993566933320835,1,colour,0.06,3.3
35,21,1,2,15,10,710,1155.1311701257364,1156.0610377268167,"[93, 0, 161]",161,l,0.4066269959730562,1,colour,0.06,3.3
35,21,1,2,15,11,711,1156.5688053376798,1157.660994640144,"[52, 0, 202]",202,a,0.5687663470162079,0,colour,0.06,3.3
35,21,1,2,15,12,712,1158.1782720359333,1159.2530297522317,"[61, 0, 193]",193,a,0.5514308591082226,0,colour,0.06,3.3
35,21,1,2,15,13,713,1159.772180275526,1160.6609958216723,"[92, 0, 162]",162,l,0.3655320119287353,1,colour,0.06,3.3
35,21,1,2,15,14,714,1161.1784977091884,1162.1010023752751,"[97, 0, 157]",157,l,0.3991663873603102,1,colour,0.06,3.3
35,21,1,2,15,15,715,1162.6161274073238,1163.692972502904,"[78, 0, 176]",176,a,0.553598582802806,0,colour,0.06,3.3
35,21,1,2,15,16,716,1164.2099919301108,1166.0610022807377,"[79, 0, 175]",175,a,1.3278044038743246,0,colour,0.06,3.3
35,21,1,2,15,17,717,1166.5695985418279,1167.5009741759568,"[75, 0, 179]",179,a,0.40809800758142956,0,colour,0.06,3.3
35,21,1,2,15,18,718,1168.0071333232627,1168.669050348748,"[68, 0, 186]",186,a,0.1386212820361834,0,colour,0.06,3.3
35,21,1,2,15,19,719,1169.179084538453,1169.8209457875928,"[58, 0, 196]",196,a,0.1186399424332194,0,colour,0.06,3.3
35,21,1,2,15,20,720,1170.3355434609985,1170.8929867600964,"[55, 0, 199]",199,a,0.03455479154945351,0,colour,0.06,3.3
35,21,1,2,15,21,721,1171.4136433472158,1172.452987689583,"[89, 0, 165]",165,l,0.5162754537304863,1,colour,0.06,3.3
35,21,1,2,15,22,722,1172.961173957854,1173.8049714285007,"[82, 0, 172]",172,l,0.3205682870466262,1,colour,0.06,3.3
35,21,1,2,15,23,723,1174.320427684317,1175.0449660879676,"[60, 0, 194]",194,a,0.20109930058242753,0,colour,0.06,3.3
35,21,1,2,15,24,724,1175.5550113053177,1176.3969167438918,"[98, 0, 156]",156,l,0.3185982736176811,1,colour,0.06,3.3
35,21,1,2,15,25,725,1176.9158920060727,1177.8131437152624,"[83, 0, 171]",171,l,0.3864463706850074,1,colour,0.06,3.3
35,21,1,2,15,26,726,1178.3253791054885,1179.2049889152113,"[57, 0, 197]",197,a,0.35627783252857625,0,colour,0.06,3.3
35,21,1,2,15,27,727,1179.716127446707,1181.0689969433588,"[51, 0, 203]",203,a,0.8296225900121499,0,colour,0.06,3.3
35,21,1,2,15,28,728,1181.5756633632118,1182.892989517015,"[88, 0, 166]",166,l,0.7941710130835418,1,colour,0.06,3.3
35,21,1,2,15,29,729,1183.403924824408,1184.5889371261583,"[76, 0, 178]",178,l,0.661713801411679,1,colour,0.06,3.3
35,21,1,2,15,30,730,1185.1072062239982,1186.5808967775083,"[43, 0, 211]",211,a,0.9503652716812212,1,colour,0.06,3.3
35,21,1,2,15,31,731,1187.0916721837712,1188.8289093364438,"[90, 0, 164]",164,l,1.2138941478042398,1,colour,0.06,3.3
35,21,1,2,15,32,732,1189.3431946906494,1190.6448918875249,"[54, 0, 200]",200,a,0.778690929611912,0,colour,0.06,3.3
35,21,1,2,15,33,733,1191.1557633920165,1193.2929006655468,"[94, 0, 160]",160,l,1.6147721861780155,1,colour,0.06,3.3
35,21,1,2,15,34,734,1193.81125759086,1194.8369729219412,"[66, 0, 188]",188,a,0.5027445098967291,0,colour,0.06,3.3
35,21,1,2,15,35,735,1195.3582120060455,1196.636922824866,"[62, 0, 192]",192,a,0.7556415363505948,0,colour,0.06,3.3
35,21,1,2,15,36,736,1197.1552218549186,1198.3648605059425,"[69, 0, 185]",185,a,0.6863082491909154,0,colour,0.06,3.3
35,21,1,2,15,37,737,1198.8747623636737,1199.98087448586,"[70, 0, 184]",184,a,0.5834457432792988,0,colour,0.06,3.3
35,21,1,2,15,38,738,1200.4997292314656,1202.1328900474764,"[74, 0, 180]",180,a,1.109798906603828,0,colour,0.06,3.3
35,21,1,2,15,39,739,1202.6405395048205,1203.772882107558,"[72, 0, 182]",182,a,0.6089866010006517,0,colour,0.06,3.3
35,21,1,2,15,40,740,1204.2811211510852,1205.7248700212513,"[77, 0, 177]",177,a,0.9202388749690726,0,colour,0.06,3.3
35,21,1,2,15,41,741,1206.2344296275405,1206.8608462392876,"[87, 0, 167]",167,l,0.10181527165696025,1,colour,0.06,3.3
35,21,1,2,15,42,742,1207.3764316763263,1208.6448651060637,"[84, 0, 170]",170,l,0.7451349293696694,1,colour,0.06,3.3
35,21,1,2,15,43,743,1209.1578574666346,1210.5487917027785,"[9, 0, 245]",245,a,0.8676814218051732,1,colour,0.06,3.3
35,21,1,2,15,44,744,1211.0642593801022,1212.7728911660088,"[64, 0, 190]",190,a,1.185604644851992,0,colour,0.06,3.3
35,21,1,2,15,45,745,1213.2838402579655,1214.572865093447,"[86, 0, 168]",168,l,0.7664411640434992,1,colour,0.06,3.3
35,21,1,2,15,46,746,1215.080211290042,1216.3408209859626,"[50, 0, 204]",204,a,0.7375022104824893,1,colour,0.06,3.3
35,21,1,2,15,47,747,1216.8615358621464,1218.0050412178389,"[59, 0, 195]",195,a,0.6201729846361559,0,colour,0.06,3.3
35,21,1,2,15,48,748,1218.5179146371956,1220.1887857320835,"[73, 0, 181]",181,a,1.147397333435947,0,colour,0.06,3.3
35,21,1,2,15,49,749,1220.7055156831047,1222.1808363616583,"[26, 0, 228]",228,a,0.9518941785208881,1,colour,0.06,3.3
35,21,1,2,15,50,750,1222.6914105130418,1223.7887926637486,"[67, 0, 187]",187,a,0.5739970043941867,0,colour,0.06,3.3
35,21,1,2,16,1,751,1228.5348019293451,1234.8208181817608,"[85, 0, 169]",169,l,5.761784732894739,1,colour,0.06,3.2
35,21,1,2,16,2,752,1235.3417008359975,1236.0207572145446,"[96, 0, 158]",158,l,0.15572046290617436,1,colour,0.06,3.2
35,21,1,2,16,3,753,1236.5292880973138,1237.3967942580348,"[97, 0, 157]",157,l,0.3442848540144041,1,colour,0.06,3.2
35,21,1,2,16,4,754,1237.8953722801525,1238.7488122615032,"[57, 0, 197]",197,a,0.33052429847884923,0,colour,0.06,3.2
35,21,1,2,16,5,755,1239.2703904462396,1239.8847467319574,"[11, 0, 243]",243,a,0.09715687128482386,1,colour,0.06,3.2
35,21,1,2,16,6,756,1240.4052063965064,1240.9887903794588,"[70, 0, 184]",184,a,0.060341802454786375,0,colour,0.06,3.2
35,21,1,2,16,7,757,1241.498927756591,1242.0927682548063,"[50, 0, 204]",204,a,0.07032735226675868,1,colour,0.06,3.2
35,21,1,2,16,8,758,1242.5916152731515,1243.2688138841477,"[99, 0, 155]",155,l,0.16180576424812898,1,colour,0.06,3.2
35,21,1,2,16,9,759,1243.7868321026326,1244.3727330765687,"[59, 0, 195]",195,a,0.06283956835977733,0,colour,0.06,3.2
35,21,1,2,16,10,760,1244.880691308499,1246.10879184457,"[81, 0, 173]",173,l,0.7044574212050065,1,colour,0.06,3.2
35,21,1,2,16,11,761,1246.6232595490583,1247.5168173846323,"[58, 0, 196]",196,a,0.3702183753193822,0,colour,0.06,3.2
35,21,1,2,16,12,762,1248.022248312278,1249.2367363785452,"[69, 0, 185]",185,a,0.6911722367512994,0,colour,0.06,3.2
35,21,1,2,16,13,763,1249.7567253981542,1250.444767353707,"[86, 0, 168]",168,l,0.16476314744795673,1,colour,0.06,3.2
35,21,1,2,16,14,764,1250.9599794255046,1251.5807782301272,"[71, 0, 183]",183,a,0.09544128182460554,0,colour,0.06,3.2
35,21,1,2,16,15,765,1252.0872634811967,1252.7567380011897,"[75, 0, 179]",179,a,0.15670743881491944,0,colour,0.06,3.2
35,21,1,2,16,16,766,1253.2642212559003,1254.1648119842284,"[52, 0, 202]",202,a,0.37720794513006695,0,colour,0.06,3.2
35,21,1,2,16,17,767,1254.6862905261514,1255.356756354391,"[98, 0, 156]",156,l,0.14708028809400275,1,colour,0.06,3.2
35,21,1,2,16,18,768,1255.8739171719935,1257.1407374120026,"[77, 0, 177]",177,l,0.743642650108086,1,colour,0.06,3.2
35,21,1,2,16,19,769,1257.6552941255213,1258.3247501347796,"[89, 0, 165]",165,l,0.1461425427987706,1,colour,0.06,3.2
35,21,1,2,16,20,770,1258.8429554297181,1259.4447287568764,"[68, 0, 186]",186,l,0.0786595401878003,1,colour,0.06,3.2
35,21,1,2,16,21,771,1259.95234552506,1260.668814829376,"[79, 0, 175]",175,l,0.19309400414931588,1,colour,0.06,3.2
35,21,1,2,16,22,772,1261.1867223773734,1262.5087329253147,"[64, 0, 190]",190,a,0.7985127619467676,0,colour,0.06,3.2
35,21,1,2,16,23,773,1263.015128773579,1263.8847770580323,"[92, 0, 162]",162,l,0.3446070193313062,1,colour,0.06,3.2
35,21,1,2,16,24,774,1264.3923646816984,1265.3007350331754,"[83, 0, 171]",171,l,0.3850722449715249,1,colour,0.06,3.2
35,21,1,2,16,25,775,1265.8143823582504,1266.7487055294623,"[66, 0, 188]",188,a,0.41106326767476276,0,colour,0.06,3.2
35,21,1,2,16,26,776,1267.2668151200342,1268.1567098019004,"[74, 0, 180]",180,a,0.3665453754947521,0,colour,0.06,3.2
35,21,1,2,16,27,777,1268.6731841473957,1269.572720946133,"[80, 0, 174]",174,a,0.37614613861660473,0,colour,0.06,3.2
35,21,1,2,16,28,778,1270.0810982293042,1270.7486870187277,"[56, 0, 198]",198,a,0.14438835650798865,0,colour,0.06,3.2
35,21,1,2,16,29,779,1271.2687362966535,1272.2048144418222,"[78, 0, 176]",176,a,0.4126709435658995,0,colour,0.06,3.2
35,21,1,2,16,30,780,1272.7219606871658,1273.9646980842226,"[82, 0, 172]",172,l,0.7193983306642622,1,colour,0.06,3.2
35,21,1,2,16,31,781,1274.4721616466413,1275.4767014996323,"[91, 0, 163]",163,l,0.48122126652742736,1,colour,0.06,3.2
35,21,1,2,16,32,782,1275.9878463326313,1276.8446867729654,"[88, 0, 166]",166,l,0.3335998351976741,1,colour,0.06,3.2
35,21,1,2,16,33,783,1277.3629712307884,1278.1486789055343,"[62, 0, 192]",192,a,0.2627092844049912,0,colour,0.06,3.2
35,21,1,2,16,34,784,1278.6599411043862,1279.4127150542045,"[84, 0, 170]",170,l,0.2295038063020911,1,colour,0.06,3.2
35,21,1,2,16,35,785,1279.9255935935362,1280.5087250484212,"[40, 0, 214]",214,a,0.05981208072626032,1,colour,0.06,3.2
35,21,1,2,16,36,786,1281.0196044298063,1281.876698506414,"[95, 0, 159]",159,l,0.3338558345567435,1,colour,0.06,3.2
35,21,1,2,16,37,787,1282.3945623376057,1283.3886806541996,"[60, 0, 194]",194,a,0.47074853026424535,0,colour,0.06,3.2
35,21,1,2,16,38,788,1283.910319884948,1284.7246975170856,"[73, 0, 181]",181,a,0.29105353183695115,0,colour,0.06,3.2
35,21,1,2,16,39,789,1285.2388371485576,1286.1406617937319,"[55, 0, 199]",199,a,0.3787514242285397,0,colour,0.06,3.2
35,21,1,2,16,40,790,1286.6605787396838,1287.5007213273784,"[67, 0, 187]",187,a,0.3167550783546176,0,colour,0.06,3.2
35,21,1,2,16,41,791,1288.021379489859,1288.74065297161,"[17, 0, 237]",237,a,0.19602066741208546,1,colour,0.06,3.2
35,21,1,2,16,42,792,1289.2558752834157,1289.8926303302287,"[51, 0, 203]",203,a,0.1111533400544431,0,colour,0.06,3.2
35,21,1,2,16,43,793,1290.398740640754,1291.3486549597292,"[76, 0, 178]",178,a,0.42719437714549713,0,colour,0.06,3.2
35,21,1,2,16,44,794,1291.8677188370784,1292.4606377376767,"[94, 0, 160]",160,l,0.06963457865640521,1,colour,0.06,3.2
35,21,1,2,16,45,795,1292.976108959614,1293.7406647869502,"[61, 0, 193]",193,a,0.253822956350632,0,colour,0.06,3.2
35,21,1,2,16,46,796,1294.2605226561427,1295.0128153271799,"[54, 0, 200]",200,a,0.2267457087582443,0,colour,0.06,3.2
35,21,1,2,16,47,797,1295.5284023395798,1296.2686807644786,"[65, 0, 189]",189,a,0.21676646047853865,0,colour,0.06,3.2
35,21,1,2,16,48,798,1296.7786795081047,1297.5726118510356,"[90, 0, 164]",164,l,0.2706578671350144,1,colour,0.06,3.2
35,21,1,2,16,49,799,1298.0911920865474,1298.9326406647451,"[93, 0, 161]",161,l,0.31799726592726074,1,colour,0.06,3.2
35,21,1,2,16,50,800,1299.4507222922985,1300.4126284082886,"[87, 0, 167]",167,l,0.4384551975526847,1,colour,0.06,3.2
