id,age,condition,counterbalance,block,trialinblock,trial,tstart,tend,trialstim,trialintensity,response,RT,accuracy,trialtype,colourfreq,credits
36,23,1,1,Practice,1,NA,5.513837095350027e-06,1.117374517954886,"[14, 0, 240]",240,a,0.5461218265118077,1,colour,0.5,4
36,23,1,1,Practice,2,NA,1.6272169050644152,2.2614084138767794,"[69, 0, 185]",185,a,0.1109363313880749,0,colour,0.5,4
36,23,1,1,Practice,3,NA,2.7679334433050826,6.789391702215653,"[53, 0, 201]",201,a,3.498649308050517,0,colour,0.5,4
36,23,1,1,Practice,4,NA,7.300723217835184,7.885407210269477,"[44, 0, 210]",210,a,0.06137407058849931,1,colour,0.5,4
36,23,1,1,Practice,5,NA,8.395570187305566,11.021389335975982,"[74, 0, 180]",180,l,2.1034257044666447,1,colour,0.5,4
36,23,1,1,Practice,6,NA,11.538882952765562,12.581763630674686,"[48, 0, 206]",206,a,0.5195841467939317,1,colour,0.5,4
36,23,1,1,Practice,7,NA,13.101515949354507,14.205353221972473,"[46, 0, 208]",208,a,0.5805167169310153,1,colour,0.5,4
36,23,1,1,Practice,8,NA,14.716190068051219,16.0374054426793,"[88, 0, 166]",166,l,0.7979535018675961,1,colour,0.5,4
36,23,1,1,Practice,9,NA,16.555732435779646,17.653347348968964,"[82, 0, 172]",172,l,0.5743368928087875,1,colour,0.5,4
36,23,1,1,Practice,10,NA,18.163965611020103,19.6933246004628,"[4, 0, 250]",250,a,1.005964390875306,1,colour,0.5,4
36,23,1,1,1,1,1,4.544216797570698,5.880022165598348,"[54, 0, 200]",200,a,0.8119109799736179,0,colour,0.5,4.0
36,23,1,1,1,2,2,6.3890036072116345,7.687990361824632,"[95, 0, 159]",159,l,0.7750167482881807,1,colour,0.5,4.0
36,23,1,1,1,3,3,8.20227847294882,9.272074134263676,"[13, 0, 241]",241,a,0.5464254811522551,1,colour,0.5,4.0
36,23,1,1,1,4,4,9.780563269450795,11.07215636910405,"[60, 0, 194]",194,a,0.7682737255236134,0,colour,0.5,4.0
36,23,1,1,1,5,5,11.593202469113749,13.047963249497116,"[45, 0, 209]",209,a,0.943885731336195,1,colour,0.5,4.0
36,23,1,1,1,6,6,13.565266639052425,15.255984378512949,"[23, 0, 231]",231,a,1.167334562400356,1,colour,0.5,4.0
36,23,1,1,1,7,7,15.779180873010773,17.391947599709965,"[47, 0, 207]",207,a,1.0872839611838572,1,colour,0.5,4.0
36,23,1,1,1,8,8,17.906507857784163,19.50396227906458,"[67, 0, 187]",187,l,1.0741949115763418,1,colour,0.5,4.0
36,23,1,1,1,9,9,20.014719174650963,21.75203785323538,"[35, 0, 219]",219,a,1.2139406215283088,1,colour,0.5,4.0
36,23,1,1,1,10,10,22.266180635488126,23.583927809784655,"[75, 0, 179]",179,l,0.794386446417775,1,colour,0.5,4.0
36,23,1,1,1,11,11,24.094451942830347,25.696032679697964,"[86, 0, 168]",168,l,1.078284205752425,1,colour,0.5,4.0
36,23,1,1,1,12,12,26.205253973021172,27.63996685401071,"[53, 0, 201]",201,a,0.9113430946599692,0,colour,0.5,4.0
36,23,1,1,1,13,13,28.158530154149048,29.295917913201265,"[97, 0, 157]",157,l,0.6141495169722475,1,colour,0.5,4.0
36,23,1,1,1,14,14,29.81495894753607,30.735935100645293,"[21, 0, 233]",233,a,0.3977312156930566,1,colour,0.5,4.0
36,23,1,1,1,15,15,31.252500818227418,32.11193394113798,"[8, 0, 246]",246,a,0.3360467950697057,1,colour,0.5,4.0
36,23,1,1,1,16,16,32.62762059638044,33.431911854306236,"[4, 0, 250]",250,a,0.2816414205590263,1,colour,0.5,4.0
36,23,1,1,1,17,17,33.94023478683084,34.76792517257854,"[32, 0, 222]",222,a,0.30441748531302437,1,colour,0.5,4.0
36,23,1,1,1,18,18,35.28580908989534,36.49589002900757,"[29, 0, 225]",225,a,0.6867111527826637,1,colour,0.5,4.0
36,23,1,1,1,19,19,37.00471078179544,37.85588812275091,"[15, 0, 239]",239,a,0.32788317289669067,1,colour,0.5,4.0
36,23,1,1,1,20,20,38.364161036966834,39.27985730202636,"[40, 0, 214]",214,a,0.39029069314710796,1,colour,0.5,4.0
36,23,1,1,1,21,21,39.788208197569475,40.727893176604994,"[6, 0, 248]",248,a,0.4164057770976797,1,colour,0.5,4.0
36,23,1,1,1,22,22,41.24141368351411,42.1118740766542,"[3, 0, 251]",251,a,0.34750375035218894,1,colour,0.5,4.0
36,23,1,1,1,23,23,42.63214115094161,43.46390507702017,"[34, 0, 220]",220,a,0.3057518326677382,1,colour,0.5,4.0
36,23,1,1,1,24,24,43.98165626853006,44.84789661091054,"[27, 0, 227]",227,a,0.34305920789483935,1,colour,0.5,4.0
36,23,1,1,1,25,25,45.3442379864282,45.975860049482435,"[76, 0, 178]",178,l,0.10828299663262442,1,colour,0.5,4.0
36,23,1,1,1,26,26,46.49250571767334,47.183936316811014,"[61, 0, 193]",193,a,0.18024520011385903,0,colour,0.5,4.0
36,23,1,1,1,27,27,47.699120425619185,48.23986232752213,"[62, 0, 192]",192,a,0.017385112470947206,0,colour,0.5,4.0
36,23,1,1,1,28,28,48.746069130080286,50.49592901964206,"[94, 0, 160]",160,l,1.2187022093567066,1,colour,0.5,4.0
36,23,1,1,1,29,29,51.004096777236555,51.87991149513982,"[51, 0, 203]",203,a,0.36368409055285156,0,colour,0.5,4.0
36,23,1,1,1,30,30,52.387223427183926,53.415846910793334,"[42, 0, 212]",212,a,0.5061252766172402,1,colour,0.5,4.0
36,23,1,1,1,31,31,53.93421289458638,55.07987022015732,"[90, 0, 164]",164,l,0.6223828498041257,1,colour,0.5,4.0
36,23,1,1,1,32,32,55.5906082111178,56.67185137543129,"[10, 0, 244]",244,a,0.5579202455701306,1,colour,0.5,4.0
36,23,1,1,1,33,33,57.184555047540925,58.1518686573836,"[24, 0, 230]",230,a,0.44399147876538336,1,colour,0.5,4.0
36,23,1,1,1,34,34,58.66896606591763,59.95983094593976,"[1, 0, 253]",253,a,0.7675167552079074,1,colour,0.5,4.0
36,23,1,1,1,35,35,60.466029477713164,61.479849110066425,"[57, 0, 197]",197,a,0.4910311614512466,0,colour,0.5,4.0
36,23,1,1,1,36,36,61.99731318844715,63.12787088495679,"[58, 0, 196]",196,a,0.6071686117793433,0,colour,0.5,4.0
36,23,1,1,1,37,37,63.6381610740209,65.93582765967585,"[37, 0, 217]",217,a,1.7750529820332304,1,colour,0.5,4.0
36,23,1,1,1,38,38,66.45079869829351,67.47984083928168,"[17, 0, 237]",237,a,0.5056443916982971,1,colour,0.5,4.0
36,23,1,1,1,39,39,67.99775665806374,69.09595406817971,"[89, 0, 165]",165,l,0.5747764239204116,1,colour,0.5,4.0
36,23,1,1,1,40,40,69.60611665144097,71.40809052455006,"[64, 0, 190]",190,l,1.276614381116815,1,colour,0.5,4.0
36,23,1,1,1,41,41,71.92083988263039,73.01620278926566,"[99, 0, 155]",155,l,0.5720612555160187,1,colour,0.5,4.0
36,23,1,1,1,42,42,73.52898365503643,75.2158153244527,"[96, 0, 158]",158,l,1.1635008737794124,1,colour,0.5,4.0
36,23,1,1,1,43,43,75.73242554650642,76.63181937945774,"[7, 0, 247]",247,a,0.3765265929978341,1,colour,0.5,4.0
36,23,1,1,1,44,44,77.14046880963724,78.3118528877967,"[84, 0, 170]",170,l,0.645933214109391,1,colour,0.5,4.0
36,23,1,1,1,45,45,78.83050519699464,83.54385052161524,"[77, 0, 177]",177,l,4.194124696892686,1,colour,0.5,4.0
36,23,1,1,1,46,46,84.05054923676653,86.50383506709477,"[50, 0, 204]",204,a,1.9300464067491703,1,colour,0.5,4.0
36,23,1,1,1,47,47,87.0194890332059,88.47176268149633,"[70, 0, 184]",184,a,0.9291066922596656,0,colour,0.5,4.0
36,23,1,1,1,48,48,88.9884938140749,91.00776150630554,"[38, 0, 216]",216,a,1.4964398368028924,1,colour,0.5,4.0
36,23,1,1,1,49,49,91.5198413276812,92.39980520418612,"[52, 0, 202]",202,a,0.35659527173265815,0,colour,0.5,4.0
36,23,1,1,1,50,50,92.91058494272875,93.50383152248105,"[2, 0, 252]",252,a,0.08229433698579669,1,colour,0.5,4.0
36,23,1,1,2,1,51,117.66823508933885,118.99997636931948,"[79, 0, 175]",175,l,0.8079898577416316,1,colour,0.5,4.0
36,23,1,1,2,2,52,119.51294352381956,120.48767757002497,"[15, 0, 239]",239,a,0.4514509058208205,1,colour,0.5,4.0
36,23,1,1,2,3,53,120.9973750220961,121.55171167070512,"[44, 0, 210]",210,a,0.031016092922072858,1,colour,0.5,4.0
36,23,1,1,2,4,54,122.04786793899257,123.79972068499774,"[30, 0, 224]",224,a,1.2274597499636002,1,colour,0.5,4.0
36,23,1,1,2,5,55,124.31143777503166,124.83973259490449,"[3, 0, 251]",251,a,0.0050231009954586625,1,colour,0.5,4.0
36,23,1,1,2,6,56,125.35835300263716,125.93569099542219,"[93, 0, 161]",161,l,0.05452510353643447,1,colour,0.5,4.0
36,23,1,1,2,7,57,126.45223741460359,128.26368483883562,"[54, 0, 200]",200,a,1.2995196271222085,0,colour,0.5,4.0
36,23,1,1,2,8,58,128.78474472335074,129.72767538024345,"[20, 0, 234]",234,a,0.4163963248138316,1,colour,0.5,4.0
36,23,1,1,2,9,59,130.2413656344288,130.93573510606075,"[53, 0, 201]",201,a,0.17129625071538612,0,colour,0.5,4.0
36,23,1,1,2,10,60,131.44469252310228,133.2636489989236,"[34, 0, 220]",220,a,1.2957434398122132,1,colour,0.5,4.0
36,23,1,1,2,11,61,133.7729415781796,134.96767634118441,"[24, 0, 230]",230,a,0.6717938740039244,1,colour,0.5,4.0
36,23,1,1,2,12,62,135.47634270670824,136.35965781158302,"[32, 0, 222]",222,a,0.36053136008558795,1,colour,0.5,4.0
36,23,1,1,2,13,63,136.86827534029726,137.57568226777948,"[62, 0, 192]",192,a,0.1810096535482444,0,colour,0.5,4.0
36,23,1,1,2,14,64,138.09005072334548,138.85561952041462,"[60, 0, 194]",194,a,0.24217931850580499,0,colour,0.5,4.0
36,23,1,1,2,15,65,139.37360308051575,140.09562363213627,"[92, 0, 162]",162,l,0.19908045034389943,1,colour,0.5,4.0
36,23,1,1,2,16,66,140.60836117493454,141.65563362004468,"[35, 0, 219]",219,a,0.5238211328396574,1,colour,0.5,4.0
36,23,1,1,2,17,67,142.1691395547241,143.19163756479975,"[48, 0, 206]",206,a,0.49962092406349257,1,colour,0.5,4.0
36,23,1,1,2,18,68,143.7008415289456,144.3516190383234,"[28, 0, 226]",226,a,0.12771610380150378,1,colour,0.5,4.0
36,23,1,1,2,19,69,144.87284709472442,146.37568061362254,"[85, 0, 169]",169,l,0.979466489457991,1,colour,0.5,4.0
36,23,1,1,2,20,70,146.88862138049444,147.8636177275912,"[74, 0, 180]",180,l,0.45164546533487737,1,colour,0.5,4.0
36,23,1,1,2,21,71,148.37446008756524,149.44762470026035,"[16, 0, 238]",238,a,0.5498617800767533,1,colour,0.5,4.0
36,23,1,1,2,22,72,149.9683250041562,150.8156469950336,"[11, 0, 243]",243,a,0.32406523812096566,1,colour,0.5,4.0
36,23,1,1,2,23,73,151.3274920847034,152.119631644513,"[25, 0, 229]",229,a,0.2688414533040486,1,colour,0.5,4.0
36,23,1,1,2,24,74,152.64008185680723,153.37577356112888,"[17, 0, 237]",237,a,0.2126125757349655,1,colour,0.5,4.0
36,23,1,1,2,25,75,153.89088283933233,154.67965226626256,"[42, 0, 212]",212,a,0.26639016112312675,1,colour,0.5,4.0
36,23,1,1,2,26,76,155.1874718646868,155.98364794341614,"[37, 0, 217]",217,a,0.2733793371007778,1,colour,0.5,4.0
36,23,1,1,2,27,77,156.50287762953667,157.2877023034962,"[51, 0, 203]",203,a,0.2634249010006897,0,colour,0.5,4.0
36,23,1,1,2,28,78,157.79813112603733,158.59958512353478,"[36, 0, 218]",218,a,0.27848750859266147,1,colour,0.5,4.0
36,23,1,1,2,29,79,159.11053697241005,159.8796582526993,"[72, 0, 182]",182,l,0.24633477861061692,1,colour,0.5,4.0
36,23,1,1,2,30,80,160.39313898124965,161.1676393985399,"[95, 0, 159]",159,l,0.25133818737231195,1,colour,0.5,4.0
36,23,1,1,2,31,81,161.67453739931807,162.24016361904796,"[97, 0, 157]",157,l,0.04236198385478929,1,colour,0.5,4.0
36,23,1,1,2,32,82,162.7527771005989,163.32760039210552,"[19, 0, 235]",235,a,0.051861922605894506,1,colour,0.5,4.0
36,23,1,1,2,33,83,163.8465764420107,164.57558420032728,"[69, 0, 185]",185,a,0.20576163940131664,0,colour,0.5,4.0
36,23,1,1,2,34,84,165.09164422075264,165.8955861380673,"[59, 0, 195]",195,a,0.28060403239214793,0,colour,0.5,4.0
36,23,1,1,2,35,85,166.39753862540238,167.1995573968161,"[26, 0, 228]",228,a,0.2786824619397521,1,colour,0.5,4.0
36,23,1,1,2,36,86,167.71021031722194,168.80757750180783,"[68, 0, 186]",186,a,0.5723204056266695,0,colour,0.5,4.0
36,23,1,1,2,37,87,169.32694897224428,170.13558040367207,"[49, 0, 205]",205,a,0.2857598591945134,1,colour,0.5,4.0
36,23,1,1,2,38,88,170.6549294249271,171.36760757584125,"[82, 0, 172]",172,l,0.18936822906835005,1,colour,0.5,4.0
36,23,1,1,2,39,89,171.8863894600654,172.5675501532387,"[45, 0, 209]",209,a,0.15785943588707596,1,colour,0.5,4.0
36,23,1,1,2,40,90,173.07387392781675,173.75958195701241,"[56, 0, 198]",198,a,0.16232563985977322,0,colour,0.5,4.0
36,23,1,1,2,41,91,174.2771559181856,175.01555806479882,"[78, 0, 176]",176,l,0.21513397234957665,1,colour,0.5,4.0
36,23,1,1,2,42,92,175.5272267118562,176.5835705922218,"[90, 0, 164]",164,l,0.5331336013623513,1,colour,0.5,4.0
36,23,1,1,2,43,93,177.09121886803769,178.04751544760074,"[89, 0, 165]",165,l,0.4329941407777369,1,colour,0.5,4.0
36,23,1,1,2,44,94,178.56190713995602,179.2316238747444,"[1, 0, 253]",253,a,0.14446239941753447,1,colour,0.5,4.0
36,23,1,1,2,45,95,179.75125173834385,180.65562653081724,"[21, 0, 233]",233,a,0.38102942454861477,1,colour,0.5,4.0
36,23,1,1,2,46,96,181.170598750934,181.92756872694008,"[38, 0, 216]",216,a,0.23370967857772484,1,colour,0.5,4.0
36,23,1,1,2,47,97,182.43630125845084,183.21552387904376,"[55, 0, 199]",199,a,0.25594341865507886,0,colour,0.5,4.0
36,23,1,1,2,48,98,183.73443021834828,184.45561857515713,"[91, 0, 163]",163,l,0.19594504917040467,1,colour,0.5,4.0
36,23,1,1,2,49,99,184.97226345562376,185.69559708697489,"[81, 0, 173]",173,l,0.20010129699949175,1,colour,0.5,4.0
36,23,1,1,2,50,100,186.20672931690933,186.92752737324918,"[88, 0, 166]",166,l,0.19742236234014854,1,colour,0.5,4.0
36,23,1,1,3,1,101,194.0848590566311,195.3515319985454,"[68, 0, 186]",186,a,0.7425375206512399,0,colour,0.5,3.9
36,23,1,1,3,2,102,195.86705914646154,196.5915065719164,"[46, 0, 208]",208,a,0.20113514049444348,1,colour,0.5,3.9
36,23,1,1,3,3,103,197.09001882188022,198.0874761575833,"[26, 0, 228]",228,a,0.4737779871211387,1,colour,0.5,3.9
36,23,1,1,3,4,104,198.60567948332755,199.3675000561052,"[51, 0, 203]",203,a,0.23840470658615232,0,colour,0.5,3.9
36,23,1,1,3,5,105,199.88704403070733,200.5514686682145,"[20, 0, 234]",234,a,0.14116355241276324,1,colour,0.5,3.9
36,23,1,1,3,6,106,201.05894916603575,201.73549399408512,"[6, 0, 248]",248,a,0.15626987686846405,1,colour,0.5,3.9
36,23,1,1,3,7,107,202.247723476612,203.92750453023473,"[92, 0, 162]",162,a,1.1562923260498792,0,colour,0.5,3.9
36,23,1,1,3,8,108,204.43540329154348,205.05547387647675,"[98, 0, 156]",156,l,0.09675239236094058,1,colour,0.5,3.9
36,23,1,1,3,9,109,205.57607886986807,206.50348257570295,"[70, 0, 184]",184,a,0.4041654638131149,0,colour,0.5,3.9
36,23,1,1,3,10,110,207.01371802028734,208.09560354601126,"[80, 0, 174]",174,a,0.5585354316863231,0,colour,0.5,3.9
36,23,1,1,3,11,111,208.60884087829618,209.59946972690523,"[54, 0, 200]",200,a,0.46750994166359305,0,colour,0.5,3.9
36,23,1,1,3,12,112,210.10899113019696,211.06412980507594,"[91, 0, 163]",163,l,0.4320020448649302,1,colour,0.5,3.9
36,23,1,1,3,13,113,211.5765987454215,212.54347085487098,"[24, 0, 230]",230,a,0.443740205548238,1,colour,0.5,3.9
36,23,1,1,3,14,114,213.06115824345034,214.04745440161787,"[89, 0, 165]",165,l,0.46307642688043416,1,colour,0.5,3.9
36,23,1,1,3,15,115,214.56344313605223,215.4154463703162,"[0, 0, 254]",254,a,0.32863738638116047,1,colour,0.5,3.9
36,23,1,1,3,16,116,215.92290835734457,216.87149226746988,"[47, 0, 207]",207,a,0.42527910822536796,1,colour,0.5,3.9
36,23,1,1,3,17,117,217.39179912005784,218.527440569771,"[77, 0, 177]",177,a,0.6124150229734369,0,colour,0.5,3.9
36,23,1,1,3,18,118,219.04818301514024,220.1034320059698,"[40, 0, 214]",214,a,0.5319217398064211,1,colour,0.5,3.9
36,23,1,1,3,19,119,220.61078017181717,221.4634261613246,"[52, 0, 202]",202,a,0.3293344922713004,0,colour,0.5,3.9
36,23,1,1,3,20,120,221.97034149133833,222.95947097142925,"[58, 0, 196]",196,a,0.46587036427808926,0,colour,0.5,3.9
36,23,1,1,3,21,121,223.4703980080667,224.17543320014374,"[9, 0, 245]",245,a,0.18215495522599667,1,colour,0.5,3.9
36,23,1,1,3,22,122,224.6892160079442,225.79946980567183,"[42, 0, 212]",212,a,0.5872798258205876,1,colour,0.5,3.9
36,23,1,1,3,23,123,226.31438373669516,229.4234280360397,"[72, 0, 182]",182,l,2.5857024759752676,1,colour,0.5,3.9
36,23,1,1,3,24,124,229.93959400081076,231.0954133188352,"[5, 0, 249]",249,a,0.6324944300577044,1,colour,0.5,3.9
36,23,1,1,3,25,125,231.61461504199542,232.59139156911988,"[31, 0, 223]",223,a,0.45345085149165243,1,colour,0.5,3.9
36,23,1,1,3,26,126,233.0990091250278,234.07942044897936,"[12, 0, 242]",242,a,0.455201099277474,1,colour,0.5,3.9
36,23,1,1,3,27,127,234.6011100919568,235.56748516875086,"[82, 0, 172]",172,l,0.4430257704225369,1,colour,0.5,3.9
36,23,1,1,3,28,128,236.08555104251718,237.07139506645035,"[25, 0, 229]",229,a,0.4625285882502794,1,colour,0.5,3.9
36,23,1,1,3,29,129,237.58554493793054,238.45538148039486,"[34, 0, 220]",220,a,0.34645257773809135,1,colour,0.5,3.9
36,23,1,1,3,30,130,238.96668897144264,239.7594456865918,"[76, 0, 178]",178,l,0.2694779070443474,1,colour,0.5,3.9
36,23,1,1,3,31,131,240.27932915568817,241.27947802917333,"[87, 0, 167]",167,l,0.4769035422359593,1,colour,0.5,3.9
36,23,1,1,3,32,132,241.79143457702594,242.8473633446265,"[45, 0, 209]",209,a,0.5314826025278307,1,colour,0.5,3.9
36,23,1,1,3,33,133,243.3698284686543,244.47137238096911,"[88, 0, 166]",166,l,0.5900202002958395,1,colour,0.5,3.9
36,23,1,1,3,34,134,244.9850484567578,245.90335985354614,"[66, 0, 188]",188,a,0.3953220648691058,0,colour,0.5,3.9
36,23,1,1,3,35,135,246.42271202558186,247.44736909476342,"[85, 0, 169]",169,l,0.505551444250159,1,colour,0.5,3.9
36,23,1,1,3,36,136,247.96558699273737,248.9913751851418,"[41, 0, 213]",213,a,0.5025231689214706,1,colour,0.5,3.9
36,23,1,1,3,37,137,249.51247169729322,250.49537724262336,"[55, 0, 199]",199,a,0.45953733439091593,0,colour,0.5,3.9
36,23,1,1,3,38,138,251.0126487307134,252.06331297021825,"[37, 0, 217]",217,a,0.537343412055634,1,colour,0.5,3.9
36,23,1,1,3,39,139,252.58096294349525,253.68742676940747,"[21, 0, 233]",233,a,0.5879391225753352,1,colour,0.5,3.9
36,23,1,1,3,40,140,254.2014167397865,255.59936653944897,"[69, 0, 185]",185,a,0.8813116145902313,0,colour,0.5,3.9
36,23,1,1,3,41,141,256.1167916271952,257.11938588513294,"[11, 0, 243]",243,a,0.4793154498911463,1,colour,0.5,3.9
36,23,1,1,3,42,142,257.6323975441628,258.60733481444186,"[16, 0, 238]",238,a,0.4514205797458999,1,colour,0.5,3.9
36,23,1,1,3,43,143,259.1169865805423,260.1753178035142,"[43, 0, 211]",211,a,0.535072107159067,1,colour,0.5,3.9
36,23,1,1,3,44,144,260.6953462075908,261.5113779893145,"[4, 0, 250]",250,a,0.29294989618938416,1,colour,0.5,3.9
36,23,1,1,3,45,145,262.0122517347918,262.7353218837525,"[28, 0, 226]",226,a,0.19970627030124888,1,colour,0.5,3.9
36,23,1,1,3,46,146,263.2465450919117,264.5513233394013,"[65, 0, 189]",189,a,0.7813442643964663,0,colour,0.5,3.9
36,23,1,1,3,47,147,265.0594024817692,266.0873032595846,"[62, 0, 192]",192,a,0.5047862031497061,0,colour,0.5,3.9
36,23,1,1,3,48,148,266.6063958876184,267.47930127143627,"[1, 0, 253]",253,a,0.34961160959210247,1,colour,0.5,3.9
36,23,1,1,3,49,149,267.9971698287991,269.93531802407233,"[67, 0, 187]",187,a,1.414813461189624,0,colour,0.5,3.9
36,23,1,1,3,50,150,270.45046156679746,271.4875696564559,"[97, 0, 157]",157,l,0.5138395215035416,1,colour,0.5,3.9
36,23,1,1,4,1,151,276.70181196334306,277.4396166469087,"[4, 0, 250]",250,a,0.213719280611258,1,colour,0.5,3.9
36,23,1,1,4,2,152,277.95267399190925,279.3513315313612,"[57, 0, 197]",197,l,0.8753377714310773,1,colour,0.5,3.9
36,23,1,1,4,3,153,279.8599384262343,280.9592799565289,"[64, 0, 190]",190,a,0.5769563568173908,0,colour,0.5,3.9
36,23,1,1,4,4,154,281.4685233052005,282.4313817387447,"[2, 0, 252]",252,a,0.43976079422282055,1,colour,0.5,3.9
36,23,1,1,4,5,155,282.9393403645372,283.8712933756178,"[31, 0, 223]",223,a,0.40871004288783297,1,colour,0.5,3.9
36,23,1,1,4,6,156,284.39254388125846,285.43174683320103,"[40, 0, 214]",214,a,0.5166354281827807,1,colour,0.5,3.9
36,23,1,1,4,7,157,285.9395475270576,286.81527993135387,"[15, 0, 239]",239,a,0.3523921563173644,1,colour,0.5,3.9
36,23,1,1,4,8,158,287.33025333302794,288.2952558595571,"[0, 0, 254]",254,a,0.4416937861824408,1,colour,0.5,3.9
36,23,1,1,4,9,159,288.81482582789613,289.5832866298733,"[9, 0, 245]",245,a,0.2443998174276203,1,colour,0.5,3.9
36,23,1,1,4,10,160,290.09937737020664,290.7995139163104,"[11, 0, 243]",243,a,0.18302062683505937,1,colour,0.5,3.9
36,23,1,1,4,11,161,291.3123168373713,292.5592341129668,"[91, 0, 163]",163,l,0.7204581678961404,1,colour,0.5,3.9
36,23,1,1,4,12,162,293.0656472903793,293.93524910113774,"[14, 0, 240]",240,a,0.3462729842867702,1,colour,0.5,3.9
36,23,1,1,4,13,163,294.4564172931132,295.4552838067757,"[81, 0, 173]",173,l,0.47557667788350955,1,colour,0.5,3.9
36,23,1,1,4,14,164,295.97208701301133,296.79920041561127,"[62, 0, 192]",192,a,0.30374204088002443,0,colour,0.5,3.9
36,23,1,1,4,15,165,297.30655094445683,300.31925875192974,"[29, 0, 225]",225,a,2.5012419906561263,1,colour,0.5,3.9
36,23,1,1,4,16,166,300.8262512755464,301.9992642972502,"[96, 0, 158]",158,l,0.649968157580588,1,colour,0.5,3.9
36,23,1,1,4,17,167,302.5204663599143,303.7192073157639,"[30, 0, 224]",224,a,0.6760458262288012,1,colour,0.5,3.9
36,23,1,1,4,18,168,304.23392629344016,305.2952771271812,"[99, 0, 155]",155,l,0.538100776320789,1,colour,0.5,3.9
36,23,1,1,4,19,169,305.8053124984144,306.87922305380926,"[53, 0, 201]",201,a,0.5475317921373062,0,colour,0.5,3.9
36,23,1,1,4,20,170,307.39606840146007,308.44735846092226,"[21, 0, 233]",233,a,0.5280431528226472,1,colour,0.5,3.9
36,23,1,1,4,21,171,308.96025984326843,310.03921594884014,"[88, 0, 166]",166,l,0.5557462203432806,1,colour,0.5,3.9
36,23,1,1,4,22,172,310.5541755659506,311.5752120167017,"[19, 0, 235]",235,a,0.49774897808674723,1,colour,0.5,3.9
36,23,1,1,4,23,173,312.0855715224752,313.0872878996306,"[35, 0, 219]",219,a,0.47843953827396035,1,colour,0.5,3.9
36,23,1,1,4,24,174,313.6013566390029,314.64725574612385,"[41, 0, 213]",213,a,0.5226616527652368,1,colour,0.5,3.9
36,23,1,1,4,25,175,315.1638706943486,316.23177156667225,"[83, 0, 171]",171,l,0.5445310859940946,1,colour,0.5,3.9
36,23,1,1,4,26,176,316.7421322540031,317.7351741918246,"[36, 0, 218]",218,a,0.46990058169467375,1,colour,0.5,3.9
36,23,1,1,4,27,177,318.24227896129014,319.3113180461223,"[60, 0, 194]",194,a,0.543938742892351,0,colour,0.5,3.9
36,23,1,1,4,28,178,319.82603702379856,320.831233416684,"[89, 0, 165]",165,l,0.48215743649052456,1,colour,0.5,3.9
36,23,1,1,4,29,179,321.341790632694,322.3352075110888,"[3, 0, 251]",251,a,0.47026291920337826,1,colour,0.5,3.9
36,23,1,1,4,30,180,322.84191134624416,323.9111402644194,"[17, 0, 237]",237,a,0.5455960432882421,1,colour,0.5,3.9
36,23,1,1,4,31,181,324.42018944740994,325.38314752373844,"[25, 0, 229]",229,a,0.43971668352605775,1,colour,0.5,3.9
36,23,1,1,4,32,182,325.9046343364753,326.91119697812246,"[50, 0, 204]",204,a,0.4833409411367029,1,colour,0.5,3.9
36,23,1,1,4,33,183,327.42045056674397,328.4636400192394,"[95, 0, 159]",159,l,0.5186523091979325,1,colour,0.5,3.9
36,23,1,1,4,34,184,328.9859101899201,329.95115571888164,"[86, 0, 168]",168,l,0.4419233978842385,1,colour,0.5,3.9
36,23,1,1,4,35,185,330.4712349290494,331.4631650419906,"[22, 0, 232]",232,a,0.46900655317585915,1,colour,0.5,3.9
36,23,1,1,4,36,186,331.97137257788563,332.98315524309874,"[84, 0, 170]",170,l,0.48855426925001666,1,colour,0.5,3.9
36,23,1,1,4,37,187,333.5026614085655,334.49514841858763,"[66, 0, 188]",188,a,0.4691014699055813,0,colour,0.5,3.9
36,23,1,1,4,38,188,335.0026639685966,336.0152303856448,"[63, 0, 191]",191,a,0.4891123478882946,0,colour,0.5,3.9
36,23,1,1,4,39,189,336.53420131554594,337.599217666022,"[39, 0, 215]",215,a,0.5417532962164842,1,colour,0.5,3.9
36,23,1,1,4,40,190,338.1124026168836,339.0630841461825,"[1, 0, 253]",253,a,0.4274889733060263,1,colour,0.5,3.9
36,23,1,1,4,41,191,339.58131189033156,340.5911454159068,"[51, 0, 203]",203,a,0.4866582987597212,0,colour,0.5,3.9
36,23,1,1,4,42,192,341.11259008717025,342.1193575282814,"[16, 0, 238]",238,a,0.48348114994587377,1,colour,0.5,3.9
36,23,1,1,4,43,193,342.6283232161077,343.60710520274006,"[44, 0, 210]",210,a,0.4539514286443591,1,colour,0.5,3.9
36,23,1,1,4,44,194,344.11429464892717,345.0550855451147,"[58, 0, 196]",196,a,0.4175042111892253,0,colour,0.5,3.9
36,23,1,1,4,45,195,345.56754542706767,346.6151128622587,"[85, 0, 169]",169,l,0.5242023749742657,1,colour,0.5,3.9
36,23,1,1,4,46,196,347.1301248607342,348.21516272303415,"[79, 0, 175]",175,l,0.5615644946810789,1,colour,0.5,3.9
36,23,1,1,4,47,197,348.72406185104046,349.6950866636471,"[77, 0, 177]",177,a,0.44667868420947343,0,colour,0.5,3.9
36,23,1,1,4,48,198,350.19866770063527,351.2630818618927,"[6, 0, 248]",248,a,0.5411767069017515,1,colour,0.5,3.9
36,23,1,1,4,49,199,351.7714445727761,352.8550653802813,"[98, 0, 156]",156,l,0.5603660239139572,1,colour,0.5,3.9
36,23,1,1,4,50,200,353.36527601256967,354.3751138704829,"[94, 0, 160]",160,a,0.4867922061239369,0,colour,0.5,3.9
36,23,1,1,5,1,201,359.1829583992949,360.48709310381673,"[22, 0, 232]",232,a,0.7800449692294933,1,colour,0.4,3.9
36,23,1,1,5,2,202,360.9964853259153,361.9831335816416,"[43, 0, 211]",211,a,0.46368373604491353,1,colour,0.4,3.9
36,23,1,1,5,3,203,362.49659855640493,363.58306489506504,"[86, 0, 168]",168,l,0.563084343157243,1,colour,0.4,3.9
36,23,1,1,5,4,204,364.09050049446523,364.97505109157646,"[45, 0, 209]",209,a,0.361310385807883,1,colour,0.4,3.9
36,23,1,1,5,5,205,365.4812311126734,367.48705529468134,"[80, 0, 174]",174,l,1.4825465554604307,1,colour,0.4,3.9
36,23,1,1,5,6,206,367.9969437616528,368.9510741929407,"[85, 0, 169]",169,l,0.4307334696059115,1,colour,0.4,3.9
36,23,1,1,5,7,207,369.46584082592744,370.3430355772143,"[63, 0, 191]",191,a,0.3534803504589945,0,colour,0.4,3.9
36,23,1,1,5,8,208,370.858954207215,371.87909938645316,"[11, 0, 243]",243,a,0.4968970910413191,1,colour,0.4,3.9
36,23,1,1,5,9,209,372.3902674562996,373.39104687585495,"[90, 0, 164]",164,l,0.4778562536230311,1,colour,0.4,3.9
36,23,1,1,5,10,210,373.90557129407534,374.8550512018264,"[3, 0, 251]",251,a,0.42614714289084077,1,colour,0.4,3.9
36,23,1,1,5,11,211,375.3744025861379,376.32707106426824,"[8, 0, 246]",246,a,0.42762996989768,1,colour,0.4,3.9
36,23,1,1,5,12,212,376.84518065478187,377.823065856006,"[55, 0, 199]",199,a,0.4545957592781633,0,colour,0.4,3.9
36,23,1,1,5,13,213,378.3296200300101,379.27102847542847,"[44, 0, 210]",210,a,0.41806189593626186,1,colour,0.4,3.9
36,23,1,1,5,14,214,379.78296375559876,380.84706087154336,"[89, 0, 165]",165,l,0.540796646324452,1,colour,0.4,3.9
36,23,1,1,5,15,215,381.3611902630655,382.28700283449143,"[38, 0, 216]",216,a,0.40258220629766583,1,colour,0.4,3.9
36,23,1,1,5,16,216,382.79875655210344,383.8230158376973,"[84, 0, 170]",170,l,0.5009103730553761,1,colour,0.4,3.9
36,23,1,1,5,17,217,384.33081653155386,385.35100227681687,"[94, 0, 160]",160,l,0.4975150340469554,1,colour,0.4,3.9
36,23,1,1,5,18,218,385.862280229514,386.81500227050856,"[39, 0, 215]",215,a,0.4294262976036407,1,colour,0.4,3.9
36,23,1,1,5,19,219,387.3312115582521,388.4149985683616,"[66, 0, 188]",188,a,0.5604794513201341,0,colour,0.4,3.9
36,23,1,1,5,20,220,388.9250323642045,389.8630045106984,"[29, 0, 225]",225,a,0.4147535967058502,1,colour,0.4,3.9
36,23,1,1,5,21,221,390.3781878318405,391.37504455371527,"[83, 0, 171]",171,l,0.47348299709847197,1,colour,0.4,3.9
36,23,1,1,5,22,222,391.8939843698754,392.8870239445823,"[95, 0, 159]",159,l,0.4697095667361282,1,colour,0.4,3.9
36,23,1,1,5,23,223,393.3941413171706,394.3029980674037,"[25, 0, 229]",229,a,0.38562362821539864,1,colour,0.4,3.9
36,23,1,1,5,24,224,394.8191148015321,395.75101188663393,"[73, 0, 181]",181,a,0.40860055398661643,0,colour,0.4,3.9
36,23,1,1,5,25,225,396.27238133345963,397.2469976199791,"[40, 0, 214]",214,a,0.45163404382765293,1,colour,0.4,3.9
36,23,1,1,5,26,226,397.7568868746748,398.7430542454822,"[96, 0, 158]",158,l,0.4629051042138599,1,colour,0.4,3.9
36,23,1,1,5,27,227,399.25696859753225,400.35097510152264,"[81, 0, 173]",173,l,0.5706973698106594,1,colour,0.4,3.9
36,23,1,1,5,28,228,400.8665325755137,401.8789930482162,"[77, 0, 177]",177,l,0.48932541807880625,1,colour,0.4,3.9
36,23,1,1,5,29,229,402.38671103463275,404.5909996932023,"[72, 0, 182]",182,a,1.681298932817299,0,colour,0.4,3.9
36,23,1,1,5,30,230,405.1057009478682,406.0549492746941,"[88, 0, 166]",166,l,0.4260687677306123,1,colour,0.4,3.9
36,23,1,1,5,31,231,406.57180171157233,407.5189685668447,"[24, 0, 230]",230,a,0.42109450354473665,1,colour,0.4,3.9
36,23,1,1,5,32,232,408.0278464271687,409.2470125861,"[75, 0, 179]",179,l,0.6959082246175967,1,colour,0.4,3.9
36,23,1,1,5,33,233,409.7622967315838,410.82299299468286,"[74, 0, 180]",180,l,0.5373926427564584,1,colour,0.4,3.9
36,23,1,1,5,34,234,411.34059688809793,412.28691815782804,"[56, 0, 198]",198,a,0.4231795197702013,0,colour,0.4,3.9
36,23,1,1,5,35,235,412.79385357390856,413.61495532415574,"[61, 0, 193]",193,a,0.298280984046869,0,colour,0.4,3.9
36,23,1,1,5,36,236,414.12202425376745,414.8149404368596,"[42, 0, 212]",212,a,0.1696228026994504,1,colour,0.4,3.9
36,23,1,1,5,37,237,415.32516642910196,416.4548982323613,"[13, 0, 241]",241,a,0.6064124290714972,1,colour,0.4,3.9
36,23,1,1,5,38,238,416.96594145335257,417.88690736645367,"[5, 0, 249]",249,a,0.39754807768622413,1,colour,0.4,3.9
36,23,1,1,5,39,239,418.4036125052371,419.5589351844974,"[54, 0, 200]",200,a,0.6320411142660305,0,colour,0.4,3.9
36,23,1,1,5,40,240,420.0757060954347,420.91893130907556,"[52, 0, 202]",202,a,0.320514724124223,0,colour,0.4,3.9
36,23,1,1,5,41,241,421.43504961859435,422.23102247319184,"[62, 0, 192]",192,a,0.2725668345228769,0,colour,0.4,3.9
36,23,1,1,5,42,242,422.747695316677,423.58289593545487,"[2, 0, 252]",252,a,0.31215693621197715,1,colour,0.4,3.9
36,23,1,1,5,43,243,424.0916702145478,425.01493736484554,"[6, 0, 248]",248,a,0.4001836893730797,1,colour,0.4,3.9
36,23,1,1,5,44,244,425.529186091444,426.5429403454764,"[93, 0, 161]",161,l,0.49049277510493994,1,colour,0.4,3.9
36,23,1,1,5,45,245,427.0605091866455,427.8869113049004,"[30, 0, 224]",224,a,0.30313512549037114,1,colour,0.4,3.9
36,23,1,1,5,46,246,428.406237483141,429.20691560569685,"[69, 0, 185]",185,a,0.27735284075606614,0,colour,0.4,3.9
36,23,1,1,5,47,247,429.71880638139555,430.59896166663384,"[50, 0, 204]",204,a,0.35773781646275893,1,colour,0.4,3.9
36,23,1,1,5,48,248,431.1091600898071,431.91090238193283,"[68, 0, 186]",186,a,0.27867379738017917,0,colour,0.4,3.9
36,23,1,1,5,49,249,432.42183493240736,433.9668969216873,"[79, 0, 175]",175,l,1.021824928757269,1,colour,0.4,3.9
36,23,1,1,5,50,250,434.4852136747795,435.0469132583821,"[17, 0, 237]",237,a,0.05175676598446444,1,colour,0.4,3.9
36,23,1,1,6,1,251,440.09751487651374,441.0628742267145,"[30, 0, 224]",224,a,0.4412581934593618,1,colour,0.28,3.9
36,23,1,1,6,2,252,441.582768329652,443.2948848574306,"[73, 0, 181]",181,l,1.1886990861967206,1,colour,0.28,3.9
36,23,1,1,6,3,253,443.8019915961195,444.67885394213954,"[65, 0, 189]",189,a,0.364452482375782,0,colour,0.28,3.9
36,23,1,1,6,4,254,445.19880594027927,446.15886571025476,"[3, 0, 251]",251,a,0.43676599574973807,1,colour,0.28,3.9
36,23,1,1,6,5,255,446.66261531296186,447.5828628524905,"[74, 0, 180]",180,l,0.39693761768285185,1,colour,0.28,3.9
36,23,1,1,6,6,256,448.0892583068926,449.20686322427355,"[71, 0, 183]",183,l,0.5944639550871216,1,colour,0.28,3.9
36,23,1,1,6,7,257,449.71434332820354,450.7590565675637,"[61, 0, 193]",193,a,0.5214931141817942,0,colour,0.28,3.9
36,23,1,1,6,8,258,451.26905649277614,452.1908423914574,"[94, 0, 160]",160,l,0.41085531743010506,1,colour,0.28,3.9
36,23,1,1,6,9,259,452.70987948734546,453.6308390988852,"[69, 0, 185]",185,a,0.39781313540879637,0,colour,0.28,3.9
36,23,1,1,6,10,260,454.1376855059643,455.1108662269544,"[5, 0, 249]",249,a,0.4499515373609029,1,colour,0.28,3.9
36,23,1,1,6,11,261,455.62212330580223,456.58287427399773,"[93, 0, 161]",161,l,0.4374981538276188,1,colour,0.28,3.9
36,23,1,1,6,12,262,457.1011902394239,458.02284577535465,"[89, 0, 165]",165,l,0.39838814933318645,1,colour,0.28,3.9
36,23,1,1,6,13,263,458.5388364790706,459.2148567053373,"[37, 0, 217]",217,a,0.15283791028195992,1,colour,0.28,3.9
36,23,1,1,6,14,264,459.72633670060895,460.4308110571001,"[83, 0, 171]",171,l,0.18130464351270348,1,colour,0.28,3.9
36,23,1,1,6,15,265,460.94516375882085,461.87883511633845,"[54, 0, 200]",200,a,0.4102464328170754,0,colour,0.28,3.9
36,23,1,1,6,16,266,462.3985724688973,463.50280043593375,"[7, 0, 247]",247,a,0.582049168413505,1,colour,0.28,3.9
36,23,1,1,6,17,267,464.01175076374784,465.5908153736964,"[72, 0, 182]",182,a,1.055949641391635,0,colour,0.28,3.9
36,23,1,1,6,18,268,466.1056521110586,467.2869008285925,"[57, 0, 197]",197,a,0.6617945396574214,0,colour,0.28,3.9
36,23,1,1,6,19,269,467.7931832494796,469.0387984729605,"[75, 0, 179]",179,a,0.7225372764514759,0,colour,0.28,3.9
36,23,1,1,6,20,270,469.5590135597158,470.76678184012417,"[80, 0, 174]",174,a,0.6848388129728846,0,colour,0.28,3.9
36,23,1,1,6,21,271,471.27777307352517,472.1987984572188,"[34, 0, 220]",220,a,0.3978659106651321,1,colour,0.28,3.9
36,23,1,1,6,22,272,472.715528014407,473.67881849606056,"[97, 0, 157]",157,l,0.44038897717837244,1,colour,0.28,3.9
36,23,1,1,6,23,273,474.1874903754215,476.0948426371906,"[77, 0, 177]",177,l,1.3840336753055453,1,colour,0.28,3.9
36,23,1,1,6,24,274,476.6069945322233,478.0149771432043,"[79, 0, 175]",175,l,0.8823549104272388,1,colour,0.28,3.9
36,23,1,1,6,25,275,478.53209463786334,479.13481910101837,"[44, 0, 210]",210,a,0.07970638055121526,1,colour,0.28,3.9
36,23,1,1,6,26,276,479.64158910216065,480.5187747949967,"[36, 0, 218]",218,a,0.35405812127282843,1,colour,0.28,3.9
36,23,1,1,6,27,277,481.0283946596319,483.3107615429326,"[67, 0, 187]",187,a,1.7578045338741504,0,colour,0.28,3.9
36,23,1,1,6,28,278,483.82687394472305,484.9507327292231,"[14, 0, 240]",240,a,0.60856873128796,1,colour,0.28,3.9
36,23,1,1,6,29,279,485.4620673955651,486.3109123855829,"[39, 0, 215]",215,a,0.3232617939938791,1,colour,0.28,3.9
36,23,1,1,6,30,280,486.8309774172958,487.75877299910644,"[76, 0, 178]",178,l,0.4051500766654499,1,colour,0.28,3.9
36,23,1,1,6,31,281,488.2685279525467,488.990853340365,"[86, 0, 168]",168,l,0.19961844285717234,1,colour,0.28,3.9
36,23,1,1,6,32,282,489.5069850405562,490.3427252272377,"[82, 0, 172]",172,l,0.3127351009170525,1,colour,0.28,3.9
36,23,1,1,6,33,283,490.8509599384852,491.6467748612049,"[84, 0, 170]",170,l,0.27252626849804074,1,colour,0.28,3.9
36,23,1,1,6,34,284,492.1634453415754,493.0787166476948,"[58, 0, 196]",196,a,0.3924241522909142,0,colour,0.28,3.9
36,23,1,1,6,35,285,493.58539330755593,494.43077600491233,"[55, 0, 199]",199,a,0.3219018466770649,0,colour,0.28,3.9
36,23,1,1,6,36,286,494.94472895382205,496.61481590301264,"[91, 0, 163]",163,l,1.14730044757016,1,colour,0.28,3.9
36,23,1,1,6,37,287,497.1328991059563,498.0467726556235,"[88, 0, 166]",166,l,0.39067863061791286,1,colour,0.28,3.9
36,23,1,1,6,38,288,498.55457571259467,499.3187042179634,"[87, 0, 167]",167,l,0.23830663913395256,1,colour,0.28,3.9
36,23,1,1,6,39,289,499.83802330697654,500.6227369165863,"[90, 0, 164]",164,l,0.2609917257213965,1,colour,0.28,3.9
36,23,1,1,6,40,290,501.1362999587436,501.99913984222803,"[17, 0, 237]",237,a,0.3424432341125794,1,colour,0.28,3.9
36,23,1,1,6,41,291,502.5114902352216,503.2788144000806,"[95, 0, 159]",159,l,0.2443088392028585,1,colour,0.28,3.9
36,23,1,1,6,42,292,503.900344181282,504.74292663962115,"[50, 0, 204]",204,a,0.3170158037682995,1,colour,0.28,3.9
36,23,1,1,6,43,293,505.2619428617181,506.08680465165526,"[66, 0, 188]",188,a,0.30135652085300535,0,colour,0.28,3.9
36,23,1,1,6,44,294,506.605785033782,507.32691746461205,"[1, 0, 253]",253,a,0.1983857075101696,1,colour,0.28,3.9
36,23,1,1,6,45,295,507.8400713017327,508.53473103727447,"[29, 0, 225]",225,a,0.17173932655714452,1,colour,0.28,3.9
36,23,1,1,6,46,296,509.04326546465745,509.80678626691224,"[53, 0, 201]",201,a,0.2402928001829423,0,colour,0.28,3.9
36,23,1,1,6,47,297,510.3245784183382,511.6467114521074,"[81, 0, 173]",173,l,0.7994426303193904,1,colour,0.28,3.9
36,23,1,1,6,48,298,512.1552494241041,512.9507252461626,"[60, 0, 194]",194,a,0.27303117798874155,0,colour,0.28,3.9
36,23,1,1,6,49,299,513.4677159226267,514.2149126313743,"[62, 0, 192]",192,a,0.22639794350834563,0,colour,0.28,3.9
36,23,1,1,6,50,300,514.7314003676292,515.6227384919184,"[13, 0, 241]",241,a,0.36800851015141234,1,colour,0.28,3.9
36,23,1,1,7,1,301,521.3118123217719,523.2466916023404,"[74, 0, 180]",180,a,1.4110522400587797,0,colour,0.14,3.8
36,23,1,1,7,2,302,523.7659461006988,524.9106802532915,"[60, 0, 194]",194,a,0.6219070848310366,0,colour,0.14,3.8
36,23,1,1,7,3,303,525.4225651213201,526.3269458214636,"[79, 0, 175]",175,l,0.38140712201129645,1,colour,0.14,3.8
36,23,1,1,7,4,304,526.8443716968759,527.5827092528925,"[55, 0, 199]",199,a,0.2153143534087576,0,colour,0.14,3.8
36,23,1,1,7,5,305,528.0943763245596,528.8467068047612,"[87, 0, 167]",167,l,0.22944669879507273,1,colour,0.14,3.8
36,23,1,1,7,6,306,529.3601087642601,530.1668052345049,"[64, 0, 190]",190,a,0.28314236435107887,0,colour,0.14,3.8
36,23,1,1,7,7,307,530.6828475319198,531.310661506257,"[51, 0, 203]",203,a,0.10484591004205868,0,colour,0.14,3.8
36,23,1,1,7,8,308,531.8151956484653,532.5266658763285,"[91, 0, 163]",163,l,0.18880621204152703,1,colour,0.14,3.8
36,23,1,1,7,9,309,533.0338183011045,533.5906432633637,"[92, 0, 162]",162,l,0.03412195574492216,1,colour,0.14,3.8
36,23,1,1,7,10,310,534.112076906953,534.790723686514,"[80, 0, 174]",174,l,0.1560237236553803,1,colour,0.14,3.8
36,23,1,1,7,11,311,535.2997338788118,535.8627059761202,"[42, 0, 212]",212,a,0.04011234041536227,1,colour,0.14,3.8
36,23,1,1,7,12,312,536.3659947799752,537.3106678077602,"[62, 0, 192]",192,a,0.4213308106409386,0,colour,0.14,3.8
36,23,1,1,7,13,313,537.8068122607074,538.7826459225616,"[98, 0, 156]",156,l,0.4635214718291536,1,colour,0.14,3.8
36,23,1,1,7,14,314,539.2992498431704,540.3346955124289,"[81, 0, 173]",173,a,0.5125382571713999,0,colour,0.14,3.8
36,23,1,1,7,15,315,540.841695912939,541.6626641497132,"[63, 0, 191]",191,a,0.2978839881834574,0,colour,0.14,3.8
36,23,1,1,7,16,316,542.1806815805612,542.9906985592097,"[73, 0, 181]",181,a,0.2874392149387859,0,colour,0.14,3.8
36,23,1,1,7,17,317,543.5113260017824,544.3105823433725,"[50, 0, 204]",204,a,0.28224400361068547,1,colour,0.14,3.8
36,23,1,1,7,18,318,544.8180120351026,545.5987289041514,"[72, 0, 182]",182,a,0.2578807428944856,0,colour,0.14,3.8
36,23,1,1,7,19,319,546.1150268070633,546.814630480716,"[18, 0, 236]",236,a,0.17686049494659528,1,colour,0.14,3.8
36,23,1,1,7,20,320,547.3257481384207,548.2066060433863,"[95, 0, 159]",159,l,0.3577909855521284,1,colour,0.14,3.8
36,23,1,1,7,21,321,548.7172621145728,549.4546142700128,"[66, 0, 188]",188,a,0.21407216577790678,0,colour,0.14,3.8
36,23,1,1,7,22,322,549.9605532579008,550.7266182998428,"[89, 0, 165]",165,l,0.2430134824826382,1,colour,0.14,3.8
36,23,1,1,7,23,323,551.2419134730007,552.0066000569495,"[36, 0, 218]",218,a,0.2414073820109479,1,colour,0.14,3.8
36,23,1,1,7,24,324,552.5259924011771,553.3105980971595,"[83, 0, 171]",171,l,0.2599941159132868,1,colour,0.14,3.8
36,23,1,1,7,25,325,553.8259661316988,554.6146343403962,"[71, 0, 183]",183,a,0.26558750472031534,0,colour,0.14,3.8
36,23,1,1,7,26,326,555.1229367929627,555.7426076250849,"[96, 0, 158]",158,l,0.09630892268614843,1,colour,0.14,3.8
36,23,1,1,7,27,327,556.2636773557751,556.8465638389462,"[26, 0, 228]",228,a,0.06416643265401945,1,colour,0.14,3.8
36,23,1,1,7,28,328,557.355450757721,558.8706210819655,"[78, 0, 176]",176,l,0.9997806282481179,1,colour,0.14,3.8
36,23,1,1,7,29,329,559.3889878534246,560.4065596484579,"[54, 0, 200]",200,a,0.4941842856933363,0,colour,0.14,3.8
36,23,1,1,7,30,330,560.9203901115106,561.6865933930967,"[12, 0, 242]",242,a,0.24289532896364108,1,colour,0.14,3.8
36,23,1,1,7,31,331,562.2017652927316,563.4065698884078,"[53, 0, 201]",201,a,0.6821976873907261,0,colour,0.14,3.8
36,23,1,1,7,32,332,563.920633113943,564.7586473624688,"[67, 0, 187]",187,a,0.31527737132273614,0,colour,0.14,3.8
36,23,1,1,7,33,333,565.2538221686846,567.5025503442157,"[76, 0, 178]",178,a,1.72545606282074,0,colour,0.14,3.8
36,23,1,1,7,34,334,568.0196950142272,569.0625796305831,"[70, 0, 184]",184,a,0.5195427930448204,0,colour,0.14,3.8
36,23,1,1,7,35,335,569.582199617289,570.3825350945699,"[94, 0, 160]",160,l,0.27674946998013183,1,colour,0.14,3.8
36,23,1,1,7,36,336,570.8949083305779,572.0065583093674,"[88, 0, 166]",166,l,0.5883042170316912,1,colour,0.14,3.8
36,23,1,1,7,37,337,572.521539587935,573.4385922556976,"[32, 0, 222]",222,a,0.3937695273780264,1,colour,0.14,3.8
36,23,1,1,7,38,338,573.9591558953398,574.8386538530467,"[84, 0, 170]",170,a,0.35439879732439294,0,colour,0.14,3.8
36,23,1,1,7,39,339,575.3516178567661,576.1745175101678,"[10, 0, 244]",244,a,0.2999926350894384,1,colour,0.14,3.8
36,23,1,1,7,40,340,576.677944553725,577.9265766310273,"[82, 0, 172]",172,l,0.7233383574639447,1,colour,0.14,3.8
36,23,1,1,7,41,341,578.4336215360672,579.4706146229291,"[85, 0, 169]",169,l,0.513711521809455,1,colour,0.14,3.8
36,23,1,1,7,42,342,579.9805731943343,580.8624929058715,"[97, 0, 157]",157,l,0.35856292210519314,1,colour,0.14,3.8
36,23,1,1,7,43,343,581.3713305940037,582.2945311844815,"[59, 0, 195]",195,a,0.4052075780928135,0,colour,0.14,3.8
36,23,1,1,7,44,344,582.8036508657387,584.1104968002182,"[75, 0, 179]",179,a,0.7925310418941081,0,colour,0.14,3.8
36,23,1,1,7,45,345,584.6228916976834,585.4704952878528,"[61, 0, 193]",193,a,0.32442600023932755,0,colour,0.14,3.8
36,23,1,1,7,46,346,585.982260033139,586.8864977674675,"[69, 0, 185]",185,a,0.3807915420620702,0,colour,0.14,3.8
36,23,1,1,7,47,347,587.398155780742,588.3025014286977,"[58, 0, 196]",196,a,0.38107550446875393,0,colour,0.14,3.8
36,23,1,1,7,48,348,588.8219185851049,589.6464672681177,"[90, 0, 164]",164,l,0.2956185908988118,1,colour,0.14,3.8
36,23,1,1,7,49,349,590.157684962498,590.9424990026164,"[68, 0, 186]",186,a,0.2614828506484628,0,colour,0.14,3.8
36,23,1,1,7,50,350,591.4546233284636,592.3505328134052,"[93, 0, 161]",161,l,0.3634450265089981,1,colour,0.14,3.8
36,23,1,1,8,1,351,597.105520566809,597.9025201757322,"[63, 0, 191]",191,a,0.27294886438176036,0,colour,0.06,3.8
36,23,1,1,8,2,352,598.4188913338003,599.1264278363669,"[92, 0, 162]",162,l,0.18426438985625282,1,colour,0.06,3.8
36,23,1,1,8,3,353,599.6378227610257,600.5504812984727,"[85, 0, 169]",169,l,0.38936279399786144,1,colour,0.06,3.8
36,23,1,1,8,4,354,601.0597356747603,601.7984993712162,"[56, 0, 198]",198,a,0.21568732475861907,0,colour,0.06,3.8
36,23,1,1,8,5,355,602.308481179527,602.9824337188038,"[86, 0, 168]",168,l,0.15075643867021427,1,colour,0.06,3.8
36,23,1,1,8,6,356,603.496327197121,604.054493202013,"[66, 0, 188]",188,a,0.03261352877598256,0,colour,0.06,3.8
36,23,1,1,8,7,357,604.5613967166864,605.4784355998272,"[61, 0, 193]",193,l,0.39352573722135276,1,colour,0.06,3.8
36,23,1,1,8,8,358,605.9989480396034,606.7424244870781,"[64, 0, 190]",190,a,0.2199900829582475,0,colour,0.06,3.8
36,23,1,1,8,9,359,607.2623575806501,608.214547930751,"[39, 0, 215]",215,a,0.4288485267315991,1,colour,0.06,3.8
36,23,1,1,8,10,360,608.731348380039,610.7104978241841,"[82, 0, 172]",172,l,1.4558891467750072,1,colour,0.06,3.8
36,23,1,1,8,11,361,611.2315395918558,612.0944739981787,"[95, 0, 159]",159,l,0.3517986317165196,1,colour,0.06,3.8
36,23,1,1,8,12,362,612.6102047640597,613.5424244083115,"[65, 0, 189]",189,a,0.41271662956569344,0,colour,0.06,3.8
36,23,1,1,8,13,363,614.0602228612406,615.0145360366441,"[78, 0, 176]",176,a,0.4309985274448991,0,colour,0.06,3.8
36,23,1,1,8,14,364,615.5291057470022,616.2944287847495,"[74, 0, 180]",180,a,0.24196979287080467,0,colour,0.06,3.8
36,23,1,1,8,15,365,616.7993811905035,617.5504332493292,"[90, 0, 164]",164,l,0.22809187142411247,1,colour,0.06,3.8
36,23,1,1,8,16,366,618.0649994151318,619.1184398690821,"[59, 0, 195]",195,a,0.5301297443802468,0,colour,0.06,3.8
36,23,1,1,8,17,367,619.6242583403364,620.5344903978403,"[88, 0, 166]",166,l,0.3869020495330915,1,colour,0.06,3.8
36,23,1,1,8,18,368,621.0463138260529,621.8863835523953,"[70, 0, 184]",184,a,0.316772801335901,0,colour,0.06,3.8
36,23,1,1,8,19,369,622.393708481337,623.2064575637924,"[73, 0, 181]",181,a,0.2894037145306356,0,colour,0.06,3.8
36,23,1,1,8,20,370,623.7219209088362,624.4384134499705,"[79, 0, 175]",175,a,0.19332007126649842,0,colour,0.06,3.8
36,23,1,1,8,21,371,624.9564308807603,627.702415727952,"[76, 0, 178]",178,l,2.2230175706208684,1,colour,0.06,3.8
36,23,1,1,8,22,372,628.2236221228959,629.0463807797059,"[53, 0, 201]",201,a,0.2994818179286085,0,colour,0.06,3.8
36,23,1,1,8,23,373,629.5674477535067,630.3184021387133,"[96, 0, 158]",158,l,0.22765627870103344,1,colour,0.06,3.8
36,23,1,1,8,24,374,630.8331990977749,631.6144043348031,"[91, 0, 163]",163,l,0.2580595485633239,1,colour,0.06,3.8
36,23,1,1,8,25,375,632.1301161961164,634.4943587590824,"[81, 0, 173]",173,a,1.8401504646171816,0,colour,0.06,3.8
36,23,1,1,8,26,376,635.0062152702594,635.8303771973005,"[72, 0, 182]",182,a,0.30092210962902755,0,colour,0.06,3.8
36,23,1,1,8,27,377,636.3500298731378,637.1423695062986,"[99, 0, 155]",155,l,0.26940071338322014,1,colour,0.06,3.8
36,23,1,1,8,28,378,637.662755127938,638.4543677229667,"[94, 0, 160]",160,l,0.26840349746635184,1,colour,0.06,3.8
36,23,1,1,8,29,379,638.9628588273772,639.7663513673469,"[60, 0, 194]",194,a,0.28014953510137275,0,colour,0.06,3.8
36,23,1,1,8,30,380,640.2767667991575,641.0703462568345,"[50, 0, 204]",204,a,0.2709252879722044,1,colour,0.06,3.8
36,23,1,1,8,31,381,641.5894014696241,642.3663799605565,"[69, 0, 185]",185,a,0.2581083854311146,0,colour,0.06,3.8
36,23,1,1,8,32,382,642.870372171863,643.6463479330414,"[77, 0, 177]",177,a,0.2523696677526459,0,colour,0.06,3.8
36,23,1,1,8,33,383,644.1676799645647,645.6064356659772,"[83, 0, 171]",171,l,0.9155631453613751,1,colour,0.06,3.8
36,23,1,1,8,34,384,646.1209632349783,647.030350494606,"[68, 0, 186]",186,a,0.38916075142333284,0,colour,0.06,3.8
36,23,1,1,8,35,385,647.5430663758889,650.4783367447089,"[80, 0, 174]",174,a,2.4122475600452162,0,colour,0.06,3.8
36,23,1,1,8,36,386,650.9978188856039,652.0384849722614,"[57, 0, 197]",197,a,0.5173797954921611,0,colour,0.06,3.8
36,23,1,1,8,37,387,652.5592057561153,653.9184051319608,"[93, 0, 161]",161,l,0.8363258343888447,1,colour,0.06,3.8
36,23,1,1,8,38,388,654.4343135220115,655.2543581919163,"[62, 0, 192]",192,a,0.2990986066288315,0,colour,0.06,3.8
36,23,1,1,8,39,389,655.7757292141323,657.2143376174499,"[29, 0, 225]",225,a,0.9139897340210155,1,colour,0.06,3.8
36,23,1,1,8,40,390,657.7303488010657,658.5983311205637,"[97, 0, 157]",157,l,0.34473895747214556,1,colour,0.06,3.8
36,23,1,1,8,41,391,659.1054173793527,659.8704048609943,"[54, 0, 200]",200,a,0.24180240865098312,0,colour,0.06,3.8
36,23,1,1,8,42,392,660.3868543942808,661.43870213849,"[98, 0, 156]",156,l,0.5290356426266953,1,colour,0.06,3.8
36,23,1,1,8,43,393,661.9511986480211,662.8223317287047,"[75, 0, 179]",179,a,0.34779874043306336,0,colour,0.06,3.8
36,23,1,1,8,44,394,663.3418449833407,665.0223247182439,"[55, 0, 199]",199,a,1.1571501207654364,0,colour,0.06,3.8
36,23,1,1,8,45,395,665.5296224718331,666.438993977732,"[27, 0, 227]",227,a,0.38642982923192903,1,colour,0.06,3.8
36,23,1,1,8,46,396,666.951608246949,667.534411628847,"[52, 0, 202]",202,a,0.059448955522384495,0,colour,0.06,3.8
36,23,1,1,8,47,397,668.045398136077,669.2222515417961,"[71, 0, 183]",183,a,0.6535990160191432,0,colour,0.06,3.8
36,23,1,1,8,48,398,669.7330249788356,670.3982573927497,"[51, 0, 203]",203,a,0.14128091832390055,0,colour,0.06,3.8
36,23,1,1,8,49,399,670.9056169801042,671.9343318358297,"[87, 0, 167]",167,l,0.505271814239677,1,colour,0.06,3.8
36,23,1,1,8,50,400,672.4526214136276,673.3263263030676,"[58, 0, 196]",196,a,0.35042214288841933,0,colour,0.06,3.8
36,23,1,1,9,1,401,678.4366588698467,682.5183006054722,"[84, 0, 170]",170,l,3.5577178091625683,1,colour,0.06,3.7
36,23,1,1,9,2,402,683.0328191159642,683.8222435073694,"[61, 0, 193]",193,a,0.26617000170517713,0,colour,0.06,3.7
36,23,1,1,9,3,403,684.3297125836252,685.0462586877402,"[58, 0, 196]",196,a,0.19403017405420542,0,colour,0.06,3.7
36,23,1,1,9,4,404,685.5639803408412,686.374300974072,"[92, 0, 162]",162,l,0.2867621951154433,1,colour,0.06,3.7
36,23,1,1,9,5,405,686.8924771244638,687.7102296156809,"[67, 0, 187]",187,a,0.29467769485199824,0,colour,0.06,3.7
36,23,1,1,9,6,406,688.2104999903822,689.0382183390902,"[94, 0, 160]",160,l,0.3094461001455784,1,colour,0.06,3.7
36,23,1,1,9,7,407,689.5493253629538,690.374219054298,"[78, 0, 176]",176,a,0.30158495099749416,0,colour,0.06,3.7
36,23,1,1,9,8,408,690.8931545381201,691.8702563814004,"[74, 0, 180]",180,a,0.45386793348006904,0,colour,0.06,3.7
36,23,1,1,9,9,409,692.3775872180122,693.1582257118425,"[62, 0, 192]",192,a,0.2554452045005746,0,colour,0.06,3.7
36,23,1,1,9,10,410,693.6764479421545,694.3262361125089,"[64, 0, 190]",190,a,0.1267531524063088,0,colour,0.06,3.7
36,23,1,1,9,11,411,694.8327824096195,695.7982299811556,"[97, 0, 157]",157,l,0.4419348194496706,1,colour,0.06,3.7
36,23,1,1,9,12,412,696.3172371448018,698.894207680074,"[81, 0, 173]",173,a,2.0542962795007043,0,colour,0.06,3.7
36,23,1,1,9,13,413,699.4134822645574,700.5104197640903,"[76, 0, 178]",178,a,0.5735976454452612,0,colour,0.06,3.7
36,23,1,1,9,14,414,701.0210234538536,701.9501868598163,"[50, 0, 204]",204,a,0.4058708132361062,1,colour,0.06,3.7
36,23,1,1,9,15,415,702.4586208566907,703.310221581196,"[82, 0, 172]",172,l,0.34057758963899687,1,colour,0.06,3.7
36,23,1,1,9,16,416,703.8212703160243,704.8061671423493,"[75, 0, 179]",179,l,0.45829317753668875,1,colour,0.06,3.7
36,23,1,1,9,17,417,705.3260202853708,706.1582075949991,"[87, 0, 167]",167,l,0.30901799048297107,1,colour,0.06,3.7
36,23,1,1,9,18,418,706.6626747835544,707.454205458751,"[51, 0, 203]",203,a,0.2682522609247826,0,colour,0.06,3.7
36,23,1,1,9,19,419,707.9752161126817,709.4221980576403,"[88, 0, 166]",166,l,0.9237921458552592,1,colour,0.06,3.7
36,23,1,1,9,20,420,709.9369040384772,710.846194018377,"[86, 0, 168]",168,l,0.38611632847459987,1,colour,0.06,3.7
36,23,1,1,9,21,421,711.3589209273341,712.1342232133029,"[91, 0, 163]",163,l,0.2600988787598908,1,colour,0.06,3.7
36,23,1,1,9,22,422,712.6477768032346,713.5821578697069,"[60, 0, 194]",194,a,0.41110383375780657,0,colour,0.06,3.7
36,23,1,1,9,23,423,714.100990953797,714.97417833074,"[85, 0, 169]",169,l,0.34980498760705814,1,colour,0.06,3.7
36,23,1,1,9,24,424,715.4929818764213,716.1982710986049,"[70, 0, 184]",184,a,0.19158518343465403,0,colour,0.06,3.7
36,23,1,1,9,25,425,716.711408000323,717.4861407862627,"[0, 0, 254]",254,a,0.2483898625941947,1,colour,0.06,3.7
36,23,1,1,9,26,426,717.9958973150933,719.2461666067247,"[73, 0, 181]",181,l,0.7269349513226189,1,colour,0.06,3.7
36,23,1,1,9,27,427,719.7616405856097,720.5581478880486,"[90, 0, 164]",164,l,0.27314775611739606,1,colour,0.06,3.7
36,23,1,1,9,28,428,721.0741602532216,722.2461378560401,"[99, 0, 155]",155,l,0.6489335264195688,1,colour,0.06,3.7
36,23,1,1,9,29,429,722.7619158833404,725.1021776092239,"[79, 0, 175]",175,a,1.8169659824343398,0,colour,0.06,3.7
36,23,1,1,9,30,430,725.6228196240263,727.5501394408639,"[80, 0, 174]",174,a,1.4055695217102766,0,colour,0.06,3.7
36,23,1,1,9,31,431,728.0599223573809,729.0061361073749,"[93, 0, 161]",161,l,0.42300977249396965,1,colour,0.06,3.7
36,23,1,1,9,32,432,729.513826918439,730.4141372290323,"[69, 0, 185]",185,a,0.3769259519758634,0,colour,0.06,3.7
36,23,1,1,9,33,433,730.9358938256628,731.7901293741888,"[68, 0, 186]",186,a,0.3309870664961636,0,colour,0.06,3.7
36,23,1,1,9,34,434,732.2982683810405,732.9741216170369,"[14, 0, 240]",240,a,0.15246887737885118,1,colour,0.06,3.7
36,23,1,1,9,35,435,733.4835496790474,734.1261277263402,"[89, 0, 165]",165,l,0.11925434088334441,1,colour,0.06,3.7
36,23,1,1,9,36,436,734.6398849341786,735.9341160086915,"[66, 0, 188]",188,a,0.7709680201951414,0,colour,0.06,3.7
36,23,1,1,9,37,437,736.4558481868589,737.5101472232491,"[96, 0, 158]",158,l,0.5310808804351836,1,colour,0.06,3.7
36,23,1,1,9,38,438,738.0219927067519,739.2220963668078,"[71, 0, 183]",183,a,0.6754436370101757,0,colour,0.06,3.7
36,23,1,1,9,39,439,739.7423441426945,740.9180991142639,"[65, 0, 189]",189,a,0.6527057752246037,0,colour,0.06,3.7
36,23,1,1,9,40,440,741.4332076048595,742.4781618774286,"[72, 0, 182]",182,a,0.5236332687200047,0,colour,0.06,3.7
36,23,1,1,9,41,441,742.9954849592759,744.022120706446,"[98, 0, 156]",156,l,0.5032482378301211,1,colour,0.06,3.7
36,23,1,1,9,42,442,744.5425327157136,745.7422059030505,"[83, 0, 171]",171,a,0.6765527049428783,0,colour,0.06,3.7
36,23,1,1,9,43,443,746.2613965985365,747.5580856605084,"[53, 0, 201]",201,a,0.7734027708065696,0,colour,0.06,3.7
36,23,1,1,9,44,444,748.074090542621,749.0061849441845,"[95, 0, 159]",159,l,0.4088006273377687,1,colour,0.06,3.7
36,23,1,1,9,45,445,749.527338563872,750.5660732339602,"[77, 0, 177]",177,a,0.5154983972897753,0,colour,0.06,3.7
36,23,1,1,9,46,446,751.076152715832,751.9901617482537,"[59, 0, 195]",195,a,0.39102639589691535,0,colour,0.06,3.7
36,23,1,1,9,47,447,752.4982204107218,753.406063797418,"[46, 0, 208]",208,a,0.3846898213378154,1,colour,0.06,3.7
36,23,1,1,9,48,448,753.921369998192,754.8301003241795,"[52, 0, 202]",202,a,0.38549562852131203,0,colour,0.06,3.7
36,23,1,1,9,49,449,755.3433675886481,756.3100360801327,"[55, 0, 199]",199,a,0.44209629588294774,0,colour,0.06,3.7
36,23,1,1,9,50,450,756.8290810529143,757.7820846932591,"[57, 0, 197]",197,a,0.429977286956273,0,colour,0.06,3.7
36,23,1,1,10,1,451,764.111503862252,766.8700567018823,"[88, 0, 166]",166,a,2.2344831904629245,0,colour,0.06,3.6
36,23,1,1,10,2,452,767.3782339117024,768.4620378572145,"[99, 0, 155]",155,l,0.5604696052032523,1,colour,0.06,3.6
36,23,1,1,10,3,453,768.9720846499549,769.8861035284935,"[94, 0, 160]",160,l,0.3907558242790401,1,colour,0.06,3.6
36,23,1,1,10,4,454,770.3969009901048,771.3340822955361,"[72, 0, 182]",182,a,0.42389986250782385,0,colour,0.06,3.6
36,23,1,1,10,5,455,771.8327158497996,772.790002162219,"[93, 0, 161]",161,l,0.434391503338702,1,colour,0.06,3.6
36,23,1,1,10,6,456,773.3014443482971,774.2780534912599,"[89, 0, 165]",165,l,0.453166495251935,1,colour,0.06,3.6
36,23,1,1,10,7,457,774.7878328631632,775.7580479301978,"[10, 0, 244]",244,a,0.4472631504177116,1,colour,0.06,3.6
36,23,1,1,10,8,458,776.272336828988,777.1579984631971,"[69, 0, 185]",185,a,0.3623485615826212,0,colour,0.06,3.6
36,23,1,1,10,9,459,777.6787101886584,778.8059926689602,"[90, 0, 164]",164,l,0.604386095830705,1,colour,0.06,3.6
36,23,1,1,10,10,460,779.3103964484762,780.3020028207102,"[97, 0, 157]",157,l,0.46819877676898614,1,colour,0.06,3.6
36,23,1,1,10,11,461,780.8105120420223,781.7419983466389,"[95, 0, 159]",159,l,0.40854817256331444,1,colour,0.06,3.6
36,23,1,1,10,12,462,782.2617089177365,783.1740110252867,"[71, 0, 183]",183,a,0.38901109027210623,0,colour,0.06,3.6
36,23,1,1,10,13,463,783.6837277758168,784.6059831379098,"[63, 0, 191]",191,a,0.39501407800707966,0,colour,0.06,3.6
36,23,1,1,10,14,464,785.1253483067849,786.0620534534683,"[58, 0, 196]",196,a,0.41363310726592317,0,colour,0.06,3.6
36,23,1,1,10,15,465,786.5785691526835,788.7899592330796,"[77, 0, 177]",177,a,1.7072974385228008,0,colour,0.06,3.6
36,23,1,1,10,16,466,789.3097162778722,790.2219833332929,"[78, 0, 176]",176,a,0.38909301010426134,0,colour,0.06,3.6
36,23,1,1,10,17,467,790.7336291372776,791.9339509875281,"[61, 0, 193]",193,a,0.6774337365059182,0,colour,0.06,3.6
36,23,1,1,10,18,468,792.4524686016957,793.4459701567539,"[54, 0, 200]",200,a,0.47154803591547534,0,colour,0.06,3.6
36,23,1,1,10,19,469,793.9668709278922,794.8619911471615,"[56, 0, 198]",198,a,0.3717941497452557,0,colour,0.06,3.6
36,23,1,1,10,20,470,795.3732297153329,796.4779814963695,"[86, 0, 168]",168,l,0.5814591883681715,1,colour,0.06,3.6
36,23,1,1,10,21,471,797.00056831853,797.9179490592796,"[82, 0, 172]",172,l,0.394773832464125,1,colour,0.06,3.6
36,23,1,1,10,22,472,798.4381310630124,799.3899496232625,"[85, 0, 169]",169,l,0.42906671698438004,1,colour,0.06,3.6
36,23,1,1,10,23,473,799.9065271562431,800.9019542202586,"[65, 0, 189]",189,a,0.4725271349889226,0,colour,0.06,3.6
36,23,1,1,10,24,474,801.4222236575442,802.4299256932572,"[51, 0, 203]",203,a,0.4826627398142591,0,colour,0.06,3.6
36,23,1,1,10,25,475,802.9398015571642,803.8860070364317,"[98, 0, 156]",156,l,0.42288925586035475,1,colour,0.06,3.6
36,23,1,1,10,26,476,804.3930704522063,805.3819860744406,"[50, 0, 204]",204,a,0.4657632384332828,1,colour,0.06,3.6
36,23,1,1,10,27,477,805.8936716568423,806.8861838729354,"[96, 0, 158]",158,l,0.46994705544784665,1,colour,0.06,3.6
36,23,1,1,10,28,478,807.3932484702091,808.318078398006,"[70, 0, 184]",184,a,0.40153418434783816,0,colour,0.06,3.6
36,23,1,1,10,29,479,808.8308797437348,809.8219382773968,"[2, 0, 252]",252,a,0.4678191100829281,1,colour,0.06,3.6
36,23,1,1,10,30,480,810.3309685558197,811.5259081182885,"[76, 0, 178]",178,l,0.6716123114456423,1,colour,0.06,3.6
36,23,1,1,10,31,481,812.0341975740157,813.0459392793127,"[91, 0, 163]",163,l,0.4884140604408458,1,colour,0.06,3.6
36,23,1,1,10,32,482,813.5655155492132,814.5259144197917,"[79, 0, 175]",175,a,0.43695149675477296,0,colour,0.06,3.6
36,23,1,1,10,33,483,815.0344059180934,816.309934861958,"[84, 0, 170]",170,l,0.752211932791397,1,colour,0.06,3.6
36,23,1,1,10,34,484,816.8316209602635,817.7338851366658,"[73, 0, 181]",181,a,0.3794749177759513,0,colour,0.06,3.6
36,23,1,1,10,35,485,818.2534133574227,819.2379242155585,"[83, 0, 171]",171,l,0.46151443698909134,1,colour,0.06,3.6
36,23,1,1,10,36,486,819.7567612380954,820.3738641998498,"[55, 0, 199]",199,a,0.09409433143446222,0,colour,0.06,3.6
36,23,1,1,10,37,487,820.8817735949997,821.7179265313316,"[67, 0, 187]",187,a,0.31285049754660577,0,colour,0.06,3.6
36,23,1,1,10,38,488,822.2257575513213,823.0939096180373,"[75, 0, 179]",179,a,0.34515564562752843,0,colour,0.06,3.6
36,23,1,1,10,39,489,823.6008552741259,824.5178492589039,"[60, 0, 194]",194,a,0.39411256642779335,0,colour,0.06,3.6
36,23,1,1,10,40,490,825.0384310154477,825.9578849570244,"[87, 0, 167]",167,l,0.3961329920566641,1,colour,0.06,3.6
36,23,1,1,10,41,491,826.4761016734992,827.2218947181245,"[57, 0, 197]",197,a,0.2231849548406899,0,colour,0.06,3.6
36,23,1,1,10,42,492,827.7418226916925,828.5419041388668,"[80, 0, 174]",174,l,0.276905826467555,1,colour,0.06,3.6
36,23,1,1,10,43,493,829.0433178460225,829.6698766358895,"[53, 0, 201]",201,a,0.10320160660194233,0,colour,0.06,3.6
36,23,1,1,10,44,494,830.1842332760571,831.5098758639651,"[74, 0, 180]",180,l,0.8023752013104968,1,colour,0.06,3.6
36,23,1,1,10,45,495,832.0278058611439,832.8538728171843,"[42, 0, 212]",212,a,0.3027775141526945,1,colour,0.06,3.6
36,23,1,1,10,46,496,833.3715889564482,834.0618655893486,"[68, 0, 186]",186,a,0.16541850578505546,0,colour,0.06,3.6
36,23,1,1,10,47,497,834.5763911890681,837.501825275307,"[66, 0, 188]",188,a,2.405664832214825,0,colour,0.06,3.6
36,23,1,1,10,48,498,838.0137841862743,839.0059423355851,"[62, 0, 192]",192,a,0.4688793412060477,0,colour,0.06,3.6
36,23,1,1,10,49,499,839.5140250225668,840.317836577131,"[59, 0, 195]",195,a,0.2806938291178085,0,colour,0.06,3.6
36,23,1,1,10,50,500,840.8319108303403,841.7498315327684,"[52, 0, 202]",202,a,0.39898679399630055,0,colour,0.06,3.6
36,23,1,1,11,1,501,846.5978762294399,848.7978211698937,"[93, 0, 161]",161,l,1.6756882148329169,1,colour,0.06,3.6
36,23,1,1,11,2,502,849.3190661616391,850.461857082264,"[91, 0, 163]",163,l,0.6195660692756064,1,colour,0.06,3.6
36,23,1,1,11,3,503,850.976031765982,852.0538216960849,"[7, 0, 247]",247,a,0.5547742105554789,1,colour,0.06,3.6
36,23,1,1,11,4,504,852.5699144056416,853.4858375255135,"[62, 0, 192]",192,a,0.3926092595793307,0,colour,0.06,3.6
36,23,1,1,11,5,505,853.9919210545486,854.9897860200144,"[50, 0, 204]",204,a,0.47476850770181045,1,colour,0.06,3.6
36,23,1,1,11,6,506,855.5076435496449,856.1178045968991,"[73, 0, 181]",181,l,0.08692792517831549,1,colour,0.06,3.6
36,23,1,1,11,7,507,856.6327244355925,859.3098671205807,"[69, 0, 185]",185,a,2.15376620326424,0,colour,0.06,3.6
36,23,1,1,11,8,508,859.8217838900746,861.3338199946447,"[68, 0, 186]",186,a,0.986491505347658,0,colour,0.06,3.6
36,23,1,1,11,9,509,861.8524077132461,862.8377873937134,"[98, 0, 156]",156,l,0.45931481185834855,1,colour,0.06,3.6
36,23,1,1,11,10,510,863.3553790778969,864.1738452165155,"[51, 0, 203]",203,a,0.2952109611942433,0,colour,0.06,3.6
36,23,1,1,11,11,511,864.6835430624196,865.5817971075303,"[59, 0, 195]",195,a,0.3749909907928668,0,colour,0.06,3.6
36,23,1,1,11,12,512,866.0898730991757,866.9258716482436,"[80, 0, 174]",174,l,0.3130096110398881,1,colour,0.06,3.6
36,23,1,1,11,13,513,867.4337144835154,868.6537648248486,"[75, 0, 179]",179,l,0.6967530224937946,1,colour,0.06,3.6
36,23,1,1,11,14,514,869.1682817599503,870.2937777587213,"[84, 0, 170]",170,l,0.6022416090709157,1,colour,0.06,3.6
36,23,1,1,11,15,515,870.8090095227817,871.8297667373554,"[25, 0, 229]",229,a,0.4978998207952827,1,colour,0.06,3.6
36,23,1,1,11,16,516,872.3403274979792,873.3578209178522,"[97, 0, 157]",157,l,0.4941712887957692,1,colour,0.06,3.6
36,23,1,1,11,17,517,873.8717049438274,875.0457872551051,"[67, 0, 187]",187,a,0.6508582476526499,0,colour,0.06,3.6
36,23,1,1,11,18,518,875.5592770421063,876.4537663214142,"[78, 0, 176]",176,l,0.37170080840587616,1,colour,0.06,3.6
36,23,1,1,11,19,519,876.9657126293168,877.9097417203011,"[95, 0, 159]",159,l,0.42069041839567944,1,colour,0.06,3.6
36,23,1,1,11,20,520,878.4189291429357,879.4058652994572,"[52, 0, 202]",202,a,0.4635856685927138,0,colour,0.06,3.6
36,23,1,1,11,21,521,879.9190813640598,880.8698290594039,"[87, 0, 167]",167,l,0.4274413180537522,1,colour,0.06,3.6
36,23,1,1,11,22,522,881.3885061808396,882.2297527164337,"[56, 0, 198]",198,a,0.31780073716072366,0,colour,0.06,3.6
36,23,1,1,11,23,523,882.7480001528165,883.4217782187043,"[96, 0, 158]",158,l,0.15078755241120234,1,colour,0.06,3.6
36,23,1,1,11,24,524,883.9357614936889,890.6537281972123,"[77, 0, 177]",177,l,6.194850947300438,1,colour,0.06,3.6
36,23,1,1,11,25,525,891.1729224373121,893.3496966801467,"[71, 0, 183]",183,a,1.6535698714433238,0,colour,0.06,3.6
36,23,1,1,11,26,526,893.860565821582,894.8057315496262,"[66, 0, 188]",188,a,0.4217845202074386,0,colour,0.06,3.6
36,23,1,1,11,27,527,895.3138343227329,896.0617273496464,"[94, 0, 160]",160,l,0.22461855108849704,1,colour,0.06,3.6
36,23,1,1,11,28,528,896.5795860608923,897.4538029490504,"[70, 0, 184]",184,a,0.3509597415686585,0,colour,0.06,3.6
36,23,1,1,11,29,529,897.9597427246044,898.6697777807713,"[99, 0, 155]",155,l,0.19672013638773933,1,colour,0.06,3.6
36,23,1,1,11,30,530,899.1850906769396,901.1337234238163,"[88, 0, 166]",166,l,1.4253614218323492,1,colour,0.06,3.6
36,23,1,1,11,31,531,901.6540523318108,902.8217598655028,"[53, 0, 201]",201,a,0.6395186581648886,0,colour,0.06,3.6
36,23,1,1,11,32,532,903.3312603950617,904.2297342057573,"[60, 0, 194]",194,a,0.37522887327941135,0,colour,0.06,3.6
36,23,1,1,11,33,533,904.7483577642124,907.0616497621522,"[74, 0, 180]",180,a,1.7899419039022177,0,colour,0.06,3.6
36,23,1,1,11,34,534,907.5818837534753,908.9816838376573,"[72, 0, 182]",182,a,0.8763924887171015,0,colour,0.06,3.6
36,23,1,1,11,35,535,909.4914750249009,910.4776679956121,"[89, 0, 165]",165,l,0.46294685173779726,1,colour,0.06,3.6
36,23,1,1,11,36,536,910.991663085937,911.8377208338934,"[58, 0, 196]",196,a,0.3228372288867831,0,colour,0.06,3.6
36,23,1,1,11,37,537,912.3511629656423,913.2296644951566,"[65, 0, 189]",189,a,0.3551695523201488,0,colour,0.06,3.6
36,23,1,1,11,38,538,913.7418222978595,915.2697339064325,"[54, 0, 200]",200,a,1.0047919139033183,0,colour,0.06,3.6
36,23,1,1,11,39,539,915.7888836420025,916.3256764585967,"[64, 0, 190]",190,a,0.012107587477657944,0,colour,0.06,3.6
36,23,1,1,11,40,540,916.837196626002,917.7656778921955,"[86, 0, 168]",168,l,0.4023781945579685,1,colour,0.06,3.6
36,23,1,1,11,41,541,918.2774213697994,919.029660084052,"[55, 0, 199]",199,a,0.22895124153001234,0,colour,0.06,3.6
36,23,1,1,11,42,542,919.5431258465396,920.4296677246457,"[24, 0, 230]",230,a,0.3758019179222174,1,colour,0.06,3.6
36,23,1,1,11,43,543,920.9371537362458,921.8937055274728,"[76, 0, 178]",178,l,0.4333320598816499,1,colour,0.06,3.6
36,23,1,1,11,44,544,922.403724751086,923.5816175141372,"[92, 0, 162]",162,l,0.6546131672803313,1,colour,0.06,3.6
36,23,1,1,11,45,545,924.0913728614687,924.941662869358,"[63, 0, 191]",191,a,0.3271518024848774,0,colour,0.06,3.6
36,23,1,1,11,46,546,925.450714415405,926.3176613160176,"[57, 0, 197]",197,a,0.3438417782308534,0,colour,0.06,3.6
36,23,1,1,11,47,547,926.8280787170515,927.7096293956856,"[85, 0, 169]",169,l,0.35805368033470586,1,colour,0.06,3.6
36,23,1,1,11,48,548,928.2096965462551,929.0536393457442,"[90, 0, 164]",164,l,0.32584856887115166,1,colour,0.06,3.6
36,23,1,1,11,49,549,929.564291872317,930.189663219091,"[82, 0, 172]",172,l,0.10214492003433406,1,colour,0.06,3.6
36,23,1,1,11,50,550,930.7050174690085,931.2296790673863,"[83, 0, 171]",171,l,0.0013185935094952583,1,colour,0.06,3.6
36,23,1,1,12,1,551,936.1285364832729,937.6215876764036,"[88, 0, 166]",166,l,0.9688677227240987,1,colour,0.06,3.5
36,23,1,1,12,2,552,938.1309724154999,939.1415999329183,"[81, 0, 173]",173,l,0.4873502847040072,1,colour,0.06,3.5
36,23,1,1,12,3,553,939.6622817260795,940.5496136575821,"[80, 0, 174]",174,l,0.3647663769661449,1,colour,0.06,3.5
36,23,1,1,12,4,554,941.0686728088185,941.9336118868669,"[53, 0, 201]",201,a,0.34168153756763786,0,colour,0.06,3.5
36,23,1,1,12,5,555,942.4313750433503,943.2456156173721,"[96, 0, 158]",158,l,0.2889216480543837,1,colour,0.06,3.5
36,23,1,1,12,6,556,943.7614775336697,944.5495888453443,"[52, 0, 202]",202,a,0.26472774072317407,0,colour,0.06,3.5
36,23,1,1,12,7,557,945.0585761946859,945.9256380980369,"[58, 0, 196]",196,a,0.34398001787485555,0,colour,0.06,3.5
36,23,1,1,12,8,558,946.4336274437374,947.3255555481301,"[65, 0, 189]",189,a,0.37179375591222197,0,colour,0.06,3.5
36,23,1,1,12,9,559,947.839878711442,948.4540605237707,"[97, 0, 157]",157,l,0.09088803810300305,1,colour,0.06,3.5
36,23,1,1,12,10,560,948.9668579309946,949.5815899449517,"[99, 0, 155]",155,l,0.09149928571423516,1,colour,0.06,3.5
36,23,1,1,12,11,561,950.0920254628872,952.1415794529603,"[86, 0, 168]",168,a,1.5265437843627296,0,colour,0.06,3.5
36,23,1,1,12,12,562,952.6555414602626,953.5575488496106,"[54, 0, 200]",200,a,0.3787230674060993,0,colour,0.06,3.5
36,23,1,1,12,13,563,954.0774776109029,955.1896923636086,"[59, 0, 195]",195,a,0.5888319694786333,0,colour,0.06,3.5
36,23,1,1,12,14,564,955.6963591773529,956.5655474506784,"[60, 0, 194]",194,a,0.34342233318602666,0,colour,0.06,3.5
36,23,1,1,12,15,565,957.077242879197,958.1015632107737,"[92, 0, 162]",162,l,0.5010990248993039,1,colour,0.06,3.5
36,23,1,1,12,16,566,958.6098270665389,959.5095336125232,"[71, 0, 183]",183,a,0.3763288827612996,0,colour,0.06,3.5
36,23,1,1,12,17,567,960.0162161800545,964.0456261724466,"[79, 0, 175]",175,a,3.506179233430885,0,colour,0.06,3.5
36,23,1,1,12,18,568,964.5634451052756,966.7335791189689,"[85, 0, 169]",169,a,1.6469024670077488,0,colour,0.06,3.5
36,23,1,1,12,19,569,967.2523791200947,968.2135274779866,"[83, 0, 171]",171,a,0.4378585221711546,0,colour,0.06,3.5
36,23,1,1,12,20,570,968.7213147811126,970.2535425386159,"[87, 0, 167]",167,l,1.0094963941373862,1,colour,0.06,3.5
36,23,1,1,12,21,571,970.7682658486301,971.6055038283812,"[13, 0, 241]",241,a,0.3139150610077195,1,colour,0.06,3.5
36,23,1,1,12,22,572,972.1121407098253,972.9255286091357,"[23, 0, 231]",231,a,0.290012992976699,1,colour,0.06,3.5
36,23,1,1,12,23,573,973.440360620385,974.4855385970441,"[89, 0, 165]",165,l,0.5218511194689199,1,colour,0.06,3.5
36,23,1,1,12,24,574,975.0030164599884,976.2535118187079,"[64, 0, 190]",190,a,0.7272070983308367,0,colour,0.06,3.5
36,23,1,1,12,25,575,976.7687561858329,977.8135225942824,"[62, 0, 192]",192,a,0.521838516346179,0,colour,0.06,3.5
36,23,1,1,12,26,576,978.3314041485428,979.5734995779931,"[84, 0, 170]",170,l,0.7187831445480697,1,colour,0.06,3.5
36,23,1,1,12,27,577,980.0814534776146,981.149500860367,"[78, 0, 176]",176,l,0.5450300878146663,1,colour,0.06,3.5
36,23,1,1,12,28,578,981.6597898678738,982.7735102906008,"[98, 0, 156]",156,l,0.5904861191520467,1,colour,0.06,3.5
36,23,1,1,12,29,579,983.2848457446671,984.2215300175012,"[57, 0, 197]",197,a,0.4133593848673627,0,colour,0.06,3.5
36,23,1,1,12,30,580,984.7382142824936,985.7335472175037,"[50, 0, 204]",204,a,0.4720348285045475,1,colour,0.06,3.5
36,23,1,1,12,31,581,986.2538883346715,987.7174586433102,"[70, 0, 184]",184,a,0.9398539385874756,0,colour,0.06,3.5
36,23,1,1,12,32,582,988.2383928912459,989.6774829672067,"[68, 0, 186]",186,a,0.9157573110423982,0,colour,0.06,3.5
36,23,1,1,12,33,583,990.1917084568995,991.3735097391764,"[77, 0, 177]",177,a,0.658655593812,0,colour,0.06,3.5
36,23,1,1,12,34,584,991.8793538103928,992.7734559399541,"[73, 0, 181]",181,a,0.37079496460501105,0,colour,0.06,3.5
36,23,1,1,12,35,585,993.2856866040383,994.2455021899659,"[27, 0, 227]",227,a,0.4364910917938687,1,colour,0.06,3.5
36,23,1,1,12,36,586,994.745413377881,995.5735232087318,"[91, 0, 163]",163,a,0.30503148993011564,0,colour,0.06,3.5
36,23,1,1,12,37,587,996.0893197467085,997.0214330528397,"[66, 0, 188]",188,a,0.40885615948354825,0,colour,0.06,3.5
36,23,1,1,12,38,588,997.5372386492672,999.1977520106593,"[76, 0, 178]",178,l,1.1371246704948135,1,colour,0.06,3.5
36,23,1,1,12,39,589,999.7093820609152,1000.8854406871251,"[94, 0, 160]",160,l,0.6530405436060391,1,colour,0.06,3.5
36,23,1,1,12,40,590,1001.397035291302,1002.5654489893932,"[56, 0, 198]",198,a,0.6452073575346731,0,colour,0.06,3.5
36,23,1,1,12,41,591,1003.0845357097569,1004.0778198623448,"[82, 0, 172]",172,l,0.469995892199222,1,colour,0.06,3.5
36,23,1,1,12,42,592,1004.5846166449483,1005.5654135433142,"[55, 0, 199]",199,a,0.4574125398066826,0,colour,0.06,3.5
36,23,1,1,12,43,593,1006.0847735921852,1007.0613894305425,"[93, 0, 161]",161,a,0.4533858670038171,0,colour,0.06,3.5
36,23,1,1,12,44,594,1007.570556767052,1008.6694292278262,"[51, 0, 203]",203,a,0.5864803201984614,0,colour,0.06,3.5
36,23,1,1,12,45,595,1009.1848090776475,1010.2293805328081,"[74, 0, 180]",180,a,0.5214308866998181,0,colour,0.06,3.5
36,23,1,1,12,46,596,1010.7474125358858,1011.7094257777208,"[63, 0, 191]",191,a,0.4387411291245371,0,colour,0.06,3.5
36,23,1,1,12,47,597,1012.2170082813827,1013.2133967214031,"[69, 0, 185]",185,a,0.4730477982084267,0,colour,0.06,3.5
36,23,1,1,12,48,598,1013.732699268905,1014.6374541219557,"[75, 0, 179]",179,a,0.38216409244341776,0,colour,0.06,3.5
36,23,1,1,12,49,599,1015.1546870132443,1016.0613709198078,"[61, 0, 193]",193,a,0.3836823654710315,0,colour,0.06,3.5
36,23,1,1,12,50,600,1016.5767554958002,1019.8054275012109,"[72, 0, 182]",182,a,2.7078094372409396,0,colour,0.06,3.5
36,23,1,1,13,1,601,1024.3251061707851,1025.5014038610389,"[55, 0, 199]",199,a,0.6522709702257998,0,colour,0.06,3.4
36,23,1,1,13,2,602,1026.012190688809,1026.9733949727379,"[66, 0, 188]",188,a,0.43786836828803644,0,colour,0.06,3.4
36,23,1,1,13,3,603,1027.4834122270695,1030.2293383913347,"[79, 0, 175]",175,l,2.222611516248435,1,colour,0.06,3.4
36,23,1,1,13,4,604,1030.7479816420819,1031.7573728795978,"[88, 0, 166]",166,l,0.48619316768599674,1,colour,0.06,3.4
36,23,1,1,13,5,605,1032.2637474602088,1033.2534342312138,"[65, 0, 189]",189,a,0.46630950161488727,0,colour,0.06,3.4
36,23,1,1,13,6,606,1033.7656400830601,1034.589340817416,"[98, 0, 156]",156,l,0.3007925345445983,1,colour,0.06,3.4
36,23,1,1,13,7,607,1035.1094487782684,1036.2053614927572,"[75, 0, 179]",179,a,0.5818628796841949,0,colour,0.06,3.4
36,23,1,1,13,8,608,1036.719044263882,1037.677351029066,"[80, 0, 174]",174,l,0.4350177171290852,1,colour,0.06,3.4
36,23,1,1,13,9,609,1038.1878590144916,1038.9573280600016,"[61, 0, 193]",193,a,0.2462264712085016,0,colour,0.06,3.4
36,23,1,1,13,10,610,1039.4764797648531,1040.509338265343,"[74, 0, 180]",180,a,0.509756528888829,0,colour,0.06,3.4
36,23,1,1,13,11,611,1041.023471989145,1041.9413245563628,"[43, 0, 211]",211,a,0.39452098385663703,1,colour,0.06,3.4
36,23,1,1,13,12,612,1042.4610910534393,1043.3493587610428,"[53, 0, 201]",201,a,0.3766754664829932,0,colour,0.06,3.4
36,23,1,1,13,13,613,1043.8557790276827,1049.0613268091693,"[77, 0, 177]",177,l,4.682213441235945,1,colour,0.06,3.4
36,23,1,1,13,14,614,1049.5759579594014,1050.4613368128194,"[93, 0, 161]",161,l,0.3623938537784852,1,colour,0.06,3.4
36,23,1,1,13,15,615,1050.9822462485172,1051.645286126528,"[86, 0, 168]",168,l,0.13975988834863529,1,colour,0.06,3.4
36,23,1,1,13,16,616,1052.1542537835776,1052.9653109072824,"[57, 0, 197]",197,a,0.2876963958260603,0,colour,0.06,3.4
36,23,1,1,13,17,617,1053.482431552664,1054.3813141746214,"[76, 0, 178]",178,a,0.37560105696320534,0,colour,0.06,3.4
36,23,1,1,13,18,618,1054.8888533553109,1055.84531377448,"[9, 0, 245]",245,a,0.4335604900843464,1,colour,0.06,3.4
36,23,1,1,13,19,619,1056.3577137919492,1057.3092972266604,"[81, 0, 173]",173,l,0.42844050319399685,1,colour,0.06,3.4
36,23,1,1,13,20,620,1057.826576591644,1058.733308153518,"[58, 0, 196]",196,a,0.38411441358039156,0,colour,0.06,3.4
36,23,1,1,13,21,621,1059.2484788715956,1060.2772713148152,"[84, 0, 170]",170,l,0.5054636168060824,1,colour,0.06,3.4
36,23,1,1,13,22,622,1060.797464346164,1061.6693398249336,"[51, 0, 203]",203,a,0.3487234888016246,0,colour,0.06,3.4
36,23,1,1,13,23,623,1062.1880957154208,1063.1252785961842,"[82, 0, 172]",172,l,0.41382569749839604,1,colour,0.06,3.4
36,23,1,1,13,24,624,1063.6400574384024,1064.677597969945,"[71, 0, 183]",183,a,0.5142814157297835,0,colour,0.06,3.4
36,23,1,1,13,25,625,1065.1876392489066,1066.2932578831096,"[73, 0, 181]",181,a,0.5823370692087337,0,colour,0.06,3.4
36,23,1,1,13,26,626,1066.8140499529545,1067.7332896427833,"[89, 0, 165]",165,l,0.3959407955990173,1,colour,0.06,3.4
36,23,1,1,13,27,627,1068.2518037123373,1068.9173070917022,"[87, 0, 167]",167,l,0.14116315863793716,1,colour,0.06,3.4
36,23,1,1,13,28,628,1069.4247805002378,1070.1572635481716,"[95, 0, 159]",159,l,0.21026959095615894,1,colour,0.06,3.4
36,23,1,1,13,29,629,1070.6776342037483,1071.3813571037026,"[47, 0, 207]",207,a,0.1804102212190628,1,colour,0.06,3.4
36,23,1,1,13,30,630,1071.8965502709616,1072.6532941798796,"[64, 0, 190]",190,a,0.23344619624549523,0,colour,0.06,3.4
36,23,1,1,13,31,631,1073.1621554987505,1073.9172539226129,"[85, 0, 169]",169,a,0.2321008212165907,0,colour,0.06,3.4
36,23,1,1,13,32,632,1074.427897784568,1075.3253377517685,"[62, 0, 192]",192,a,0.3741572206490673,0,colour,0.06,3.4
36,23,1,1,13,33,633,1075.834295562643,1076.6692165514105,"[60, 0, 194]",194,a,0.31219277618220076,0,colour,0.06,3.4
36,23,1,1,13,34,634,1077.1781546701095,1078.0612551293452,"[54, 0, 200]",200,a,0.35993429087102413,0,colour,0.06,3.4
36,23,1,1,13,35,635,1078.5701223558863,1079.5332824747893,"[92, 0, 162]",162,l,0.4517376250587404,1,colour,0.06,3.4
36,23,1,1,13,36,636,1080.042997649929,1080.8452263408108,"[90, 0, 164]",164,l,0.27895382122369483,1,colour,0.06,3.4
36,23,1,1,13,37,637,1081.35555867129,1082.3812428886304,"[83, 0, 171]",171,l,0.502380596997682,1,colour,0.06,3.4
36,23,1,1,13,38,638,1082.8874040051596,1083.7012503402075,"[56, 0, 198]",198,a,0.2905537423794158,0,colour,0.06,3.4
36,23,1,1,13,39,639,1084.2155589312315,1085.0692108012736,"[67, 0, 187]",187,a,0.3303604588727467,0,colour,0.06,3.4
36,23,1,1,13,40,640,1085.5907657491625,1086.4132215390564,"[69, 0, 185]",185,a,0.2992931660846807,0,colour,0.06,3.4
36,23,1,1,13,41,641,1086.9304323749966,1087.7173885388765,"[63, 0, 191]",191,a,0.26365805737441406,0,colour,0.06,3.4
36,23,1,1,13,42,642,1088.2307838030392,1089.037260507699,"[70, 0, 184]",184,a,0.28331644396530464,0,colour,0.06,3.4
36,23,1,1,13,43,643,1089.543210523203,1090.5012041815207,"[50, 0, 204]",204,a,0.43270033225417137,1,colour,0.06,3.4
36,23,1,1,13,44,644,1091.0141689729644,1091.8212002115906,"[97, 0, 157]",157,l,0.28381859650835395,1,colour,0.06,3.4
36,23,1,1,13,45,645,1092.3368545714766,1093.1012024485972,"[96, 0, 158]",158,l,0.24139517277944833,1,colour,0.06,3.4
36,23,1,1,13,46,646,1093.6227857533377,1094.4372374283848,"[78, 0, 176]",176,a,0.29110670095542446,0,colour,0.06,3.4
36,23,1,1,13,47,647,1094.9510592268198,1096.3732320783893,"[52, 0, 202]",202,a,0.8988751388969831,0,colour,0.06,3.4
36,23,1,1,13,48,648,1096.8887352017919,1097.7251854912029,"[68, 0, 186]",186,a,0.31760145153384656,0,colour,0.06,3.4
36,23,1,1,13,49,649,1098.2458956412738,1099.0292335497797,"[94, 0, 160]",160,l,0.25997678679414093,1,colour,0.06,3.4
36,23,1,1,13,50,650,1099.54525733646,1100.6531807524734,"[91, 0, 163]",163,l,0.5821889834478498,1,colour,0.06,3.4
36,23,1,1,14,1,651,1106.1219620262273,1107.4692838201881,"[67, 0, 187]",187,a,0.8235396517557092,0,colour,0.06,3.4
36,23,1,1,14,2,652,1107.9828047209303,1113.5493753813207,"[80, 0, 174]",174,l,5.043237895471975,1,colour,0.06,3.4
36,23,1,1,14,3,653,1114.0627095994423,1114.7251047529862,"[64, 0, 190]",190,a,0.13919432676630095,0,colour,0.06,3.4
36,23,1,1,14,4,654,1115.2346458485117,1120.7491509683314,"[78, 0, 176]",176,l,4.991106976638548,1,colour,0.06,3.4
36,23,1,1,14,5,655,1121.2676937885699,1129.0771648978698,"[70, 0, 184]",184,l,7.286206479649991,1,colour,0.06,3.4
36,23,1,1,14,6,656,1129.59649974067,1130.3973054690287,"[99, 0, 155]",155,l,0.27757300017401576,1,colour,0.06,3.4
36,23,1,1,14,7,657,1130.9072616774356,1131.9250973486924,"[90, 0, 164]",164,l,0.49456040776567534,1,colour,0.06,3.4
36,23,1,1,14,8,658,1132.4410293694236,1133.2931121604051,"[76, 0, 178]",178,a,0.32890086877159774,0,colour,0.06,3.4
36,23,1,1,14,9,659,1133.8004934092169,1134.7170963058015,"[53, 0, 201]",201,a,0.39327407017117366,0,colour,0.06,3.4
36,23,1,1,14,10,660,1135.2380750582088,1136.0291520238388,"[65, 0, 189]",189,a,0.2678036713623442,0,colour,0.06,3.4
36,23,1,1,14,11,661,1136.53678178892,1137.229058367433,"[71, 0, 183]",183,a,0.16879415250150487,0,colour,0.06,3.4
36,23,1,1,14,12,662,1137.7402335265651,1138.4531385322916,"[95, 0, 159]",159,l,0.18994993838714436,1,colour,0.06,3.4
36,23,1,1,14,13,663,1138.9502849272685,1139.8130936969537,"[74, 0, 180]",180,a,0.33940786961466074,0,colour,0.06,3.4
36,23,1,1,14,14,664,1140.3254732344649,1141.261061436322,"[91, 0, 163]",163,l,0.4125685438630171,1,colour,0.06,3.4
36,23,1,1,14,15,665,1141.7786952619208,1142.725042131613,"[84, 0, 170]",170,l,0.42337014083750546,1,colour,0.06,3.4
36,23,1,1,14,16,666,1143.2300579464645,1144.133092483913,"[55, 0, 199]",199,a,0.3799943995545618,0,colour,0.06,3.4
36,23,1,1,14,17,667,1144.6397368484177,1145.605185207678,"[63, 0, 191]",191,a,0.4422168125747703,0,colour,0.06,3.4
36,23,1,1,14,18,668,1146.12423766352,1147.0210860752268,"[96, 0, 158]",158,l,0.3736393142025918,1,colour,0.06,3.4
36,23,1,1,14,19,669,1147.5304617558722,1148.3891138838953,"[97, 0, 157]",157,l,0.33542412595124915,1,colour,0.06,3.4
36,23,1,1,14,20,670,1148.9056039832067,1151.4930787623161,"[73, 0, 181]",181,a,2.0642928568995558,0,colour,0.06,3.4
36,23,1,1,14,21,671,1151.999539595039,1152.845031781355,"[92, 0, 162]",162,l,0.3222177105490118,1,colour,0.06,3.4
36,23,1,1,14,22,672,1153.3590505023603,1154.2371381006087,"[69, 0, 185]",185,a,0.3550876324879937,0,colour,0.06,3.4
36,23,1,1,14,23,673,1154.73740256764,1155.6130302090896,"[57, 0, 197]",197,a,0.3523129934328608,0,colour,0.06,3.4
36,23,1,1,14,24,674,1156.1281253089546,1157.005066030135,"[88, 0, 166]",166,l,0.3537237467826344,1,colour,0.06,3.4
36,23,1,1,14,25,675,1157.5070165481884,1158.3650475824252,"[86, 0, 168]",168,l,0.33473568462068215,1,colour,0.06,3.4
36,23,1,1,14,26,676,1158.8821575939655,1159.5970952344942,"[89, 0, 165]",165,l,0.1916076325578615,1,colour,0.06,3.4
36,23,1,1,14,27,677,1160.1166108522448,1160.885041328147,"[50, 0, 204]",204,a,0.24516269547166303,1,colour,0.06,3.4
36,23,1,1,14,28,678,1161.39793050132,1162.237016402476,"[59, 0, 195]",195,a,0.3156676719081588,0,colour,0.06,3.4
36,23,1,1,14,29,679,1162.7575028485153,1164.2051326687215,"[77, 0, 177]",177,l,0.9244640456745401,1,colour,0.06,3.4
36,23,1,1,14,30,680,1164.7265375616262,1165.5651193410158,"[87, 0, 167]",167,l,0.31403242686064914,1,colour,0.06,3.4
36,23,1,1,14,31,681,1166.0591886238544,1166.9170881137834,"[51, 0, 203]",203,a,0.3346206818241626,0,colour,0.06,3.4
36,23,1,1,14,32,682,1167.4300560560077,1168.2690088374657,"[60, 0, 194]",194,a,0.3274204048793763,0,colour,0.06,3.4
36,23,1,1,14,33,683,1168.7778079287964,1169.5010029266705,"[61, 0, 193]",193,a,0.1999862942029722,0,colour,0.06,3.4
36,23,1,1,14,34,684,1170.0123368053464,1170.597098779108,"[54, 0, 200]",200,a,0.06154578702989966,0,colour,0.06,3.4
36,23,1,1,14,35,685,1171.1060491069802,1172.4850699212984,"[68, 0, 186]",186,a,0.8557727261213586,0,colour,0.06,3.4
36,23,1,1,14,36,686,1172.9816609946429,1175.3169468809501,"[72, 0, 182]",182,a,1.8119732075138018,0,colour,0.06,3.4
36,23,1,1,14,37,687,1175.8260657744831,1176.749036359368,"[52, 0, 202]",202,a,0.3998820039560087,0,colour,0.06,3.4
36,23,1,1,14,38,688,1177.2641779329279,1178.0450101986062,"[81, 0, 173]",173,l,0.25747390085598454,1,colour,0.06,3.4
36,23,1,1,14,39,689,1178.561189947999,1179.4449544301606,"[22, 0, 232]",232,a,0.36041360039962456,1,colour,0.06,3.4
36,23,1,1,14,40,690,1179.9529051790014,1180.8930340215447,"[58, 0, 196]",196,a,0.4169000527472235,0,colour,0.06,3.4
36,23,1,1,14,41,691,1181.4061043634429,1182.180962785962,"[94, 0, 160]",160,l,0.25151187303708866,1,colour,0.06,3.4
36,23,1,1,14,42,692,1182.6873543019174,1183.524969191465,"[93, 0, 161]",161,l,0.31428212468745187,1,colour,0.06,3.4
36,23,1,1,14,43,693,1184.0312854829826,1184.8529437364778,"[56, 0, 198]",198,a,0.2982955563929863,0,colour,0.06,3.4
36,23,1,1,14,44,694,1185.359488852031,1186.1009740184527,"[29, 0, 225]",225,a,0.21817366918548942,1,colour,0.06,3.4
36,23,1,1,14,45,695,1186.609658106987,1187.4289753449266,"[85, 0, 169]",169,a,0.29601558682043105,0,colour,0.06,3.4
36,23,1,1,14,46,696,1187.9377874330967,1188.9569858085597,"[79, 0, 175]",175,l,0.4965820148936473,1,colour,0.06,3.4
36,23,1,1,14,47,697,1189.4691955988528,1190.3090002674144,"[83, 0, 171]",171,l,0.31691064714686945,1,colour,0.06,3.4
36,23,1,1,14,48,698,1190.8287238354096,1191.5729371671332,"[42, 0, 212]",212,a,0.22091955749783665,1,colour,0.06,3.4
36,23,1,1,14,49,699,1192.0944188598078,1192.796993701253,"[66, 0, 188]",188,a,0.17916409519966692,0,colour,0.06,3.4
36,23,1,1,14,50,700,1193.3131943243789,1194.0049860795261,"[82, 0, 172]",172,l,0.16841409192420542,1,colour,0.06,3.4
36,23,1,1,15,1,701,1198.7368377937237,1200.0769384368905,"[75, 0, 179]",179,a,0.8159927910892293,0,colour,0.06,3.3
36,23,1,1,15,2,702,1200.597227172635,1201.5009462129674,"[89, 0, 165]",165,l,0.3804083307622932,1,colour,0.06,3.3
36,23,1,1,15,3,703,1202.019203101634,1202.8609407621552,"[70, 0, 184]",184,a,0.31845530786085874,0,colour,0.06,3.3
36,23,1,1,15,4,704,1203.378604913829,1204.172951975721,"[19, 0, 235]",235,a,0.27096506633097306,1,colour,0.06,3.3
36,23,1,1,15,5,705,1204.6912005936028,1205.4369444075855,"[43, 0, 211]",211,a,0.22260442707920447,1,colour,0.06,3.3
36,23,1,1,15,6,706,1205.9570247992524,1206.6048929745448,"[65, 0, 189]",189,a,0.1246823146357201,0,colour,0.06,3.3
36,23,1,1,15,7,707,1207.1133939250722,1207.796951953671,"[78, 0, 176]",176,l,0.1603371156961657,1,colour,0.06,3.3
36,23,1,1,15,8,708,1208.3164998666616,1209.0288944491185,"[54, 0, 200]",200,a,0.1890074668917805,0,colour,0.06,3.3
36,23,1,1,15,9,709,1209.5377061434556,1210.2049802506226,"[97, 0, 157]",157,l,0.1438921116059646,1,colour,0.06,3.3
36,23,1,1,15,10,710,1210.7253595707589,1211.7729474858497,"[68, 0, 186]",186,a,0.5245095741702244,0,colour,0.06,3.3
36,23,1,1,15,11,711,1212.2879748443374,1213.0849267979502,"[84, 0, 170]",170,l,0.27363730559591204,1,colour,0.06,3.3
36,23,1,1,15,12,712,1213.6019017206854,1214.412926942925,"[76, 0, 178]",178,l,0.2997582972748205,1,colour,0.06,3.3
36,23,1,1,15,13,713,1214.9337489450118,1215.5728776965407,"[90, 0, 164]",164,l,0.11576487292768434,1,colour,0.06,3.3
36,23,1,1,15,14,714,1216.0901082247146,1216.6288592393394,"[42, 0, 212]",212,a,0.015505683375522494,1,colour,0.06,3.3
36,23,1,1,15,15,715,1217.1320570650278,1217.7089240190107,"[53, 0, 201]",201,a,0.053474718471989036,0,colour,0.06,3.3
36,23,1,1,15,16,716,1218.225787483505,1218.7809291515732,"[77, 0, 177]",177,l,0.03188609681092203,1,colour,0.06,3.3
36,23,1,1,15,17,717,1219.2939006384113,1219.8449325323454,"[69, 0, 185]",185,l,0.027739301265683025,1,colour,0.06,3.3
36,23,1,1,15,18,718,1220.3562939802068,1220.9888313393458,"[74, 0, 180]",180,a,0.10914512362796813,0,colour,0.06,3.3
36,23,1,1,15,19,719,1221.4971322165802,1222.236934482702,"[50, 0, 204]",204,a,0.2217753830482252,1,colour,0.06,3.3
36,23,1,1,15,20,720,1222.7313779184478,1225.0288597907638,"[71, 0, 183]",183,a,1.7741038152598776,0,colour,0.06,3.3
36,23,1,1,15,21,721,1225.5464837702457,1226.7408715556958,"[59, 0, 195]",195,a,0.6710691989865154,0,colour,0.06,3.3
36,23,1,1,15,22,722,1227.242287625908,1228.2929554100265,"[88, 0, 166]",166,l,0.5275083110900596,1,colour,0.06,3.3
36,23,1,1,15,23,723,1228.802915556822,1229.9168466867413,"[66, 0, 188]",188,a,0.5906704386579804,0,colour,0.06,3.3
36,23,1,1,15,24,724,1230.4279879751266,1231.2768542327685,"[60, 0, 194]",194,a,0.33702431875281036,0,colour,0.06,3.3
36,23,1,1,15,25,725,1231.7915161029669,1232.788845045201,"[92, 0, 162]",162,l,0.4759291693335399,1,colour,0.06,3.3
36,23,1,1,15,26,726,1233.311004151532,1235.036861148721,"[81, 0, 173]",173,l,1.2024486140580848,1,colour,0.06,3.3
36,23,1,1,15,27,727,1235.5430348683149,1236.540823821677,"[80, 0, 174]",174,l,0.47452432371210307,1,colour,0.06,3.3
36,23,1,1,15,28,728,1237.0588959969464,1238.0287975632236,"[63, 0, 191]",191,a,0.4472024982678704,0,colour,0.06,3.3
36,23,1,1,15,29,729,1238.543302289152,1239.3648707459215,"[79, 0, 175]",175,l,0.29824947647284716,1,colour,0.06,3.3
36,23,1,1,15,30,730,1239.8715690672398,1240.9008388507646,"[96, 0, 158]",158,l,0.5060437506763265,1,colour,0.06,3.3
36,23,1,1,15,31,731,1241.418490793265,1242.4369302291307,"[91, 0, 163]",163,l,0.49505901569500566,1,colour,0.06,3.3
36,23,1,1,15,32,732,1242.9499072298058,1244.0688157745753,"[94, 0, 160]",160,l,0.5956360382260755,1,colour,0.06,3.3
36,23,1,1,15,33,733,1244.5751151308068,1250.8768320199451,"[64, 0, 190]",190,a,5.778700775757898,0,colour,0.06,3.3
36,23,1,1,15,34,734,1251.389302929514,1252.6847947023343,"[67, 0, 187]",187,a,0.7716324369539507,0,colour,0.06,3.3
36,23,1,1,15,35,735,1253.2027932285564,1254.2928530102945,"[58, 0, 196]",196,a,0.5673611075617373,0,colour,0.06,3.3
36,23,1,1,15,36,736,1254.8121315332828,1255.8611156293773,"[87, 0, 167]",167,l,0.5291699437657371,1,colour,0.06,3.3
36,23,1,1,15,37,737,1256.3833007295034,1257.356822126545,"[86, 0, 168]",168,l,0.4621583737898618,1,colour,0.06,3.3
36,23,1,1,15,38,738,1257.877716596122,1258.860765501042,"[56, 0, 198]",198,a,0.4597980598337017,0,colour,0.06,3.3
36,23,1,1,15,39,739,1259.3779983923305,1260.4367896264303,"[85, 0, 169]",169,l,0.5358353790361434,1,colour,0.06,3.3
36,23,1,1,15,40,740,1260.956260345818,1261.948787528032,"[57, 0, 197]",197,a,0.4693247800460085,0,colour,0.06,3.3
36,23,1,1,15,41,741,1262.4562845673063,1269.1567613956286,"[72, 0, 182]",182,l,6.177088925149292,1,colour,0.06,3.3
36,23,1,1,15,42,742,1269.6635802335222,1270.5808101315633,"[62, 0, 192]",192,a,0.3939038285170682,0,colour,0.06,3.3
36,23,1,1,15,43,743,1271.0901543045766,1272.0927836147603,"[98, 0, 156]",156,l,0.4793520774692297,1,colour,0.06,3.3
36,23,1,1,15,44,744,1272.599474453018,1273.540758837189,"[82, 0, 172]",172,l,0.41553222853690386,1,colour,0.06,3.3
36,23,1,1,15,45,745,1274.0446427410934,1275.0207969929324,"[99, 0, 155]",155,l,0.45292467437684536,1,colour,0.06,3.3
36,23,1,1,15,46,746,1275.5290825101547,1276.4367463034578,"[93, 0, 161]",161,l,0.3843995574861765,1,colour,0.06,3.3
36,23,1,1,15,47,747,1276.9511080636294,1277.7408022389282,"[55, 0, 199]",199,a,0.27388700348092243,0,colour,0.06,3.3
36,23,1,1,15,48,748,1278.256178150361,1279.0287373049068,"[61, 0, 193]",193,a,0.24917125137289986,0,colour,0.06,3.3
36,23,1,1,15,49,749,1279.545718135254,1282.3968009534292,"[83, 0, 171]",171,l,2.3276645888690837,1,colour,0.06,3.3
36,23,1,1,15,50,750,1282.9139550756663,1283.5487743736012,"[73, 0, 181]",181,a,0.1115731789614074,0,colour,0.06,3.3
36,23,1,1,16,1,751,1296.2768550204928,1299.7646936731762,"[93, 0, 161]",161,l,2.9637394651654176,1,colour,0.06,3.2
36,23,1,1,16,2,752,1300.2780015037279,1301.1487222284777,"[91, 0, 163]",163,l,0.34743049513781443,1,colour,0.06,3.2
36,23,1,1,16,3,753,1301.6687466941657,1302.5887083021225,"[56, 0, 198]",198,a,0.39686081785475835,0,colour,0.06,3.2
36,23,1,1,16,4,754,1303.1062672971748,1303.9726762053324,"[67, 0, 187]",187,a,0.34299973730230704,0,colour,0.06,3.2
36,23,1,1,16,5,755,1304.4814363059704,1305.4446633785847,"[55, 0, 199]",199,a,0.4399266029940918,0,colour,0.06,3.2
36,23,1,1,16,6,756,1305.965964296367,1306.95667506475,"[86, 0, 168]",168,l,0.46752924006432295,1,colour,0.06,3.2
36,23,1,1,16,7,757,1307.4672338562086,1308.4286492411047,"[66, 0, 188]",188,a,0.4384429883211851,0,colour,0.06,3.2
36,23,1,1,16,8,758,1308.9361179235275,1309.7806833922514,"[63, 0, 191]",191,a,0.32125594071112573,0,colour,0.06,3.2
36,23,1,1,16,9,759,1310.2955977171077,1311.2686748568085,"[65, 0, 189]",189,a,0.44977233780082315,0,colour,0.06,3.2
36,23,1,1,16,10,760,1311.7808228133945,1312.7566773490398,"[81, 0, 173]",173,l,0.4492599452496506,1,colour,0.06,3.2
36,23,1,1,16,11,761,1313.269465697871,1314.0366752538248,"[92, 0, 162]",162,l,0.24390396638773382,1,colour,0.06,3.2
36,23,1,1,16,12,762,1314.5508853835636,1315.3726176799391,"[71, 0, 183]",183,a,0.2986405647243373,0,colour,0.06,3.2
36,23,1,1,16,13,763,1315.879053306533,1316.6686179068056,"[97, 0, 157]",157,l,0.2663180874660611,1,colour,0.06,3.2
36,23,1,1,16,14,764,1317.1760200294084,1317.9247653372004,"[58, 0, 196]",196,a,0.2255011581000872,0,colour,0.06,3.2
36,23,1,1,16,15,765,1318.443938309676,1319.252668596222,"[59, 0, 195]",195,a,0.2853341125883162,0,colour,0.06,3.2
36,23,1,1,16,16,766,1319.7729766304255,1320.484638267022,"[64, 0, 190]",190,a,0.1891138051287271,0,colour,0.06,3.2
36,23,1,1,16,17,767,1320.9911203673691,1321.6925979561638,"[84, 0, 170]",170,l,0.1783074819832109,1,colour,0.06,3.2
36,23,1,1,16,18,768,1322.210002563952,1322.8446111546946,"[18, 0, 236]",236,a,0.1166892274050042,1,colour,0.06,3.2
36,23,1,1,16,19,769,1323.3612658813363,1324.0846546510002,"[51, 0, 203]",203,a,0.21210569702088833,0,colour,0.06,3.2
36,23,1,1,16,20,770,1324.6030332377995,1325.2526299994206,"[78, 0, 176]",176,l,0.1238359414273873,1,colour,0.06,3.2
36,23,1,1,16,21,771,1325.7619265171816,1326.3487010396202,"[82, 0, 172]",172,l,0.06350910506444052,1,colour,0.06,3.2
36,23,1,1,16,22,772,1326.8610549772275,1327.4126607035869,"[95, 0, 159]",159,a,0.028636874398216605,0,colour,0.06,3.2
36,23,1,1,16,23,773,1327.9236739923363,1328.5486282570637,"[90, 0, 164]",164,l,0.10160023224307224,1,colour,0.06,3.2
36,23,1,1,16,24,774,1329.0643172753626,1329.6446063498151,"[53, 0, 201]",201,a,0.05683106684591621,0,colour,0.06,3.2
36,23,1,1,16,25,775,1330.159635677468,1330.6926176484558,"[62, 0, 192]",192,a,0.00948379113106057,0,colour,0.06,3.2
36,23,1,1,16,26,776,1331.2010733067873,1331.9005722175934,"[17, 0, 237]",237,a,0.1762390072690323,1,colour,0.06,3.2
36,23,1,1,16,27,777,1332.4083705483936,1333.124611028703,"[70, 0, 184]",184,a,0.19298372749472037,0,colour,0.06,3.2
36,23,1,1,16,28,778,1333.6429128156742,1334.2845688714879,"[75, 0, 179]",179,a,0.11838433693628758,0,colour,0.06,3.2
36,23,1,1,16,29,779,1334.7992421631934,1335.3725991692045,"[57, 0, 197]",197,a,0.05002857343060896,0,colour,0.06,3.2
36,23,1,1,16,30,780,1335.8930891598575,1336.452588330605,"[88, 0, 166]",166,l,0.03617310122353956,1,colour,0.06,3.2
36,23,1,1,16,31,781,1336.971287507331,1337.5805820952519,"[73, 0, 181]",181,a,0.08584248792612925,0,colour,0.06,3.2
36,23,1,1,16,32,782,1338.096364454832,1338.6846060504904,"[74, 0, 180]",180,a,0.06480446178466082,0,colour,0.06,3.2
36,23,1,1,16,33,783,1339.1914623036864,1339.7325716631021,"[60, 0, 194]",194,a,0.017844729707576334,0,colour,0.06,3.2
36,23,1,1,16,34,784,1340.2540324819856,1340.8365948306164,"[76, 0, 178]",178,a,0.05929771898081526,0,colour,0.06,3.2
36,23,1,1,16,35,785,1341.3478731771465,1341.940557346039,"[54, 0, 200]",200,a,0.06917338602943346,0,colour,0.06,3.2
36,23,1,1,16,36,786,1342.4573975736857,1343.1565656545572,"[98, 0, 156]",156,l,0.17600112478248775,1,colour,0.06,3.2
36,23,1,1,16,37,787,1343.6761868228205,1344.620571162086,"[87, 0, 167]",167,l,0.42121186933945864,1,colour,0.06,3.2
36,23,1,1,16,38,788,1345.1291725431802,1345.7805829616846,"[50, 0, 204]",204,a,0.1280422075651586,1,colour,0.06,3.2
36,23,1,1,16,39,789,1346.3011402998818,1346.916517038364,"[52, 0, 202]",202,a,0.09231690829619765,0,colour,0.06,3.2
36,23,1,1,16,40,790,1347.4262408780633,1347.9725612025359,"[94, 0, 160]",160,l,0.023056876321788877,1,colour,0.06,3.2
36,23,1,1,16,41,791,1348.4887846687343,1349.0365362264565,"[31, 0, 223]",223,a,0.02478270576102659,1,colour,0.06,3.2
36,23,1,1,16,42,792,1349.5513796592131,1352.5885728194262,"[72, 0, 182]",182,a,2.513922622834798,0,colour,0.06,3.2
36,23,1,1,16,43,793,1353.100029183901,1353.7725174069637,"[77, 0, 177]",177,l,0.14921414107084274,1,colour,0.06,3.2
36,23,1,1,16,44,794,1354.2876058114343,1354.9004989624373,"[89, 0, 165]",165,l,0.089503672439605,1,colour,0.06,3.2
36,23,1,1,16,45,795,1355.4126693682047,1356.0925425815512,"[80, 0, 174]",174,l,0.15646049793576822,1,colour,0.06,3.2
36,23,1,1,16,46,796,1356.60036887537,1357.1325749713578,"[61, 0, 193]",193,a,0.008904444868676364,0,colour,0.06,3.2
36,23,1,1,16,47,797,1357.6472510199528,1358.1885395788704,"[96, 0, 158]",158,l,0.017949492495972663,1,colour,0.06,3.2
36,23,1,1,16,48,798,1358.709831044369,1359.3324872226804,"[69, 0, 185]",185,a,0.09919029375305399,0,colour,0.06,3.2
36,23,1,1,16,49,799,1359.850570425624,1360.3965414094855,"[85, 0, 169]",169,l,0.022807572386227548,1,colour,0.06,3.2
36,23,1,1,16,50,800,1360.9138451928739,1361.444598787988,"[99, 0, 155]",155,a,0.007575611351057887,0,colour,0.06,3.2
