id,age,condition,counterbalance,block,trialinblock,trial,tstart,tend,trialstim,trialintensity,response,RT,accuracy,trialtype,colourfreq,credits
44,20,1,1,Practice,1,NA,6.3015372688823845e-06,2.741172629430366,"[95, 0, 159]",159,l,2.1214172314748794,1,colour,0.5,4
44,20,1,1,Practice,2,NA,3.252749931766175,4.813191716786605,"[13, 0, 241]",241,a,1.0371432296087733,1,colour,0.5,4
44,20,1,1,Practice,3,NA,5.330955553288732,6.453200649215887,"[10, 0, 244]",244,a,0.5988795866824148,1,colour,0.5,4
44,20,1,1,Practice,4,NA,6.971695070189071,8.085198358607158,"[59, 0, 195]",195,a,0.5902208806951421,0,colour,0.5,4
44,20,1,1,Practice,5,NA,8.597179353170759,9.18120503508544,"[23, 0, 231]",231,a,0.06097091722404002,1,colour,0.5,4
44,20,1,1,Practice,6,NA,9.690665414761042,11.725175389503875,"[87, 0, 167]",167,l,1.511242927017065,1,colour,0.5,4
44,20,1,1,Practice,7,NA,12.237949983911221,13.381237094156404,"[77, 0, 177]",177,l,0.6201610594143858,1,colour,0.5,4
44,20,1,1,Practice,8,NA,13.894179073146006,14.437201046212522,"[57, 0, 197]",197,a,0.01994200222679865,0,colour,0.5,4
44,20,1,1,Practice,9,NA,14.956805325428832,15.973191291433068,"[19, 0, 235]",235,a,0.5037685161810259,1,colour,0.5,4
44,20,1,1,Practice,10,NA,16.49375025353811,17.029240314241633,"[46, 0, 208]",208,a,0.012409302171363379,1,colour,0.5,4
44,20,1,1,1,1,1,4.963955207098024,6.344036756866444,"[73, 0, 181]",181,l,0.8583036340569379,1,colour,0.5,4.0
44,20,1,1,1,2,2,6.853439635015093,8.464002665550197,"[68, 0, 186]",186,l,1.0875665550638587,1,colour,0.5,4.0
44,20,1,1,1,3,3,8.9784696165475,9.58412808189496,"[24, 0, 230]",230,a,0.08199954077554139,1,colour,0.5,4.0
44,20,1,1,1,4,4,10.10620847139262,10.72005972281886,"[35, 0, 219]",219,a,0.09096229593342287,1,colour,0.5,4.0
44,20,1,1,1,5,5,11.231232151388213,11.94395885411268,"[41, 0, 213]",213,a,0.191745537625593,1,colour,0.5,4.0
44,20,1,1,1,6,6,12.463394173362303,13.048017713620993,"[19, 0, 235]",235,a,0.061342314073954185,1,colour,0.5,4.0
44,20,1,1,1,7,7,13.557313859482747,16.031973212165212,"[36, 0, 218]",218,a,1.9500020283071535,1,colour,0.5,4.0
44,20,1,1,1,8,8,16.545898624807705,17.80004789168288,"[90, 0, 164]",164,l,0.7316781820695724,1,colour,0.5,4.0
44,20,1,1,1,9,9,18.310701624969624,19.31203833855261,"[11, 0, 243]",243,a,0.47814843507239857,1,colour,0.5,4.0
44,20,1,1,1,10,10,19.826958212537647,20.679970130713627,"[85, 0, 169]",169,l,0.3293435412983854,1,colour,0.5,4.0
44,20,1,1,1,11,11,21.186927618574373,22.159986183879482,"[54, 0, 200]",200,a,0.45001640368900553,0,colour,0.5,4.0
44,20,1,1,1,12,12,22.67141146162976,23.600037494146363,"[25, 0, 229]",229,a,0.4053448063318683,1,colour,0.5,4.0
44,20,1,1,1,13,13,24.10901423084033,25.048012987468155,"[95, 0, 159]",159,l,0.4157041396765635,1,colour,0.5,4.0
44,20,1,1,1,14,14,25.564366855016942,26.552033958983884,"[8, 0, 246]",246,a,0.46294873345004817,1,colour,0.5,4.0
44,20,1,1,1,15,15,27.064427310389874,28.08801514574452,"[88, 0, 166]",166,l,0.500440516836079,1,colour,0.5,4.0
44,20,1,1,1,16,16,28.595687858080055,29.608037689494267,"[28, 0, 226]",226,a,0.48906702984550066,1,colour,0.5,4.0
44,20,1,1,1,17,17,30.113893983725575,31.240022795811,"[94, 0, 160]",160,l,0.6028601889752281,1,colour,0.5,4.0
44,20,1,1,1,18,18,31.755630325044876,32.87999155594025,"[77, 0, 177]",177,l,0.6018877830128986,1,colour,0.5,4.0
44,20,1,1,1,19,19,33.39568218669638,34.22395387589813,"[0, 0, 254]",254,a,0.3048963338046633,1,colour,0.5,4.0
44,20,1,1,1,20,20,34.73960630358533,36.00816600454573,"[62, 0, 192]",192,l,0.7453084070775731,1,colour,0.5,4.0
44,20,1,1,1,21,21,36.52097013740877,37.63204930322718,"[83, 0, 171]",171,l,0.587746739643535,1,colour,0.5,4.0
44,20,1,1,1,22,22,38.146071995850434,38.97603486010394,"[48, 0, 206]",206,a,0.3066107457752878,1,colour,0.5,4.0
44,20,1,1,1,23,23,39.48995239582473,40.512013683788155,"[45, 0, 209]",209,a,0.49871862179088566,1,colour,0.5,4.0
44,20,1,1,1,24,24,41.02134330656645,42.05601909050711,"[3, 0, 251]",251,a,0.5113921946799564,1,colour,0.5,4.0
44,20,1,1,1,25,25,42.56826159886532,43.81597660239231,"[86, 0, 168]",168,l,0.724425900420556,1,colour,0.5,4.0
44,20,1,1,1,26,26,44.3341098665137,45.28006748946382,"[29, 0, 225]",225,a,0.4214125447065271,1,colour,0.5,4.0
44,20,1,1,1,27,27,45.78881500774105,46.80800909626896,"[26, 0, 228]",228,a,0.4959333423394128,1,colour,0.5,4.0
44,20,1,1,1,28,28,47.30913451143215,48.248000541932015,"[27, 0, 227]",227,a,0.4212120770534966,1,colour,0.5,4.0
44,20,1,1,1,29,29,48.75694498324765,49.63998412012597,"[80, 0, 174]",174,l,0.35971301224071794,1,colour,0.5,4.0
44,20,1,1,1,30,30,50.147743478598386,51.07998265501874,"[52, 0, 202]",202,a,0.4090000917663019,0,colour,0.5,4.0
44,20,1,1,1,31,31,51.60095870011901,52.60801720949803,"[42, 0, 212]",212,l,0.4837634985819932,0,colour,0.5,4.0
44,20,1,1,1,32,32,53.10909418159372,54.08810061034319,"[9, 0, 245]",245,a,0.4638860871114048,1,colour,0.5,4.0
44,20,1,1,1,33,33,54.60172354919905,55.69598942602033,"[97, 0, 157]",157,l,0.571088626000801,1,colour,0.5,4.0
44,20,1,1,1,34,34,56.212984081135346,57.29595248325859,"[89, 0, 165]",165,l,0.5596832374776568,1,colour,0.5,4.0
44,20,1,1,1,35,35,57.806894118026776,58.73600339967925,"[75, 0, 179]",179,l,0.40589461545459926,1,colour,0.5,4.0
44,20,1,1,1,36,36,59.24452327492463,60.28000171716894,"[53, 0, 201]",201,a,0.5122681083535099,0,colour,0.5,4.0
44,20,1,1,1,37,37,60.791486071830604,61.88822569585727,"[72, 0, 182]",182,l,0.5733725393974964,1,colour,0.5,4.0
44,20,1,1,1,38,38,62.401022739491054,63.352082244512985,"[55, 0, 199]",199,a,0.42782042036742496,0,colour,0.5,4.0
44,20,1,1,1,39,39,63.869836234863214,64.7760091025707,"[40, 0, 214]",214,a,0.383008219961539,1,colour,0.5,4.0
44,20,1,1,1,40,40,65.29187696406098,66.33598181691423,"[79, 0, 175]",175,l,0.5194333500189714,1,colour,0.5,4.0
44,20,1,1,1,41,41,66.8558881760714,68.1839643206963,"[92, 0, 162]",162,l,0.8048528138137954,1,colour,0.5,4.0
44,20,1,1,1,42,42,68.70063129587561,69.93621662794521,"[81, 0, 173]",173,l,0.712656598122976,1,colour,0.5,4.0
44,20,1,1,1,43,43,70.45071981278124,73.03996671212963,"[63, 0, 191]",191,a,2.065913291635752,0,colour,0.5,4.0
44,20,1,1,1,44,44,73.56039609887603,74.36796408753935,"[96, 0, 158]",158,l,0.28443563629571145,1,colour,0.5,4.0
44,20,1,1,1,45,45,74.88858803424728,75.96798228322814,"[39, 0, 215]",215,a,0.5560661551130579,1,colour,0.5,4.0
44,20,1,1,1,46,46,76.48248113575755,77.39199539357605,"[23, 0, 231]",231,a,0.38615938241764525,1,colour,0.5,4.0
44,20,1,1,1,47,47,77.9045187141869,78.9599883894175,"[13, 0, 241]",241,a,0.5322510705718742,1,colour,0.5,4.0
44,20,1,1,1,48,48,79.46714161877844,80.32799855694793,"[6, 0, 248]",248,a,0.33761549043856576,1,colour,0.5,4.0
44,20,1,1,1,49,49,80.84299759399437,81.7680069379926,"[7, 0, 247]",247,a,0.40174544704086657,1,colour,0.5,4.0
44,20,1,1,1,50,50,82.2805798832087,83.36001509218158,"[46, 0, 208]",208,a,0.5561646166320315,1,colour,0.5,4.0
44,20,1,1,2,1,51,94.25111074439656,95.74395987811249,"[91, 0, 163]",163,l,0.9688365353677,1,colour,0.5,4.0
44,20,1,1,2,2,52,96.25217176572596,100.22402988819113,"[97, 0, 157]",157,l,3.4490424223427,1,colour,0.5,4.0
44,20,1,1,2,3,53,100.73686671027872,101.7600039857225,"[77, 0, 177]",177,l,0.5001624615065339,1,colour,0.5,4.0
44,20,1,1,2,4,54,102.2681697933449,104.0879623703704,"[51, 0, 203]",203,a,1.2965436462191064,0,colour,0.5,4.0
44,20,1,1,2,5,55,104.59648815330684,105.54399792364347,"[80, 0, 174]",174,l,0.4241990056962095,1,colour,0.5,4.0
44,20,1,1,2,6,56,106.06542531634705,107.15198205007118,"[73, 0, 181]",181,l,0.5636205167024855,1,colour,0.5,4.0
44,20,1,1,2,7,57,107.66077013449467,108.68798804913467,"[29, 0, 225]",225,a,0.5041284914946118,1,colour,0.5,4.0
44,20,1,1,2,8,58,109.20776207601011,111.75198055345618,"[42, 0, 212]",212,l,2.0209427651066108,0,colour,0.5,4.0
44,20,1,1,2,9,59,112.27053444518697,113.27200230951348,"[23, 0, 231]",231,a,0.4784453950137504,1,colour,0.5,4.0
44,20,1,1,2,10,60,113.78623019594215,114.68004417377597,"[32, 0, 222]",222,a,0.3707115577676632,1,colour,0.5,4.0
44,20,1,1,2,11,61,115.19257261438588,116.26397415109432,"[90, 0, 164]",164,l,0.5481238551387833,1,colour,0.5,4.0
44,20,1,1,2,12,62,116.7722368448517,117.91204708193527,"[31, 0, 223]",223,a,0.6167594108533194,1,colour,0.5,4.0
44,20,1,1,2,13,63,118.42851989099927,119.51201250224995,"[8, 0, 246]",246,a,0.5603571081142036,1,colour,0.5,4.0
44,20,1,1,2,14,64,120.02238030328499,121.16798440999673,"[78, 0, 176]",176,l,0.6224307943521126,1,colour,0.5,4.0
44,20,1,1,2,15,65,121.67889296169506,122.69600242294109,"[36, 0, 218]",218,a,0.4939708073411566,1,colour,0.5,4.0
44,20,1,1,2,16,66,123.21015744784609,124.21613839436031,"[1, 0, 253]",253,a,0.482644581878958,1,colour,0.5,4.0
44,20,1,1,2,17,67,124.72580869399462,125.96801339706826,"[3, 0, 251]",251,a,0.7189731014946119,1,colour,0.5,4.0
44,20,1,1,2,18,68,126.47794009049812,127.59996463262223,"[72, 0, 182]",182,l,0.5987827005474173,1,colour,0.5,4.0
44,20,1,1,2,19,69,128.11870717662396,129.14394365165435,"[9, 0, 245]",245,a,0.5021033349707977,1,colour,0.5,4.0
44,20,1,1,2,20,70,129.650076031985,130.7439886288762,"[86, 0, 168]",168,l,0.570347801531625,1,colour,0.5,4.0
44,20,1,1,2,21,71,131.25950045351374,133.1919357652805,"[71, 0, 183]",183,a,1.4079178027486705,0,colour,0.5,4.0
44,20,1,1,2,22,72,133.69853918551826,134.54407629901243,"[96, 0, 158]",158,l,0.32225825038585754,1,colour,0.5,4.0
44,20,1,1,2,23,73,135.05804227780072,136.00799822611725,"[17, 0, 237]",237,a,0.42674600827149334,1,colour,0.5,4.0
44,20,1,1,2,24,74,136.52686837624742,137.44003240565507,"[41, 0, 213]",213,a,0.38994818167157064,1,colour,0.5,4.0
44,20,1,1,2,25,75,137.9488480593036,138.83997521920492,"[18, 0, 236]",236,a,0.3679030413977671,1,colour,0.5,4.0
44,20,1,1,2,26,76,139.35521765312615,140.25601412804644,"[25, 0, 229]",229,a,0.37761686102294334,1,colour,0.5,4.0
44,20,1,1,2,27,77,140.76220519144272,141.5600187943346,"[12, 0, 242]",242,a,0.2744811767174724,1,colour,0.5,4.0
44,20,1,1,2,28,78,142.0748910129446,143.04793894440581,"[63, 0, 191]",191,a,0.4497848221963068,0,colour,0.5,4.0
44,20,1,1,2,29,79,143.55930987139755,144.41598455808298,"[5, 0, 249]",249,a,0.33358408200183476,1,colour,0.5,4.0
44,20,1,1,2,30,80,144.93444235137122,145.8239653762039,"[99, 0, 155]",155,l,0.36620989711582297,1,colour,0.5,4.0
44,20,1,1,2,31,81,146.3408454221103,147.16797180692265,"[7, 0, 247]",247,a,0.3038817863125587,1,colour,0.5,4.0
44,20,1,1,2,32,82,147.68526893582384,148.57598885888228,"[95, 0, 159]",159,l,0.3675245553181412,1,colour,0.5,4.0
44,20,1,1,2,33,83,149.0916397111846,149.887983086674,"[2, 0, 252]",252,a,0.2730326108489862,1,colour,0.5,4.0
44,20,1,1,2,34,84,150.4042668496213,151.20000724676765,"[38, 0, 216]",216,a,0.2726746047655979,1,colour,0.5,4.0
44,20,1,1,2,35,85,151.71493775459703,152.48796229160143,"[39, 0, 215]",215,a,0.2482923818747622,1,colour,0.5,4.0
44,20,1,1,2,36,86,152.9991323570939,153.82398506850768,"[89, 0, 165]",165,l,0.3015372206205029,1,colour,0.5,4.0
44,20,1,1,2,37,87,154.34294934784975,155.11197595333397,"[19, 0, 235]",235,a,0.24558941625309672,1,colour,0.5,4.0
44,20,1,1,2,38,88,155.6240187817316,156.5839933865368,"[75, 0, 179]",179,a,0.4366130340208656,0,colour,0.5,4.0
44,20,1,1,2,39,89,157.09293861554443,157.83993819767375,"[84, 0, 170]",170,l,0.22365297749593083,1,colour,0.5,4.0
44,20,1,1,2,40,90,158.35871421859156,159.07195213352315,"[0, 0, 254]",254,a,0.18920877504797318,1,colour,0.5,4.0
44,20,1,1,2,41,91,159.57819400306335,160.32800525233142,"[34, 0, 220]",220,a,0.2265300230833418,1,colour,0.5,4.0
44,20,1,1,2,42,92,160.84400505225767,162.93597401876195,"[69, 0, 185]",185,a,1.5687401218478954,0,colour,0.5,4.0
44,20,1,1,2,43,93,163.45355156607002,164.41596959193203,"[16, 0, 238]",238,a,0.43943533500350895,1,colour,0.5,4.0
44,20,1,1,2,44,94,164.92241468604743,165.76000871187534,"[43, 0, 211]",211,a,0.3142675073445389,1,colour,0.5,4.0
44,20,1,1,2,45,95,166.26630335678965,167.23201748046404,"[61, 0, 193]",193,a,0.44282910664287556,0,colour,0.5,4.0
44,20,1,1,2,46,96,167.75068755678785,168.7039652029116,"[64, 0, 190]",190,a,0.4298888999605879,0,colour,0.5,4.0
44,20,1,1,2,47,97,169.21963811059413,169.9839673139263,"[66, 0, 188]",188,a,0.24121693711413172,0,colour,0.5,4.0
44,20,1,1,2,48,98,170.5010210459527,171.3839920474602,"[92, 0, 162]",162,l,0.3596665384043263,1,colour,0.5,4.0
44,20,1,1,2,49,99,171.89179079053974,172.59200579111257,"[88, 0, 166]",166,l,0.1770093928348615,1,colour,0.5,4.0
44,20,1,1,2,50,100,173.11272032241823,173.71200241979022,"[79, 0, 175]",175,l,0.0771761078790405,1,colour,0.5,4.0
44,20,1,1,3,1,101,179.64728011868965,180.91991927730805,"[87, 0, 167]",167,l,0.748949514053038,1,colour,0.5,4.0
44,20,1,1,3,2,102,181.42949466003802,182.24795091732676,"[9, 0, 245]",245,a,0.29516360956813514,1,colour,0.5,4.0
44,20,1,1,3,3,103,182.75773818924517,183.73597307353157,"[94, 0, 160]",160,l,0.4550143103974733,1,colour,0.5,4.0
44,20,1,1,3,4,104,184.24219170615288,185.39998456123385,"[77, 0, 177]",177,l,0.6345376227372981,1,colour,0.5,4.0
44,20,1,1,3,5,105,185.9142002384342,186.81596478701022,"[8, 0, 246]",246,a,0.37854397468709067,1,colour,0.5,4.0
44,20,1,1,3,6,106,187.33744337970347,188.19202044218673,"[15, 0, 239]",239,a,0.331410051660896,1,colour,0.5,4.0
44,20,1,1,3,7,107,188.7125203273804,189.54400461902696,"[29, 0, 225]",225,a,0.3081715577754949,1,colour,0.5,4.0
44,20,1,1,3,8,108,190.0564176627363,190.87195945906024,"[31, 0, 223]",223,a,0.292353123967132,1,colour,0.5,4.0
44,20,1,1,3,9,109,191.38463480425662,192.25595820190347,"[17, 0, 237]",237,a,0.34803271915643563,1,colour,0.5,4.0
44,20,1,1,3,10,110,192.77540533653564,193.58395518346742,"[91, 0, 163]",163,l,0.28530091612537944,1,colour,0.5,4.0
44,20,1,1,3,11,111,194.10363980728334,194.88798111744381,"[80, 0, 174]",174,l,0.26136807160764874,1,colour,0.5,4.0
44,20,1,1,3,12,112,195.40056351496605,196.39199657511472,"[71, 0, 183]",183,l,0.46815577242477957,1,colour,0.5,4.0
44,20,1,1,3,13,113,196.90053062881861,197.60812079101606,"[61, 0, 193]",193,a,0.1840486037563096,0,colour,0.5,4.0
44,20,1,1,3,14,114,198.11987453639404,199.0320543444568,"[18, 0, 236]",236,a,0.3895464586739763,1,colour,0.5,4.0
44,20,1,1,3,15,115,199.54145604106725,200.3442198952921,"[44, 0, 210]",210,a,0.27997769255807725,1,colour,0.5,4.0
44,20,1,1,3,16,116,200.85344987501276,201.55994475127227,"[51, 0, 203]",203,a,0.18325657929699446,0,colour,0.5,4.0
44,20,1,1,3,17,117,202.07246216419207,202.80797365012222,"[69, 0, 185]",185,a,0.21226846281479084,0,colour,0.5,4.0
44,20,1,1,3,18,118,203.32252606571774,204.03201574754166,"[43, 0, 211]",211,a,0.1861269295013699,1,colour,0.5,4.0
44,20,1,1,3,19,119,204.5414005087705,205.19998676677187,"[83, 0, 171]",171,l,0.13526249644064592,1,colour,0.5,4.0
44,20,1,1,3,20,120,205.7156435267657,206.47195914398344,"[66, 0, 188]",188,a,0.2332955109818613,0,colour,0.5,4.0
44,20,1,1,3,21,121,206.98012180083742,207.64795438317196,"[96, 0, 158]",158,l,0.14447691924124229,1,colour,0.5,4.0
44,20,1,1,3,22,122,208.16778354849794,208.72800596125398,"[6, 0, 248]",248,a,0.03692267580572661,1,colour,0.5,4.0
44,20,1,1,3,23,123,209.23456645226997,209.99197735542612,"[58, 0, 196]",196,a,0.2342923354008235,0,colour,0.5,4.0
44,20,1,1,3,24,124,210.51283091439655,211.15203679467595,"[56, 0, 198]",198,a,0.11591835255785554,0,colour,0.5,4.0
44,20,1,1,3,25,125,211.67094357249107,212.40798790735016,"[1, 0, 253]",253,a,0.21391473941366712,1,colour,0.5,4.0
44,20,1,1,3,26,126,212.92343080892442,213.93602561259786,"[62, 0, 192]",192,a,0.48938958978169467,0,colour,0.5,4.0
44,20,1,1,3,27,127,214.4547614612161,215.52796878218442,"[78, 0, 176]",176,l,0.549956814777488,1,colour,0.5,4.0
44,20,1,1,3,28,128,216.0468066369367,216.61595281408927,"[33, 0, 221]",221,a,0.04590669865228847,1,colour,0.5,4.0
44,20,1,1,3,29,129,217.12512962459004,217.78392068255107,"[98, 0, 156]",156,l,0.13561026252591546,1,colour,0.5,4.0
44,20,1,1,3,30,130,218.29701429228044,218.86396202063497,"[48, 0, 206]",206,a,0.044008754410242545,1,colour,0.5,4.0
44,20,1,1,3,31,131,219.3752813537908,220.00793048459218,"[3, 0, 251]",251,a,0.10947306151911107,1,colour,0.5,4.0
44,20,1,1,3,32,132,220.5291857665602,221.4559272456022,"[0, 0, 254]",254,a,0.40348506516011184,1,colour,0.5,4.0
44,20,1,1,3,33,133,221.97016419049078,222.58399102346038,"[41, 0, 213]",213,a,0.09090833902109807,1,colour,0.5,4.0
44,20,1,1,3,34,134,223.09519180894677,225.50404972227943,"[36, 0, 218]",218,a,1.8855936225290861,1,colour,0.5,4.0
44,20,1,1,3,35,135,226.0139051295696,226.63190515556335,"[4, 0, 250]",250,a,0.0950177289810199,1,colour,0.5,4.0
44,20,1,1,3,36,136,227.12658015968873,228.05597222282404,"[76, 0, 178]",178,l,0.4060525477311785,1,colour,0.5,4.0
44,20,1,1,3,37,137,228.56426681811354,229.439943002596,"[93, 0, 161]",161,l,0.35249145058651266,1,colour,0.5,4.0
44,20,1,1,3,38,138,229.95497315348211,231.1519406962334,"[81, 0, 173]",173,l,0.6727418736754771,1,colour,0.5,4.0
44,20,1,1,3,39,139,231.659306996321,232.24797179116877,"[52, 0, 202]",202,a,0.06543752557536209,0,colour,0.5,4.0
44,20,1,1,3,40,140,232.76871901169852,233.37593789519997,"[60, 0, 194]",194,a,0.08398925115307065,0,colour,0.5,4.0
44,20,1,1,3,41,141,233.89375805169084,234.62394395097726,"[55, 0, 199]",199,a,0.2068546546502148,0,colour,0.5,4.0
44,20,1,1,3,42,142,235.14388496858874,235.76794825492698,"[38, 0, 216]",216,a,0.10083995552668057,1,colour,0.5,4.0
44,20,1,1,3,43,143,236.28456796857745,237.05594268436835,"[45, 0, 209]",209,a,0.2480560742292255,1,colour,0.5,4.0
44,20,1,1,3,44,144,237.56598516854456,238.28793417099132,"[37, 0, 217]",217,a,0.19897812697035988,1,colour,0.5,4.0
44,20,1,1,3,45,145,238.8004295285309,239.55998216664966,"[95, 0, 159]",159,l,0.23588268585717742,1,colour,0.5,4.0
44,20,1,1,3,46,146,240.06646310075803,241.66402645385324,"[2, 0, 252]",252,a,1.0746586437594488,1,colour,0.5,4.0
44,20,1,1,3,47,147,242.17600666072485,243.16800095153212,"[27, 0, 227]",227,a,0.46869376616496083,1,colour,0.5,4.0
44,20,1,1,3,48,148,243.67609468532282,246.51198729610087,"[68, 0, 186]",186,l,2.3125085907672656,1,colour,0.5,4.0
44,20,1,1,3,49,149,247.02159812497757,247.61594808793643,"[5, 0, 249]",249,a,0.07110300138265302,1,colour,0.5,4.0
44,20,1,1,3,50,150,248.13106488495941,248.92795452495648,"[34, 0, 220]",220,a,0.2736789122600385,1,colour,0.5,4.0
44,20,1,1,4,1,151,257.43143356427163,259.84000751458325,"[75, 0, 179]",179,l,1.8844916412081147,1,colour,0.5,3.9
44,20,1,1,4,2,152,260.354364188679,261.69593901372264,"[64, 0, 190]",190,l,0.8182467311758046,1,colour,0.5,3.9
44,20,1,1,4,3,153,262.21385329942586,263.38399007822954,"[96, 0, 158]",158,l,0.6467909618627345,1,colour,0.5,3.9
44,20,1,1,4,4,154,263.9027582222261,264.9120069096357,"[0, 0, 254]",254,a,0.4861671411858879,1,colour,0.5,3.9
44,20,1,1,4,5,155,265.4184772098997,266.52797823449055,"[35, 0, 219]",219,a,0.5862001061022966,1,colour,0.5,3.9
44,20,1,1,4,6,156,267.0432234253344,269.2159745543927,"[16, 0, 238]",238,a,1.6493025182912788,1,colour,0.5,3.9
44,20,1,1,4,7,157,269.7310716591119,270.78397936561623,"[79, 0, 175]",175,l,0.5280467637076072,1,colour,0.5,3.9
44,20,1,1,4,8,158,271.29530933261594,271.88791770822536,"[48, 0, 206]",206,a,0.06935078018932472,1,colour,0.5,3.9
44,20,1,1,4,9,159,272.4066511937672,273.07993303041303,"[11, 0, 243]",243,a,0.15017114581223723,1,colour,0.5,3.9
44,20,1,1,4,10,160,273.59715178394526,274.199941868319,"[95, 0, 159]",159,l,0.07951043357343224,1,colour,0.5,3.9
44,20,1,1,4,11,161,274.70840896819027,275.8320222853863,"[44, 0, 210]",210,a,0.6004179494561868,1,colour,0.5,3.9
44,20,1,1,4,12,162,276.3490476604952,277.3679833859969,"[2, 0, 252]",252,a,0.4957242100726944,1,colour,0.5,3.9
44,20,1,1,4,13,163,277.8804314820072,278.5839626665429,"[29, 0, 225]",225,a,0.18023223527734444,1,colour,0.5,3.9
44,20,1,1,4,14,164,279.09927559891185,282.1279420794208,"[77, 0, 177]",177,l,2.5054876543040336,1,colour,0.5,3.9
44,20,1,1,4,15,165,282.6477338293694,283.3519451860784,"[88, 0, 166]",166,l,0.18092697975589545,1,colour,0.5,3.9
44,20,1,1,4,16,166,283.8666610477958,284.4239583657436,"[80, 0, 174]",174,l,0.03207246137662878,1,colour,0.5,3.9
44,20,1,1,4,17,167,284.9311714597079,285.4799483116408,"[19, 0, 235]",235,a,0.025436942682972585,1,colour,0.5,3.9
44,20,1,1,4,18,168,285.9937937735299,287.02392772451867,"[84, 0, 170]",170,l,0.506937795556496,1,colour,0.5,3.9
44,20,1,1,4,19,169,287.5407557827434,288.159977913112,"[34, 0, 220]",220,a,0.0959357841848032,1,colour,0.5,3.9
44,20,1,1,4,20,170,288.68146320118876,291.01593343686227,"[56, 0, 198]",198,a,1.8111539571882531,0,colour,0.5,3.9
44,20,1,1,4,21,171,291.528167674453,292.35993356604376,"[13, 0, 241]",241,a,0.30844843156683055,1,colour,0.5,3.9
44,20,1,1,4,22,172,292.87201932366406,294.1680742069025,"[74, 0, 180]",180,a,0.785266454593966,0,colour,0.5,3.9
44,20,1,1,4,23,173,294.68260417327156,295.8639123960297,"[69, 0, 185]",185,a,0.6579907627342436,0,colour,0.5,3.9
44,20,1,1,4,24,174,296.3703251947668,296.9679314770842,"[24, 0, 230]",230,a,0.0746180776136498,1,colour,0.5,3.9
44,20,1,1,4,25,175,297.47971436707167,298.71194767518546,"[58, 0, 196]",196,a,0.7089623219271743,0,colour,0.5,3.9
44,20,1,1,4,26,176,299.2298328162792,299.89598682663654,"[30, 0, 224]",224,a,0.14057351077963176,1,colour,0.5,3.9
44,20,1,1,4,27,177,300.4041553911816,301.5679449466202,"[20, 0, 234]",234,a,0.6407284892106873,1,colour,0.5,3.9
44,20,1,1,4,28,178,302.0761367480836,302.91190844811626,"[26, 0, 228]",228,a,0.3138055258964414,1,colour,0.5,3.9
44,20,1,1,4,29,179,303.4187662929198,304.4319286287896,"[63, 0, 191]",191,a,0.48994491274925167,0,colour,0.5,3.9
44,20,1,1,4,30,180,304.9501201821304,305.71996874437536,"[21, 0, 233]",233,a,0.24452878876991235,1,colour,0.5,3.9
44,20,1,1,4,31,181,306.23358538169396,307.3039810355235,"[82, 0, 172]",172,l,0.547529147563182,1,colour,0.5,3.9
44,20,1,1,4,32,182,307.8118609108951,308.78391792562843,"[97, 0, 157]",157,l,0.4612469245544162,1,colour,0.5,3.9
44,20,1,1,4,33,183,309.29947267948864,310.36795975523273,"[66, 0, 188]",188,a,0.5451818249489406,0,colour,0.5,3.9
44,20,1,1,4,34,184,310.87951460834165,311.86394981140666,"[55, 0, 199]",199,a,0.46138319529654837,0,colour,0.5,3.9
44,20,1,1,4,35,185,312.37967549446375,313.32034691537774,"[53, 0, 201]",201,a,0.41739373934387913,0,colour,0.5,3.9
44,20,1,1,4,36,186,313.83292379905515,314.76797464261426,"[42, 0, 212]",212,a,0.4117558327620827,1,colour,0.5,3.9
44,20,1,1,4,37,187,315.2862973466986,316.320075161585,"[12, 0, 242]",242,a,0.5111125639655256,1,colour,0.5,3.9
44,20,1,1,4,38,188,316.83321485130546,317.8719283452201,"[99, 0, 155]",155,l,0.5154826800280716,1,colour,0.5,3.9
44,20,1,1,4,39,189,318.3829767122752,320.32793081542286,"[91, 0, 163]",163,l,1.422127769180861,1,colour,0.5,3.9
44,20,1,1,4,40,190,320.836207293793,321.7359711043009,"[51, 0, 203]",203,a,0.3766208242959692,0,colour,0.5,3.9
44,20,1,1,4,41,191,322.242522536857,323.50393156845666,"[36, 0, 218]",218,a,0.7381857007881081,1,colour,0.5,3.9
44,20,1,1,4,42,192,324.023938358363,324.8639226360274,"[47, 0, 207]",207,a,0.31668335917584045,1,colour,0.5,3.9
44,20,1,1,4,43,193,325.3834335737238,326.51195106226214,"[71, 0, 183]",183,a,0.6055986007440879,0,colour,0.5,3.9
44,20,1,1,4,44,194,327.0241293737099,328.0159440707066,"[6, 0, 248]",248,a,0.46843855390761746,1,colour,0.5,3.9
44,20,1,1,4,45,195,328.52425126907065,329.6959917890972,"[62, 0, 192]",192,a,0.6482852138765338,0,colour,0.5,3.9
44,20,1,1,4,46,196,330.21196362595174,331.09593972264565,"[1, 0, 253]",253,a,0.35949285228434746,1,colour,0.5,3.9
44,20,1,1,4,47,197,331.6039153026136,332.3999916504631,"[14, 0, 240]",240,a,0.27305387853721186,1,colour,0.5,3.9
44,20,1,1,4,48,198,332.9165203856696,333.911943106571,"[9, 0, 245]",245,a,0.472195451628977,1,colour,0.5,3.9
44,20,1,1,4,49,199,334.4338005791901,335.51991896223126,"[27, 0, 227]",227,a,0.5628131322459922,1,colour,0.5,3.9
44,20,1,1,4,50,200,336.0273459146151,337.87994114364255,"[68, 0, 186]",186,l,1.3293159720733456,1,colour,0.5,3.9
44,20,1,1,5,1,201,343.1052825392676,344.2879581956022,"[97, 0, 157]",157,l,0.6586043749211967,1,colour,0.4,3.9
44,20,1,1,5,2,202,344.7950228095956,346.079927122722,"[70, 0, 184]",184,l,0.7616884653903071,1,colour,0.4,3.9
44,20,1,1,5,3,203,346.5920097295734,347.9598993802042,"[61, 0, 193]",193,a,0.8445946398333035,0,colour,0.4,3.9
44,20,1,1,5,4,204,348.4671235018586,349.17595506688895,"[25, 0, 229]",229,a,0.18558066499326742,1,colour,0.4,3.9
44,20,1,1,5,5,205,349.6859940064505,350.7439476688842,"[94, 0, 160]",160,l,0.5348201285278265,1,colour,0.4,3.9
44,20,1,1,5,6,206,351.2654624954166,352.71993644899703,"[29, 0, 225]",225,a,0.9312214781593866,1,colour,0.4,3.9
44,20,1,1,5,7,207,353.23428485232535,354.6319335124808,"[44, 0, 210]",210,a,0.8743552247424304,1,colour,0.4,3.9
44,20,1,1,5,8,208,355.1406991476779,356.79206266248593,"[5, 0, 249]",249,a,1.1279550763410953,1,colour,0.4,3.9
44,20,1,1,5,9,209,357.3127716799463,358.6079152033644,"[78, 0, 176]",176,l,0.7725538909430725,1,colour,0.4,3.9
44,20,1,1,5,10,210,359.1255880614226,360.2239479682071,"[68, 0, 186]",186,l,0.5752094374970511,1,colour,0.4,3.9
44,20,1,1,5,11,211,360.73690294411745,362.1038958072327,"[71, 0, 183]",183,l,0.8439802399543623,1,colour,0.4,3.9
44,20,1,1,5,12,212,362.611985602563,363.7039143967677,"[52, 0, 202]",202,a,0.5689555556518826,0,colour,0.4,3.9
44,20,1,1,5,13,213,364.2214919440753,365.53601860213803,"[65, 0, 189]",189,a,0.7911891118892527,0,colour,0.4,3.9
44,20,1,1,5,14,214,366.05107080840435,367.031950369093,"[19, 0, 235]",235,a,0.45754083297697434,1,colour,0.4,3.9
44,20,1,1,5,15,215,367.5511651345396,368.767968341077,"[83, 0, 171]",171,l,0.693397131146412,1,colour,0.4,3.9
44,20,1,1,5,16,216,369.28571248527487,370.32799225541066,"[35, 0, 219]",219,a,0.5190875531643542,1,colour,0.4,3.9
44,20,1,1,5,17,217,370.848360596015,372.06392830741106,"[88, 0, 166]",166,l,0.692293574440555,1,colour,0.4,3.9
44,20,1,1,5,18,218,372.58283154061155,373.7519112365467,"[43, 0, 211]",211,a,0.6457519959135425,1,colour,0.4,3.9
44,20,1,1,5,19,219,374.2704674913539,375.37594419673724,"[93, 0, 161]",161,l,0.5824703837597554,1,colour,0.4,3.9
44,20,1,1,5,20,220,375.8956162174786,377.0639771443243,"[28, 0, 226]",226,a,0.6450186545193901,1,colour,0.4,3.9
44,20,1,1,5,21,221,377.58330061128845,380.24798360655086,"[21, 0, 233]",233,a,2.141479356754644,1,colour,0.4,3.9
44,20,1,1,5,22,222,380.75673742636536,383.0319298890968,"[54, 0, 200]",200,l,1.7518895750122283,1,colour,0.4,3.9
44,20,1,1,5,23,223,383.53817136479074,384.4719252732207,"[38, 0, 216]",216,a,0.41042581456213156,1,colour,0.4,3.9
44,20,1,1,5,24,224,384.9914464509152,386.13591313015877,"[48, 0, 206]",206,a,0.6211248007630275,1,colour,0.4,3.9
44,20,1,1,5,25,225,386.6491465552449,387.823962225435,"[27, 0, 227]",227,a,0.6515383824662422,1,colour,0.4,3.9
44,20,1,1,5,26,226,388.3367978659844,389.4719355132188,"[92, 0, 162]",162,l,0.6121758302174385,1,colour,0.4,3.9
44,20,1,1,5,27,227,389.99314510904196,391.33594361384485,"[81, 0, 173]",173,l,0.819417635560967,1,colour,0.4,3.9
44,20,1,1,5,28,228,391.8526716351662,393.03989818291257,"[99, 0, 155]",155,l,0.6640756846131808,1,colour,0.4,3.9
44,20,1,1,5,29,229,393.55596729974786,394.831912402331,"[26, 0, 228]",228,a,0.75277691022211,1,colour,0.4,3.9
44,20,1,1,5,30,230,395.3530184166366,396.5839228880891,"[80, 0, 174]",174,l,0.7078524636845032,1,colour,0.4,3.9
44,20,1,1,5,31,231,397.10495092087103,398.071915111992,"[39, 0, 215]",215,a,0.44371919877539767,1,colour,0.4,3.9
44,20,1,1,5,32,232,398.58822683801054,401.7359644089179,"[73, 0, 181]",181,l,2.6248068677305127,1,colour,0.4,3.9
44,20,1,1,5,33,233,402.2447832133348,403.33595149076655,"[66, 0, 188]",188,a,0.5679677896923749,0,colour,0.4,3.9
44,20,1,1,5,34,234,403.85429506869286,406.3599430183499,"[74, 0, 180]",180,a,1.9946830779704214,0,colour,0.4,3.9
44,20,1,1,5,35,235,406.87031003169295,407.9360078895247,"[2, 0, 252]",252,a,0.5426576654458586,1,colour,0.4,3.9
44,20,1,1,5,36,236,408.4492046869259,410.4000105550749,"[90, 0, 164]",164,l,1.4281898479871415,1,colour,0.4,3.9
44,20,1,1,5,37,237,410.9186747237072,412.2959623294105,"[77, 0, 177]",177,l,0.854013468748235,1,colour,0.4,3.9
44,20,1,1,5,38,238,412.79706765842366,413.9759616047336,"[96, 0, 158]",158,l,0.6556832185729036,1,colour,0.4,3.9
44,20,1,1,5,39,239,414.49607749000324,415.25590739575955,"[85, 0, 169]",169,l,0.23659751648528982,1,colour,0.4,3.9
44,20,1,1,5,40,240,415.77763608071155,416.78392028870485,"[79, 0, 175]",175,l,0.4833412955881613,1,colour,0.4,3.9
44,20,1,1,5,41,241,417.29749439064744,418.2719168449148,"[57, 0, 197]",197,a,0.451197548071832,0,colour,0.4,3.9
44,20,1,1,5,42,242,418.78207039368453,420.14392711011897,"[95, 0, 159]",159,l,0.8386058163978305,1,colour,0.4,3.9
44,20,1,1,5,43,243,420.6526671453207,421.6879199137634,"[22, 0, 232]",232,a,0.5120046253282453,1,colour,0.4,3.9
44,20,1,1,5,44,244,422.19986664371845,423.39990618586444,"[23, 0, 231]",231,a,0.6715946000549593,1,colour,0.4,3.9
44,20,1,1,5,45,245,423.9082689165257,424.8879456712966,"[41, 0, 213]",213,a,0.4563679593611596,1,colour,0.4,3.9
44,20,1,1,5,46,246,425.4035362651498,426.54396917287977,"[98, 0, 156]",156,l,0.6173631768883752,1,colour,0.4,3.9
44,20,1,1,5,47,247,427.0598972928201,428.11991549638606,"[63, 0, 191]",191,a,0.5367393404576433,0,colour,0.4,3.9
44,20,1,1,5,48,248,428.6381165020325,429.7199620489919,"[33, 0, 221]",221,a,0.5585639269288549,1,colour,0.4,3.9
44,20,1,1,5,49,249,430.2320623789169,432.5279652375698,"[72, 0, 182]",182,l,1.7726338416964609,1,colour,0.4,3.9
44,20,1,1,5,50,250,433.04473461272937,434.14395349780625,"[49, 0, 205]",205,a,0.5759124527435233,1,colour,0.4,3.9
44,20,1,1,6,1,251,439.20068190509664,440.63998293858776,"[50, 0, 204]",204,a,0.915203364390436,1,colour,0.28,3.9
44,20,1,1,6,2,252,441.15599416005034,442.11193184257354,"[81, 0, 173]",173,l,0.4326718163356418,1,colour,0.28,3.9
44,20,1,1,6,3,253,442.62487382156314,443.8799604421001,"[94, 0, 160]",160,l,0.731769554359289,1,colour,0.28,3.9
44,20,1,1,6,4,254,444.37817612245135,445.2159485605516,"[4, 0, 250]",250,a,0.31512254717563337,1,colour,0.28,3.9
44,20,1,1,6,5,255,445.72194585167836,447.103969850295,"[24, 0, 230]",230,a,0.8559795483606649,1,colour,0.28,3.9
44,20,1,1,6,6,256,447.61533132498107,448.7039187290743,"[61, 0, 193]",193,a,0.5652742763763854,0,colour,0.28,3.9
44,20,1,1,6,7,257,449.2249038326345,451.1359162809272,"[70, 0, 184]",184,l,1.3876008590568745,1,colour,0.28,3.9
44,20,1,1,6,8,258,451.64765427246175,452.5519453436168,"[34, 0, 220]",220,a,0.38162818331011295,1,colour,0.28,3.9
44,20,1,1,6,9,259,453.0710171429382,454.1199123456172,"[57, 0, 197]",197,a,0.5257856933835683,0,colour,0.28,3.9
44,20,1,1,6,10,260,454.63357269985045,455.55994278204207,"[80, 0, 174]",174,l,0.4030010283322554,1,colour,0.28,3.9
44,20,1,1,6,11,261,456.07120303828606,456.95195708022993,"[64, 0, 190]",190,a,0.3574334311515486,0,colour,0.28,3.9
44,20,1,1,6,12,262,457.4619763274877,458.3519443983864,"[99, 0, 155]",155,l,0.3665891708869822,1,colour,0.28,3.9
44,20,1,1,6,13,263,458.8683372566966,459.5919888557314,"[69, 0, 185]",185,a,0.2003475297779005,0,colour,0.28,3.9
44,20,1,1,6,14,264,460.1028678689736,460.9759001647458,"[63, 0, 191]",191,a,0.349905457249406,0,colour,0.28,3.9
44,20,1,1,6,15,265,461.4934977982034,462.25591409114304,"[1, 0, 253]",253,a,0.23904526984961194,1,colour,0.28,3.9
44,20,1,1,6,16,266,462.77491657355495,463.6879049476124,"[21, 0, 233]",233,a,0.3896220771202934,1,colour,0.28,3.9
44,20,1,1,6,17,267,464.1970344965839,465.1038772964671,"[29, 0, 225]",225,a,0.38243162930575636,1,colour,0.28,3.9
44,20,1,1,6,18,268,465.62013664095775,466.5198677622416,"[12, 0, 242]",242,a,0.37670943966350023,1,colour,0.28,3.9
44,20,1,1,6,19,269,467.026458185559,468.0798999473427,"[22, 0, 232]",232,a,0.5300616802337572,1,colour,0.28,3.9
44,20,1,1,6,20,270,468.5891417424459,469.59196955727384,"[87, 0, 167]",167,l,0.47961393632249383,1,colour,0.28,3.9
44,20,1,1,6,21,271,470.09244985256373,470.9839232031659,"[98, 0, 156]",156,l,0.37078087467716614,1,colour,0.28,3.9
44,20,1,1,6,22,272,471.4965260806839,472.35192194916,"[88, 0, 166]",166,l,0.3321496945918625,1,colour,0.28,3.9
44,20,1,1,6,23,273,472.8715888499023,474.63191578940723,"[71, 0, 183]",183,a,1.2354254305623726,0,colour,0.28,3.9
44,20,1,1,6,24,274,475.13938133870624,476.1919255252824,"[67, 0, 187]",187,a,0.5305409909087757,0,colour,0.28,3.9
44,20,1,1,6,25,275,476.7006301143374,477.6879088860733,"[47, 0, 207]",207,a,0.46279473963431883,1,colour,0.28,3.9
44,20,1,1,6,26,276,478.2020343725226,479.32790600312,"[85, 0, 169]",169,l,0.6025990690268372,1,colour,0.28,3.9
44,20,1,1,6,27,277,479.84289716324474,481.0478905013383,"[62, 0, 192]",192,a,0.6828349670722673,0,colour,0.28,3.9
44,20,1,1,6,28,278,481.56058160037765,482.7439228565813,"[96, 0, 158]",158,l,0.6601021715491697,1,colour,0.28,3.9
44,20,1,1,6,29,279,483.2652513939197,484.38396132746584,"[78, 0, 176]",176,l,0.5953349719952712,1,colour,0.28,3.9
44,20,1,1,6,30,280,484.89047613233697,485.51192664380505,"[54, 0, 200]",200,a,0.09853634982664516,0,colour,0.28,3.9
44,20,1,1,6,31,281,486.030794824705,487.4078929904458,"[75, 0, 179]",179,l,0.8537385641870969,1,colour,0.28,3.9
44,20,1,1,6,32,282,487.9096032670318,488.6798866353456,"[5, 0, 249]",249,a,0.24710887441551677,1,colour,0.28,3.9
44,20,1,1,6,33,283,489.19086411010676,490.1519127331617,"[90, 0, 164]",164,l,0.43770910765124427,1,colour,0.28,3.9
44,20,1,1,6,34,284,490.6597343193139,491.63199534631485,"[55, 0, 199]",199,a,0.4488884285265158,0,colour,0.28,3.9
44,20,1,1,6,35,285,492.14594399587577,493.07194228737126,"[35, 0, 219]",219,a,0.4028486099005022,1,colour,0.28,3.9
44,20,1,1,6,36,286,493.58343806356925,494.5358969037002,"[91, 0, 163]",163,l,0.4290626108922879,1,colour,0.28,3.9
44,20,1,1,6,37,287,495.052396100451,496.07193007814294,"[76, 0, 178]",178,l,0.496382720712063,1,colour,0.28,3.9
44,20,1,1,6,38,288,496.58366531275533,497.24791232041116,"[86, 0, 168]",168,l,0.14082399688413716,1,colour,0.28,3.9
44,20,1,1,6,39,289,497.7556527742713,498.4318912134122,"[95, 0, 159]",159,l,0.1529694221844693,1,colour,0.28,3.9
44,20,1,1,6,40,290,498.94324638656053,499.71191498596136,"[79, 0, 175]",175,l,0.24530584707827074,1,colour,0.28,3.9
44,20,1,1,6,41,291,500.2252748356382,500.82393741313217,"[60, 0, 194]",194,a,0.07355193628518464,0,colour,0.28,3.9
44,20,1,1,6,42,292,501.336580069104,502.09591215342016,"[18, 0, 236]",236,a,0.23631867346330182,1,colour,0.28,3.9
44,20,1,1,6,43,293,502.60228162908925,504.73594511045985,"[72, 0, 182]",182,a,1.6104885936265418,0,colour,0.28,3.9
44,20,1,1,6,44,294,505.2431326044293,505.93590588339066,"[97, 0, 157]",157,l,0.16947944970252138,1,colour,0.28,3.9
44,20,1,1,6,45,295,506.44637332748334,507.3039152632291,"[16, 0, 238]",238,a,0.3342969434002043,1,colour,0.28,3.9
44,20,1,1,6,46,296,507.8214408228546,509.4318793980301,"[83, 0, 171]",171,l,1.0870703090076859,1,colour,0.28,3.9
44,20,1,1,6,47,297,509.94658935205644,511.3038869063116,"[8, 0, 246]",246,a,0.8339899403836171,1,colour,0.28,3.9
44,20,1,1,6,48,298,511.82177598586577,512.7679049318585,"[77, 0, 177]",177,l,0.4228595351905824,1,colour,0.28,3.9
44,20,1,1,6,49,299,513.2750447704525,514.5678724789418,"[56, 0, 198]",198,a,0.7699773499120965,0,colour,0.28,3.9
44,20,1,1,6,50,300,515.0876799827338,515.9599222232769,"[51, 0, 203]",203,a,0.34736672544158864,0,colour,0.28,3.9
44,20,1,1,7,1,301,524.7599035549729,526.039907241372,"[96, 0, 158]",158,l,0.7559812418990077,1,colour,0.14,3.9
44,20,1,1,7,2,302,526.5590511145251,528.327879221587,"[68, 0, 186]",186,a,1.2455716931799543,0,colour,0.14,3.9
44,20,1,1,7,3,303,528.8400870714904,529.7600354934084,"[86, 0, 168]",168,l,0.39673769418095617,1,colour,0.14,3.9
44,20,1,1,7,4,304,530.2776945668538,531.2558802203803,"[76, 0, 178]",178,l,0.4536078860583075,1,colour,0.14,3.9
44,20,1,1,7,5,305,531.7634678619634,532.6959039614221,"[84, 0, 170]",170,l,0.40915447942825267,1,colour,0.14,3.9
44,20,1,1,7,6,306,533.2166842650222,533.7998895655601,"[38, 0, 216]",216,a,0.05991265281727465,1,colour,0.14,3.9
44,20,1,1,7,7,307,534.3104850096274,535.2718865187671,"[50, 0, 204]",204,a,0.43803324297232393,1,colour,0.14,3.9
44,20,1,1,7,8,308,535.7793642772945,536.6478980631832,"[80, 0, 174]",174,l,0.345217507403504,1,colour,0.14,3.9
44,20,1,1,7,9,309,537.1545278711083,537.8958970297313,"[65, 0, 189]",189,a,0.21816827703787567,0,colour,0.14,3.9
44,20,1,1,7,10,310,538.4045831080207,539.1279097840425,"[85, 0, 169]",169,l,0.20005765906580564,1,colour,0.14,3.9
44,20,1,1,7,11,311,539.6390936341477,540.2958997078845,"[54, 0, 200]",200,a,0.13358037984880866,0,colour,0.14,3.9
44,20,1,1,7,12,312,540.811814043212,541.5758671604444,"[35, 0, 219]",219,a,0.2407730725858528,1,colour,0.14,3.9
44,20,1,1,7,13,313,542.0931642893461,542.6639118446451,"[66, 0, 188]",188,a,0.04742930758311559,0,colour,0.14,3.9
44,20,1,1,7,14,314,543.1713588831785,543.9519078494704,"[89, 0, 165]",165,l,0.2573981031587209,1,colour,0.14,3.9
44,20,1,1,7,15,315,544.4683735693047,545.1038942318487,"[30, 0, 224]",224,a,0.11230205788524472,1,colour,0.14,3.9
44,20,1,1,7,16,316,545.624655630837,546.4400060179682,"[73, 0, 181]",181,a,0.2921408409324613,0,colour,0.14,3.9
44,20,1,1,7,17,317,546.9528830123554,547.519871700702,"[51, 0, 203]",203,a,0.04379332060671004,0,colour,0.14,3.9
44,20,1,1,7,18,318,548.031108720028,549.5199158114629,"[19, 0, 235]",235,a,0.9627386165684584,1,colour,0.14,3.9
44,20,1,1,7,19,319,550.0340795009811,550.5838724757914,"[55, 0, 199]",199,a,0.02646606248072203,0,colour,0.14,3.9
44,20,1,1,7,20,320,551.0966836978837,551.8319061007937,"[94, 0, 160]",160,l,0.2119084875007502,1,colour,0.14,3.9
44,20,1,1,7,21,321,552.3469134086076,553.215883969795,"[82, 0, 172]",172,l,0.358311707901521,1,colour,0.14,3.9
44,20,1,1,7,22,322,553.7249883126178,555.2239192174434,"[81, 0, 173]",173,a,0.9738844605271879,0,colour,0.14,3.9
44,20,1,1,7,23,323,555.7425349430086,556.6078703049116,"[77, 0, 177]",177,a,0.3420364126450295,0,colour,0.14,3.9
44,20,1,1,7,24,324,557.1176225245299,558.1039903302913,"[99, 0, 155]",155,l,0.46309091188368257,1,colour,0.14,3.9
44,20,1,1,7,25,325,558.617819250645,559.6159075217906,"[59, 0, 195]",195,a,0.47483579572462986,0,colour,0.14,3.9
44,20,1,1,7,26,326,560.1333996044996,561.1598853592841,"[52, 0, 202]",202,a,0.5030926763138268,0,colour,0.14,3.9
44,20,1,1,7,27,327,561.6806113121256,562.3199176231547,"[58, 0, 196]",196,a,0.11644138014708005,0,colour,0.14,3.9
44,20,1,1,7,28,328,562.8370587890099,563.6719049507633,"[22, 0, 232]",232,a,0.311982412409634,1,colour,0.14,3.9
44,20,1,1,7,29,329,564.1806922474943,565.1679324223146,"[78, 0, 176]",176,l,0.4639613117119552,1,colour,0.14,3.9
44,20,1,1,7,30,330,565.6808732197665,566.3359002907764,"[61, 0, 193]",193,a,0.13177617097335315,0,colour,0.14,3.9
44,20,1,1,7,31,331,566.852753161304,567.8878948651532,"[62, 0, 192]",192,a,0.511956576106968,0,colour,0.14,3.9
44,20,1,1,7,32,332,568.39984041357,569.3838742874832,"[72, 0, 182]",182,a,0.46081526925490834,0,colour,0.14,3.9
44,20,1,1,7,33,333,569.9001560811998,570.7679009933981,"[98, 0, 156]",156,l,0.3446944798142795,1,colour,0.14,3.9
44,20,1,1,7,34,334,571.2751830104253,572.1679312407764,"[95, 0, 159]",159,l,0.36954065338250075,1,colour,0.14,3.9
44,20,1,1,7,35,335,572.6813781304363,573.5198638237807,"[75, 0, 179]",179,a,0.3151867440865317,0,colour,0.14,3.9
44,20,1,1,7,36,336,574.0408906750245,575.1278924548151,"[83, 0, 171]",171,l,0.5637780551328433,1,colour,0.14,3.9
44,20,1,1,7,37,337,575.6347621150007,576.471900854764,"[3, 0, 251]",251,a,0.31392407356543117,1,colour,0.14,3.9
44,20,1,1,7,38,338,576.9786259734396,578.231892237412,"[63, 0, 191]",191,a,0.7299822808649878,0,colour,0.14,3.9
44,20,1,1,7,39,339,578.7459570715655,579.5358909960091,"[60, 0, 194]",194,a,0.2666054367300603,0,colour,0.14,3.9
44,20,1,1,7,40,340,580.0430993638206,582.0638877412653,"[1, 0, 253]",253,a,1.4976910773780219,1,colour,0.14,3.9
44,20,1,1,7,41,341,582.5731586809779,583.6719356707572,"[57, 0, 197]",197,a,0.575513880514336,0,colour,0.14,3.9
44,20,1,1,7,42,342,584.1826484809553,585.1359651178409,"[88, 0, 166]",166,l,0.43004486300696954,1,colour,0.14,3.9
44,20,1,1,7,43,343,585.6538293850922,587.0878666657741,"[70, 0, 184]",184,a,0.9110041775256832,0,colour,0.14,3.9
44,20,1,1,7,44,344,587.6055371607558,588.5038524053953,"[91, 0, 163]",163,l,0.3750958522887231,1,colour,0.14,3.9
44,20,1,1,7,45,345,589.0119232961138,590.0158916891783,"[53, 0, 201]",201,a,0.48113418217690196,0,colour,0.14,3.9
44,20,1,1,7,46,346,590.5291538650281,591.7598464472917,"[69, 0, 185]",185,a,0.7073956022359198,0,colour,0.14,3.9
44,20,1,1,7,47,347,592.2793329665315,593.9759245832024,"[74, 0, 180]",180,l,1.173324962791412,1,colour,0.14,3.9
44,20,1,1,7,48,348,594.4859182304654,595.5039221161505,"[97, 0, 157]",157,l,0.49475889333962186,1,colour,0.14,3.9
44,20,1,1,7,49,349,596.0140016218579,596.9598997740504,"[87, 0, 167]",167,l,0.4229721751685247,1,colour,0.14,3.9
44,20,1,1,7,50,350,597.4673078218225,598.5278864683546,"[71, 0, 183]",183,a,0.537353346490363,0,colour,0.14,3.9
44,20,1,1,8,1,351,605.9361748802608,607.2558609219227,"[96, 0, 158]",158,l,0.7958538248162768,1,colour,0.06,3.8
44,20,1,1,8,2,352,607.7652307170006,608.7838513656416,"[50, 0, 204]",204,a,0.4956828562349074,1,colour,0.06,3.8
44,20,1,1,8,3,353,609.2965609754465,610.5119179791914,"[99, 0, 155]",155,l,0.6920679006389037,1,colour,0.06,3.8
44,20,1,1,8,4,354,611.0310709108044,611.9038629604702,"[97, 0, 157]",157,l,0.3495064911744521,1,colour,0.06,3.8
44,20,1,1,8,5,355,612.4219391169104,613.3838498690266,"[71, 0, 183]",183,a,0.43899462124409183,0,colour,0.06,3.8
44,20,1,1,8,6,356,613.8907289815179,615.5118892284281,"[82, 0, 172]",172,a,1.0978392422716752,0,colour,0.06,3.8
44,20,1,1,8,7,357,616.0316033906997,616.97587968475,"[98, 0, 156]",156,l,0.42112267399443226,1,colour,0.06,3.8
44,20,1,1,8,8,358,617.4847189691632,618.799882870177,"[57, 0, 197]",197,a,0.7918243856101981,0,colour,0.06,3.8
44,20,1,1,8,9,359,619.3130686398881,621.4959034100375,"[77, 0, 177]",177,a,1.6596358577949104,0,colour,0.06,3.8
44,20,1,1,8,10,360,622.017603738072,623.047899165952,"[80, 0, 174]",174,l,0.5073733893173085,1,colour,0.06,3.8
44,20,1,1,8,11,361,623.5646945349527,624.4878815531556,"[65, 0, 189]",189,a,0.4000101612286926,0,colour,0.06,3.8
44,20,1,1,8,12,362,625.0022890333953,626.0558828197645,"[95, 0, 159]",159,l,0.530343674024607,1,colour,0.06,3.8
44,20,1,1,8,13,363,626.5649599872077,627.3919048089788,"[55, 0, 199]",199,a,0.30371834019069865,0,colour,0.06,3.8
44,20,1,1,8,14,364,627.9088242394932,628.7598952842054,"[92, 0, 162]",162,l,0.32782999082746755,1,colour,0.06,3.8
44,20,1,1,8,15,365,629.2681961810322,630.1438684270538,"[61, 0, 193]",193,a,0.3524221336770097,0,colour,0.06,3.8
44,20,1,1,8,16,366,630.6590057040726,631.8158580547233,"[75, 0, 179]",179,l,0.6335719121580041,1,colour,0.06,3.8
44,20,1,1,8,17,367,632.3309437379066,633.7678844518628,"[76, 0, 178]",178,a,0.9136815431520517,0,colour,0.06,3.8
44,20,1,1,8,18,368,634.284220596338,635.279833151048,"[87, 0, 167]",167,l,0.4723163623743858,1,colour,0.06,3.8
44,20,1,1,8,19,369,635.7855842883773,637.5358846944719,"[60, 0, 194]",194,l,1.226980976840423,1,colour,0.06,3.8
44,20,1,1,8,20,370,638.0514055775693,639.1758542422931,"[91, 0, 163]",163,l,0.6010945770149192,1,colour,0.06,3.8
44,20,1,1,8,21,371,639.6922738821368,640.7838474271807,"[74, 0, 180]",180,a,0.568336035773882,0,colour,0.06,3.8
44,20,1,1,8,22,372,641.3016656144414,642.2078471467626,"[83, 0, 171]",171,l,0.3825883800441261,1,colour,0.06,3.8
44,20,1,1,8,23,373,642.724164386626,643.535858306785,"[10, 0, 244]",244,a,0.28856590009809224,1,colour,0.06,3.8
44,20,1,1,8,24,374,644.0522456512499,646.1598696054411,"[66, 0, 188]",188,a,1.5843970787650505,0,colour,0.06,3.8
44,20,1,1,8,25,375,646.6774164327549,647.8079287516694,"[68, 0, 186]",186,a,0.6073460957841235,0,colour,0.06,3.8
44,20,1,1,8,26,376,648.3194808478561,649.2638752957291,"[93, 0, 161]",161,l,0.4211967170567732,1,colour,0.06,3.8
44,20,1,1,8,27,377,649.7727342724461,650.5199169930011,"[42, 0, 212]",212,a,0.2238648666852896,1,colour,0.06,3.8
44,20,1,1,8,28,378,651.0385547739461,651.727859056668,"[54, 0, 200]",200,a,0.1661093088277994,0,colour,0.06,3.8
44,20,1,1,8,29,379,652.2417773800807,653.0718958135344,"[89, 0, 165]",165,l,0.30685414265053623,1,colour,0.06,3.8
44,20,1,1,8,30,380,653.586864130587,654.3759095382825,"[86, 0, 168]",168,l,0.26645813829736653,1,colour,0.06,3.8
44,20,1,1,8,31,381,654.8838725151759,655.7838694825609,"[58, 0, 196]",196,a,0.37677481811169855,0,colour,0.06,3.8
44,20,1,1,8,32,382,656.2902499859201,657.1999182375544,"[67, 0, 187]",187,a,0.3851838256869087,0,colour,0.06,3.8
44,20,1,1,8,33,383,657.7134797364224,658.3918421874528,"[53, 0, 201]",201,a,0.155106824840459,0,colour,0.06,3.8
44,20,1,1,8,34,384,658.9010445979479,659.7198801290083,"[79, 0, 175]",175,l,0.2955566679520416,1,colour,0.06,3.8
44,20,1,1,8,35,385,660.2292589825461,661.0398816413772,"[56, 0, 198]",198,a,0.28736585110345914,0,colour,0.06,3.8
44,20,1,1,8,36,386,661.5574847886801,662.2958701694288,"[63, 0, 191]",191,a,0.21510691148660044,0,colour,0.06,3.8
44,20,1,1,8,37,387,662.808919274551,663.4478407979636,"[69, 0, 185]",185,a,0.11563714645899381,0,colour,0.06,3.8
44,20,1,1,8,38,388,663.9651828253177,664.8079015762901,"[90, 0, 164]",164,l,0.3193756909536205,1,colour,0.06,3.8
44,20,1,1,8,39,389,665.324751689895,666.3519046199326,"[85, 0, 169]",169,l,0.5050658451564232,1,colour,0.06,3.8
44,20,1,1,8,40,390,666.8706018716352,667.6478504078077,"[52, 0, 202]",202,a,0.25418156225350685,0,colour,0.06,3.8
44,20,1,1,8,41,391,668.1676378254497,668.8718913236889,"[51, 0, 203]",203,a,0.18140156427762122,0,colour,0.06,3.8
44,20,1,1,8,42,392,669.3864390131321,670.1278770948179,"[81, 0, 173]",173,l,0.21835535392392558,1,colour,0.06,3.8
44,20,1,1,8,43,393,670.6364485638992,671.3839258813191,"[62, 0, 192]",192,a,0.22433433120795598,0,colour,0.06,3.8
44,20,1,1,8,44,394,671.9029334837301,672.6799102661098,"[59, 0, 195]",195,a,0.2538617592394985,0,colour,0.06,3.8
44,20,1,1,8,45,395,673.1997150129791,673.9679338401606,"[78, 0, 176]",176,l,0.24476824718385615,1,colour,0.06,3.8
44,20,1,1,8,46,396,674.4812168898525,675.1278806394325,"[49, 0, 205]",205,a,0.12331044956317783,1,colour,0.06,3.8
44,20,1,1,8,47,397,675.6375324283013,676.4799030193421,"[94, 0, 160]",160,l,0.3191815248378589,1,colour,0.06,3.8
44,20,1,1,8,48,398,676.9969110652237,677.7843373716996,"[88, 0, 166]",166,l,0.2628950128450924,1,colour,0.06,3.8
44,20,1,1,8,49,399,678.2977247906019,679.0638739566525,"[72, 0, 182]",182,a,0.2484818218372311,0,colour,0.06,3.8
44,20,1,1,8,50,400,679.5803306180273,680.3198774508551,"[70, 0, 184]",184,a,0.2188476615192485,0,colour,0.06,3.8
44,20,1,1,9,1,401,685.7121497182229,687.6158901925633,"[50, 0, 204]",204,a,1.379675494464209,1,colour,0.06,3.7
44,20,1,1,9,2,402,688.136910348424,688.6878576860836,"[90, 0, 164]",164,l,0.02780671452455863,1,colour,0.06,3.7
44,20,1,1,9,3,403,689.1994755545647,690.6638823061894,"[94, 0, 160]",160,l,0.9424043436497413,1,colour,0.06,3.7
44,20,1,1,9,4,404,691.1827752993918,691.9278556695913,"[95, 0, 159]",159,l,0.22171210403166697,1,colour,0.06,3.7
44,20,1,1,9,5,405,692.4485190009068,693.9598513309829,"[78, 0, 176]",176,a,0.9887848391313128,0,colour,0.06,3.7
44,20,1,1,9,6,406,694.4799443731804,695.1599180485086,"[58, 0, 196]",196,a,0.1567629475916874,0,colour,0.06,3.7
44,20,1,1,9,7,407,695.6692291605209,696.5119132530385,"[51, 0, 203]",203,a,0.31950644785092663,0,colour,0.06,3.7
44,20,1,1,9,8,408,697.0286062220589,698.295877258658,"[85, 0, 169]",169,l,0.7447184256552646,1,colour,0.06,3.7
44,20,1,1,9,9,409,698.8098613543657,700.095880251888,"[11, 0, 243]",243,a,0.7629176589944109,1,colour,0.06,3.7
44,20,1,1,9,10,410,700.6067797451265,701.4478675794967,"[54, 0, 200]",200,a,0.31786017125205035,0,colour,0.06,3.7
44,20,1,1,9,11,411,701.9675778033079,702.8238830623736,"[65, 0, 189]",189,a,0.3330460882616535,0,colour,0.06,3.7
44,20,1,1,9,12,412,703.3427512432736,704.1198808379313,"[96, 0, 158]",158,l,0.25385782077910335,1,colour,0.06,3.7
44,20,1,1,9,13,413,704.6396465940388,705.6318464724977,"[89, 0, 165]",165,l,0.4688646953618445,1,colour,0.06,3.7
44,20,1,1,9,14,414,706.1395424217517,707.135898557854,"[61, 0, 193]",193,a,0.47312610990775283,0,colour,0.06,3.7
44,20,1,1,9,15,415,707.6567603875919,708.743849601211,"[52, 0, 202]",202,a,0.5637638766738746,0,colour,0.06,3.7
44,20,1,1,9,16,416,709.2506660921763,710.3838238751855,"[73, 0, 181]",181,a,0.6098407168315134,0,colour,0.06,3.7
44,20,1,1,9,17,417,710.8914138798445,711.7438862288964,"[86, 0, 168]",168,l,0.3292119967090912,1,colour,0.06,3.7
44,20,1,1,9,18,418,712.2509662028865,713.3358565738622,"[71, 0, 183]",183,a,0.5616327755556085,0,colour,0.06,3.7
44,20,1,1,9,19,419,713.8448561536284,715.27987411104,"[81, 0, 173]",173,l,0.911871426585094,1,colour,0.06,3.7
44,20,1,1,9,20,420,715.798096778221,716.4238646303775,"[70, 0, 184]",184,a,0.1024862321260116,0,colour,0.06,3.7
44,20,1,1,9,21,421,716.9387703259035,717.9678657047893,"[88, 0, 166]",166,l,0.5058811065341615,1,colour,0.06,3.7
44,20,1,1,9,22,422,718.485796532028,719.3439162399673,"[72, 0, 182]",182,a,0.3348904694371413,0,colour,0.06,3.7
44,20,1,1,9,23,423,719.8608793873959,721.0238757368365,"[57, 0, 197]",197,a,0.6397103971030447,0,colour,0.06,3.7
44,20,1,1,9,24,424,721.5328816181404,723.7999143778629,"[18, 0, 236]",236,a,1.7437393243098995,1,colour,0.06,3.7
44,20,1,1,9,25,425,724.3143860550131,725.3518589337878,"[63, 0, 191]",191,a,0.5142526987319798,0,colour,0.06,3.7
44,20,1,1,9,26,426,725.8613941442177,727.1518741362465,"[75, 0, 179]",179,a,0.7673330673560486,0,colour,0.06,3.7
44,20,1,1,9,27,427,727.6583940611163,728.7438716565916,"[93, 0, 161]",161,l,0.5620998770023107,1,colour,0.06,3.7
44,20,1,1,9,28,428,729.2521757041868,730.1598763008242,"[87, 0, 167]",167,l,0.3846773396326171,1,colour,0.06,3.7
44,20,1,1,9,29,429,730.675073836293,731.7679128087802,"[62, 0, 192]",192,a,0.5683982634536733,0,colour,0.06,3.7
44,20,1,1,9,30,430,732.2828578889144,733.2319095666394,"[97, 0, 157]",157,l,0.4260713499429585,1,colour,0.06,3.7
44,20,1,1,9,31,431,733.7517068304332,735.0238930660639,"[77, 0, 177]",177,a,0.7491775509311083,0,colour,0.06,3.7
44,20,1,1,9,32,432,735.5366696297019,736.7118539398193,"[82, 0, 172]",172,a,0.6519223823906941,0,colour,0.06,3.7
44,20,1,1,9,33,433,737.2271625398816,738.1438333747528,"[99, 0, 155]",155,l,0.39623672197194537,1,colour,0.06,3.7
44,20,1,1,9,34,434,738.661965457336,739.6964273828576,"[66, 0, 188]",188,a,0.5111503731891389,0,colour,0.06,3.7
44,20,1,1,9,35,435,740.2090034788425,741.1599538885011,"[56, 0, 198]",198,a,0.42832375565285474,0,colour,0.06,3.7
44,20,1,1,9,36,436,741.6776929127004,742.6638429215818,"[68, 0, 186]",186,a,0.4753919063846297,0,colour,0.06,3.7
44,20,1,1,9,37,437,743.1812121243152,744.2319040527941,"[67, 0, 187]",187,a,0.5273839207611672,0,colour,0.06,3.7
44,20,1,1,9,38,438,744.7439854781073,745.6238927509871,"[59, 0, 195]",195,a,0.35604472988643465,0,colour,0.06,3.7
44,20,1,1,9,39,439,746.1348883426681,747.1759562484272,"[41, 0, 213]",213,a,0.5177981011106567,1,colour,0.06,3.7
44,20,1,1,9,40,440,747.6818578349571,749.7439011950473,"[76, 0, 178]",178,a,1.5390027738581011,0,colour,0.06,3.7
44,20,1,1,9,41,441,750.2628426313172,751.0958637103531,"[53, 0, 201]",201,a,0.30979971745500734,0,colour,0.06,3.7
44,20,1,1,9,42,442,751.6060322252738,752.5118364530535,"[91, 0, 163]",163,l,0.3825021277534688,1,colour,0.06,3.7
44,20,1,1,9,43,443,753.0268819639373,754.3678156075684,"[83, 0, 171]",171,l,0.8176736851346504,1,colour,0.06,3.7
44,20,1,1,9,44,444,754.8864360592866,755.9198440527075,"[69, 0, 185]",185,a,0.507831826149868,0,colour,0.06,3.7
44,20,1,1,9,45,445,756.4369966400991,757.2558790388421,"[60, 0, 194]",194,a,0.29570160330786166,0,colour,0.06,3.7
44,20,1,1,9,46,446,757.7652429262289,758.6638543431177,"[79, 0, 175]",175,l,0.3753152245531055,1,colour,0.06,3.7
44,20,1,1,9,47,447,759.1716192154349,760.1278191994447,"[74, 0, 180]",180,a,0.4328801609094626,0,colour,0.06,3.7
44,20,1,1,9,48,448,760.6404559477255,761.7438692935148,"[92, 0, 162]",162,l,0.5800785565379556,1,colour,0.06,3.7
44,20,1,1,9,49,449,762.2499114830944,763.3438551938252,"[80, 0, 174]",174,l,0.5706550014706409,1,colour,0.06,3.7
44,20,1,1,9,50,450,763.859511166127,764.7759212748956,"[98, 0, 156]",156,l,0.39351957789176595,1,colour,0.06,3.7
44,20,1,1,10,1,451,770.7523917287599,772.4718866763055,"[79, 0, 175]",175,l,1.195556392259732,1,colour,0.06,3.7
44,20,1,1,10,2,452,772.9877801377911,773.8318958607961,"[54, 0, 200]",200,a,0.3211011306138971,0,colour,0.06,3.7
44,20,1,1,10,3,453,774.3472139131641,775.8798178698203,"[98, 0, 156]",156,l,1.0100414995608844,1,colour,0.06,3.7
44,20,1,1,10,4,454,776.3943053008138,777.9918954354421,"[76, 0, 178]",178,a,1.0743794068912393,0,colour,0.06,3.7
44,20,1,1,10,5,455,778.5039276299958,779.8958978174232,"[8, 0, 246]",246,a,0.8689890719529103,1,colour,0.06,3.7
44,20,1,1,10,6,456,780.4116045958685,781.7678887841694,"[91, 0, 163]",163,l,0.8331282051685776,1,colour,0.06,3.7
44,20,1,1,10,7,457,782.2867707496821,784.0158452153414,"[74, 0, 180]",180,l,1.2062784578406536,1,colour,0.06,3.7
44,20,1,1,10,8,458,784.5369216911909,785.0719127489156,"[93, 0, 161]",161,a,0.01189612073403623,0,colour,0.06,3.7
44,20,1,1,10,9,459,785.5838606604088,786.4158163858083,"[53, 0, 201]",201,a,0.3086859207510315,0,colour,0.06,3.7
44,20,1,1,10,10,460,786.9277532696115,787.5278010037559,"[68, 0, 186]",186,a,0.07682558487113056,0,colour,0.06,3.7
44,20,1,1,10,11,461,788.0372468111268,788.8158812916417,"[38, 0, 216]",216,a,0.2556750265748633,1,colour,0.06,3.7
44,20,1,1,10,12,462,789.3342642541757,790.0798262981266,"[96, 0, 158]",158,l,0.22224064546662703,1,colour,0.06,3.7
44,20,1,1,10,13,463,790.5998642018731,791.6238624248394,"[57, 0, 197]",197,l,0.5006764306363038,1,colour,0.06,3.7
44,20,1,1,10,14,464,792.1325689831247,793.2638516649645,"[87, 0, 167]",167,l,0.6080309941107771,1,colour,0.06,3.7
44,20,1,1,10,15,465,793.7731891646645,794.7118614228948,"[63, 0, 191]",191,a,0.41530950590822613,0,colour,0.06,3.7
44,20,1,1,10,16,466,795.2266099738367,796.16781545003,"[69, 0, 185]",185,a,0.41801010845347264,0,colour,0.06,3.7
44,20,1,1,10,17,467,796.6799945491703,797.7918803117527,"[84, 0, 170]",170,l,0.5888404501974946,1,colour,0.06,3.7
44,20,1,1,10,18,468,798.3049365061047,799.2317996835841,"[39, 0, 215]",215,a,0.40367214204616175,1,colour,0.06,3.7
44,20,1,1,10,19,469,799.7426267091441,800.6958964783466,"[94, 0, 160]",160,l,0.4300499830055742,1,colour,0.06,3.7
44,20,1,1,10,20,470,801.2114709245102,802.3038199524785,"[73, 0, 181]",181,a,0.569141450999723,0,colour,0.06,3.7
44,20,1,1,10,21,471,802.8210044414022,803.9838278924153,"[89, 0, 165]",165,l,0.639931344751858,1,colour,0.06,3.7
44,20,1,1,10,22,472,804.492979496767,805.4238457257657,"[70, 0, 184]",184,a,0.4076397474186706,0,colour,0.06,3.7
44,20,1,1,10,23,473,805.9305665121346,806.7678868149392,"[51, 0, 203]",203,a,0.31407609815096293,0,colour,0.06,3.7
44,20,1,1,10,24,474,807.2744244628825,808.0478629321133,"[90, 0, 164]",164,l,0.25011982766864094,1,colour,0.06,3.7
44,20,1,1,10,25,475,808.5558093674713,809.2878313771653,"[77, 0, 177]",177,l,0.20857773123361767,1,colour,0.06,3.7
44,20,1,1,10,26,476,809.8072265241153,810.5198271960958,"[60, 0, 194]",194,a,0.18935371040424798,0,colour,0.06,3.7
44,20,1,1,10,27,477,811.026139170237,811.7918259609942,"[88, 0, 166]",166,l,0.24254695531362813,1,colour,0.06,3.7
44,20,1,1,10,28,478,812.3074074963874,813.0878162534764,"[81, 0, 173]",173,l,0.2577931307732797,1,colour,0.06,3.7
44,20,1,1,10,29,479,813.6043548348348,814.2638327603531,"[62, 0, 192]",192,a,0.13655706849340277,0,colour,0.06,3.7
44,20,1,1,10,30,480,814.776424610181,815.4078272181509,"[85, 0, 169]",169,l,0.10825568329755697,1,colour,0.06,3.7
44,20,1,1,10,31,481,815.9077478581667,816.5758943358237,"[83, 0, 171]",171,l,0.1448609191656942,1,colour,0.06,3.7
44,20,1,1,10,32,482,817.0953690396814,817.8158556916469,"[71, 0, 183]",183,a,0.19804077330900327,0,colour,0.06,3.7
44,20,1,1,10,33,483,818.3297968581323,819.2638827788046,"[80, 0, 174]",174,a,0.41694554250898364,0,colour,0.06,3.7
44,20,1,1,10,34,484,819.7712538050455,820.4638506409647,"[99, 0, 155]",155,l,0.16962399121257477,1,colour,0.06,3.7
44,20,1,1,10,35,485,820.9807830683994,821.7758799210574,"[50, 0, 204]",204,a,0.2804873293807759,1,colour,0.06,3.7
44,20,1,1,10,36,486,822.2847034516276,823.1518678347093,"[58, 0, 196]",196,a,0.3427067386669478,0,colour,0.06,3.7
44,20,1,1,10,37,487,823.6610328298275,824.6398702986103,"[82, 0, 172]",172,l,0.4556263471999955,1,colour,0.06,3.7
44,20,1,1,10,38,488,825.1611259744245,825.9918761369845,"[97, 0, 157]",157,l,0.31558492246949754,1,colour,0.06,3.7
44,20,1,1,10,39,489,826.5126245390525,827.9838562493328,"[78, 0, 176]",176,a,0.9479918379338415,0,colour,0.06,3.7
44,20,1,1,10,40,490,828.4908405187266,829.2479036557975,"[92, 0, 162]",162,l,0.2338504401031969,1,colour,0.06,3.7
44,20,1,1,10,41,491,829.7564731556486,830.687839175318,"[59, 0, 195]",195,a,0.4080001165784779,0,colour,0.06,3.7
44,20,1,1,10,42,492,831.2003333513189,832.2798575695051,"[61, 0, 193]",193,a,0.5562496873849341,0,colour,0.06,3.7
44,20,1,1,10,43,493,832.7959995478645,834.0238729799144,"[55, 0, 199]",199,a,0.7046402550863604,0,colour,0.06,3.7
44,20,1,1,10,44,494,834.538770404673,835.5358232544841,"[67, 0, 187]",187,a,0.4737917097763784,0,colour,0.06,3.7
44,20,1,1,10,45,495,836.0545279892622,836.903882652774,"[95, 0, 159]",159,l,0.3262542126763037,1,colour,0.06,3.7
44,20,1,1,10,46,496,837.4140235984692,838.199857585259,"[52, 0, 202]",202,a,0.262459025238968,0,colour,0.06,3.7
44,20,1,1,10,47,497,838.7110292261359,840.0558261059296,"[86, 0, 168]",168,l,0.8215243182230552,1,colour,0.06,3.7
44,20,1,1,10,48,498,840.5718172412421,841.6878537476227,"[56, 0, 198]",198,a,0.5927623694251452,0,colour,0.06,3.7
44,20,1,1,10,49,499,842.1969927488999,843.5598876435915,"[75, 0, 179]",179,a,0.8396298161960658,0,colour,0.06,3.7
44,20,1,1,10,50,500,844.0720970688794,844.8798363805859,"[64, 0, 190]",190,a,0.28448801782360533,0,colour,0.06,3.7
44,20,1,1,11,1,501,859.3075197425192,861.0398686444564,"[88, 0, 166]",166,l,1.208279983599823,1,colour,0.06,3.6
44,20,1,1,11,2,502,861.5592665483291,862.5278648068206,"[98, 0, 156]",156,l,0.44542573382386763,1,colour,0.06,3.6
44,20,1,1,11,3,503,863.0435605575758,863.9038700496994,"[58, 0, 196]",196,a,0.34942811580503985,0,colour,0.06,3.6
44,20,1,1,11,4,504,864.4220104030501,865.71983877517,"[95, 0, 159]",159,l,0.7746381243787255,1,colour,0.06,3.6
44,20,1,1,11,5,505,866.2346093814922,866.8398361915401,"[51, 0, 203]",203,a,0.08061123335664888,0,colour,0.06,3.6
44,20,1,1,11,6,506,867.3610052212175,868.1598570023666,"[54, 0, 200]",200,a,0.275609939572405,0,colour,0.06,3.6
44,20,1,1,11,7,507,868.6736134550424,869.2958500832788,"[68, 0, 186]",186,a,0.09930080506092054,0,colour,0.06,3.6
44,20,1,1,11,8,508,869.8143200857953,870.5198157745594,"[84, 0, 170]",170,l,0.18220343488928847,1,colour,0.06,3.6
44,20,1,1,11,9,509,871.0332709349868,871.6158606541076,"[90, 0, 164]",164,l,0.05940104676437841,1,colour,0.06,3.6
44,20,1,1,11,10,510,872.1269854273014,873.7438303027534,"[50, 0, 204]",204,a,1.0935388369648535,1,colour,0.06,3.6
44,20,1,1,11,11,511,874.2521997287977,875.0238544691488,"[82, 0, 172]",172,l,0.24846331107210062,1,colour,0.06,3.6
44,20,1,1,11,12,512,875.5335712426199,876.5358618513997,"[77, 0, 177]",177,a,0.47902513643839484,0,colour,0.06,3.6
44,20,1,1,11,13,513,877.0492665995289,877.751789931955,"[65, 0, 189]",189,a,0.17924289393340587,0,colour,0.06,3.6
44,20,1,1,11,14,514,878.2681906671869,879.103845394935,"[70, 0, 184]",184,a,0.3111387941139583,0,colour,0.06,3.6
44,20,1,1,11,15,515,879.6134723715008,880.3678337244883,"[71, 0, 183]",183,a,0.23113487140744837,0,colour,0.06,3.6
44,20,1,1,11,16,516,880.879190473021,881.5118569330498,"[91, 0, 163]",163,l,0.10944470460162847,1,colour,0.06,3.6
44,20,1,1,11,17,517,882.0199238853074,883.9758280909136,"[61, 0, 193]",193,a,1.4331247393229205,0,colour,0.06,3.6
44,20,1,1,11,18,518,884.4888039406665,887.2478658465743,"[81, 0, 173]",173,l,2.23579643356652,1,colour,0.06,3.6
44,20,1,1,11,19,519,887.7560753711114,888.3358932015472,"[62, 0, 192]",192,a,0.05658189655014212,0,colour,0.06,3.6
44,20,1,1,11,20,520,888.8498804480237,889.8638304760457,"[75, 0, 179]",179,a,0.49062193415466027,0,colour,0.06,3.6
44,20,1,1,11,21,521,890.3813394941362,891.1518060008752,"[72, 0, 182]",182,a,0.24720772978071182,0,colour,0.06,3.6
44,20,1,1,11,22,522,891.6625786756767,892.4798344901251,"[39, 0, 215]",215,a,0.29393284057960045,1,colour,0.06,3.6
44,20,1,1,11,23,523,892.9908572571849,893.6398301263102,"[83, 0, 171]",171,l,0.1256605291005144,1,colour,0.06,3.6
44,20,1,1,11,24,524,894.1471802787091,895.0078599861445,"[67, 0, 187]",187,a,0.3373827274076575,0,colour,0.06,3.6
44,20,1,1,11,25,525,895.5223037002233,896.2238278451537,"[66, 0, 188]",188,a,0.17828427258382362,0,colour,0.06,3.6
44,20,1,1,11,26,526,896.7307841514762,897.5998701095641,"[73, 0, 181]",181,a,0.3459335195702806,0,colour,0.06,3.6
44,20,1,1,11,27,527,898.1215113606868,898.8398909361445,"[85, 0, 169]",169,l,0.1952747923151037,1,colour,0.06,3.6
44,20,1,1,11,28,528,899.3559419360608,900.6878568983911,"[87, 0, 167]",167,l,0.8130223629741522,1,colour,0.06,3.6
44,20,1,1,11,29,529,901.1954409953591,902.120190794793,"[94, 0, 160]",160,l,0.4022519330947034,1,colour,0.06,3.6
44,20,1,1,11,30,530,902.6205832624082,903.3518108845665,"[74, 0, 180]",180,a,0.2081354420902244,0,colour,0.06,3.6
44,20,1,1,11,31,531,903.8707657116029,904.543830145215,"[64, 0, 190]",190,a,0.15003093660925515,0,colour,0.06,3.6
44,20,1,1,11,32,532,905.0582829177533,905.8798379559703,"[76, 0, 178]",178,a,0.2967547477160224,0,colour,0.06,3.6
44,20,1,1,11,33,533,906.3880033697469,907.2078408452253,"[60, 0, 194]",194,a,0.2968394246227035,0,colour,0.06,3.6
44,20,1,1,11,34,534,907.7037875783312,908.3597965076092,"[69, 0, 185]",185,a,0.1332007122309733,0,colour,0.06,3.6
44,20,1,1,11,35,535,908.8757683444642,909.5278179391375,"[52, 0, 202]",202,a,0.1287337100343393,0,colour,0.06,3.6
44,20,1,1,11,36,536,910.0477691967471,910.6718305138547,"[89, 0, 165]",165,l,0.10301674279025974,1,colour,0.06,3.6
44,20,1,1,11,37,537,911.1862884063926,912.2877872664048,"[43, 0, 211]",211,a,0.5758888219788787,1,colour,0.06,3.6
44,20,1,1,11,38,538,912.7981298612913,913.5518295528705,"[53, 0, 201]",201,a,0.2279183305022343,0,colour,0.06,3.6
44,20,1,1,11,39,539,914.0662894146385,914.7198435013233,"[59, 0, 195]",195,a,0.13061826350940464,0,colour,0.06,3.6
44,20,1,1,11,40,540,915.238227645395,915.8958903343478,"[55, 0, 199]",199,a,0.13503012725550434,0,colour,0.06,3.6
44,20,1,1,11,41,541,916.4102997838177,917.0477928275113,"[97, 0, 157]",157,l,0.11424686980944898,1,colour,0.06,3.6
44,20,1,1,11,42,542,917.5541579708733,918.655797040089,"[86, 0, 168]",168,l,0.5785614614524093,1,colour,0.06,3.6
44,20,1,1,11,43,543,919.1636729769998,920.1998654621802,"[46, 0, 208]",208,a,0.5130105082071168,1,colour,0.06,3.6
44,20,1,1,11,44,544,920.7105404631552,921.5357984421812,"[63, 0, 191]",191,a,0.3020058974511812,0,colour,0.06,3.6
44,20,1,1,11,45,545,922.0544779708107,922.5918151696119,"[92, 0, 162]",162,l,0.014376169476690848,1,colour,0.06,3.6
44,20,1,1,11,46,546,923.1014295431032,923.7518017473376,"[93, 0, 161]",161,l,0.12715990111337305,1,colour,0.06,3.6
44,20,1,1,11,47,547,924.2578108538464,924.9118572481266,"[56, 0, 198]",198,a,0.13150205410420313,0,colour,0.06,3.6
44,20,1,1,11,48,548,925.4297998907473,926.303842401705,"[78, 0, 176]",176,l,0.35082548168384164,1,colour,0.06,3.6
44,20,1,1,11,49,549,926.8218945335348,927.4238323349991,"[79, 0, 175]",175,l,0.07870856296176498,1,colour,0.06,3.6
44,20,1,1,11,50,550,927.9313542042873,928.5438013944513,"[57, 0, 197]",197,a,0.08916163167259583,0,colour,0.06,3.6
44,20,1,1,12,1,551,934.5418384656073,938.0238016937742,"[58, 0, 196]",196,a,2.957884463678056,0,colour,0.06,3.5
44,20,1,1,12,2,552,938.5436450375591,939.743827151985,"[72, 0, 182]",182,a,0.6769024636255381,0,colour,0.06,3.5
44,20,1,1,12,3,553,940.2580680353344,941.0878576073142,"[89, 0, 165]",165,l,0.3173544728902016,1,colour,0.06,3.5
44,20,1,1,12,4,554,941.6066718313014,942.7758302964517,"[85, 0, 169]",169,l,0.6458744820429274,1,colour,0.06,3.5
44,20,1,1,12,5,555,943.2949280896141,945.831834026962,"[87, 0, 167]",167,l,2.0137117511462748,1,colour,0.06,3.5
44,20,1,1,12,6,556,946.3420403511059,947.2158142590397,"[95, 0, 159]",159,l,0.3504741709834889,1,colour,0.06,3.5
44,20,1,1,12,7,557,947.7327841018518,948.7518521596353,"[71, 0, 183]",183,a,0.49575099160620084,0,colour,0.06,3.5
44,20,1,1,12,8,558,949.2641950987431,950.231814649735,"[40, 0, 214]",214,a,0.444387161720897,1,colour,0.06,3.5
44,20,1,1,12,9,559,950.7485647264366,951.6158051218108,"[93, 0, 161]",161,l,0.343933963040854,1,colour,0.06,3.5
44,20,1,1,12,10,560,952.1257400860081,953.4318372564999,"[61, 0, 193]",193,a,0.7828159443070035,0,colour,0.06,3.5
44,20,1,1,12,11,561,953.9383729352126,955.1838063884197,"[92, 0, 162]",162,l,0.7222711685376453,1,colour,0.06,3.5
44,20,1,1,12,12,562,955.7043641689866,956.9437993464517,"[52, 0, 202]",202,a,0.7166517727205246,0,colour,0.06,3.5
44,20,1,1,12,13,563,957.4542707290052,958.4237831042396,"[84, 0, 170]",170,l,0.44640089670883754,1,colour,0.06,3.5
44,20,1,1,12,14,564,958.9388223135857,959.8398539146133,"[66, 0, 188]",188,a,0.37781378406134536,0,colour,0.06,3.5
44,20,1,1,12,15,565,960.360657848978,961.2958548094316,"[65, 0, 189]",189,a,0.410592017606632,0,colour,0.06,3.5
44,20,1,1,12,16,566,961.8028461680551,962.6638007800516,"[97, 0, 157]",157,l,0.33765487504660996,1,colour,0.06,3.5
44,20,1,1,12,17,567,963.1780341803255,966.3518199430264,"[80, 0, 174]",174,l,2.6505691272727745,1,colour,0.06,3.5
44,20,1,1,12,18,568,966.8658501187247,967.9358164803316,"[94, 0, 160]",160,l,0.5467394861807406,1,colour,0.06,3.5
44,20,1,1,12,19,569,968.4440579064008,969.7118157367499,"[98, 0, 156]",156,l,0.7445006287748583,1,colour,0.06,3.5
44,20,1,1,12,20,570,970.2253689648505,971.6078746372186,"[83, 0, 171]",171,l,0.8591058985148265,1,colour,0.06,3.5
44,20,1,1,12,21,571,972.1175169737812,973.0157656584338,"[56, 0, 198]",198,a,0.3749599753923576,0,colour,0.06,3.5
44,20,1,1,12,22,572,973.5238905060646,974.480009751629,"[67, 0, 187]",187,a,0.432865588605182,0,colour,0.06,3.5
44,20,1,1,12,23,573,974.9927264506632,975.8718353975464,"[39, 0, 215]",215,a,0.35575722225121353,1,colour,0.06,3.5
44,20,1,1,12,24,574,976.3848061272997,977.567784257421,"[88, 0, 166]",166,l,0.659642553177946,1,colour,0.06,3.5
44,20,1,1,12,25,575,978.0868635398178,979.2957701325254,"[74, 0, 180]",180,a,0.6857131941983425,0,colour,0.06,3.5
44,20,1,1,12,26,576,979.8056538967326,980.895794629751,"[51, 0, 203]",203,a,0.5668303622237545,0,colour,0.06,3.5
44,20,1,1,12,27,577,981.4165753271973,982.2798634771962,"[68, 0, 186]",186,a,0.33996478228391425,0,colour,0.06,3.5
44,20,1,1,12,28,578,982.7916908717903,983.7438421181355,"[6, 0, 248]",248,a,0.4288349678599843,1,colour,0.06,3.5
44,20,1,1,12,29,579,984.2604941271643,985.1118077810593,"[54, 0, 200]",200,a,0.3280363661710908,0,colour,0.06,3.5
44,20,1,1,12,30,580,985.621877834461,986.6078888156771,"[57, 0, 197]",197,a,0.46288374884716177,0,colour,0.06,3.5
44,20,1,1,12,31,581,987.1211056992283,988.1278274702122,"[63, 0, 191]",191,a,0.4837020585937353,0,colour,0.06,3.5
44,20,1,1,12,32,582,988.6368408345911,989.4958218838997,"[69, 0, 185]",185,a,0.3357762292625921,0,colour,0.06,3.5
44,20,1,1,12,33,583,990.0132852158454,991.0159133507123,"[59, 0, 195]",195,a,0.479793923978832,0,colour,0.06,3.5
44,20,1,1,12,34,584,991.5290325604365,992.439790190318,"[70, 0, 184]",184,a,0.387486643694956,0,colour,0.06,3.5
44,20,1,1,12,35,585,992.9510303604125,993.7357997812578,"[50, 0, 204]",204,a,0.2614744100478674,1,colour,0.06,3.5
44,20,1,1,12,36,586,994.2481171203708,994.9917642846985,"[77, 0, 177]",177,l,0.22044746428082362,1,colour,0.06,3.5
44,20,1,1,12,37,587,995.4980703511492,996.2158292251906,"[62, 0, 192]",192,a,0.19448040477936956,0,colour,0.06,3.5
44,20,1,1,12,38,588,996.7325942680432,997.5598159636056,"[76, 0, 178]",178,l,0.30394716476121175,1,colour,0.06,3.5
44,20,1,1,12,39,589,998.0765061757033,999.047780618283,"[78, 0, 176]",176,l,0.44803969023223544,1,colour,0.06,3.5
44,20,1,1,12,40,590,999.5609159756964,1000.8558342191586,"[75, 0, 179]",179,l,0.7715803034425335,1,colour,0.06,3.5
44,20,1,1,12,41,591,1001.3742278155369,1002.3678022168019,"[73, 0, 181]",181,a,0.470348707377525,0,colour,0.06,3.5
44,20,1,1,12,42,592,1002.8743142647504,1003.5117852530639,"[91, 0, 163]",163,l,0.11416061751924644,1,colour,0.06,3.5
44,20,1,1,12,43,593,1004.0306455570421,1004.8238046870047,"[99, 0, 155]",155,l,0.26988735608392744,1,colour,0.06,3.5
44,20,1,1,12,44,594,1005.3432419754845,1005.9438383372135,"[53, 0, 201]",201,a,0.07810991692622338,0,colour,0.06,3.5
44,20,1,1,12,45,595,1006.4527288216163,1007.167767006963,"[82, 0, 172]",172,l,0.19177665146571599,1,colour,0.06,3.5
44,20,1,1,12,46,596,1007.688955335098,1008.5358642144761,"[79, 0, 175]",175,l,0.32365640395710216,1,colour,0.06,3.5
44,20,1,1,12,47,597,1009.0484954489116,1009.863821811432,"[86, 0, 168]",168,l,0.2920415917210448,1,colour,0.06,3.5
44,20,1,1,12,48,598,1010.3794970821914,1010.9998042585003,"[55, 0, 199]",199,a,0.09701649781845845,0,colour,0.06,3.5
44,20,1,1,12,49,599,1011.520252549858,1012.1277809963753,"[96, 0, 158]",158,l,0.08445477721488714,1,colour,0.06,3.5
44,20,1,1,12,50,600,1012.6453061621551,1013.3758469167565,"[64, 0, 190]",190,a,0.20732648224975492,0,colour,0.06,3.5
44,20,1,1,13,1,601,1029.5706679983914,1030.9358393234038,"[55, 0, 199]",199,a,0.8413194158629267,0,colour,0.06,3.5
44,20,1,1,13,2,602,1031.4466994320346,1032.295830390975,"[75, 0, 179]",179,l,0.325895812746694,1,colour,0.06,3.5
44,20,1,1,13,3,603,1032.8062048873935,1035.2078298175352,"[91, 0, 163]",163,l,1.878463039318376,1,colour,0.06,3.5
44,20,1,1,13,4,604,1035.7140543578475,1037.671836815392,"[76, 0, 178]",178,l,1.434519348279082,1,colour,0.06,3.5
44,20,1,1,13,5,605,1038.171256877045,1038.7198135690214,"[69, 0, 185]",185,a,0.025519256513234723,0,colour,0.06,3.5
44,20,1,1,13,6,606,1039.2337964831909,1040.1758262792218,"[61, 0, 193]",193,a,0.4187595975363365,0,colour,0.06,3.5
44,20,1,1,13,7,607,1040.6996037514627,1041.8477997592026,"[64, 0, 190]",190,a,0.6252936614805549,0,colour,0.06,3.5
44,20,1,1,13,8,608,1042.355958871442,1044.0077678261628,"[98, 0, 156]",156,l,1.128871950006669,1,colour,0.06,3.5
44,20,1,1,13,9,609,1044.5157434061307,1045.8957969928279,"[86, 0, 168]",168,l,0.8568944527964959,1,colour,0.06,3.5
44,20,1,1,13,10,610,1046.4037832066397,1048.39178823054,"[4, 0, 250]",250,a,1.464801779238769,1,colour,0.06,3.5
44,20,1,1,13,11,611,1048.9040783942737,1049.8477584053644,"[80, 0, 174]",174,l,0.4205736525636894,1,colour,0.06,3.5
44,20,1,1,13,12,612,1050.357310551176,1051.3757768121545,"[83, 0, 171]",171,l,0.4959762715616307,1,colour,0.06,3.5
44,20,1,1,13,13,613,1051.8897817817046,1053.6958007737499,"[52, 0, 202]",202,a,1.282730282785451,0,colour,0.06,3.5
44,20,1,1,13,14,614,1054.2024565755164,1055.3438028122973,"[62, 0, 192]",192,a,0.6179712752305022,0,colour,0.06,3.5
44,20,1,1,13,15,615,1055.8602476582896,1057.3837777951944,"[72, 0, 182]",182,a,1.0002520614889363,0,colour,0.06,3.5
44,20,1,1,13,16,616,1057.8916694859481,1058.839790899241,"[74, 0, 180]",180,a,0.4248122240369412,0,colour,0.06,3.5
44,20,1,1,13,17,617,1059.3604849505505,1060.2157862959684,"[79, 0, 175]",175,l,0.33193032232793485,1,colour,0.06,3.5
44,20,1,1,13,18,618,1060.7356650858997,1061.5117651669138,"[81, 0, 173]",173,l,0.25287832558706214,1,colour,0.06,3.5
44,20,1,1,13,19,619,1062.018348501002,1062.7357863904913,"[53, 0, 201]",201,a,0.19452963553885638,0,colour,0.06,3.5
44,20,1,1,13,20,620,1063.252810584062,1064.27978982798,"[71, 0, 183]",183,a,0.5037287377276698,0,colour,0.06,3.5
44,20,1,1,13,21,621,1064.799848605568,1065.5357748114166,"[54, 0, 200]",200,a,0.21271390272704593,0,colour,0.06,3.5
44,20,1,1,13,22,622,1066.0498617009503,1066.7757779149238,"[82, 0, 172]",172,l,0.2150096315058363,1,colour,0.06,3.5
44,20,1,1,13,23,623,1067.287678958734,1068.1277951748343,"[63, 0, 191]",191,a,0.3170212791096674,0,colour,0.06,3.5
44,20,1,1,13,24,624,1068.6471217925668,1069.7358143535625,"[92, 0, 162]",162,l,0.5653766763566637,1,colour,0.06,3.5
44,20,1,1,13,25,625,1070.2566525525363,1071.0797605258317,"[70, 0, 184]",184,a,0.2998381686470566,0,colour,0.06,3.5
44,20,1,1,13,26,626,1071.6004242509935,1072.9037609543361,"[65, 0, 189]",189,a,0.7800385417767757,0,colour,0.06,3.5
44,20,1,1,13,27,627,1073.413170921714,1074.6397682924762,"[93, 0, 161]",161,l,0.7033003907345119,1,colour,0.06,3.5
44,20,1,1,13,28,628,1075.147645017079,1076.0077776723147,"[20, 0, 234]",234,a,0.33712357668946424,1,colour,0.06,3.5
44,20,1,1,13,29,629,1076.5227436262903,1077.879778879059,"[60, 0, 194]",194,a,0.8338702111764178,0,colour,0.06,3.5
44,20,1,1,13,30,630,1078.3979330170223,1079.255798694243,"[56, 0, 198]",198,a,0.3345805125750303,0,colour,0.06,3.5
44,20,1,1,13,31,631,1079.7743482536666,1080.5598226589887,"[57, 0, 197]",197,a,0.26214631145421663,0,colour,0.06,3.5
44,20,1,1,13,32,632,1081.07135821364,1081.719791907487,"[85, 0, 169]",169,l,0.12539468299928558,1,colour,0.06,3.5
44,20,1,1,13,33,633,1082.22756623211,1083.0637947935911,"[97, 0, 157]",157,l,0.3128390276256141,1,colour,0.06,3.5
44,20,1,1,13,34,634,1083.5715108289946,1084.2877541833345,"[43, 0, 211]",211,a,0.19324175886913508,1,colour,0.06,3.5
44,20,1,1,13,35,635,1084.80596030898,1085.5758006004576,"[96, 0, 158]",158,l,0.24655473298616926,1,colour,0.06,3.5
44,20,1,1,13,36,636,1086.0873649058726,1086.8078424993787,"[67, 0, 187]",187,a,0.19779028720449787,0,colour,0.06,3.5
44,20,1,1,13,37,637,1087.321860465849,1088.0957896672908,"[59, 0, 195]",195,l,0.2508547444472242,1,colour,0.06,3.5
44,20,1,1,13,38,638,1088.6031835366039,1089.5119045884248,"[84, 0, 170]",170,l,0.38552253331226893,1,colour,0.06,3.5
44,20,1,1,13,39,639,1090.0251431335105,1091.3998683766413,"[73, 0, 181]",181,a,0.8514625277121013,0,colour,0.06,3.5
44,20,1,1,13,40,640,1091.9172895670567,1092.7277960412957,"[90, 0, 164]",164,l,0.287268571122695,1,colour,0.06,3.5
44,20,1,1,13,41,641,1093.2455334901101,1094.119786708719,"[87, 0, 167]",167,l,0.35112244162519346,1,colour,0.06,3.5
44,20,1,1,13,42,642,1094.636266213166,1095.375772479848,"[89, 0, 165]",165,l,0.2160635636059851,1,colour,0.06,3.5
44,20,1,1,13,43,643,1095.886330114692,1096.647794875511,"[50, 0, 204]",204,a,0.23827136230966062,1,colour,0.06,3.5
44,20,1,1,13,44,644,1097.1676228592987,1097.863847805273,"[77, 0, 177]",177,a,0.17229781222431484,0,colour,0.06,3.5
44,20,1,1,13,45,645,1098.3713830653278,1099.0717776597116,"[66, 0, 188]",188,a,0.17725712201718125,0,colour,0.06,3.5
44,20,1,1,13,46,646,1099.5902866529896,1100.2157937790435,"[58, 0, 196]",196,a,0.10228103831968838,0,colour,0.06,3.5
44,20,1,1,13,47,647,1100.730999191434,1101.4397803441661,"[78, 0, 176]",176,l,0.1854948065483768,1,colour,0.06,3.5
44,20,1,1,13,48,648,1101.9498598498735,1102.6637787246714,"[95, 0, 159]",159,l,0.19055297170643826,1,colour,0.06,3.5
44,20,1,1,13,49,649,1103.1843506836972,1103.7597873703803,"[94, 0, 160]",160,l,0.052186574338520586,1,colour,0.06,3.5
44,20,1,1,13,50,650,1104.278175846759,1104.9357522834212,"[51, 0, 203]",203,a,0.1343440473906412,0,colour,0.06,3.5
44,20,1,1,14,1,651,1113.5170986304788,1114.6078061080011,"[71, 0, 183]",183,l,0.566480233062066,1,colour,0.06,3.4
44,20,1,1,14,2,652,1115.117500826092,1116.015793621505,"[77, 0, 177]",177,l,0.37508600613682574,1,colour,0.06,3.4
44,20,1,1,14,3,653,1116.5237881060848,1117.4397508057104,"[92, 0, 162]",162,a,0.39252984270160596,0,colour,0.06,3.4
44,20,1,1,14,4,654,1117.9458745214279,1120.087829644243,"[89, 0, 165]",165,l,1.6186750781689625,1,colour,0.06,3.4
44,20,1,1,14,5,655,1120.6023474013837,1121.319744330881,"[64, 0, 190]",190,a,0.19422125406072155,0,colour,0.06,3.4
44,20,1,1,14,6,656,1121.8380528565067,1123.0157648707418,"[58, 0, 196]",196,a,0.654731686453033,0,colour,0.06,3.4
44,20,1,1,14,7,657,1123.5257691518486,1124.7117995890608,"[84, 0, 170]",170,l,0.6627247925707707,1,colour,0.06,3.4
44,20,1,1,14,8,658,1125.2289852595227,1126.3757772060007,"[88, 0, 166]",166,l,0.6234646403022452,1,colour,0.06,3.4
44,20,1,1,14,9,659,1126.8853777948793,1127.4317817242031,"[83, 0, 171]",171,l,0.023083318531462282,1,colour,0.06,3.4
44,20,1,1,14,10,660,1127.9480375240787,1128.7277700474547,"[76, 0, 178]",178,l,0.256389463357209,1,colour,0.06,3.4
44,20,1,1,14,11,661,1129.2419018354408,1129.8957741497552,"[55, 0, 199]",199,a,0.13082700192944685,0,colour,0.06,3.4
44,20,1,1,14,12,662,1130.402478788435,1131.2157453359764,"[66, 0, 188]",188,a,0.29005818288078444,0,colour,0.06,3.4
44,20,1,1,14,13,663,1131.7307101084139,1132.4157809396615,"[57, 0, 197]",197,a,0.16174431276431278,0,colour,0.06,3.4
44,20,1,1,14,14,664,1132.9338823022508,1133.6078057141553,"[52, 0, 202]",202,a,0.15309742215958977,0,colour,0.06,3.4
44,20,1,1,14,15,665,1134.119096296547,1134.8077865732357,"[91, 0, 163]",163,l,0.16560873046455526,1,colour,0.06,3.4
44,20,1,1,14,16,666,1135.3223200842199,1136.0077737338538,"[60, 0, 194]",194,a,0.17445057487748272,0,colour,0.06,3.4
44,20,1,1,14,17,667,1136.5289711204487,1137.239873528148,"[65, 0, 189]",189,a,0.18763457228124025,0,colour,0.06,3.4
44,20,1,1,14,18,668,1137.7477750650537,1138.327765793917,"[90, 0, 164]",164,l,0.05660040731572735,1,colour,0.06,3.4
44,20,1,1,14,19,669,1138.8416754527161,1139.5677956789573,"[56, 0, 198]",198,a,0.2028449077474761,0,colour,0.06,3.4
44,20,1,1,14,20,670,1140.0762261511431,1140.71982774748,"[73, 0, 181]",181,a,0.12045073320359734,0,colour,0.06,3.4
44,20,1,1,14,21,671,1141.235677885897,1142.6637558815987,"[63, 0, 191]",191,a,0.9048672679646188,0,colour,0.06,3.4
44,20,1,1,14,22,672,1143.1732887289522,1143.7918113886894,"[70, 0, 184]",184,a,0.09529578431101982,0,colour,0.06,3.4
44,20,1,1,14,23,673,1144.2983427350955,1144.9117591804534,"[54, 0, 200]",200,a,0.09010331764102375,0,colour,0.06,3.4
44,20,1,1,14,24,674,1145.4234944150658,1146.1437553932296,"[82, 0, 172]",172,l,0.20033374516515323,1,colour,0.06,3.4
44,20,1,1,14,25,675,1146.6546667018501,1147.4877590670258,"[81, 0, 173]",173,l,0.3104149050259366,1,colour,0.06,3.4
44,20,1,1,14,26,676,1147.9984840864522,1148.799758414817,"[93, 0, 161]",161,l,0.2886131616273815,1,colour,0.06,3.4
44,20,1,1,14,27,677,1149.3162773038716,1149.8877778928681,"[43, 0, 211]",211,a,0.04819061204852915,1,colour,0.06,3.4
44,20,1,1,14,28,678,1150.3963536942565,1151.1838406530283,"[62, 0, 192]",192,a,0.27058052517804754,0,colour,0.06,3.4
44,20,1,1,14,29,679,1151.702403603219,1152.4559213379107,"[53, 0, 201]",201,a,0.23025344388815938,0,colour,0.06,3.4
44,20,1,1,14,30,680,1152.9588741988678,1153.7437842227623,"[9, 0, 245]",245,a,0.26160241002253315,1,colour,0.06,3.4
44,20,1,1,14,31,681,1154.259314558166,1154.8718334283158,"[85, 0, 169]",169,l,0.08918683782167136,1,colour,0.06,3.4
44,20,1,1,14,32,682,1155.3844630873673,1156.007769795393,"[86, 0, 168]",168,a,0.10036655254316429,0,colour,0.06,3.4
44,20,1,1,14,33,683,1156.5251185181305,1157.4157588842813,"[79, 0, 175]",175,l,0.36757024146299955,1,colour,0.06,3.4
44,20,1,1,14,34,684,1157.9317074842174,1158.5037622146438,"[59, 0, 195]",195,a,0.048821947309079405,0,colour,0.06,3.4
44,20,1,1,14,35,685,1159.0097106688568,1159.7197923013332,"[51, 0, 203]",203,a,0.18677401860441023,0,colour,0.06,3.4
44,20,1,1,14,36,686,1160.2291967548658,1161.0238209922322,"[96, 0, 158]",158,l,0.2723406232930756,1,colour,0.06,3.4
44,20,1,1,14,37,687,1161.5412429703397,1162.2558152357778,"[72, 0, 182]",182,a,0.19123590080289432,0,colour,0.06,3.4
44,20,1,1,14,38,688,1162.775682210327,1163.7998005563468,"[61, 0, 193]",193,a,0.5007611075420755,0,colour,0.06,3.4
44,20,1,1,14,39,689,1164.3083483946639,1166.11978355795,"[94, 0, 160]",160,l,1.2881125832636826,1,colour,0.06,3.4
44,20,1,1,14,40,690,1166.6365572654163,1167.2157725113557,"[15, 0, 239]",239,a,0.06806250967383676,1,colour,0.06,3.4
44,20,1,1,14,41,691,1167.733869541638,1168.5997716480451,"[67, 0, 187]",187,a,0.34302851091160846,0,colour,0.06,3.4
44,20,1,1,14,42,692,1169.1089315231643,1170.2717644264835,"[78, 0, 176]",176,l,0.6394776340721364,1,colour,0.06,3.4
44,20,1,1,14,43,693,1170.7779342221916,1171.8877633205634,"[74, 0, 180]",180,a,0.5864557122054066,0,colour,0.06,3.4
44,20,1,1,14,44,694,1172.3915215967463,1173.1037800164863,"[80, 0, 174]",174,l,0.18893465817882316,1,colour,0.06,3.4
44,20,1,1,14,45,695,1173.6104346367142,1174.8397723884755,"[75, 0, 179]",179,l,0.7060017809717465,1,colour,0.06,3.4
44,20,1,1,14,46,696,1175.3605156705444,1176.0238009060822,"[69, 0, 185]",185,a,0.14402478394595164,0,colour,0.06,3.4
44,20,1,1,14,47,697,1176.5441054436224,1177.263739812679,"[95, 0, 159]",159,l,0.1962976105751295,1,colour,0.06,3.4
44,20,1,1,14,48,698,1177.778609668212,1178.3677458968132,"[50, 0, 204]",204,a,0.06596527931787932,1,colour,0.06,3.4
44,20,1,1,14,49,699,1178.8712387207406,1179.855767265326,"[99, 0, 155]",155,l,0.46142848759564004,1,colour,0.06,3.4
44,20,1,1,14,50,700,1180.3714173299363,1181.2638457572734,"[87, 0, 167]",167,l,0.36707123848464107,1,colour,0.06,3.4
44,20,1,1,15,1,701,1187.1231351880597,1189.5437371975408,"[72, 0, 182]",182,a,1.896801300322295,0,colour,0.06,3.4
44,20,1,1,15,2,702,1190.0617129232319,1190.7197730028756,"[85, 0, 169]",169,l,0.1347768842288133,1,colour,0.06,3.4
44,20,1,1,15,3,703,1191.233683055521,1191.8717432375643,"[90, 0, 164]",164,l,0.11478958970292297,1,colour,0.06,3.4
44,20,1,1,15,4,704,1192.3900371908849,1193.991756013931,"[98, 0, 156]",156,l,1.0785266060747745,1,colour,0.06,3.4
44,20,1,1,15,5,705,1194.500857993677,1195.0317711691282,"[99, 0, 155]",155,l,0.007605955425333377,1,colour,0.06,3.4
44,20,1,1,15,6,706,1195.5478068090474,1196.2077794052375,"[66, 0, 188]",188,a,0.13669412692797778,0,colour,0.06,3.4
44,20,1,1,15,7,707,1196.7197899382568,1197.4157797581233,"[87, 0, 167]",167,l,0.17144001547012522,1,colour,0.06,3.4
44,20,1,1,15,8,708,1197.9245174302487,1198.8717495391015,"[82, 0, 172]",172,l,0.4239430057464233,1,colour,0.06,3.4
44,20,1,1,15,9,709,1199.3933955163775,1200.2077711344696,"[93, 0, 161]",161,l,0.2910420103794422,1,colour,0.06,3.4
44,20,1,1,15,10,710,1200.7217820117107,1201.4877330731847,"[52, 0, 202]",202,a,0.24293174293006814,0,colour,0.06,3.4
44,20,1,1,15,11,711,1202.0031720362986,1202.719900609004,"[94, 0, 160]",160,l,0.19353202342745135,1,colour,0.06,3.4
44,20,1,1,15,12,712,1203.237638057819,1204.2797661972154,"[84, 0, 170]",170,l,0.5190788885506663,1,colour,0.06,3.4
44,20,1,1,15,13,713,1204.800255054719,1205.5037767869485,"[53, 0, 201]",201,a,0.18029958295619508,0,colour,0.06,3.4
44,20,1,1,15,14,714,1206.0204713313533,1206.911767057375,"[76, 0, 178]",178,a,0.368988875030027,0,colour,0.06,3.4
44,20,1,1,15,15,715,1207.4268239897947,1208.2078258790743,"[75, 0, 179]",179,a,0.2577285400166147,0,colour,0.06,3.4
44,20,1,1,15,16,716,1208.7237732974722,1209.623726547943,"[46, 0, 208]",208,a,0.3766373658313569,1,colour,0.06,3.4
44,20,1,1,15,17,717,1210.130179125134,1210.9277832019134,"[91, 0, 163]",163,l,0.27437247520038,1,colour,0.06,3.4
44,20,1,1,15,18,718,1211.4431563927324,1212.2638201572786,"[63, 0, 191]",191,a,0.29810406437354686,0,colour,0.06,3.4
44,20,1,1,15,19,719,1212.7709753558693,1213.5997476234343,"[64, 0, 190]",190,a,0.30572262287296326,0,colour,0.06,3.4
44,20,1,1,15,20,720,1214.114810463545,1214.8958131405166,"[56, 0, 198]",198,a,0.25767812771846366,0,colour,0.06,3.4
44,20,1,1,15,21,721,1215.4117388973805,1216.2237321405573,"[95, 0, 159]",159,l,0.288492250881518,1,colour,0.06,3.4
44,20,1,1,15,22,722,1216.7400816757995,1217.2877443371826,"[55, 0, 199]",199,a,0.02435780443420299,0,colour,0.06,3.4
44,20,1,1,15,23,723,1217.8027067465437,1218.5598159636056,"[65, 0, 189]",189,a,0.23390715393861683,0,colour,0.06,3.4
44,20,1,1,15,24,724,1219.0683701034595,1219.615774401817,"[62, 0, 192]",192,a,0.024129373709911306,0,colour,0.06,3.4
44,20,1,1,15,25,725,1220.130994780358,1220.8797615498315,"[77, 0, 177]",177,l,0.22550878020729215,1,colour,0.06,3.4
44,20,1,1,15,26,726,1221.3980610169974,1222.215738640593,"[50, 0, 204]",204,a,0.2945243973858851,1,colour,0.06,3.4
44,20,1,1,15,27,727,1222.7262521646767,1223.6478318970421,"[69, 0, 185]",185,a,0.3983879092402276,0,colour,0.06,3.4
44,20,1,1,15,28,728,1224.1514034901852,1224.9037755266413,"[78, 0, 176]",176,l,0.2290963241166537,1,colour,0.06,3.4
44,20,1,1,15,29,729,1225.4172074501498,1226.1357772532624,"[60, 0, 194]",194,a,0.19540830613505022,0,colour,0.06,3.4
44,20,1,1,15,30,730,1226.6515935209168,1227.3598382552932,"[88, 0, 166]",166,l,0.18493869588883172,1,colour,0.06,3.4
44,20,1,1,15,31,731,1227.8580114002684,1228.5598344743712,"[59, 0, 195]",195,a,0.17888134323584381,0,colour,0.06,3.4
44,20,1,1,15,32,732,1229.076798015646,1230.1277557902267,"[81, 0, 173]",173,l,0.5302440309674239,1,colour,0.06,3.4
44,20,1,1,15,33,733,1230.6368636776638,1231.3437413723095,"[51, 0, 203]",203,a,0.1836358530686084,0,colour,0.06,3.4
44,20,1,1,15,34,734,1231.855823979161,1233.3757728736941,"[83, 0, 171]",171,l,0.9968157544735732,1,colour,0.06,3.4
44,20,1,1,15,35,735,1233.891208292193,1234.711779896757,"[58, 0, 196]",196,a,0.2973663906723232,0,colour,0.06,3.4
44,20,1,1,15,36,736,1235.2100928570894,1236.3198041954847,"[86, 0, 168]",168,l,0.5967847194024216,1,colour,0.06,3.4
44,20,1,1,15,37,737,1236.8409539267045,1237.5997551065097,"[71, 0, 183]",183,a,0.23551443977567033,0,colour,0.06,3.4
44,20,1,1,15,38,738,1238.1067779728191,1238.711764142914,"[96, 0, 158]",158,l,0.0870537674722982,1,colour,0.06,3.4
44,20,1,1,15,39,739,1239.2284145765584,1240.0957668242181,"[97, 0, 157]",157,l,0.34413836915427964,1,colour,0.06,3.4
44,20,1,1,15,40,740,1240.6034978257726,1241.3757768121545,"[54, 0, 200]",200,a,0.24485174255187303,0,colour,0.06,3.4
44,20,1,1,15,41,741,1241.8890039357038,1242.9437461772313,"[57, 0, 197]",197,a,0.5314688922644564,0,colour,0.06,3.4
44,20,1,1,15,42,742,1243.4516709510553,1245.679786992288,"[74, 0, 180]",180,l,1.7051833688251463,1,colour,0.06,3.4
44,20,1,1,15,43,743,1246.187013870865,1246.7837379379716,"[92, 0, 162]",162,l,0.07357714243426017,1,colour,0.06,3.4
44,20,1,1,15,44,744,1247.2981733812826,1248.079705781227,"[79, 0, 175]",175,l,0.2581208107085331,1,colour,0.06,3.4
44,20,1,1,15,45,745,1248.5951860981786,1249.1598258885265,"[68, 0, 186]",186,a,0.04144521030002579,0,colour,0.06,3.4
44,20,1,1,15,46,746,1249.6735980950452,1250.295758710989,"[70, 0, 184]",184,a,0.09907552510503592,0,colour,0.06,3.4
44,20,1,1,15,47,747,1250.8141341904475,1251.7598452657535,"[24, 0, 230]",230,a,0.4224444214264622,1,colour,0.06,3.4
44,20,1,1,15,48,748,1252.2691646485337,1253.7197462213421,"[80, 0, 174]",174,l,0.9273015281619337,1,colour,0.06,3.4
44,20,1,1,15,49,749,1254.2381047654194,1254.807725133248,"[15, 0, 239]",239,a,0.04657899390440434,1,colour,0.06,3.4
44,20,1,1,15,50,750,1255.3083944746545,1256.1357425948077,"[89, 0, 165]",165,l,0.3040330232056476,1,colour,0.06,3.4
44,20,1,1,16,1,751,1260.7928645330976,1261.7437582289213,"[68, 0, 186]",186,a,0.42755024195912483,0,colour,0.06,3.3
44,20,1,1,16,2,752,1262.2625594559881,1262.9917512877782,"[93, 0, 161]",161,l,0.21223262282182986,1,colour,0.06,3.3
44,20,1,1,16,3,753,1263.5063667187464,1264.1597853223807,"[86, 0, 168]",168,l,0.13023308204628847,1,colour,0.06,3.3
44,20,1,1,16,4,754,1264.678345909495,1265.2078128821536,"[91, 0, 163]",163,l,0.006318866447600158,1,colour,0.06,3.3
44,20,1,1,16,5,755,1265.725257309488,1267.9037337789568,"[71, 0, 183]",183,a,1.6634727062696584,0,colour,0.06,3.3
44,20,1,1,16,6,756,1268.4137183677599,1269.5757789389236,"[73, 0, 181]",181,a,0.6388140034337084,0,colour,0.06,3.3
44,20,1,1,16,7,757,1270.0856898785105,1270.855773173017,"[66, 0, 188]",188,a,0.24678395140244902,0,colour,0.06,3.3
44,20,1,1,16,8,758,1271.374308160136,1272.3677352629688,"[80, 0, 174]",174,l,0.4701139751159644,1,colour,0.06,3.3
44,20,1,1,16,9,759,1272.8743914585812,1276.6797944753635,"[90, 0, 164]",164,l,3.28211588290651,1,colour,0.06,3.3
44,20,1,1,16,10,760,1277.1885703505586,1277.8158029162728,"[82, 0, 172]",172,l,0.10409036719465803,1,colour,0.06,3.3
44,20,1,1,16,11,761,1278.3181504358104,1280.615738561824,"[57, 0, 197]",197,a,1.7743651890482397,0,colour,0.06,3.3
44,20,1,1,16,12,762,1281.1307947065511,1283.1197323579604,"[92, 0, 162]",162,a,1.465601680619784,0,colour,0.06,3.3
44,20,1,1,16,13,763,1283.6310642941903,1285.3037750540257,"[97, 0, 157]",157,l,1.1494275644204208,1,colour,0.06,3.3
44,20,1,1,16,14,764,1285.8186874449352,1287.423753565784,"[62, 0, 192]",192,a,1.0824776699123504,0,colour,0.06,3.3
44,20,1,1,16,15,765,1287.9439623987273,1288.8237420654787,"[0, 0, 254]",254,a,0.3564822928774447,1,colour,0.06,3.3
44,20,1,1,16,16,766,1289.3346187156444,1290.5037964792523,"[69, 0, 185]",185,a,0.6458606974306349,0,colour,0.06,3.3
44,20,1,1,16,17,767,1291.023825718385,1291.8157753470473,"[59, 0, 195]",195,a,0.2686999101638321,0,colour,0.06,3.3
44,20,1,1,16,18,768,1292.3365304444987,1293.1197863148727,"[52, 0, 202]",202,a,0.26008019493792744,0,colour,0.06,3.3
44,20,1,1,16,19,769,1293.6335112598622,1294.8077550655498,"[95, 0, 159]",159,l,0.6510622225600855,1,colour,0.06,3.3
44,20,1,1,16,20,770,1295.3210774998493,1296.0477554121344,"[98, 0, 156]",156,l,0.20368261835164958,1,colour,0.06,3.3
44,20,1,1,16,21,771,1296.5555120136837,1297.143725854774,"[54, 0, 200]",200,a,0.06504210411458189,0,colour,0.06,3.3
44,20,1,1,16,22,772,1297.6649783798198,1299.0397481275572,"[88, 0, 166]",166,l,0.8514266877191403,1,colour,0.06,3.3
44,20,1,1,16,23,773,1299.555873958228,1300.3277441323826,"[94, 0, 160]",160,l,0.2486240002708655,1,colour,0.06,3.3
44,20,1,1,16,24,774,1300.837153312068,1301.615777158739,"[61, 0, 193]",193,a,0.25546116815530695,0,colour,0.06,3.3
44,20,1,1,16,25,775,1302.134127432049,1302.9277461803822,"[99, 0, 155]",155,l,0.2703926605995548,1,colour,0.06,3.3
44,20,1,1,16,26,776,1303.4467045520337,1304.1998028406542,"[70, 0, 184]",184,a,0.22986471781132423,0,colour,0.06,3.3
44,20,1,1,16,27,777,1304.7124025674038,1305.2477543881346,"[55, 0, 199]",199,a,0.012007579173769045,0,colour,0.06,3.3
44,20,1,1,16,28,778,1305.7593698935393,1306.5517826851874,"[58, 0, 196]",196,a,0.26907248855195576,0,colour,0.06,3.3
44,20,1,1,16,29,779,1307.0719954565916,1307.9437895002998,"[78, 0, 176]",176,l,0.34867074980002144,1,colour,0.06,3.3
44,20,1,1,16,30,780,1308.462825065782,1309.2237522267073,"[83, 0, 171]",171,l,0.23773258087749127,1,colour,0.06,3.3
44,20,1,1,16,31,781,1309.7440973303933,1310.5357409406543,"[50, 0, 204]",204,a,0.268391528686152,1,colour,0.06,3.3
44,20,1,1,16,32,782,1311.0423931978057,1311.9357526772674,"[79, 0, 175]",175,l,0.3701286655750664,1,colour,0.06,3.3
44,20,1,1,16,33,783,1312.448729708558,1313.2397400143282,"[67, 0, 187]",187,l,0.2678082426468791,1,colour,0.06,3.3
44,20,1,1,16,34,784,1313.7612702008573,1314.4797100347646,"[47, 0, 207]",207,a,0.1949983123695347,1,colour,0.06,3.3
44,20,1,1,16,35,785,1314.9964250591656,1316.0477424152136,"[56, 0, 198]",198,a,0.5280105298684248,0,colour,0.06,3.3
44,20,1,1,16,36,786,1316.5597501913107,1317.3837474690467,"[81, 0, 173]",173,l,0.30079639615087217,1,colour,0.06,3.3
44,20,1,1,16,37,787,1317.9034663574712,1318.4957415393,"[64, 0, 190]",190,a,0.06906563563006785,0,colour,0.06,3.3
44,20,1,1,16,38,788,1319.0129587174483,1319.767792291881,"[63, 0, 191]",191,a,0.23186584972518176,0,colour,0.06,3.3
44,20,1,1,16,39,789,1320.278737077418,1322.2477362712152,"[74, 0, 180]",180,a,1.4458487245101423,0,colour,0.06,3.3
44,20,1,1,16,40,790,1322.7645198248329,1323.3677423521985,"[51, 0, 203]",203,a,0.09159875119303251,0,colour,0.06,3.3
44,20,1,1,16,41,791,1323.8777832609903,1324.6557100001064,"[96, 0, 158]",158,l,0.2545261775703693,1,colour,0.06,3.3
44,20,1,1,16,42,792,1325.1748223655736,1325.9597548386946,"[60, 0, 194]",194,a,0.26167448385513126,0,colour,0.06,3.3
44,20,1,1,16,43,793,1326.471806331706,1327.207880623679,"[84, 0, 170]",170,l,0.21308254265477444,1,colour,0.06,3.3
44,20,1,1,16,44,794,1327.7218966209189,1328.8237574254754,"[76, 0, 178]",178,a,0.5787501137228901,0,colour,0.06,3.3
44,20,1,1,16,45,795,1329.3326648452598,1330.0957105042294,"[75, 0, 179]",179,a,0.2397199281781468,0,colour,0.06,3.3
44,20,1,1,16,46,796,1330.6141025252227,1331.247715003527,"[89, 0, 165]",165,l,0.11032534442847464,1,colour,0.06,3.3
44,20,1,1,16,47,797,1331.7547867067497,1332.4796930993834,"[87, 0, 167]",167,l,0.20182445256386927,1,colour,0.06,3.3
44,20,1,1,16,48,798,1332.9892952636465,1333.5917328557816,"[33, 0, 221]",221,a,0.07920087055708791,1,colour,0.06,3.3
44,20,1,1,16,49,799,1334.0987127928688,1334.6877308676467,"[53, 0, 201]",201,a,0.0656572916859659,0,colour,0.06,3.3
44,20,1,1,16,50,800,1335.2081984574625,1336.087728819647,"[77, 0, 177]",177,a,0.356229837542287,0,colour,0.06,3.3
