id,age,condition,counterbalance,block,trialinblock,trial,tstart,tend,trialstim,trialintensity,response,RT,accuracy,trialtype,colourfreq,credits
86,21,0,1,Practice,1,NA,5.5138516472652555e-06,2.461219718621578,"[97, 0, 157]",157,l,1.9057887935632607,1,colour,0.5,4
86,21,0,1,Practice,2,NA,2.9698337298614206,3.6932586495531723,"[92, 0, 162]",162,l,0.20560317377385218,1,colour,0.5,4
86,21,0,1,Practice,3,NA,4.214393431262579,4.853249685605988,"[98, 0, 156]",156,l,0.11553680671204347,1,colour,0.5,4
86,21,0,1,Practice,4,NA,5.370753991330275,6.069182268562145,"[95, 0, 159]",159,l,0.1752037465776084,1,colour,0.5,4
86,21,0,1,Practice,5,NA,6.590549813496182,9.485227806653711,"[36, 0, 218]",218,a,2.3722860537818633,1,colour,0.5,4
86,21,0,1,Practice,6,NA,9.996206471609185,10.653246613612282,"[2, 0, 252]",252,a,0.1339644852996571,1,colour,0.5,4
86,21,0,1,Practice,7,NA,11.16805385927728,11.82918173293001,"[41, 0, 213]",213,a,0.13776195215177722,1,colour,0.5,4
86,21,0,1,Practice,8,NA,12.340036730107386,13.40521594400343,"[12, 0, 242]",242,a,0.5418644924211549,1,colour,0.5,4
86,21,0,1,Practice,9,NA,13.918274117866531,14.645273981208447,"[50, 0, 204]",204,a,0.20365087724348996,1,colour,0.5,4
86,21,0,1,Practice,10,NA,15.152761985635152,15.98919955054589,"[26, 0, 228]",228,a,0.3131173295987537,1,colour,0.5,4
86,21,0,1,1,1,1,4.218094405776355,4.912029683415312,"[65, 0, 189]",189,a,0.16978993415250443,0,colour,0.5,4.0
86,21,0,1,1,2,2,5.422136766312178,6.008019500121009,"[28, 0, 226]",226,a,0.062536110781366,1,colour,0.5,4.0
86,21,0,1,1,3,3,6.515939554039505,7.216001899912953,"[75, 0, 179]",179,l,0.1767684982623905,1,colour,0.5,4.0
86,21,0,1,1,4,4,7.734968557284446,8.424010687420378,"[86, 0, 168]",168,l,0.16585777183354367,1,colour,0.5,4.0
86,21,0,1,1,5,5,8.939943939913064,9.559960158498143,"[70, 0, 184]",184,a,0.09671725096995942,0,colour,0.5,4.0
86,21,0,1,1,6,6,10.080644379951991,10.759982135132304,"[72, 0, 182]",182,a,0.1559651382995071,0,colour,0.5,4.0
86,21,0,1,1,7,7,11.268204269217676,11.87198889668798,"[49, 0, 205]",205,a,0.08040255826199427,1,colour,0.5,4.0
86,21,0,1,1,8,8,12.393343050847761,12.99197104756604,"[88, 0, 166]",166,l,0.0752872813900467,1,colour,0.5,4.0
86,21,0,1,1,9,9,13.49032732968044,14.095991392096039,"[92, 0, 162]",162,l,0.08267387037631124,1,colour,0.5,4.0
86,21,0,1,1,10,10,14.615421212802175,15.368001792798168,"[82, 0, 172]",172,l,0.22928633853734937,1,colour,0.5,4.0
86,21,0,1,1,11,11,15.881133615941508,16.69596634346817,"[18, 0, 236]",236,a,0.29141836293274537,1,colour,0.5,4.0
86,21,0,1,1,12,12,17.209366376002436,18.03999116209161,"[43, 0, 211]",211,a,0.3072080584097421,1,colour,0.5,4.0
86,21,0,1,1,13,13,18.553234837614582,19.32796218759904,"[84, 0, 170]",170,l,0.251400813125656,1,colour,0.5,4.0
86,21,0,1,1,14,14,19.834576640743762,20.624024393269792,"[52, 0, 202]",202,a,0.27577320906857494,0,colour,0.5,4.0
86,21,0,1,1,15,15,21.137510284315795,21.87194517973694,"[99, 0, 155]",155,l,0.2112501432566205,1,colour,0.5,4.0
86,21,0,1,1,16,16,22.387584622818395,23.112026847724337,"[62, 0, 192]",192,a,0.20125274658494163,0,colour,0.5,4.0
86,21,0,1,1,17,17,23.622035075182794,24.399958094756585,"[26, 0, 228]",228,a,0.2546803720033495,1,colour,0.5,4.0
86,21,0,1,1,18,18,24.919143730701762,25.655992510626675,"[39, 0, 215]",215,a,0.21354232923476957,1,colour,0.5,4.0
86,21,0,1,1,19,19,26.169110549148172,26.96000805022777,"[80, 0, 174]",174,l,0.2675229149754159,1,colour,0.5,4.0
86,21,0,1,1,20,20,27.467544103914406,28.223967836936936,"[21, 0, 233]",233,a,0.23302984844485763,1,colour,0.5,4.0
86,21,0,1,1,21,21,28.73328250089253,29.495975480705965,"[13, 0, 241]",241,a,0.23934438754804432,1,colour,0.5,4.0
86,21,0,1,1,22,22,30.006144397484604,30.792021932516946,"[90, 0, 164]",164,l,0.26252618586295284,1,colour,0.5,4.0
86,21,0,1,1,23,23,31.30316561910149,31.95999662867689,"[29, 0, 225]",225,a,0.13352574041346088,1,colour,0.5,4.0
86,21,0,1,1,24,24,32.475128009929904,33.303970247274265,"[96, 0, 158]",158,l,0.30544874659972265,1,colour,0.5,4.0
86,21,0,1,1,25,25,33.81891179455852,34.583965883459314,"[40, 0, 214]",214,a,0.2416322412173031,1,colour,0.5,4.0
86,21,0,1,1,26,26,35.100354422364035,35.90399679252005,"[11, 0, 243]",243,a,0.2803441902360646,1,colour,0.5,4.0
86,21,0,1,1,27,27,36.404724817562965,37.151973505169735,"[27, 0, 227]",227,a,0.22408992931013927,1,colour,0.5,4.0
86,21,0,1,1,28,28,37.67046754686453,38.472127294313395,"[89, 0, 165]",165,l,0.2784564845060231,1,colour,0.5,4.0
86,21,0,1,1,29,29,38.98342064251483,39.72799393162131,"[44, 0, 210]",210,a,0.22188832801475655,1,colour,0.5,4.0
86,21,0,1,1,30,30,40.24874668233679,41.007992718572496,"[16, 0, 238]",238,a,0.2361727426032303,1,colour,0.5,4.0
86,21,0,1,1,31,31,41.514506740888464,42.42395279199991,"[54, 0, 200]",200,a,0.3859986034221947,0,colour,0.5,4.0
86,21,0,1,1,32,32,42.93647927325219,43.672045295490534,"[20, 0, 234]",234,a,0.21221979305846617,1,colour,0.5,4.0
86,21,0,1,1,33,33,44.18652486096835,45.008003352428204,"[22, 0, 232]",232,a,0.2981480161397485,1,colour,0.5,4.0
86,21,0,1,1,34,34,45.514776919502765,46.439985884557245,"[14, 0, 240]",240,a,0.40180365891137626,1,colour,0.5,4.0
86,21,0,1,1,35,35,46.944093111596885,47.79996030028269,"[74, 0, 180]",180,l,0.3327568734966917,1,colour,0.5,4.0
86,21,0,1,1,36,36,48.31894310534699,49.120022717062966,"[38, 0, 216]",216,a,0.2776699732639827,1,colour,0.5,4.0
86,21,0,1,1,37,37,49.631564188501216,50.65607443067711,"[55, 0, 199]",199,a,0.5011328991386108,0,colour,0.5,4.0
86,21,0,1,1,38,38,51.16293779472471,52.752039828905254,"[68, 0, 186]",186,l,1.065708937283489,1,colour,0.5,4.0
86,21,0,1,1,39,39,53.27250113329501,54.25605292666296,"[7, 0, 247]",247,a,0.46016657339350786,1,colour,0.5,4.0
86,21,0,1,1,40,40,54.77247927481949,55.552010763043654,"[33, 0, 221]",221,a,0.25596746198425535,1,colour,0.5,4.0
86,21,0,1,1,41,41,56.07009284141532,56.81603435285797,"[46, 0, 208]",208,a,0.22267208230914548,1,colour,0.5,4.0
86,21,0,1,1,42,42,57.335787915304536,58.11200715540326,"[95, 0, 159]",159,l,0.25286119553493336,1,colour,0.5,4.0
86,21,0,1,1,43,43,58.632757543047774,59.208020209058304,"[35, 0, 219]",219,a,0.051888867586967535,1,colour,0.5,4.0
86,21,0,1,1,44,44,59.726584355405066,61.84805918409256,"[67, 0, 187]",187,l,1.5980840948759578,1,colour,0.5,4.0
86,21,0,1,1,45,45,62.367485066337395,63.14406388819043,"[56, 0, 198]",198,a,0.2535772082628682,0,colour,0.5,4.0
86,21,0,1,1,46,46,63.664434214064386,64.432013646001,"[6, 0, 248]",248,a,0.24423399045190308,1,colour,0.5,4.0
86,21,0,1,1,47,47,64.94571378947876,65.72001814845135,"[81, 0, 173]",173,l,0.2509293790208176,1,colour,0.5,4.0
86,21,0,1,1,48,48,66.22709497725009,67.91205804035417,"[69, 0, 185]",185,l,1.1615983231604332,1,colour,0.5,4.0
86,21,0,1,1,49,49,68.43042526351928,69.26402162059094,"[45, 0, 209]",209,a,0.3102272848045686,1,colour,0.5,4.0
86,21,0,1,1,50,50,69.77426497434499,70.54399756445491,"[41, 0, 213]",213,a,0.24630956089822575,1,colour,0.5,4.0
86,21,0,1,2,1,51,77.96161179270712,79.2320223893912,"[55, 0, 199]",199,a,0.7436867408978287,0,colour,0.5,4.0
86,21,0,1,2,2,52,79.74690643510257,80.51201211787702,"[90, 0, 164]",164,l,0.25403328238462564,1,colour,0.5,4.0
86,21,0,1,2,3,53,81.03234699757013,81.81603514055314,"[77, 0, 177]",177,l,0.2603647568903398,1,colour,0.5,4.0
86,21,0,1,2,4,54,82.32930323455366,83.08800812585105,"[34, 0, 220]",220,a,0.23542049601383042,1,colour,0.5,4.0
86,21,0,1,2,5,55,83.59499555150978,84.27200567454565,"[81, 0, 173]",173,l,0.15363474922196474,1,colour,0.5,4.0
86,21,0,1,2,6,56,84.78260112696444,85.53604226130119,"[26, 0, 228]",228,a,0.23003385897027329,1,colour,0.5,4.0
86,21,0,1,2,7,57,86.0483410993329,87.00008073850768,"[58, 0, 196]",196,a,0.42842334232409485,0,colour,0.5,4.0
86,21,0,1,2,8,58,87.51720773940906,88.31200983356393,"[33, 0, 221]",221,a,0.2743419713078765,1,colour,0.5,4.0
86,21,0,1,2,9,59,88.82700573165494,89.62407519946282,"[73, 0, 181]",181,l,0.27375907865643967,1,colour,0.5,4.0
86,21,0,1,2,10,60,90.13954607628693,90.96007067180471,"[12, 0, 242]",242,a,0.2971858494129265,1,colour,0.5,4.0
86,21,0,1,2,11,61,91.46781191945774,92.24005370489613,"[16, 0, 238]",238,a,0.2489132793562021,1,colour,0.5,4.0
86,21,0,1,2,12,62,92.74928014726902,93.53607061824005,"[60, 0, 194]",194,a,0.2636179280525539,0,colour,0.5,4.0
86,21,0,1,2,13,63,94.04614579956979,94.80002528494515,"[56, 0, 198]",198,a,0.23046118230558932,0,colour,0.5,4.0
86,21,0,1,2,14,64,95.30618208857777,96.04804216993216,"[21, 0, 233]",233,a,0.2186008922290057,1,colour,0.5,4.0
86,21,0,1,2,15,65,96.55625406400941,97.3280122060969,"[25, 0, 229]",229,a,0.24846232525305822,1,colour,0.5,4.0
86,21,0,1,2,16,66,97.83761162099836,98.63201553645195,"[97, 0, 157]",157,l,0.28229530522366986,1,colour,0.5,4.0
86,21,0,1,2,17,67,99.13937239004008,99.91201865572657,"[87, 0, 167]",167,l,0.24954815974342637,1,colour,0.5,4.0
86,21,0,1,2,18,68,100.42071498086443,101.1919902672671,"[84, 0, 170]",170,l,0.24805705730977934,1,colour,0.5,4.0
86,21,0,1,2,19,69,101.70204260552418,102.34405278172926,"[44, 0, 210]",210,a,0.118583996212692,1,colour,0.5,4.0
86,21,0,1,2,20,70,102.85842128252261,103.64003503657295,"[78, 0, 176]",176,a,0.2582580725575099,0,colour,0.5,4.0
86,21,0,1,2,21,71,104.15544762414356,104.84007434244268,"[79, 0, 175]",175,l,0.16134429223893676,1,colour,0.5,4.0
86,21,0,1,2,22,72,105.35865699958231,105.99200531220413,"[62, 0, 192]",192,a,0.10999932652339339,0,colour,0.5,4.0
86,21,0,1,2,23,73,106.48692725381989,107.23203735554125,"[24, 0, 230]",230,a,0.2218020756408805,1,colour,0.5,4.0
86,21,0,1,2,24,74,107.75263847541646,108.50402688237955,"[94, 0, 160]",160,l,0.2280118516209768,1,colour,0.5,4.0
86,21,0,1,2,25,75,109.01838908164063,109.78402015549364,"[4, 0, 250]",250,a,0.24227145389886573,1,colour,0.5,4.0
86,21,0,1,2,26,76,110.29969465090835,111.08005991192476,"[13, 0, 241]",241,a,0.2570481764851138,1,colour,0.5,4.0
86,21,0,1,2,27,77,111.59198814049887,112.34406774787931,"[32, 0, 222]",222,a,0.2286739073897479,1,colour,0.5,4.0
86,21,0,1,2,28,78,112.85814322697115,113.64003070426406,"[30, 0, 224]",224,a,0.2584593280625995,1,colour,0.5,4.0
86,21,0,1,2,29,79,114.15569338429486,114.952040537828,"[72, 0, 182]",182,l,0.2720734161121072,1,colour,0.5,4.0
86,21,0,1,2,30,80,115.46919116949721,116.04802877914335,"[11, 0, 243]",243,a,0.05539725118433125,1,colour,0.5,4.0
86,21,0,1,2,31,81,116.56301325569802,117.3280626184278,"[51, 0, 203]",203,a,0.2417436997347977,0,colour,0.5,4.0
86,21,0,1,2,32,82,117.8419990697439,118.53605801514641,"[93, 0, 161]",161,l,0.16903138600173406,1,colour,0.5,4.0
86,21,0,1,2,33,83,119.04693940003926,119.79210779102868,"[2, 0, 252]",252,a,0.22183200797007885,1,colour,0.5,4.0
86,21,0,1,2,34,84,120.31253364925215,121.04808943149692,"[29, 0, 225]",225,a,0.21212133146764245,1,colour,0.5,4.0
86,21,0,1,2,35,85,121.56273204936588,122.3280732522835,"[15, 0, 239]",239,a,0.24196504140854813,1,colour,0.5,4.0
86,21,0,1,2,36,86,122.8440254094021,123.65603543988254,"[96, 0, 158]",158,l,0.2886078751180321,1,colour,0.5,4.0
86,21,0,1,2,37,87,124.17234914797882,124.95204014398041,"[39, 0, 215]",215,a,0.25632428682001773,1,colour,0.5,4.0
86,21,0,1,2,38,88,125.46929514493968,126.29603542412224,"[92, 0, 162]",162,l,0.30336648075899575,1,colour,0.5,4.0
86,21,0,1,2,39,89,126.81315257884853,127.60809251925093,"[99, 0, 155]",155,l,0.27157638198696077,1,colour,0.5,4.0
86,21,0,1,2,40,90,128.12575908968574,128.86405013507465,"[59, 0, 195]",195,a,0.21479515459213872,0,colour,0.5,4.0
86,21,0,1,2,41,91,129.37579876970267,130.06405596400145,"[67, 0, 187]",187,a,0.1651902021985734,0,colour,0.5,4.0
86,21,0,1,2,42,92,130.57905107439728,131.2881305332994,"[18, 0, 236]",236,a,0.1857454389682971,1,colour,0.5,4.0
86,21,0,1,2,43,93,131.79786267442978,132.52003713184968,"[6, 0, 248]",248,a,0.19877072666713502,1,colour,0.5,4.0
86,21,0,1,2,44,94,133.0324942961306,133.7840248816501,"[49, 0, 205]",205,a,0.2282103502075188,1,colour,0.5,4.0
86,21,0,1,2,45,95,134.2982189084869,135.096114666012,"[41, 0, 213]",213,a,0.27451053755066823,1,colour,0.5,4.0
86,21,0,1,2,46,96,135.61080139469414,137.00807070016162,"[64, 0, 190]",190,a,0.8739211070642341,0,colour,0.5,4.0
86,21,0,1,2,47,97,137.50618082827714,140.18407434875553,"[53, 0, 201]",201,a,2.1545807682559825,0,colour,0.5,4.0
86,21,0,1,2,48,98,140.69065847572347,141.44802153237106,"[31, 0, 223]",223,a,0.23399831670394633,1,colour,0.5,4.0
86,21,0,1,2,49,99,141.95621097720868,142.72806679320638,"[9, 0, 245]",245,a,0.24841427599312738,1,colour,0.5,4.0
86,21,0,1,2,50,100,143.2376303680794,144.00004726156476,"[20, 0, 234]",234,a,0.23909941509191412,1,colour,0.5,4.0
86,21,0,1,3,1,101,149.91026840238192,150.67208231704717,"[43, 0, 211]",211,a,0.2376146142196376,1,colour,0.5,4.0
86,21,0,1,3,2,102,151.19251211373194,152.0480807668646,"[75, 0, 179]",179,l,0.3327135503932368,1,colour,0.5,4.0
86,21,0,1,3,3,103,152.56756218145892,153.3441441540781,"[87, 0, 167]",167,l,0.2533980081498157,1,colour,0.5,4.0
86,21,0,1,3,4,104,153.86455071382807,154.41610894736368,"[25, 0, 229]",229,a,0.028547955327667296,1,colour,0.5,4.0
86,21,0,1,3,5,105,154.9271884369955,155.7040949390357,"[85, 0, 169]",169,l,0.2538536884239875,1,colour,0.5,4.0
86,21,0,1,3,6,106,156.22411119702156,156.99212110304506,"[10, 0, 244]",244,a,0.24498860011226498,1,colour,0.5,4.0
86,21,0,1,3,7,107,157.50543488322,158.28807578865963,"[84, 0, 170]",170,l,0.25937226400128566,1,colour,0.5,4.0
86,21,0,1,3,8,108,158.80253014796472,159.6562646584789,"[38, 0, 216]",216,a,0.3307384107756661,1,colour,0.5,4.0
86,21,0,1,3,9,109,160.17750617256388,161.42412332748063,"[65, 0, 189]",189,l,0.7227447469631443,1,colour,0.5,4.0
86,21,0,1,3,10,110,161.94377291448473,162.69622273746063,"[52, 0, 202]",202,a,0.22930721238662954,0,colour,0.5,4.0
86,21,0,1,3,11,111,163.20952076379035,164.01611934491666,"[27, 0, 227]",227,a,0.28344494283373933,1,colour,0.5,4.0
86,21,0,1,3,12,112,164.52207292382082,165.28014647935925,"[26, 0, 228]",228,a,0.23478916025487706,1,colour,0.5,4.0
86,21,0,1,3,13,113,165.7878341639007,166.60009310528403,"[86, 0, 168]",168,l,0.28898911841679364,1,colour,0.5,4.0
86,21,0,1,3,14,114,167.11612009322562,167.92011416819878,"[11, 0, 243]",243,a,0.2810598091164138,1,colour,0.5,4.0
86,21,0,1,3,15,115,168.4289680318907,169.33604864160588,"[57, 0, 197]",197,a,0.38409593152755406,0,colour,0.5,4.0
86,21,0,1,3,16,116,169.85070819489192,170.60013406531652,"[29, 0, 225]",225,a,0.22654949998832308,1,colour,0.5,4.0
86,21,0,1,3,17,117,171.11634813027922,171.87213422601053,"[34, 0, 220]",220,a,0.23242371885862667,1,colour,0.5,4.0
86,21,0,1,3,18,118,172.38212315498095,173.17615331022535,"[20, 0, 234]",234,a,0.2704606151673943,1,colour,0.5,4.0
86,21,0,1,3,19,119,173.69468752425746,174.45614303871116,"[21, 0, 233]",233,a,0.23804430062591564,1,colour,0.5,4.0
86,21,0,1,3,20,120,174.97605610893515,175.96012896107277,"[45, 0, 209]",209,a,0.4606742413889151,1,colour,0.5,4.0
86,21,0,1,3,21,121,176.47626937675523,177.2321106109739,"[32, 0, 222]",222,a,0.23250445735175163,1,colour,0.5,4.0
86,21,0,1,3,22,122,177.74193018600636,178.496111357701,"[46, 0, 208]",208,a,0.2311441119236406,1,colour,0.5,4.0
86,21,0,1,3,23,123,179.0075823306397,179.78408514014154,"[48, 0, 206]",206,a,0.2530703279626323,1,colour,0.5,4.0
86,21,0,1,3,24,124,180.30464372459392,181.08008748116845,"[67, 0, 187]",187,l,0.2522341920994222,1,colour,0.5,4.0
86,21,0,1,3,25,125,181.60157042308128,182.40009357790404,"[92, 0, 162]",162,l,0.2750682240439346,1,colour,0.5,4.0
86,21,0,1,3,26,126,182.91417063237168,183.63208564111846,"[72, 0, 182]",182,l,0.19451127799402457,1,colour,0.5,4.0
86,21,0,1,3,27,127,184.14870418631472,184.848080845637,"[76, 0, 178]",178,l,0.1759922270430252,1,colour,0.5,4.0
86,21,0,1,3,28,128,185.36744489400007,186.14407767281227,"[88, 0, 166]",166,l,0.25332357118895743,1,colour,0.5,4.0
86,21,0,1,3,29,129,186.66452204181405,187.42412647826131,"[0, 0, 254]",254,a,0.2362971980619477,1,colour,0.5,4.0
86,21,0,1,3,30,130,187.945843364927,188.62406811022083,"[91, 0, 163]",163,l,0.15490766074799467,1,colour,0.5,4.0
86,21,0,1,3,31,131,189.13344933422923,189.7520803950756,"[78, 0, 176]",176,l,0.09596933668944985,1,colour,0.5,4.0
86,21,0,1,3,32,132,190.25853100811946,192.50409541165573,"[66, 0, 188]",188,l,1.7221153804566711,1,colour,0.5,4.0
86,21,0,1,3,33,133,193.02444722675136,194.05606994082336,"[73, 0, 181]",181,l,0.5083615557086887,1,colour,0.5,4.0
86,21,0,1,3,34,134,194.57135807293525,196.05614437778422,"[6, 0, 248]",248,a,0.961575952678686,1,colour,0.5,4.0
86,21,0,1,3,35,135,196.57147701454232,197.37612132990034,"[22, 0, 232]",232,a,0.2817655818507774,1,colour,0.5,4.0
86,21,0,1,3,36,136,197.8842036485148,198.5521643631364,"[98, 0, 156]",156,l,0.1446436300757341,1,colour,0.5,4.0
86,21,0,1,3,37,137,199.0717891378008,199.9841681629623,"[44, 0, 210]",210,a,0.38880200200947,1,colour,0.5,4.0
86,21,0,1,3,38,138,200.49374119014828,201.2240761446883,"[93, 0, 161]",161,l,0.20701786999416072,1,colour,0.5,4.0
86,21,0,1,3,39,139,201.74387854407541,202.52809877353138,"[42, 0, 212]",212,a,0.26085588334535714,1,colour,0.5,4.0
86,21,0,1,3,40,140,203.04079775948776,203.80014265116188,"[94, 0, 160]",160,l,0.2359726686263457,1,colour,0.5,4.0
86,21,0,1,3,41,141,204.3066011411429,205.096189496835,"[13, 0, 241]",241,a,0.26646071126742754,1,colour,0.5,4.0
86,21,0,1,3,42,142,205.60396579680673,206.504159608623,"[77, 0, 177]",177,l,0.3770307212107582,1,colour,0.5,4.0
86,21,0,1,3,43,143,207.01033964919043,208.16018165771675,"[64, 0, 190]",190,l,0.6263035823067185,1,colour,0.5,4.0
86,21,0,1,3,44,144,208.6666759876971,209.39212330858572,"[8, 0, 246]",246,a,0.20189392850443255,1,colour,0.5,4.0
86,21,0,1,3,45,145,209.90120048317476,210.68014435257646,"[30, 0, 224]",224,a,0.2559548588906182,1,colour,0.5,4.0
86,21,0,1,3,46,146,211.19815317553002,211.85615902887366,"[79, 0, 175]",175,l,0.13451626407913864,1,colour,0.5,4.0
86,21,0,1,3,47,147,212.3702045756363,213.14411154360278,"[71, 0, 183]",183,l,0.25065250499756075,1,colour,0.5,4.0
86,21,0,1,3,48,148,213.65145303716417,214.3680915897712,"[56, 0, 198]",198,a,0.19365466210001614,0,colour,0.5,4.0
86,21,0,1,3,49,149,214.8859531141643,215.60013248992618,"[17, 0, 237]",237,a,0.1910056513006566,1,colour,0.5,4.0
86,21,0,1,3,50,150,216.12047130809515,216.84810368872422,"[16, 0, 238]",238,a,0.20429914837586693,1,colour,0.5,4.0
86,21,0,1,4,1,151,223.07334916334366,223.84017241020047,"[92, 0, 162]",162,l,0.24287010041007306,1,colour,0.5,3.9
86,21,0,1,4,2,152,224.3553687761014,225.42411702594836,"[49, 0, 205]",205,a,0.545454008388333,1,colour,0.5,3.9
86,21,0,1,4,3,153,225.93371250238852,226.68808665881807,"[58, 0, 196]",196,a,0.23126344739284832,0,colour,0.5,3.9
86,21,0,1,4,4,154,227.199634037941,227.9602057611046,"[61, 0, 193]",193,a,0.23737712483853102,0,colour,0.5,3.9
86,21,0,1,4,5,155,228.4808529610018,229.08010165963788,"[44, 0, 210]",210,a,0.07596312180976383,1,colour,0.5,3.9
86,21,0,1,4,6,156,229.59023513023567,231.83216315008758,"[27, 0, 227]",227,a,1.71870900306385,1,colour,0.5,3.9
86,21,0,1,4,7,157,232.34045341960154,233.2401116003166,"[40, 0, 214]",214,a,0.37644861623994075,1,colour,0.5,3.9
86,21,0,1,4,8,158,233.74677961655834,234.50416906093596,"[72, 0, 182]",182,l,0.23425431686337106,1,colour,0.5,3.9
86,21,0,1,4,9,159,235.0125755151239,235.7841217678506,"[1, 0, 253]",253,a,0.24817206045554485,1,colour,0.5,3.9
86,21,0,1,4,10,160,236.29401144754956,239.55218523698568,"[69, 0, 185]",185,l,2.7347838433197467,1,colour,0.5,3.9
86,21,0,1,4,11,161,240.05992806002905,240.78415288172255,"[20, 0, 234]",234,a,0.2009077371476451,1,colour,0.5,3.9
86,21,0,1,4,12,162,241.29432691850525,242.04818553001678,"[94, 0, 160]",160,l,0.23101847495127004,1,colour,0.5,3.9
86,21,0,1,4,13,163,242.56006137702207,243.2961019841605,"[33, 0, 221]",221,a,0.21294368272356223,1,colour,0.5,3.9
86,21,0,1,4,14,164,243.8102818325424,244.4961062377115,"[9, 0, 245]",245,a,0.1624675421480788,1,colour,0.5,3.9
86,21,0,1,4,15,165,245.0133876263717,245.76013258445892,"[63, 0, 191]",191,l,0.22369805215566885,1,colour,0.5,3.9
86,21,0,1,4,16,166,246.27908388180367,246.90410037411493,"[43, 0, 211]",211,a,0.10166553697490599,1,colour,0.5,3.9
86,21,0,1,4,17,167,247.4198059834016,248.04014239909884,"[99, 0, 155]",155,l,0.09731353441020474,1,colour,0.5,3.9
86,21,0,1,4,18,168,248.56053556807456,249.224139947808,"[42, 0, 212]",212,a,0.14047673529421445,1,colour,0.5,3.9
86,21,0,1,4,19,169,249.73245345425676,251.70418079754745,"[60, 0, 194]",194,a,1.4483023448410677,0,colour,0.5,3.9
86,21,0,1,4,20,170,252.21711924212286,253.49667101341765,"[24, 0, 230]",230,a,0.7562492590659531,1,colour,0.5,3.9
86,21,0,1,4,21,171,254.01432104231208,254.8161080021382,"[97, 0, 157]",157,l,0.27861126614152454,1,colour,0.5,3.9
86,21,0,1,4,22,172,255.31569781112194,256.16023640235653,"[10, 0, 244]",244,a,0.31862920976709574,1,colour,0.5,3.9
86,21,0,1,4,23,173,256.6778817050945,257.46418892654765,"[26, 0, 228]",228,a,0.26883639267180115,1,colour,0.5,3.9
86,21,0,1,4,24,174,257.98489874800725,258.7921546587604,"[46, 0, 208]",208,a,0.2888906568259699,1,colour,0.5,3.9
86,21,0,1,4,25,175,259.3085290191957,260.0721388733946,"[41, 0, 213]",213,a,0.24015768033859786,1,colour,0.5,3.9
86,21,0,1,4,26,176,260.5899279300502,261.4001227225381,"[76, 0, 178]",178,l,0.28677688326570205,1,colour,0.5,3.9
86,21,0,1,4,27,177,261.92019490670646,262.920134648215,"[87, 0, 167]",167,l,0.47665652775322087,1,colour,0.5,3.9
86,21,0,1,4,28,178,263.4390205670643,265.8961687017436,"[64, 0, 190]",190,l,1.9342705827148166,1,colour,0.5,3.9
86,21,0,1,4,29,179,266.40900395855715,267.44817631400656,"[71, 0, 183]",183,l,0.5166421759931836,1,colour,0.5,3.9
86,21,0,1,4,30,180,267.9561038510001,268.7841371278628,"[86, 0, 168]",168,l,0.30471382924588397,1,colour,0.5,3.9
86,21,0,1,4,31,181,269.2999112664111,270.0481737146183,"[2, 0, 252]",252,a,0.2248937697877409,1,colour,0.5,3.9
86,21,0,1,4,32,182,270.5675180706603,271.3921548162907,"[5, 0, 249]",249,a,0.30128657798923086,1,colour,0.5,3.9
86,21,0,1,4,33,183,271.9113814122684,272.72814556247613,"[22, 0, 232]",232,a,0.2934431272005895,1,colour,0.5,3.9
86,21,0,1,4,34,184,273.239571636921,274.1441528974683,"[67, 0, 187]",187,l,0.3811617759492947,1,colour,0.5,3.9
86,21,0,1,4,35,185,274.6615036031144,275.45611665101023,"[81, 0, 173]",173,l,0.2711175509466557,1,colour,0.5,3.9
86,21,0,1,4,36,186,275.9741987293819,276.67212052014656,"[17, 0, 237]",237,a,0.17456965390010737,1,colour,0.5,3.9
86,21,0,1,4,37,187,277.1929949694022,278.46413575728366,"[70, 0, 184]",184,l,0.7485200237424579,1,colour,0.5,3.9
86,21,0,1,4,38,188,278.97442794797826,279.6721350924636,"[6, 0, 248]",248,a,0.17428687219216954,1,colour,0.5,3.9
86,21,0,1,4,39,189,280.1933596711606,281.0481587484537,"[75, 0, 179]",179,l,0.3314863250561757,1,colour,0.5,3.9
86,21,0,1,4,40,190,281.5683301819081,282.3521703495935,"[78, 0, 176]",176,l,0.2607609663537005,1,colour,0.5,3.9
86,21,0,1,4,41,191,282.86532777275715,283.6081964946934,"[29, 0, 225]",225,a,0.2193858280661516,1,colour,0.5,3.9
86,21,0,1,4,42,192,284.10617625965097,285.5680993879214,"[66, 0, 188]",188,l,0.9385142775136046,1,colour,0.5,3.9
86,21,0,1,4,43,193,286.075044672034,287.20017793979787,"[57, 0, 197]",197,a,0.6017366262531141,0,colour,0.5,3.9
86,21,0,1,4,44,194,287.7157783920993,288.5681848526001,"[15, 0, 239]",239,a,0.3290058805287117,1,colour,0.5,3.9
86,21,0,1,4,45,195,289.0753246968088,289.91217304349993,"[51, 0, 203]",203,a,0.3134757297957549,0,colour,0.5,3.9
86,21,0,1,4,46,196,290.4191549553216,291.240135231099,"[79, 0, 175]",175,l,0.2952591528883204,1,colour,0.5,3.9
86,21,0,1,4,47,197,291.7500394831004,292.54417755226314,"[48, 0, 206]",206,a,0.27079499074898195,1,colour,0.5,3.9
86,21,0,1,4,48,198,293.06261369853746,293.84016453327786,"[14, 0, 240]",240,a,0.254295584076317,1,colour,0.5,3.9
86,21,0,1,4,49,199,294.35958923397993,295.18410309954197,"[54, 0, 200]",200,a,0.30113534098200034,0,colour,0.5,3.9
86,21,0,1,4,50,200,295.70343012633384,296.4402009246842,"[28, 0, 226]",226,a,0.2133863660710631,1,colour,0.5,3.9
86,21,0,1,5,1,201,302.4707283519383,303.13616451121925,"[10, 0, 244]",244,a,0.1415806867153151,1,colour,0.5,3.9
86,21,0,1,5,2,202,303.6435182140267,304.4161195812194,"[97, 0, 157]",157,l,0.24934493500040844,1,colour,0.5,3.9
86,21,0,1,5,3,203,304.92096054408466,305.720176080853,"[18, 0, 236]",236,a,0.27596383073250763,1,colour,0.5,3.9
86,21,0,1,5,4,204,306.23356114722264,307.0321217174496,"[46, 0, 208]",208,a,0.275163534868625,1,colour,0.5,3.9
86,21,0,1,5,5,205,307.54612000263296,308.3601815789443,"[81, 0, 173]",173,l,0.2907177102024434,1,colour,0.5,3.9
86,21,0,1,5,6,206,308.8743862396368,311.7361682133778,"[62, 0, 192]",192,a,2.3384077814698685,0,colour,0.5,3.9
86,21,0,1,5,7,207,312.2496706459642,315.4162361597555,"[68, 0, 186]",186,a,2.6431625707336934,0,colour,0.5,3.9
86,21,0,1,5,8,208,315.9374516799726,316.7602475876047,"[7, 0, 247]",247,a,0.2995166323380545,1,colour,0.5,3.9
86,21,0,1,5,9,209,317.2813256554364,318.0401739068184,"[47, 0, 207]",207,a,0.2362601765053114,1,colour,0.5,3.9
86,21,0,1,5,10,210,318.54703766471357,319.328220944677,"[9, 0, 245]",245,a,0.2578303553891601,1,colour,0.5,3.9
86,21,0,1,5,11,211,319.84405376634095,320.68021918339946,"[52, 0, 202]",202,a,0.31287275099020917,0,colour,0.5,3.9
86,21,0,1,5,12,212,321.1878702402173,322.2881423486979,"[55, 0, 199]",199,a,0.5773244518350111,0,colour,0.5,3.9
86,21,0,1,5,13,213,322.797420778792,323.704159136003,"[75, 0, 179]",179,l,0.384201088512782,1,colour,0.5,3.9
86,21,0,1,5,14,214,324.2194055203872,325.00014887393627,"[13, 0, 241]",241,a,0.25743611516372766,1,colour,0.5,3.9
86,21,0,1,5,15,215,325.5162971665559,326.25617186827003,"[2, 0, 252]",252,a,0.21653477408108301,1,colour,0.5,3.9
86,21,0,1,5,16,216,326.7664616958791,327.5521174954047,"[83, 0, 171]",171,l,0.2622453733783914,1,colour,0.5,3.9
86,21,0,1,5,17,217,328.063490006738,328.8321958393353,"[36, 0, 218]",218,a,0.24540450189670082,1,colour,0.5,3.9
86,21,0,1,5,18,218,329.3447042036423,331.40819657346583,"[65, 0, 189]",189,a,1.5400441344245337,0,colour,0.5,3.9
86,21,0,1,5,19,219,331.9230770745635,332.60015651455615,"[42, 0, 212]",212,a,0.15360166612663306,1,colour,0.5,3.9
86,21,0,1,5,20,220,333.11074763466604,333.824196425383,"[99, 0, 155]",155,l,0.19016321389062796,1,colour,0.5,3.9
86,21,0,1,5,21,221,334.3450618161587,335.18416926573263,"[23, 0, 231]",231,a,0.3156403095490532,1,colour,0.5,3.9
86,21,0,1,5,22,222,335.69542362315406,336.4641649019177,"[50, 0, 204]",204,a,0.24529540645016823,1,colour,0.5,3.9
86,21,0,1,5,23,223,336.9767721216631,337.67218077865255,"[61, 0, 193]",193,a,0.17192300618626177,0,colour,0.5,3.9
86,21,0,1,5,24,224,338.1799795278639,338.97617465669464,"[56, 0, 198]",198,a,0.2728603211871814,0,colour,0.5,3.9
86,21,0,1,5,25,225,339.4926100633311,340.37623554535094,"[40, 0, 214]",214,a,0.3601670066273073,1,colour,0.5,3.9
86,21,0,1,5,26,226,340.88316231867066,341.4561969956703,"[25, 0, 229]",229,a,0.049471044621896,1,colour,0.5,3.9
86,21,0,1,5,27,227,341.9772230757808,342.78419541713083,"[72, 0, 182]",182,l,0.28359184753207956,1,colour,0.5,3.9
86,21,0,1,5,28,228,343.3053908511938,344.92815966217313,"[66, 0, 188]",188,l,1.0995946926705074,1,colour,0.5,3.9
86,21,0,1,5,29,229,345.44617793743964,346.1201574125298,"[5, 0, 249]",249,a,0.1506249751400901,1,colour,0.5,3.9
86,21,0,1,5,30,230,346.63375239902234,347.4081678226794,"[24, 0, 230]",230,a,0.2508510035841027,1,colour,0.5,3.9
86,21,0,1,5,31,231,347.9151414637163,348.71215224840853,"[11, 0, 243]",243,a,0.273627927803318,1,colour,0.5,3.9
86,21,0,1,5,32,232,349.2278113838256,350.0321772497846,"[87, 0, 167]",167,l,0.2810566583502805,1,colour,0.5,3.9
86,21,0,1,5,33,233,350.540411593116,351.60819767623616,"[59, 0, 195]",195,a,0.5444737247453304,0,colour,0.5,3.9
86,21,0,1,5,34,234,352.1186604024115,352.904180324942,"[3, 0, 251]",251,a,0.262110284078517,1,colour,0.5,3.9
86,21,0,1,5,35,235,353.4155713470536,354.1521349821851,"[30, 0, 224]",224,a,0.21339424297912046,1,colour,0.5,3.9
86,21,0,1,5,36,236,354.6657055502001,355.39222177017655,"[6, 0, 248]",248,a,0.20316723386349622,1,colour,0.5,3.9
86,21,0,1,5,37,237,355.9001508825604,356.7041823729378,"[84, 0, 170]",170,l,0.2806383934803307,1,colour,0.5,3.9
86,21,0,1,5,38,238,357.2127325810725,358.0241798050556,"[32, 0, 222]",222,a,0.28798677936720196,1,colour,0.5,3.9
86,21,0,1,5,39,239,358.5409889719158,359.2321779587073,"[27, 0, 227]",227,a,0.1678246406809194,1,colour,0.5,3.9
86,21,0,1,5,40,240,359.74424048891524,360.5284390568122,"[96, 0, 158]",158,l,0.26087557566643227,1,colour,0.5,3.9
86,21,0,1,5,41,241,361.04123807974975,362.21620276157046,"[60, 0, 194]",194,a,0.6516208157263463,0,colour,0.5,3.9
86,21,0,1,5,42,242,362.72882337210467,363.6081768023723,"[74, 0, 180]",180,l,0.35593079488899093,1,colour,0.5,3.9
86,21,0,1,5,43,243,364.11957215679286,364.88826459861593,"[45, 0, 209]",209,a,0.24534148648672272,1,colour,0.5,3.9
86,21,0,1,5,44,244,365.3915317513165,366.1681917055248,"[26, 0, 228]",228,a,0.25355633441358805,1,colour,0.5,3.9
86,21,0,1,5,45,245,366.68855376062857,367.51219053028035,"[73, 0, 181]",181,l,0.3005524483160116,1,colour,0.5,3.9
86,21,0,1,5,46,246,368.0324580622546,368.81625923914544,"[80, 0, 174]",174,l,0.26046124925778713,1,colour,0.5,3.9
86,21,0,1,5,47,247,369.32939972690656,370.16820588399423,"[77, 0, 177]",177,l,0.31552570025087334,1,colour,0.5,3.9
86,21,0,1,5,48,248,370.6889397300838,371.41619441202783,"[12, 0, 242]",242,a,0.20421013909799512,1,colour,0.5,3.9
86,21,0,1,5,49,249,371.92520699581655,372.6962570020987,"[33, 0, 221]",221,a,0.24768132786266506,1,colour,0.5,3.9
86,21,0,1,5,50,250,373.20666734671977,374.344245372602,"[71, 0, 183]",183,l,0.6142491259524832,1,colour,0.5,3.9
86,21,0,1,6,1,251,379.60826699319296,380.3121933659713,"[74, 0, 180]",180,l,0.17964003227825742,1,colour,0.5,3.9
86,21,0,1,6,2,252,380.8278647106199,381.4244687307655,"[84, 0, 170]",170,l,0.07324833865277469,1,colour,0.5,3.9
86,21,0,1,6,3,253,381.93736582146084,382.73620720415784,"[90, 0, 164]",164,l,0.27550381813489366,1,colour,0.5,3.9
86,21,0,1,6,4,254,383.2499943876901,384.00824556795123,"[42, 0, 212]",212,a,0.23300306688179262,1,colour,0.5,3.9
86,21,0,1,6,5,255,384.5176145827136,385.2481807250879,"[9, 0, 245]",245,a,0.20719391932652798,1,colour,0.5,3.9
86,21,0,1,6,6,256,385.76769246584445,386.62423510108783,"[57, 0, 197]",197,a,0.3334216861985624,0,colour,0.5,3.9
86,21,0,1,6,7,257,387.1428122443758,388.1522220222396,"[83, 0, 171]",171,l,0.48601431789575145,1,colour,0.5,3.9
86,21,0,1,6,8,258,388.65852061058104,389.37620955148304,"[38, 0, 216]",216,a,0.19427654553146567,1,colour,0.5,3.9
86,21,0,1,6,9,259,389.8930356537312,390.79216608029674,"[59, 0, 195]",195,a,0.37575702197500505,0,colour,0.5,3.9
86,21,0,1,6,10,260,391.3012704302964,392.07220700882317,"[99, 0, 155]",155,l,0.24760334628808778,1,colour,0.5,3.9
86,21,0,1,6,11,261,392.5832270276296,393.3921776593779,"[87, 0, 167]",167,l,0.2856756887631491,1,colour,0.5,3.9
86,21,0,1,6,12,262,393.9113097322261,395.07223182113376,"[71, 0, 183]",183,a,0.637502998157288,0,colour,0.5,3.9
86,21,0,1,6,13,263,395.5834137108177,396.2322228572011,"[29, 0, 225]",225,a,0.1254455879679881,1,colour,0.5,3.9
86,21,0,1,6,14,264,396.73972228316416,397.520184036548,"[55, 0, 199]",199,a,0.2569867364363745,0,colour,0.5,3.9
86,21,0,1,6,15,265,398.03673168939713,398.90422128495993,"[6, 0, 248]",248,a,0.3441260371473618,1,colour,0.5,3.9
86,21,0,1,6,16,266,399.4117333140166,400.1761651256238,"[41, 0, 213]",213,a,0.2409268623450771,1,colour,0.5,3.9
86,21,0,1,6,17,267,400.6932464403217,401.5042289255798,"[72, 0, 182]",182,l,0.3001239434524905,1,colour,0.5,3.9
86,21,0,1,6,18,268,402.0246071283909,402.79220664648165,"[1, 0, 253]",253,a,0.24430448895145673,1,colour,0.5,3.9
86,21,0,1,6,19,269,403.29458173710736,404.13631614207407,"[16, 0, 238]",238,a,0.31843701274192426,1,colour,0.5,3.9
86,21,0,1,6,20,270,404.65439782659814,405.4241839798342,"[12, 0, 242]",242,a,0.24657855798432138,1,colour,0.5,3.9
86,21,0,1,6,21,271,405.93573529741843,406.712239288463,"[40, 0, 214]",214,a,0.2520829550776398,1,colour,0.5,3.9
86,21,0,1,6,22,272,407.23378957812383,407.9441836962651,"[26, 0, 228]",228,a,0.18701047355716582,1,colour,0.5,3.9
86,21,0,1,6,23,273,408.45264135049365,409.21618031233083,"[49, 0, 205]",205,a,0.24022660344780888,1,colour,0.5,3.9
86,21,0,1,6,24,274,409.73395282744605,410.52825316130475,"[86, 0, 168]",168,l,0.2709529231360648,1,colour,0.5,3.9
86,21,0,1,6,25,275,411.04721548636735,411.6322183673474,"[23, 0, 231]",231,a,0.06161687332496513,1,colour,0.5,3.9
86,21,0,1,6,26,276,412.1411250064557,412.9281643883296,"[35, 0, 219]",219,a,0.2636730665253708,1,colour,0.5,3.9
86,21,0,1,6,27,277,413.43806312649394,414.18425315500645,"[77, 0, 177]",177,l,0.22279259930655826,1,colour,0.5,3.9
86,21,0,1,6,28,278,414.70389525892097,415.40021488259663,"[30, 0, 224]",224,a,0.17209039090084843,1,colour,0.5,3.9
86,21,0,1,6,29,279,415.90807467800914,416.6402567720943,"[37, 0, 217]",217,a,0.2087429171660915,1,colour,0.5,3.9
86,21,0,1,6,30,280,417.1581671334425,417.81621946067025,"[28, 0, 226]",226,a,0.13468876881233882,1,colour,0.5,3.9
86,21,0,1,6,31,281,418.3302015981608,419.0802446258749,"[17, 0, 237]",237,a,0.22667553083738312,1,colour,0.5,3.9
86,21,0,1,6,32,282,419.5959199089848,420.41620859049726,"[85, 0, 169]",169,l,0.29692472924944013,1,colour,0.5,3.9
86,21,0,1,6,33,283,420.9247343801544,421.84821199649014,"[69, 0, 185]",185,l,0.4001337502413662,1,colour,0.5,3.9
86,21,0,1,6,34,284,422.36233867560804,423.0563042794238,"[7, 0, 247]",247,a,0.1705898361688014,1,colour,0.5,3.9
86,21,0,1,6,35,285,423.56562012492213,424.34420953258814,"[47, 0, 207]",207,a,0.2552502677135635,1,colour,0.5,3.9
86,21,0,1,6,36,286,424.8625302818691,425.6561784061196,"[5, 0, 249]",249,a,0.2702908673818456,1,colour,0.5,3.9
86,21,0,1,6,37,287,426.17525849123194,427.1202460279601,"[60, 0, 194]",194,l,0.42172283375111874,1,colour,0.5,3.9
86,21,0,1,6,38,288,427.62836891275947,428.45621944490995,"[98, 0, 156]",156,l,0.30443380447104573,1,colour,0.5,3.9
86,21,0,1,6,39,289,428.97226848824357,429.7362127180095,"[46, 0, 208]",208,a,0.24085793920676224,1,colour,0.5,3.9
86,21,0,1,6,40,290,430.2551632276736,431.04022550069203,"[76, 0, 178]",178,l,0.26196022859949153,1,colour,0.5,3.9
86,21,0,1,6,41,291,431.552126160037,432.6482656383596,"[63, 0, 191]",191,a,0.5727522891247645,0,colour,0.5,3.9
86,21,0,1,6,42,292,433.1615632708417,433.984217787598,"[14, 0, 240]",240,a,0.2992047059815377,1,colour,0.5,3.9
86,21,0,1,6,43,293,434.50551325864217,435.32828396010154,"[66, 0, 188]",188,l,0.2996540847234428,1,colour,0.5,3.9
86,21,0,1,6,44,294,435.8499547667452,436.5522065046971,"[24, 0, 230]",230,a,0.17949470297025982,1,colour,0.5,3.9
86,21,0,1,6,45,295,437.0681243971776,437.79222555110755,"[81, 0, 173]",173,l,0.20060880774690304,1,colour,0.5,3.9
86,21,0,1,6,46,296,438.30261699108814,439.0642670656671,"[54, 0, 200]",200,a,0.2383121161692543,0,colour,0.5,3.9
86,21,0,1,6,47,297,439.58741834087414,440.4162361597555,"[56, 0, 198]",198,a,0.3054830112378113,0,colour,0.5,3.9
86,21,0,1,6,48,298,440.93126474709425,441.6642199616326,"[53, 0, 201]",201,a,0.2096022899786476,0,colour,0.5,3.9
86,21,0,1,6,49,299,442.18139855640766,442.9442384409049,"[75, 0, 179]",179,l,0.2394172491331119,1,colour,0.5,3.9
86,21,0,1,6,50,300,443.46278998417256,444.21623111852387,"[19, 0, 235]",235,a,0.23019021599611733,1,colour,0.5,3.9
86,21,0,1,7,1,301,464.9949611293414,465.53620807062543,"[15, 0, 239]",239,a,0.017196908622281626,1,colour,0.5,3.9
86,21,0,1,7,2,302,466.0427114590857,466.704219788342,"[59, 0, 195]",195,l,0.13824835243576672,1,colour,0.5,3.9
86,21,0,1,7,3,303,467.21464667450346,467.81626514684467,"[81, 0, 173]",173,l,0.07824309852730948,1,colour,0.5,3.9
86,21,0,1,7,4,304,468.32413439457014,468.8642726582766,"[24, 0, 230]",230,a,0.01677234220551327,1,colour,0.5,3.9
86,21,0,1,7,5,305,469.3710852161603,470.0642662779719,"[96, 0, 158]",158,l,0.16885061052744277,1,colour,0.5,3.9
86,21,0,1,7,6,306,470.57591369409056,471.2482713097561,"[23, 0, 231]",231,a,0.1489424633764429,1,colour,0.5,3.9
86,21,0,1,7,7,307,471.75112571143836,472.39231983793434,"[28, 0, 226]",226,a,0.11783411269425415,1,colour,0.5,3.9
86,21,0,1,7,8,308,472.91035859320255,473.6723040525685,"[75, 0, 179]",179,l,0.2384861962782452,1,colour,0.5,3.9
86,21,0,1,7,9,309,474.1917472640489,474.9202311405679,"[30, 0, 224]",224,a,0.2051545827271184,1,colour,0.5,3.9
86,21,0,1,7,10,310,475.4418172702426,476.1362586405012,"[97, 0, 157]",157,l,0.17102897488803137,1,colour,0.5,3.9
86,21,0,1,7,11,311,476.6450912364962,477.50423837789276,"[42, 0, 212]",212,a,0.3357627091318136,1,colour,0.5,3.9
86,21,0,1,7,12,312,478.0201519380644,478.8802959046734,"[61, 0, 193]",193,a,0.33722309152653906,0,colour,0.5,3.9
86,21,0,1,7,13,313,479.39512796266354,480.064285970293,"[33, 0, 221]",221,a,0.1457341907080263,1,colour,0.5,3.9
86,21,0,1,7,14,314,480.5835105970327,481.3042538166774,"[88, 0, 166]",166,l,0.19739029508491512,1,colour,0.5,3.9
86,21,0,1,7,15,315,481.81795514168334,482.5842277913034,"[7, 0, 247]",247,a,0.2457621144130826,1,colour,0.5,3.9
86,21,0,1,7,16,316,483.0964100508136,483.76823794309166,"[91, 0, 163]",163,l,0.14849781080556568,1,colour,0.5,3.9
86,21,0,1,7,17,317,484.2840750970645,485.088283818317,"[80, 0, 174]",174,l,0.28096528598689474,1,colour,0.5,3.9
86,21,0,1,7,18,318,485.596656795562,486.37627335460274,"[54, 0, 200]",200,a,0.2561549328675028,0,colour,0.5,3.9
86,21,0,1,7,19,319,486.8937213402969,487.67232847104606,"[8, 0, 246]",246,a,0.25531604007119313,1,colour,0.5,3.9
86,21,0,1,7,20,320,488.1906838788127,489.0883645568247,"[98, 0, 156]",156,l,0.37446244891907554,1,colour,0.5,3.9
86,21,0,1,7,21,321,489.5864093064447,490.38425504547195,"[21, 0, 233]",233,a,0.2748031654191436,1,colour,0.5,3.9
86,21,0,1,7,22,322,490.8990638665273,492.57626854967384,"[92, 0, 162]",162,l,1.153804890855099,1,colour,0.5,3.9
86,21,0,1,7,23,323,493.0867706604913,494.2162456908263,"[5, 0, 249]",249,a,0.6186263346899068,1,colour,0.5,3.9
86,21,0,1,7,24,324,494.7306531824288,495.80026868201094,"[62, 0, 192]",192,a,0.5462456396344351,0,colour,0.5,3.9
86,21,0,1,7,25,325,496.3104856480495,497.10423774774245,"[25, 0, 229]",229,a,0.2703294643142726,1,colour,0.5,3.9
86,21,0,1,7,26,326,497.6229925157386,498.4002511164581,"[99, 0, 155]",155,l,0.25405809469521046,1,colour,0.5,3.9
86,21,0,1,7,27,327,498.9199932573538,499.67223946175363,"[57, 0, 197]",197,a,0.22801224546856247,0,colour,0.5,3.9
86,21,0,1,7,28,328,500.18667255336186,501.00028553864104,"[46, 0, 208]",208,a,0.29025178993470035,1,colour,0.5,3.9
86,21,0,1,7,29,329,501.51492539959145,502.3043475521117,"[32, 0, 222]",222,a,0.2660983725800179,1,colour,0.5,3.9
86,21,0,1,7,30,330,502.7995294323482,503.68823632043495,"[71, 0, 183]",183,l,0.36534963121812325,1,colour,0.5,3.9
86,21,0,1,7,31,331,504.205862718547,505.06446635193424,"[48, 0, 206]",206,a,0.3354279397026403,1,colour,0.5,3.9
86,21,0,1,7,32,332,505.58094271858863,506.3522759004263,"[84, 0, 170]",170,l,0.24823113741877023,1,colour,0.5,3.9
86,21,0,1,7,33,333,506.86226089093543,511.47232697442814,"[68, 0, 186]",186,l,4.086550894207903,1,colour,0.5,3.9
86,21,0,1,7,34,334,511.9877190819825,512.8002635620069,"[39, 0, 215]",215,a,0.28923212163499556,1,colour,0.5,3.9
86,21,0,1,7,35,335,513.3159167897102,514.1122789094079,"[12, 0, 242]",242,a,0.27309702287311666,1,colour,0.5,3.9
86,21,0,1,7,36,336,514.6284138112533,515.4723344575032,"[26, 0, 228]",228,a,0.3204582323960494,1,colour,0.5,3.9
86,21,0,1,7,37,337,515.9879723252088,516.7523037059873,"[50, 0, 204]",204,a,0.2410359577916097,1,colour,0.5,3.9
86,21,0,1,7,38,338,517.2694141653192,518.1362999943667,"[16, 0, 238]",238,a,0.3435994645260507,1,colour,0.5,3.9
86,21,0,1,7,39,339,518.6445051930641,519.4562604049279,"[37, 0, 217]",217,a,0.2887256351823453,1,colour,0.5,3.9
86,21,0,1,7,40,340,519.9727446485194,520.7362662811211,"[47, 0, 207]",207,a,0.2403191573539516,1,colour,0.5,3.9
86,21,0,1,7,41,341,521.2543589933484,521.9763231367833,"[52, 0, 202]",202,a,0.2031640830973629,0,colour,0.5,3.9
86,21,0,1,7,42,342,522.4845988339803,523.2562821452593,"[10, 0, 244]",244,a,0.24909563023538794,1,colour,0.5,3.9
86,21,0,1,7,43,343,523.7659784463613,524.5922760422109,"[64, 0, 190]",190,l,0.30294309588498436,1,colour,0.5,3.9
86,21,0,1,7,44,344,525.1103120405605,525.9043248665548,"[77, 0, 177]",177,l,0.27060003677615896,1,colour,0.5,3.9
86,21,0,1,7,45,345,526.4235762748576,527.176422701159,"[19, 0, 235]",235,a,0.22951476943853777,1,colour,0.5,3.9
86,21,0,1,7,46,346,527.689286708759,528.4562856111006,"[79, 0, 175]",175,l,0.2437290793750435,1,colour,0.5,3.9
86,21,0,1,7,47,347,528.9706990103878,529.7362591918936,"[3, 0, 251]",251,a,0.24055782827781513,1,colour,0.5,3.9
86,21,0,1,7,48,348,530.2538820453774,531.0722566334589,"[70, 0, 184]",184,l,0.2950563219928881,1,colour,0.5,3.9
86,21,0,1,7,49,349,531.5820907808084,532.3603292713378,"[27, 0, 227]",227,a,0.25486232902039774,1,colour,0.5,3.9
86,21,0,1,7,50,350,532.8790785254969,533.6882977604837,"[87, 0, 167]",167,l,0.28573949189740233,1,colour,0.5,3.9
86,21,0,1,8,1,351,537.7693127498787,538.6963467990718,"[37, 0, 217]",217,a,0.4029162749502575,1,colour,0.5,3.9
86,21,0,1,8,2,352,539.2077197042527,539.9682819751179,"[9, 0, 245]",245,a,0.23722037399420515,1,colour,0.5,3.9
86,21,0,1,8,3,353,540.4891170397314,541.152330329991,"[36, 0, 218]",218,a,0.14062442768772598,1,colour,0.5,3.9
86,21,0,1,8,4,354,541.6609884520294,542.3442827880062,"[79, 0, 175]",175,l,0.15987839597801212,1,colour,0.5,3.9
86,21,0,1,8,5,355,542.8642301228683,543.6402741013299,"[83, 0, 171]",171,l,0.25266230310080573,1,colour,0.5,3.9
86,21,0,1,8,6,356,544.1612438614102,544.8642821105896,"[38, 0, 216]",216,a,0.1797093492350541,1,colour,0.5,3.9
86,21,0,1,8,7,357,545.3801003599365,546.1523055176804,"[12, 0, 242]",242,a,0.2487923685257556,1,colour,0.5,3.9
86,21,0,1,8,8,358,546.6614811538602,547.4082804627396,"[48, 0, 206]",206,a,0.2235409074492054,1,colour,0.5,3.9
86,21,0,1,8,9,359,547.9271443261969,548.6162849179382,"[67, 0, 187]",187,l,0.1657104732876178,1,colour,0.5,3.9
86,21,0,1,8,10,360,549.1303568524017,549.8882984694064,"[97, 0, 157]",157,l,0.23461114168458153,1,colour,0.5,3.9
86,21,0,1,8,11,361,550.3960920986137,551.1043204554735,"[19, 0, 235]",235,a,0.19048853099229746,1,colour,0.5,3.9
86,21,0,1,8,12,362,551.6255265233922,552.1923226736253,"[23, 0, 231]",231,a,0.043985552139929496,1,colour,0.5,3.9
86,21,0,1,8,13,363,552.7031398615509,553.4243556968577,"[15, 0, 239]",239,a,0.19782076917181257,1,colour,0.5,3.9
86,21,0,1,8,14,364,553.9376293046953,554.6323243120278,"[44, 0, 210]",210,a,0.17161423062498216,1,colour,0.5,3.9
86,21,0,1,8,15,365,555.1409032709344,555.9122648097109,"[22, 0, 232]",232,a,0.24803618346049916,1,colour,0.5,3.9
86,21,0,1,8,16,366,556.4222025386553,557.1522775545745,"[72, 0, 182]",182,l,0.20688711298862472,1,colour,0.5,3.9
86,21,0,1,8,17,367,557.6723950310843,558.3443532865203,"[55, 0, 199]",199,a,0.14830600761342794,0,colour,0.5,3.9
86,21,0,1,8,18,368,558.8598883603117,559.5763351097121,"[60, 0, 194]",194,a,0.19296385553025175,0,colour,0.5,3.9
86,21,0,1,8,19,369,560.0928827625758,560.7684061155014,"[61, 0, 193]",193,a,0.15211962218745612,0,colour,0.5,3.9
86,21,0,1,8,20,370,561.2803816056403,561.8803384400817,"[96, 0, 158]",158,l,0.07649796518671792,1,colour,0.5,3.9
86,21,0,1,8,21,371,562.3898437257012,562.9443542317458,"[94, 0, 160]",160,l,0.030946873666835018,1,colour,0.5,3.9
86,21,0,1,8,22,372,563.454433745399,564.5203392120166,"[75, 0, 179]",179,l,0.5424840127816424,1,colour,0.5,3.9
86,21,0,1,8,23,373,565.0326727085339,565.7603846461425,"[62, 0, 192]",192,a,0.20436649612383917,0,colour,0.5,3.9
86,21,0,1,8,24,374,566.2671424593573,567.0323048560094,"[7, 0, 247]",247,a,0.24170352739747614,1,colour,0.5,3.9
86,21,0,1,8,25,375,567.5485996594798,568.3123280614382,"[95, 0, 159]",159,l,0.24043652357067913,1,colour,0.5,3.9
86,21,0,1,8,26,376,568.8299725764809,569.600320354657,"[43, 0, 211]",211,a,0.2471823244850384,1,colour,0.5,3.9
86,21,0,1,8,27,377,570.1112423057202,570.7922988065257,"[28, 0, 226]",226,a,0.15770869623520412,1,colour,0.5,3.9
86,21,0,1,8,28,378,571.2988293703966,572.0243113497563,"[2, 0, 252]",252,a,0.2021609563525999,1,colour,0.5,3.9
86,21,0,1,8,29,379,572.5332920319779,573.1283202727354,"[17, 0, 237]",237,a,0.07166310695174616,1,colour,0.5,3.9
86,21,0,1,8,30,380,573.6427726628172,574.4483003756177,"[91, 0, 163]",163,l,0.2822385913605103,1,colour,0.5,3.9
86,21,0,1,8,31,381,574.9554642444709,575.6722957817983,"[82, 0, 172]",172,l,0.1936920775042381,1,colour,0.5,3.9
86,21,0,1,8,32,382,576.1897512505675,576.896330178759,"[40, 0, 214]",214,a,0.18325317902781535,1,colour,0.5,3.9
86,21,0,1,8,33,383,577.4105655594758,578.1043003693194,"[8, 0, 246]",246,a,0.1694232631707564,1,colour,0.5,3.9
86,21,0,1,8,34,384,578.6183400083828,579.3523349773895,"[47, 0, 207]",207,a,0.20924900977115612,1,colour,0.5,3.9
86,21,0,1,8,35,385,579.869825498492,580.5603362818074,"[29, 0, 225]",225,a,0.16718700338969938,1,colour,0.5,3.9
86,21,0,1,8,36,386,581.0730896185705,581.9043020234676,"[86, 0, 168]",168,l,0.30782442800409626,1,colour,0.5,3.9
86,21,0,1,8,37,387,582.416978954032,583.1362909359013,"[99, 0, 155]",155,l,0.19599371578078717,1,colour,0.5,3.9
86,21,0,1,8,38,388,583.6521355729637,584.3443694342131,"[3, 0, 251]",251,a,0.16953708477376495,1,colour,0.5,3.9
86,21,0,1,8,39,389,584.8582716208912,589.0243298605346,"[66, 0, 188]",188,l,3.642659628894762,1,colour,0.5,3.9
86,21,0,1,8,40,390,589.5306434150261,590.6323369151069,"[65, 0, 189]",189,a,0.579239726808737,0,colour,0.5,3.9
86,21,0,1,8,41,391,591.1400309011951,591.6723186248855,"[53, 0, 201]",201,a,0.008790257503278553,0,colour,0.5,3.9
86,21,0,1,8,42,392,592.1869919627788,592.8003391805105,"[30, 0, 224]",224,a,0.08996711776126176,1,colour,0.5,3.9
86,21,0,1,8,43,393,593.3120247997285,594.0883125691034,"[70, 0, 184]",184,l,0.2528383524477249,1,colour,0.5,3.9
86,21,0,1,8,44,394,594.6090731967561,595.440410844807,"[58, 0, 196]",196,a,0.30794652039185166,0,colour,0.5,3.9
86,21,0,1,8,45,395,595.9529325998883,596.9203327529394,"[46, 0, 208]",208,a,0.4441082746780012,1,colour,0.5,3.9
86,21,0,1,8,46,396,597.4343857827771,599.3283544586011,"[63, 0, 191]",191,l,1.3705747912317747,1,colour,0.5,3.9
86,21,0,1,8,47,397,599.8412460354448,600.4003121626447,"[24, 0, 230]",230,a,0.03609877824783325,1,colour,0.5,3.9
86,21,0,1,8,48,398,600.9197057494894,601.5603473094961,"[78, 0, 176]",176,l,0.11722483232733794,1,colour,0.5,3.9
86,21,0,1,8,49,399,602.0761336572905,602.7363253580843,"[32, 0, 222]",222,a,0.1368923393310979,1,colour,0.5,3.9
86,21,0,1,8,50,400,603.2481007742608,604.1523122130602,"[56, 0, 198]",198,a,0.3808801757841138,0,colour,0.5,3.9
86,21,0,1,9,1,401,609.3415569771751,609.9043331373396,"[12, 0, 242]",242,a,0.03868910593155306,1,colour,0.5,3.9
86,21,0,1,9,2,402,610.420536174599,611.0483852101315,"[5, 0, 249]",249,a,0.10449650482041761,1,colour,0.5,3.9
86,21,0,1,9,3,403,611.5612192854023,612.2163173708686,"[20, 0, 234]",234,a,0.13172940704680514,1,colour,0.5,3.9
86,21,0,1,9,4,404,612.7332135777833,613.4563943126996,"[34, 0, 220]",220,a,0.1998041795741301,1,colour,0.5,3.9
86,21,0,1,9,5,405,613.9677049901511,617.0083574203309,"[57, 0, 197]",197,a,2.5175440842140233,0,colour,0.5,3.9
86,21,0,1,9,6,406,617.5148533257016,618.288321942644,"[96, 0, 158]",158,l,0.25014365547394846,1,colour,0.5,3.9
86,21,0,1,9,7,407,618.7961718918959,619.688369834359,"[60, 0, 194]",194,a,0.36885328867356293,0,colour,0.5,3.9
86,21,0,1,9,8,408,620.2025540150498,620.9444282748736,"[28, 0, 226]",226,a,0.21852842449152377,1,colour,0.5,3.9
86,21,0,1,9,9,409,621.452793375196,622.1923923844297,"[50, 0, 204]",204,a,0.21637762936006766,1,colour,0.5,3.9
86,21,0,1,9,10,410,622.6929723232315,623.416325562881,"[39, 0, 215]",215,a,0.19988609962456394,1,colour,0.5,3.9
86,21,0,1,9,11,411,623.9275598341337,624.8483510242659,"[63, 0, 191]",191,l,0.39742448095057625,1,colour,0.5,3.9
86,21,0,1,9,12,412,625.3650601541303,625.9043579496501,"[27, 0, 227]",227,a,0.01621977573086042,1,colour,0.5,3.9
86,21,0,1,9,13,413,626.3996268699411,627.072329495044,"[2, 0, 252]",252,a,0.14932961437443737,1,colour,0.5,3.9
86,21,0,1,9,14,414,627.587216691536,628.5123457057634,"[64, 0, 190]",190,l,0.401720951180323,1,colour,0.5,3.9
86,21,0,1,9,15,415,629.0248706116254,630.0083893218834,"[3, 0, 251]",251,a,0.46021777341957204,1,colour,0.5,3.9
86,21,0,1,9,16,416,630.5249432762794,631.3203570138721,"[48, 0, 206]",206,a,0.27203521301271394,1,colour,0.5,3.9
86,21,0,1,9,17,417,631.8375564824964,632.6403465690673,"[78, 0, 176]",176,l,0.2787325708195567,1,colour,0.5,3.9
86,21,0,1,9,18,418,633.1510522984754,634.0963537307689,"[25, 0, 229]",229,a,0.4220115231582895,1,colour,0.5,3.9
86,21,0,1,9,19,419,634.6043521601096,635.3443914896197,"[35, 0, 219]",219,a,0.21675335882173385,1,colour,0.5,3.9
86,21,0,1,9,20,420,635.8544095632242,636.6003412285208,"[10, 0, 244]",244,a,0.22263072845817078,1,colour,0.5,3.9
86,21,0,1,9,21,421,637.1201353571378,637.89634987108,"[94, 0, 160]",160,l,0.2528757678519469,1,colour,0.5,3.9
86,21,0,1,9,22,422,638.4170144002128,639.1763651995861,"[36, 0, 218]",218,a,0.23591319783008657,1,colour,0.5,3.9
86,21,0,1,9,23,423,639.6828217203147,640.4643811235728,"[37, 0, 217]",217,a,0.25815646020055283,1,colour,0.5,3.9
86,21,0,1,9,24,424,640.9811367273214,641.7444204767089,"[71, 0, 183]",183,l,0.2398536309337942,1,colour,0.5,3.9
86,21,0,1,9,25,425,642.2624332381238,642.9923503216414,"[21, 0, 233]",233,a,0.20634793728822842,1,colour,0.5,3.9
86,21,0,1,9,26,426,643.5126013120607,644.320353863106,"[0, 0, 254]",254,a,0.2843184941157233,1,colour,0.5,3.9
86,21,0,1,9,27,427,644.8408498259814,645.8323600732692,"[56, 0, 198]",198,a,0.468132904250524,0,colour,0.5,3.9
86,21,0,1,9,28,428,646.3409957460681,647.1123761894705,"[90, 0, 164]",164,l,0.2479597772617126,1,colour,0.5,3.9
86,21,0,1,9,29,429,647.622224909137,648.4083474166255,"[8, 0, 246]",246,a,0.2634103710006457,1,colour,0.5,3.9
86,21,0,1,9,30,430,648.9192831523251,649.7123995839502,"[53, 0, 201]",201,a,0.2697800486057531,0,colour,0.5,3.9
86,21,0,1,9,31,431,650.231869183146,650.9923904939642,"[14, 0, 240]",240,a,0.23710970314277802,1,colour,0.5,3.9
86,21,0,1,9,32,432,651.5132724263094,652.2723766778363,"[95, 0, 159]",159,l,0.23583364086516667,1,colour,0.5,3.9
86,21,0,1,9,33,433,652.778886761691,653.5843644559936,"[59, 0, 195]",195,a,0.2819963758229278,0,colour,0.5,3.9
86,21,0,1,9,34,434,654.091606306436,655.0724102335516,"[73, 0, 181]",181,l,0.4575498579943087,1,colour,0.5,3.9
86,21,0,1,9,35,435,655.5916510079987,656.6323818136007,"[86, 0, 168]",168,l,0.517340071790386,1,colour,0.5,3.9
86,21,0,1,9,36,436,657.1387509004417,657.9043725219672,"[41, 0, 213]",213,a,0.2423443154693814,1,colour,0.5,3.9
86,21,0,1,9,37,437,658.4200537127763,659.2563983299333,"[84, 0, 170]",170,l,0.31299248029245064,1,colour,0.5,3.9
86,21,0,1,9,38,438,659.7639454113232,660.5843510652194,"[85, 0, 169]",169,l,0.29706769550102763,1,colour,0.5,3.9
86,21,0,1,9,39,439,661.0940387017181,661.8963349049154,"[79, 0, 175]",175,l,0.27886372167267837,1,colour,0.5,3.9
86,21,0,1,9,40,440,662.3941811559489,663.1684142287268,"[40, 0, 214]",214,a,0.25082894817751367,1,colour,0.5,3.9
86,21,0,1,9,41,441,663.6754725467472,664.4403915463336,"[97, 0, 157]",157,l,0.2414754903584253,1,colour,0.5,3.9
86,21,0,1,9,42,442,664.9569065099349,665.9043930019834,"[74, 0, 180]",180,l,0.42409615208453033,1,colour,0.5,3.9
86,21,0,1,9,43,443,666.4258271069557,667.2483705590421,"[32, 0, 222]",222,a,0.2992306998494314,1,colour,0.5,3.9
86,21,0,1,9,44,444,667.7696542146878,668.6483672507311,"[91, 0, 163]",163,l,0.3553431760810781,1,colour,0.5,3.9
86,21,0,1,9,45,445,669.1603734609089,670.0403700423194,"[44, 0, 210]",210,a,0.35660387836105656,1,colour,0.5,3.9
86,21,0,1,9,46,446,670.55113169791,671.3444170896255,"[23, 0, 231]",231,a,0.26991986407665536,1,colour,0.5,3.9
86,21,0,1,9,47,447,671.8637740487611,672.6723343787453,"[58, 0, 196]",196,a,0.28562251951370854,0,colour,0.5,3.9
86,21,0,1,9,48,448,673.1918977133755,674.0083546633978,"[81, 0, 173]",173,l,0.29303510233876295,1,colour,0.5,3.9
86,21,0,1,9,49,449,674.5201954580843,675.3363794725738,"[51, 0, 203]",203,a,0.2928641730104573,0,colour,0.5,3.9
86,21,0,1,9,50,450,675.8484471227857,676.5923776545824,"[29, 0, 225]",225,a,0.2206252626492642,1,colour,0.5,3.9
86,21,0,1,10,1,451,691.9113684153417,692.5043915841379,"[21, 0, 233]",233,a,0.06879157295043115,1,colour,0.5,3.8
86,21,0,1,10,2,452,693.021749772859,693.7283696610684,"[52, 0, 202]",202,a,0.18339496372209396,0,colour,0.5,3.8
86,21,0,1,10,3,453,694.2404999328573,695.0163741635188,"[33, 0, 221]",221,a,0.2524945245386334,1,colour,0.5,3.8
86,21,0,1,10,4,454,695.5375715668197,696.312426129196,"[90, 0, 164]",164,l,0.2514165669999784,1,colour,0.5,3.8
86,21,0,1,10,5,455,696.8188129391201,697.6563946277893,"[67, 0, 187]",187,l,0.3170750919380225,1,colour,0.5,3.8
86,21,0,1,10,6,456,698.1754940113751,698.7204635887028,"[41, 0, 213]",213,a,0.0216343758511357,1,colour,0.5,3.8
86,21,0,1,10,7,457,699.2380525714107,700.0804222505976,"[69, 0, 185]",185,l,0.3191022192913806,1,colour,0.5,3.8
86,21,0,1,10,8,458,700.5974980514438,701.3524039004988,"[4, 0, 250]",250,a,0.23152771830791607,1,colour,0.5,3.8
86,21,0,1,10,9,459,701.8632321161276,702.7204072686727,"[72, 0, 182]",182,l,0.3337891448754817,1,colour,0.5,3.8
86,21,0,1,10,10,460,703.2383845839067,704.0003713971528,"[9, 0, 245]",245,a,0.23875322412641253,1,colour,0.5,3.8
86,21,0,1,10,11,461,704.5197110270383,705.296378070474,"[95, 0, 159]",159,l,0.25326961422979366,1,colour,0.5,3.8
86,21,0,1,10,12,462,705.8170394488407,706.5924158576818,"[81, 0, 173]",173,l,0.2521010720083723,1,colour,0.5,3.8
86,21,0,1,10,13,463,707.1139236119197,707.8963463264663,"[87, 0, 167]",167,l,0.2590284361067461,1,colour,0.5,3.8
86,21,0,1,10,14,464,708.4109566489351,709.2404696066806,"[77, 0, 177]",177,l,0.30613522084604483,1,colour,0.5,3.8
86,21,0,1,10,15,465,709.7547790305252,710.5123783950112,"[1, 0, 253]",253,a,0.23423935068421997,1,colour,0.5,3.8
86,21,0,1,10,16,466,711.0205339690583,711.832475076415,"[25, 0, 229]",229,a,0.288689795153914,1,colour,0.5,3.8
86,21,0,1,10,17,467,712.3488100522227,713.1203941142012,"[62, 0, 192]",192,a,0.24826579588989262,0,colour,0.5,3.8
86,21,0,1,10,18,468,713.6177535711031,714.6484133307531,"[66, 0, 188]",188,l,0.5037523714418057,1,colour,0.5,3.8
86,21,0,1,10,19,469,715.1683965056436,715.9524265072832,"[83, 0, 171]",171,l,0.2606404493562877,1,colour,0.5,3.8
86,21,0,1,10,20,470,716.4653952780209,717.2804272918293,"[19, 0, 235]",235,a,0.29169878155516926,1,colour,0.5,3.8
86,21,0,1,10,21,471,717.7936430042464,718.6243898827233,"[26, 0, 228]",228,a,0.3075030493637314,1,colour,0.5,3.8
86,21,0,1,10,22,472,719.1374898043141,719.8723555676697,"[92, 0, 162]",162,l,0.2114726664731279,1,colour,0.5,3.8
86,21,0,1,10,23,473,720.3875290904834,721.2243990987336,"[84, 0, 170]",170,l,0.31340168669703417,1,colour,0.5,3.8
86,21,0,1,10,24,474,721.7333510301687,722.448449249554,"[15, 0, 239]",239,a,0.19184493795910385,1,colour,0.5,3.8
86,21,0,1,10,25,475,722.9677514640352,723.7283739933773,"[14, 0, 240]",240,a,0.23713333392515779,1,colour,0.5,3.8
86,21,0,1,10,26,476,724.2491208364081,725.0724381966429,"[29, 0, 225]",225,a,0.2999136294820346,1,colour,0.5,3.8
86,21,0,1,10,27,477,725.5930649165239,726.3604576652579,"[91, 0, 163]",163,l,0.24403746108873747,1,colour,0.5,3.8
86,21,0,1,10,28,478,726.8744212919701,732.1684457364463,"[63, 0, 191]",191,l,4.776203880101093,1,colour,0.5,3.8
86,21,0,1,10,29,479,732.6819237505551,733.560406780307,"[76, 0, 178]",178,l,0.3558185486617731,1,colour,0.5,3.8
86,21,0,1,10,30,480,734.0726185782842,734.816409688472,"[86, 0, 168]",168,l,0.22076310888223816,1,colour,0.5,3.8
86,21,0,1,10,31,481,735.3227035506425,736.1923872644256,"[2, 0, 252]",252,a,0.3465674908948131,1,colour,0.5,3.8
86,21,0,1,10,32,482,736.7134629691864,737.6164263087849,"[3, 0, 251]",251,a,0.37966831044468563,1,colour,0.5,3.8
86,21,0,1,10,33,483,738.1355359323788,738.9684139136516,"[38, 0, 216]",216,a,0.3094384104915662,1,colour,0.5,3.8
86,21,0,1,10,34,484,739.4794662278728,740.360429308319,"[71, 0, 183]",183,l,0.35759243278880604,1,colour,0.5,3.8
86,21,0,1,10,35,485,740.8717647980957,741.68038144811,"[97, 0, 157]",157,l,0.28535509781795554,1,colour,0.5,3.8
86,21,0,1,10,36,486,742.2000168566301,743.0243881498027,"[27, 0, 227]",227,a,0.3010187624458922,1,colour,0.5,3.8
86,21,0,1,10,37,487,743.5438801982382,747.4084403643792,"[65, 0, 189]",189,a,3.341211180042592,0,colour,0.5,3.8
86,21,0,1,10,38,488,747.9217218491394,748.7284547318995,"[53, 0, 201]",201,a,0.28333742277754936,0,colour,0.5,3.8
86,21,0,1,10,39,489,749.365361052769,750.0164249697118,"[89, 0, 165]",165,l,0.13435399936861359,1,colour,0.5,3.8
86,21,0,1,10,40,490,750.5312948369537,751.3684133622737,"[44, 0, 210]",210,a,0.31436936726095155,1,colour,0.5,3.8
86,21,0,1,10,41,491,751.8771888505289,752.6164487580245,"[34, 0, 220]",220,a,0.21595897065708414,1,colour,0.5,3.8
86,21,0,1,10,42,492,753.1273069059826,753.8724737215962,"[20, 0, 234]",234,a,0.22229005132976454,1,colour,0.5,3.8
86,21,0,1,10,43,493,754.3931193460885,755.1445928238827,"[88, 0, 166]",166,l,0.22798822083859704,1,colour,0.5,3.8
86,21,0,1,10,44,494,755.6587403768644,756.3684354176658,"[82, 0, 172]",172,l,0.18650241171417292,1,colour,0.5,3.8
86,21,0,1,10,45,495,756.880061566073,757.4644437451498,"[30, 0, 224]",224,a,0.061454608614440076,1,colour,0.5,3.8
86,21,0,1,10,46,496,757.9654671549943,759.0804324906057,"[12, 0, 242]",242,a,0.5978005254728487,1,colour,0.5,3.8
86,21,0,1,10,47,497,759.6004062131688,760.3444931019767,"[36, 0, 218]",218,a,0.2220116019161651,1,colour,0.5,3.8
86,21,0,1,10,48,498,760.8502068284288,761.5445977863565,"[8, 0, 246]",246,a,0.17199350468581542,1,colour,0.5,3.8
86,21,0,1,10,49,499,762.0538088687172,762.9044107250666,"[49, 0, 205]",205,a,0.32752974425966386,1,colour,0.5,3.8
86,21,0,1,10,50,500,763.4127124161314,764.1124770141469,"[24, 0, 230]",230,a,0.17687956296140328,1,colour,0.5,3.8
86,21,0,1,11,1,501,776.9819972816767,777.5524491140677,"[35, 0, 219]",219,a,0.04628010118904058,1,colour,0.5,3.8
86,21,0,1,11,2,502,778.0610583991511,780.1124254202732,"[58, 0, 196]",196,a,1.5279495057475287,0,colour,0.5,3.8
86,21,0,1,11,3,503,780.6237010453915,781.304452709097,"[2, 0, 252]",252,a,0.15734950834303163,1,colour,0.5,3.8
86,21,0,1,11,4,504,781.811349943935,782.5685003235558,"[31, 0, 223]",223,a,0.23379824274161365,1,colour,0.5,3.8
86,21,0,1,11,5,505,783.077048168605,783.8724851431325,"[39, 0, 215]",215,a,0.27201591453922447,1,colour,0.5,3.8
86,21,0,1,11,6,506,784.3786419467651,785.1284691466717,"[30, 0, 224]",224,a,0.22671215854643378,1,colour,0.5,3.8
86,21,0,1,11,7,507,785.6443090575631,786.3044475890929,"[32, 0, 222]",222,a,0.13679348389268853,1,colour,0.5,3.8
86,21,0,1,11,8,508,786.806170863958,787.608407596359,"[92, 0, 162]",162,l,0.279172497233958,1,colour,0.5,3.8
86,21,0,1,11,9,509,788.1193378181924,788.86442940915,"[77, 0, 177]",177,l,0.22170164482668042,1,colour,0.5,3.8
86,21,0,1,11,10,510,789.3874014842586,790.5604343495506,"[69, 0, 185]",185,l,0.6496649745677132,1,colour,0.5,3.8
86,21,0,1,11,11,511,791.0750245858653,791.9204607530119,"[13, 0, 241]",241,a,0.3220241656235885,1,colour,0.5,3.8
86,21,0,1,11,12,512,792.4344231981813,793.336460604929,"[94, 0, 160]",160,l,0.3789184269262478,1,colour,0.5,3.8
86,21,0,1,11,13,513,793.8565268813982,794.6484342046169,"[47, 0, 207]",207,a,0.2687729833996855,1,colour,0.5,3.8
86,21,0,1,11,14,514,795.1696658725414,795.9844281015685,"[1, 0, 253]",253,a,0.29191618475306313,1,colour,0.5,3.8
86,21,0,1,11,15,515,796.4973275553493,797.3364657249331,"[14, 0, 240]",240,a,0.31581123887735885,1,colour,0.5,3.8
86,21,0,1,11,16,516,797.8430663934414,798.648470438493,"[3, 0, 251]",251,a,0.2820156743109692,1,colour,0.5,3.8
86,21,0,1,11,17,517,799.1556827504392,799.9285720193438,"[84, 0, 170]",170,l,0.24961235669616144,1,colour,0.5,3.8
86,21,0,1,11,18,518,800.4370186458691,801.2964414797461,"[37, 0, 217]",217,a,0.33599507849430665,1,colour,0.5,3.8
86,21,0,1,11,19,519,801.8120616243687,802.5524762894638,"[10, 0, 244]",244,a,0.2169546143268235,1,colour,0.5,3.8
86,21,0,1,11,20,520,803.0621784982795,803.8964117049618,"[6, 0, 248]",248,a,0.311660885650781,1,colour,0.5,3.8
86,21,0,1,11,21,521,804.409024832421,805.1684165918123,"[23, 0, 231]",231,a,0.2360730994696496,1,colour,0.5,3.8
86,21,0,1,11,22,522,805.6747604724806,806.4644661944039,"[42, 0, 212]",212,a,0.2663693389040418,1,colour,0.5,3.8
86,21,0,1,11,23,523,806.9717328571569,807.9604314350872,"[50, 0, 204]",204,a,0.46820615966862533,1,colour,0.5,3.8
86,21,0,1,11,24,524,808.4689694339759,809.3124714215228,"[70, 0, 184]",184,l,0.3200860475481022,1,colour,0.5,3.8
86,21,0,1,11,25,525,809.8284027047775,810.632451524405,"[72, 0, 182]",182,l,0.28064233194163535,1,colour,0.5,3.8
86,21,0,1,11,26,526,811.1411490310857,811.9204347591585,"[19, 0, 235]",235,a,0.2559331973607186,1,colour,0.5,3.8
86,21,0,1,11,27,527,812.4380796680343,813.160558174859,"[74, 0, 180]",180,l,0.19917205612000544,1,colour,0.5,3.8
86,21,0,1,11,28,528,813.6725565080997,814.4644551667006,"[81, 0, 173]",173,l,0.28102515064529143,1,colour,0.5,3.8
86,21,0,1,11,29,529,814.9726205869083,815.5284418137308,"[78, 0, 176]",176,l,0.03257188385759946,1,colour,0.5,3.8
86,21,0,1,11,30,530,816.0352630362177,816.800455365199,"[87, 0, 167]",167,l,0.24175787820422556,1,colour,0.5,3.8
86,21,0,1,11,31,531,817.3061919347383,817.9685415198765,"[54, 0, 200]",200,a,0.1392601437983103,0,colour,0.5,3.8
86,21,0,1,11,32,532,818.4781866209669,819.2644308269955,"[51, 0, 203]",203,a,0.2629133368609473,0,colour,0.5,3.8
86,21,0,1,11,33,533,819.7750652701943,820.6084418609971,"[18, 0, 236]",236,a,0.31057071886607446,1,colour,0.5,3.8
86,21,0,1,11,34,534,821.1190215595561,821.8324380548584,"[28, 0, 226]",226,a,0.19005687534809113,1,colour,0.5,3.8
86,21,0,1,11,35,535,822.3534420795768,823.0645533919887,"[5, 0, 249]",249,a,0.18782809865660965,1,colour,0.5,3.8
86,21,0,1,11,36,536,823.57229582117,824.2885184719926,"[33, 0, 221]",221,a,0.19295716015039943,1,colour,0.5,3.8
86,21,0,1,11,37,537,824.8067573012231,825.5524577786855,"[88, 0, 166]",166,l,0.22298794711241499,1,colour,0.5,3.8
86,21,0,1,11,38,538,826.0724744305189,826.7604976800503,"[29, 0, 225]",225,a,0.16492711281171069,1,colour,0.5,3.8
86,21,0,1,11,39,539,827.2757105875062,828.0324383699335,"[85, 0, 169]",169,l,0.233299239363987,1,colour,0.5,3.8
86,21,0,1,11,40,540,828.5415206645412,829.3044783091173,"[73, 0, 181]",181,l,0.2396823077579029,1,colour,0.5,3.8
86,21,0,1,11,41,541,829.8277118982223,830.5524341479031,"[55, 0, 199]",199,a,0.2012409311864758,0,colour,0.5,3.8
86,21,0,1,11,42,542,831.0622572675493,831.8084721084015,"[75, 0, 179]",179,l,0.22277723930892535,1,colour,0.5,3.8
86,21,0,1,11,43,543,832.3281008215272,833.0164336343296,"[56, 0, 198]",198,a,0.16498618977493607,0,colour,0.5,3.8
86,21,0,1,11,44,544,833.5312838092505,834.2324950050534,"[91, 0, 163]",163,l,0.17818516373517923,1,colour,0.5,3.8
86,21,0,1,11,45,545,834.7505684188072,835.480437453065,"[80, 0, 174]",174,l,0.2065023250761442,1,colour,0.5,3.8
86,21,0,1,11,46,546,836.0007703635347,836.672587228124,"[60, 0, 194]",194,a,0.14855413085024338,0,colour,0.5,3.8
86,21,0,1,11,47,547,837.1883873605257,837.9044985528162,"[9, 0, 245]",245,a,0.19152316545660142,1,colour,0.5,3.8
86,21,0,1,11,48,548,838.4249661587528,839.1124612602871,"[12, 0, 242]",242,a,0.16408270616375376,1,colour,0.5,3.8
86,21,0,1,11,49,549,839.6282468203863,841.2724365424947,"[59, 0, 195]",195,a,1.120789929831517,0,colour,0.5,3.8
86,21,0,1,11,50,550,841.7846306173888,842.5604508911056,"[49, 0, 205]",205,a,0.25323101729736663,1,colour,0.5,3.8
86,21,0,1,12,1,551,862.3951476549846,863.0724507997365,"[72, 0, 182]",182,l,0.15299356731702574,1,colour,0.5,3.8
86,21,0,1,12,2,552,863.5836697109771,864.2404625174531,"[2, 0, 252]",252,a,0.13352967888931744,1,colour,0.5,3.8
86,21,0,1,12,3,553,864.7556053202425,865.4964591240714,"[35, 0, 219]",219,a,0.217704891692847,1,colour,0.5,3.8
86,21,0,1,12,4,554,865.9968957027886,866.6964877960854,"[40, 0, 214]",214,a,0.17640537190891337,1,colour,0.5,3.8
86,21,0,1,12,5,555,867.2156627981749,867.9765283307497,"[91, 0, 163]",163,l,0.23749921722628642,1,colour,0.5,3.8
86,21,0,1,12,6,556,868.4969778197556,869.2084388677613,"[7, 0, 247]",247,a,0.18812387729121838,1,colour,0.5,3.8
86,21,0,1,12,7,557,869.7158996967773,870.4005086919933,"[5, 0, 249]",249,a,0.1612773383531021,1,colour,0.5,3.8
86,21,0,1,12,8,558,870.9191252199234,871.6884923205944,"[69, 0, 185]",185,l,0.2460468653589487,1,colour,0.5,3.8
86,21,0,1,12,9,559,872.2003658045287,872.992490924793,"[53, 0, 201]",201,a,0.26880094649095554,0,colour,0.5,3.8
86,21,0,1,12,10,560,873.4992916672782,874.2404739389895,"[93, 0, 161]",161,l,0.21796246722806245,1,colour,0.5,3.8
86,21,0,1,12,11,561,874.7494191750447,875.4965237148717,"[24, 0, 230]",230,a,0.22378627373836935,1,colour,0.5,3.8
86,21,0,1,12,12,562,876.0061321882386,876.8165081500629,"[75, 0, 179]",179,l,0.28729203433613293,1,colour,0.5,3.8
86,21,0,1,12,13,563,877.3344074837223,878.0564815102989,"[4, 0, 250]",250,a,0.1988053851382574,1,colour,0.5,3.8
86,21,0,1,12,14,564,878.5706676602131,879.3845165594685,"[51, 0, 203]",203,a,0.2904333531187149,0,colour,0.5,3.8
86,21,0,1,12,15,565,879.8895241193532,880.6724741942016,"[41, 0, 213]",213,a,0.2597645349887898,1,colour,0.5,3.8
86,21,0,1,12,16,566,881.1865315563628,881.9204792637902,"[12, 0, 242]",242,a,0.21053925053274725,1,colour,0.5,3.8
86,21,0,1,12,17,567,882.4379248864134,883.1776262957137,"[44, 0, 210]",210,a,0.21703220206836704,1,colour,0.5,3.8
86,21,0,1,12,18,568,883.6873088121938,884.4485189603583,"[31, 0, 223]",223,a,0.23783713742159307,1,colour,0.5,3.8
86,21,0,1,12,19,569,884.9686458891811,885.7765311664552,"[64, 0, 190]",190,l,0.2844197126541985,1,colour,0.5,3.8
86,21,0,1,12,20,570,886.2969396954286,887.0485073025047,"[66, 0, 188]",188,l,0.22833677488961257,1,colour,0.5,3.8
86,21,0,1,12,21,571,887.562575298507,888.3044751583366,"[98, 0, 156]",156,l,0.2184224797965726,1,colour,0.5,3.8
86,21,0,1,12,22,572,888.812694929351,889.4645461452164,"[34, 0, 220]",220,a,0.12839313432050403,1,colour,0.5,3.8
86,21,0,1,12,23,573,889.9861952903157,890.7125173440145,"[58, 0, 196]",196,a,0.202984095303691,0,colour,0.5,3.8
86,21,0,1,12,24,574,891.2205894226354,891.9765157276706,"[46, 0, 208]",208,a,0.2325706235569669,1,colour,0.5,3.8
86,21,0,1,12,25,575,892.4863290011563,893.1045079263567,"[30, 0, 224]",224,a,0.09474092980963178,1,colour,0.5,3.8
86,21,0,1,12,26,576,893.6114851120219,894.240604695995,"[1, 0, 253]",253,a,0.10576035786652938,1,colour,0.5,3.8
86,21,0,1,12,27,577,894.7521701920632,895.4245006323326,"[8, 0, 246]",246,a,0.14900784188648686,1,colour,0.5,3.8
86,21,0,1,12,28,578,895.939711176703,896.6485031277407,"[17, 0, 237]",237,a,0.1856745466211578,1,colour,0.5,3.8
86,21,0,1,12,29,579,897.1585936690826,898.0005348433915,"[56, 0, 198]",198,a,0.31858864359674044,0,colour,0.5,3.8
86,21,0,1,12,30,580,898.5180493891239,899.0724661597342,"[80, 0, 174]",174,l,0.03096105213626288,1,colour,0.5,3.8
86,21,0,1,12,31,581,899.5807351615513,900.2084790400841,"[97, 0, 157]",157,l,0.1043086400750326,1,colour,0.5,3.8
86,21,0,1,12,32,582,900.7186412614828,901.448531957285,"[38, 0, 216]",216,a,0.20649208505346905,1,colour,0.5,3.8
86,21,0,1,12,33,583,901.9687534092373,902.6644905341091,"[0, 0, 254]",254,a,0.172367658757139,1,colour,0.5,3.8
86,21,0,1,12,34,584,903.1720053200843,903.9125117513904,"[55, 0, 199]",199,a,0.21728544528014027,0,colour,0.5,3.8
86,21,0,1,12,35,585,904.4220962001418,905.152472902395,"[49, 0, 205]",205,a,0.20711396851402242,1,colour,0.5,3.8
86,21,0,1,12,36,586,905.6721744771057,906.3685598731245,"[15, 0, 239]",239,a,0.1731100591860013,1,colour,0.5,3.8
86,21,0,1,12,37,587,906.8753952740808,907.5525180371915,"[74, 0, 180]",180,l,0.15374817699193954,1,colour,0.5,3.8
86,21,0,1,12,38,588,908.0629228679463,908.7925370836019,"[87, 0, 167]",167,l,0.20611674946849234,1,colour,0.5,3.8
86,21,0,1,12,39,589,909.3130574649549,910.056494113378,"[9, 0, 245]",245,a,0.21987262219772674,1,colour,0.5,3.8
86,21,0,1,12,40,590,910.563134560376,911.2564774930652,"[57, 0, 197]",197,a,0.16980450646951795,0,colour,0.5,3.8
86,21,0,1,12,41,591,911.7664297943265,912.4885136670637,"[62, 0, 192]",192,a,0.19866753890528344,0,colour,0.5,3.8
86,21,0,1,12,42,592,913.0009089974628,913.7285090826917,"[77, 0, 177]",177,l,0.2042156529496424,1,colour,0.5,3.8
86,21,0,1,12,43,593,914.2353665390547,914.9365363809775,"[84, 0, 170]",170,l,0.17774641886353493,1,colour,0.5,3.8
86,21,0,1,12,44,594,915.4435718558962,916.0405043439387,"[65, 0, 189]",189,a,0.0734594403184019,0,colour,0.5,3.8
86,21,0,1,12,45,595,916.5530402774893,917.2085007016431,"[11, 0, 243]",243,a,0.13202951800485607,1,colour,0.5,3.8
86,21,0,1,12,46,596,917.7250172406348,918.3045271460578,"[59, 0, 195]",195,a,0.05612783622927964,0,colour,0.5,3.8
86,21,0,1,12,47,597,918.8188409022114,919.4405971341475,"[18, 0, 236]",236,a,0.09842063661199063,1,colour,0.5,3.8
86,21,0,1,12,48,598,919.9595216499438,920.5445521001675,"[32, 0, 222]",222,a,0.06032938948192168,1,colour,0.5,3.8
86,21,0,1,12,49,599,921.0545205491362,921.7285000242264,"[94, 0, 160]",160,l,0.15047846428933553,1,colour,0.5,3.8
86,21,0,1,12,50,600,922.2421084014932,924.328508846389,"[70, 0, 184]",184,a,1.5629663879662985,0,colour,0.5,3.8
86,21,0,1,13,1,601,935.9455255309003,936.7844825311477,"[65, 0, 189]",189,a,0.3145670781523222,0,colour,0.5,3.8
86,21,0,1,13,2,602,937.2904534392874,937.9365769471478,"[64, 0, 190]",190,a,0.12293363569187932,0,colour,0.5,3.8
86,21,0,1,13,3,603,938.4467698885564,939.0405078885524,"[35, 0, 219]",219,a,0.0703047307615634,1,colour,0.5,3.8
86,21,0,1,13,4,604,939.5562162547576,940.2324965804291,"[53, 0, 201]",201,a,0.15320348742534406,0,colour,0.5,3.8
86,21,0,1,13,5,605,940.7438009563484,941.3925608719146,"[19, 0, 235]",235,a,0.13455840563983656,1,colour,0.5,3.8
86,21,0,1,13,6,606,941.9065363140253,942.5365818308492,"[22, 0, 232]",232,a,0.10700963861017954,1,colour,0.5,3.8
86,21,0,1,13,7,607,943.047274563316,943.6966862946574,"[49, 0, 205]",205,a,0.1262573053536471,1,colour,0.5,3.8
86,21,0,1,13,8,608,944.2035748648923,944.8725465831667,"[34, 0, 220]",220,a,0.14559083062340505,1,colour,0.5,3.8
86,21,0,1,13,9,609,945.3911993449583,946.0405382147292,"[2, 0, 252]",252,a,0.12606747139943764,1,colour,0.5,3.8
86,21,0,1,13,10,610,946.5475898373552,947.2885149273789,"[14, 0, 240]",240,a,0.21759461470355745,1,colour,0.5,3.8
86,21,0,1,13,11,611,947.7976586620061,948.4885329655372,"[15, 0, 239]",239,a,0.16756391437957063,1,colour,0.5,3.8
86,21,0,1,13,12,612,949.0008751266723,949.7845148265478,"[50, 0, 204]",204,a,0.26023084911867045,1,colour,0.5,3.8
86,21,0,1,13,13,613,950.2957490978006,951.0325628253922,"[55, 0, 199]",199,a,0.2134241753083188,0,colour,0.5,3.8
86,21,0,1,13,14,614,951.5459404086869,952.3365295280528,"[24, 0, 230]",230,a,0.2671385208959691,1,colour,0.5,3.8
86,21,0,1,13,15,615,952.830681893829,953.568540102031,"[74, 0, 180]",180,l,0.2146896037447732,1,colour,0.5,3.8
86,21,0,1,13,16,616,954.0807408723194,954.7125748455874,"[8, 0, 246]",246,a,0.10855272875051014,1,colour,0.5,3.8
86,21,0,1,13,17,617,955.2214523400617,955.8805168524996,"[32, 0, 222]",222,a,0.13572537250001915,1,colour,0.5,3.8
86,21,0,1,13,18,618,956.3933867677842,957.0885055538238,"[78, 0, 176]",176,l,0.1717331722175004,1,colour,0.5,3.8
86,21,0,1,13,19,619,957.5966268632474,958.3446486713074,"[23, 0, 231]",231,a,0.2247283542965306,1,colour,0.5,3.8
86,21,0,1,13,20,620,958.8624365464348,959.4965556164389,"[10, 0, 244]",244,a,0.11093353015894536,1,colour,0.5,3.8
86,21,0,1,13,21,621,960.0030314356409,960.8485089566675,"[60, 0, 194]",194,a,0.322102934907889,0,colour,0.5,3.8
86,21,0,1,13,22,622,961.3624836110685,962.2965391536563,"[33, 0, 221]",221,a,0.41062896874791477,1,colour,0.5,3.8
86,21,0,1,13,23,623,962.8157551157783,963.5365089692641,"[76, 0, 178]",178,l,0.19738320584292524,1,colour,0.5,3.8
86,21,0,1,13,24,624,964.0502146265935,964.7045395916066,"[37, 0, 217]",217,a,0.13118550518993288,1,colour,0.5,3.8
86,21,0,1,13,25,625,965.2223317990429,965.9765677153919,"[46, 0, 208]",208,a,0.23098775492690038,1,colour,0.5,3.8
86,21,0,1,13,26,626,966.4881131252914,967.2005213738448,"[85, 0, 169]",169,l,0.18915142251353245,1,colour,0.5,3.8
86,21,0,1,13,27,627,967.7092669297854,968.4965485271969,"[52, 0, 202]",202,a,0.26395584824786056,0,colour,0.5,3.8
86,21,0,1,13,28,628,969.0062109575229,969.7445311475458,"[96, 0, 158]",158,l,0.21515985633595847,1,colour,0.5,3.8
86,21,0,1,13,29,629,970.2563538253016,971.040530337792,"[59, 0, 195]",195,a,0.2609626157063758,0,colour,0.5,3.8
86,21,0,1,13,30,630,971.5458218609274,972.2966065013898,"[94, 0, 160]",160,l,0.2368521276221145,1,colour,0.5,3.8
86,21,0,1,13,31,631,972.8177200154023,973.5286048661364,"[45, 0, 209]",209,a,0.1874417353537865,1,colour,0.5,3.8
86,21,0,1,13,32,632,974.0366044770199,977.3525909775344,"[63, 0, 191]",191,l,2.7925532312947325,1,colour,0.5,3.8
86,21,0,1,13,33,633,977.8557206778496,978.4085581244435,"[7, 0, 247]",247,a,0.029669235984329134,1,colour,0.5,3.8
86,21,0,1,13,34,634,978.9182847517368,979.4485603142384,"[3, 0, 251]",251,a,0.006895068698213436,1,colour,0.5,3.8
86,21,0,1,13,35,635,979.962593651755,980.656555710957,"[16, 0, 238]",238,a,0.1704748330230359,1,colour,0.5,3.8
86,21,0,1,13,36,636,981.1658463502827,981.8405465642718,"[4, 0, 250]",250,a,0.15127009552088566,1,colour,0.5,3.8
86,21,0,1,13,37,637,982.3534838272899,983.120562286611,"[77, 0, 177]",177,l,0.24373301783634815,1,colour,0.5,3.8
86,21,0,1,13,38,638,983.6348335073562,984.3286620526342,"[89, 0, 165]",165,l,0.1704610484011937,1,colour,0.5,3.8
86,21,0,1,13,39,639,984.8304861521756,985.4165500553208,"[92, 0, 162]",162,l,0.06278423401818145,1,colour,0.5,3.8
86,21,0,1,13,40,640,985.9119284648914,986.6565994279081,"[79, 0, 175]",175,l,0.22138656771858223,1,colour,0.5,3.8
86,21,0,1,13,41,641,987.1776385049452,987.8805428463529,"[12, 0, 242]",242,a,0.17951203220582101,1,colour,0.5,3.8
86,21,0,1,13,42,642,988.3964504988253,989.1445400484663,"[6, 0, 248]",248,a,0.2246661265671719,1,colour,0.5,3.8
86,21,0,1,13,43,643,989.6622735728015,990.4885617163236,"[72, 0, 182]",182,l,0.3029757851472823,1,colour,0.5,3.8
86,21,0,1,13,44,644,991.0060790189746,992.3285801325837,"[68, 0, 186]",186,l,0.7992261706240242,1,colour,0.5,3.8
86,21,0,1,13,45,645,992.8500244775641,993.6725545388617,"[41, 0, 213]",213,a,0.2991743798193056,1,colour,0.5,3.8
86,21,0,1,13,46,646,994.1938767914689,994.9845726431959,"[90, 0, 164]",164,l,0.266219677272602,1,colour,0.5,3.8
86,21,0,1,13,47,647,995.4920417429967,996.2325450235367,"[86, 0, 168]",168,l,0.21708930977911223,1,colour,0.5,3.8
86,21,0,1,13,48,648,996.7421645246068,997.8805621448264,"[71, 0, 183]",183,l,0.6150159448734485,1,colour,0.5,3.8
86,21,0,1,13,49,649,998.3985071646603,999.176545975075,"[87, 0, 167]",167,l,0.2546031781093916,1,colour,0.5,3.8
86,21,0,1,13,50,650,999.6955669832387,1000.400613455131,"[30, 0, 224]",224,a,0.1818160335533321,1,colour,0.5,3.8
86,21,0,1,14,1,651,1012.6332663925859,1013.3685764146649,"[48, 0, 206]",206,a,0.21119973091117572,1,colour,0.5,3.8
86,21,0,1,14,2,652,1013.8841548115743,1014.5445454047876,"[47, 0, 207]",207,a,0.1370577548223082,1,colour,0.5,3.8
86,21,0,1,14,3,653,1015.0560908146872,1015.8165361131541,"[32, 0, 222]",222,a,0.23773158658877946,1,colour,0.5,3.8
86,21,0,1,14,4,654,1016.337462550131,1017.0965577432071,"[54, 0, 200]",200,a,0.2357233638758771,0,colour,0.5,3.8
86,21,0,1,14,5,655,1017.6031761347986,1018.3286053387565,"[39, 0, 215]",215,a,0.2020936086337315,1,colour,0.5,3.8
86,21,0,1,14,6,656,1018.8376699102664,1019.5445741555741,"[42, 0, 212]",212,a,0.18354856382939033,1,colour,0.5,3.8
86,21,0,1,14,7,657,1020.0458338732424,1020.7845727219683,"[76, 0, 178]",178,l,0.2154469703527866,1,colour,0.5,3.8
86,21,0,1,14,8,658,1021.2865370308282,1021.9846329017018,"[96, 0, 158]",158,l,0.17470159244840033,1,colour,0.5,3.8
86,21,0,1,14,9,659,1022.5053372093098,1023.1925916707114,"[13, 0, 241]",241,a,0.16302522862679325,1,colour,0.5,3.8
86,21,0,1,14,10,660,1023.709688739269,1024.4406046172226,"[84, 0, 170]",170,l,0.20781659046770073,1,colour,0.5,3.8
86,21,0,1,14,11,661,1024.95982963781,1025.7046419916733,"[28, 0, 226]",226,a,0.2214550969802076,1,colour,0.5,3.8
86,21,0,1,14,12,662,1026.2255286501604,1027.0085653712158,"[26, 0, 228]",228,a,0.2596503195381956,1,colour,0.5,3.8
86,21,0,1,14,13,663,1027.5225223025482,1028.3445486343262,"[58, 0, 196]",196,a,0.29881755499809515,0,colour,0.5,3.8
86,21,0,1,14,14,664,1028.8414291740191,1029.5765950483328,"[14, 0, 240]",240,a,0.21173102970351465,1,colour,0.5,3.8
86,21,0,1,14,15,665,1030.0915476233204,1030.8646003384783,"[88, 0, 166]",166,l,0.25043628334242385,1,colour,0.5,3.8
86,21,0,1,14,16,666,1031.372896121844,1032.1206028527959,"[73, 0, 181]",181,l,0.22478112972748931,1,colour,0.5,3.8
86,21,0,1,14,17,667,1032.6386136449728,1033.3765655886236,"[5, 0, 249]",249,a,0.21468684682622552,1,colour,0.5,3.8
86,21,0,1,14,18,668,1033.8887840819953,1034.5846070653788,"[83, 0, 171]",171,l,0.17263114199158736,1,colour,0.5,3.8
86,21,0,1,14,19,669,1035.093793729262,1035.88857455572,"[36, 0, 218]",218,a,0.2722171700443141,1,colour,0.5,3.8
86,21,0,1,14,20,670,1036.4062427015451,1036.9765661400015,"[22, 0, 232]",232,a,0.04585474707710091,1,colour,0.5,3.8
86,21,0,1,14,21,671,1037.485592508412,1038.2085857724596,"[57, 0, 197]",197,a,0.1996017425262835,0,colour,0.5,3.8
86,21,0,1,14,22,672,1038.7200732869387,1039.456595174357,"[27, 0, 227]",227,a,0.21312800282612443,1,colour,0.5,3.8
86,21,0,1,14,23,673,1039.9718163525831,1040.7765579480038,"[75, 0, 179]",179,l,0.2814158462570049,1,colour,0.5,3.8
86,21,0,1,14,24,674,1041.2843889926298,1042.1606105564279,"[63, 0, 191]",191,a,0.3527107068366604,0,colour,0.5,3.8
86,21,0,1,14,25,675,1042.67513580808,1043.4085876629251,"[41, 0, 213]",213,a,0.210126105681411,1,colour,0.5,3.8
86,21,0,1,14,26,676,1043.9252392912167,1044.6246277659375,"[90, 0, 164]",164,l,0.1760146762971999,1,colour,0.5,3.8
86,21,0,1,14,27,677,1045.144083186664,1046.1445624977205,"[68, 0, 186]",186,l,0.4770310756721301,1,colour,0.5,3.8
86,21,0,1,14,28,678,1046.6598908021551,1047.360567154552,"[17, 0, 237]",237,a,0.17731082474347204,1,colour,0.5,3.8
86,21,0,1,14,29,679,1047.8787394237588,1048.6246013782365,"[59, 0, 195]",195,a,0.22249878990987781,0,colour,0.5,3.8
86,21,0,1,14,30,680,1049.1444159868552,1049.8326184364996,"[0, 0, 254]",254,a,0.16483928506204393,1,colour,0.5,3.8
86,21,0,1,14,31,681,1050.347659626932,1051.136613496099,"[7, 0, 247]",247,a,0.2656742000253871,1,colour,0.5,3.8
86,21,0,1,14,32,682,1051.644611531592,1052.392628219648,"[15, 0, 239]",239,a,0.22472874814411625,1,colour,0.5,3.8
86,21,0,1,14,33,683,1052.9114483661542,1053.5286603984714,"[6, 0, 248]",248,a,0.09193871276511345,1,colour,0.5,3.8
86,21,0,1,14,34,684,1054.0383539426693,1054.7605922031798,"[23, 0, 231]",231,a,0.19926736694469582,1,colour,0.5,3.8
86,21,0,1,14,35,685,1055.2755345381738,1056.0165722682577,"[46, 0, 208]",208,a,0.21768716860970017,1,colour,0.5,3.8
86,21,0,1,14,36,686,1056.5256592890073,1057.280559230363,"[85, 0, 169]",169,l,0.23139459823141806,1,colour,0.5,3.8
86,21,0,1,14,37,687,1057.7913543628965,1058.512602887451,"[97, 0, 157]",157,l,0.19788102767779492,1,colour,0.5,3.8
86,21,0,1,14,38,688,1059.0258938245388,1059.744626852218,"[50, 0, 204]",204,a,0.19539270619861782,1,colour,0.5,3.8
86,21,0,1,14,39,689,1060.2603214338014,1061.0245669560536,"[72, 0, 182]",182,l,0.24084415458492003,1,colour,0.5,3.8
86,21,0,1,14,40,690,1061.5416852923227,1062.2485714206996,"[51, 0, 203]",203,a,0.18353359765023924,0,colour,0.5,3.8
86,21,0,1,14,41,691,1062.7605626647128,1063.5525842033821,"[25, 0, 229]",229,a,0.2689450942707481,1,colour,0.5,3.8
86,21,0,1,14,42,692,1064.0741199207114,1064.6806071220926,"[56, 0, 198]",198,a,0.0831823260668898,0,colour,0.5,3.8
86,21,0,1,14,43,693,1065.1991799330572,1066.0085736420006,"[65, 0, 189]",189,l,0.28608371362497564,1,colour,0.5,3.8
86,21,0,1,14,44,694,1066.5275024901057,1067.2566204593022,"[79, 0, 175]",175,l,0.20573786924069282,1,colour,0.5,3.8
86,21,0,1,14,45,695,1067.7775524101307,1068.4406132818403,"[78, 0, 176]",176,l,0.1397067656071158,1,colour,0.5,3.8
86,21,0,1,14,46,696,1068.9494844747824,1069.696592559223,"[4, 0, 250]",250,a,0.22377091374073643,1,colour,0.5,3.8
86,21,0,1,14,47,697,1070.2152551671752,1070.9045714144013,"[91, 0, 163]",163,l,0.16596371651394293,1,colour,0.5,3.8
86,21,0,1,14,48,698,1071.41843539798,1072.1206028527959,"[94, 0, 160]",160,l,0.17790513894578908,1,colour,0.5,3.8
86,21,0,1,14,49,699,1072.6385990726558,1073.3206153771025,"[8, 0, 246]",246,a,0.15872009376471397,1,colour,0.5,3.8
86,21,0,1,14,50,700,1073.8418052973138,1074.4966269026336,"[49, 0, 205]",205,a,0.13143717304046731,1,colour,0.5,3.8
86,21,0,1,15,1,701,1085.1113703057927,1085.7126327410078,"[32, 0, 222]",222,a,0.07494936119474005,1,colour,0.5,3.8
86,21,0,1,15,2,702,1086.2237953322183,1087.0246185499273,"[66, 0, 188]",188,l,0.289759481936926,1,colour,0.5,3.8
86,21,0,1,15,3,703,1087.5396605280548,1088.1606160702795,"[75, 0, 179]",179,l,0.09773573774145916,1,colour,0.5,3.8
86,21,0,1,15,4,704,1088.680383811181,1089.3206291617244,"[97, 0, 157]",157,l,0.11688612443685997,1,colour,0.5,3.8
86,21,0,1,15,5,705,1089.8367550051044,1090.5366263354954,"[50, 0, 204]",204,a,0.176540067375754,1,colour,0.5,3.8
86,21,0,1,15,6,706,1091.0555953559233,1091.7686680233455,"[29, 0, 225]",225,a,0.1898477429349441,1,colour,0.5,3.8
86,21,0,1,15,7,707,1092.2744802113884,1092.9606291459786,"[10, 0, 244]",244,a,0.1628645392920589,1,colour,0.5,3.8
86,21,0,1,15,8,708,1093.47768170989,1094.1846052536857,"[24, 0, 230]",230,a,0.18359346230863594,1,colour,0.5,3.8
86,21,0,1,15,9,709,1094.6964302945125,1095.3606388345943,"[26, 0, 228]",228,a,0.14076148622552864,1,colour,0.5,3.8
86,21,0,1,15,10,710,1095.8559751026187,1096.6486173431913,"[55, 0, 199]",199,a,0.2693594206648413,0,colour,0.5,3.8
86,21,0,1,15,11,711,1097.1685894903785,1097.7925941913272,"[14, 0, 240]",240,a,0.10137605990166776,1,colour,0.5,3.8
86,21,0,1,15,12,712,1098.3093052904296,1098.97660198003,"[93, 0, 161]",161,l,0.14386893423215952,1,colour,0.5,3.8
86,21,0,1,15,13,713,1099.4970089336275,1100.160655061074,"[0, 0, 254]",254,a,0.14073273545363918,1,colour,0.5,3.8
86,21,0,1,15,14,714,1100.6689272136427,1101.2966321013955,"[34, 0, 220]",220,a,0.10286164845456369,1,colour,0.5,3.8
86,21,0,1,15,15,715,1101.8111179684201,1102.4646134929499,"[37, 0, 217]",217,a,0.13014181227481458,1,colour,0.5,3.8
86,21,0,1,15,16,716,1102.9833867717243,1103.7286248735327,"[84, 0, 170]",170,l,0.22184776182984933,1,colour,0.5,3.8
86,21,0,1,15,17,717,1104.249122805646,1104.9846372340107,"[73, 0, 181]",181,l,0.2121209376200568,1,colour,0.5,3.8
86,21,0,1,15,18,718,1105.4992507072602,1106.320653580202,"[64, 0, 190]",190,a,0.2980267114471644,0,colour,0.5,3.8
86,21,0,1,15,19,719,1106.8274299042096,1107.584639360779,"[17, 0, 237]",237,a,0.2337423165445216,1,colour,0.5,3.8
86,21,0,1,15,20,720,1108.0932758212584,1108.808676120825,"[57, 0, 197]",197,a,0.19212535658152774,0,colour,0.5,3.8
86,21,0,1,15,21,721,1109.327688858204,1110.1128094204905,"[74, 0, 180]",180,l,0.26172195153776556,1,colour,0.5,3.8
86,21,0,1,15,22,722,1110.6246116182301,1111.3846500733925,"[91, 0, 163]",163,l,0.23668789367366116,1,colour,0.5,3.8
86,21,0,1,15,23,723,1111.9060853599076,1112.6486197062623,"[96, 0, 158]",158,l,0.21938622191373724,1,colour,0.5,3.8
86,21,0,1,15,24,724,1113.1460673847614,1113.8407226136042,"[40, 0, 214]",214,a,0.17137634739628993,1,colour,0.5,3.8
86,21,0,1,15,25,725,1114.3491834185988,1115.1366446099564,"[49, 0, 205]",205,a,0.2640306790563045,1,colour,0.5,3.8
86,21,0,1,15,26,726,1115.6461085417104,1116.416638276918,"[65, 0, 189]",189,a,0.24706810904899612,0,colour,0.5,3.8
86,21,0,1,15,27,727,1116.9275299018045,1117.6406262000091,"[90, 0, 164]",164,l,0.20209203324338887,1,colour,0.5,3.8
86,21,0,1,15,28,728,1118.1496045191598,1119.1606463964417,"[56, 0, 198]",198,a,0.48766217115917243,0,colour,0.5,3.8
86,21,0,1,15,29,729,1119.6810088454076,1120.3126474708552,"[98, 0, 156]",156,l,0.10828136857890058,1,colour,0.5,3.8
86,21,0,1,15,30,730,1120.8217167685216,1121.6246348551795,"[13, 0, 241]",241,a,0.2794962389743887,1,colour,0.5,3.8
86,21,0,1,15,31,731,1122.1343323378242,1122.8406273027795,"[28, 0, 226]",226,a,0.18284279109502677,1,colour,0.5,3.8
86,21,0,1,15,32,732,1123.3532234948361,1124.0086520174227,"[48, 0, 206]",206,a,0.13201849030156154,1,colour,0.5,3.8
86,21,0,1,15,33,733,1124.5252473256842,1125.3047512446647,"[39, 0, 215]",215,a,0.2561888036580058,1,colour,0.5,3.8
86,21,0,1,15,34,734,1125.8221385780053,1126.8246446225676,"[62, 0, 192]",192,l,0.47919250463019125,1,colour,0.5,3.8
86,21,0,1,15,35,735,1127.337888298076,1128.0567635043117,"[43, 0, 211]",211,a,0.19551558628154453,1,colour,0.5,3.8
86,21,0,1,15,36,736,1128.572341507359,1130.4246609278052,"[47, 0, 207]",207,a,1.3289345943194348,1,colour,0.5,3.8
86,21,0,1,15,37,737,1130.9319323167147,1131.768643604868,"[92, 0, 162]",162,l,0.31335166819917504,1,colour,0.5,3.8
86,21,0,1,15,38,738,1132.2758669445175,1133.1046887018456,"[23, 0, 231]",231,a,0.305615343619138,1,colour,0.5,3.8
86,21,0,1,15,39,739,1133.619698778406,1135.3526165775547,"[85, 0, 169]",169,l,1.209586536133429,1,colour,0.5,3.8
86,21,0,1,15,40,740,1135.8698341631098,1136.6327016168652,"[44, 0, 210]",210,a,0.23990325556951575,1,colour,0.5,3.8
86,21,0,1,15,41,741,1137.151190538556,1137.9126243914652,"[54, 0, 200]",200,a,0.23307277770072687,0,colour,0.5,3.8
86,21,0,1,15,42,742,1138.421842563068,1139.1766133228084,"[60, 0, 194]",194,a,0.2314107459387742,0,colour,0.5,3.8
86,21,0,1,15,43,743,1139.6794417306228,1140.3766589302104,"[6, 0, 248]",248,a,0.17384300731646363,1,colour,0.5,3.8
86,21,0,1,15,44,744,1140.8981513244507,1141.6326972845563,"[31, 0, 223]",223,a,0.2110961493308423,1,colour,0.5,3.8
86,21,0,1,15,45,745,1142.1483020691521,1142.83264403652,"[42, 0, 212]",212,a,0.16098234741366468,1,colour,0.5,3.8
86,21,0,1,15,46,746,1143.3533908795507,1144.048677838,"[3, 0, 251]",251,a,0.17190528310311493,1,colour,0.5,3.8
86,21,0,1,15,47,747,1144.5565242426237,1145.3206094694178,"[58, 0, 196]",196,a,0.24082840073970146,0,colour,0.5,3.8
86,21,0,1,15,48,748,1145.8379999535246,1146.5846452684782,"[30, 0, 224]",224,a,0.22333374424488284,1,colour,0.5,3.8
86,21,0,1,15,49,749,1147.103689119729,1147.8646491754334,"[61, 0, 193]",193,a,0.23800767291686498,0,colour,0.5,3.8
86,21,0,1,15,50,750,1148.3850931505876,1149.10464734798,"[78, 0, 176]",176,l,0.19623868823691737,1,colour,0.5,3.8
86,21,0,1,16,1,751,1154.5892776896653,1155.1527635610255,"[12, 0, 242]",242,a,0.03927987552015111,1,colour,0.5,3.7
86,21,0,1,16,2,752,1155.668151336271,1156.264663196358,"[35, 0, 219]",219,a,0.07289466459769756,1,colour,0.5,3.7
86,21,0,1,16,3,753,1156.777766268715,1157.4566739436414,"[61, 0, 193]",193,l,0.15546140876540449,1,colour,0.5,3.7
86,21,0,1,16,4,754,1157.9653623918566,1158.6326480537537,"[74, 0, 180]",180,l,0.14397921120689716,1,colour,0.5,3.7
86,21,0,1,16,5,755,1159.1529608780693,1159.7766426249727,"[50, 0, 204]",204,a,0.10028431769751478,1,colour,0.5,3.7
86,21,0,1,16,6,756,1160.2936372934782,1161.0326451392903,"[47, 0, 207]",207,a,0.21559938890277408,1,colour,0.5,3.7
86,21,0,1,16,7,757,1161.54371753968,1162.208674781752,"[40, 0, 214]",214,a,0.138548069546232,1,colour,0.5,3.7
86,21,0,1,16,8,758,1162.7186885230476,1163.352644540646,"[77, 0, 177]",177,l,0.11056213300616946,1,colour,0.5,3.7
86,21,0,1,16,9,759,1163.8615413335938,1164.6086462672683,"[73, 0, 181]",181,l,0.22360392287373543,1,colour,0.5,3.7
86,21,0,1,16,10,760,1165.1274010352645,1165.808700145455,"[21, 0, 233]",233,a,0.15793200714688282,1,colour,0.5,3.7
86,21,0,1,16,11,761,1166.3149392629857,1167.000647877314,"[1, 0, 253]",253,a,0.16142936305550393,1,colour,0.5,3.7
86,21,0,1,16,12,762,1167.5190481835598,1168.232752186741,"[62, 0, 192]",192,l,0.18936016110819764,1,colour,0.5,3.7
86,21,0,1,16,13,763,1168.7389117473067,1169.4647529145732,"[15, 0, 239]",239,a,0.2025106919463724,1,colour,0.5,3.7
86,21,0,1,16,14,764,1169.973422458148,1170.6726880528004,"[68, 0, 186]",186,l,0.17622026411117986,1,colour,0.5,3.7
86,21,0,1,16,15,765,1171.192246661274,1171.8726682817069,"[37, 0, 217]",217,a,0.15705491125117987,1,colour,0.5,3.7
86,21,0,1,16,16,766,1172.3798297874746,1173.096699921749,"[87, 0, 167]",167,l,0.19348767123301513,1,colour,0.5,3.7
86,21,0,1,16,17,767,1173.6035463504086,1174.288673253628,"[98, 0, 156]",156,l,0.16171923400543164,1,colour,0.5,3.7
86,21,0,1,16,18,768,1174.8067045258067,1175.5686673144228,"[53, 0, 201]",201,a,0.23866736561467405,0,colour,0.5,3.7
86,21,0,1,16,19,769,1176.0881030428282,1176.7926599636703,"[58, 0, 196]",196,a,0.18153010109381285,0,colour,0.5,3.7
86,21,0,1,16,20,770,1177.3069701751956,1177.9846490493946,"[71, 0, 183]",183,l,0.15454492821299937,1,colour,0.5,3.7
86,21,0,1,16,21,771,1178.4945521198679,1179.232693897473,"[97, 0, 157]",157,l,0.21481878537451848,1,colour,0.5,3.7
86,21,0,1,16,22,772,1179.7451924156194,1180.4486390835082,"[17, 0, 237]",237,a,0.18008389715396333,1,colour,0.5,3.7
86,21,0,1,16,23,773,1180.9640343418287,1182.9606728629296,"[64, 0, 190]",190,l,1.4734454981662566,1,colour,0.5,3.7
86,21,0,1,16,24,774,1183.4796982034022,1184.0646613058925,"[18, 0, 236]",236,a,0.061526682489784434,1,colour,0.5,3.7
86,21,0,1,16,25,775,1184.5736148127326,1185.184664724482,"[20, 0, 234]",234,a,0.0882263167295605,1,colour,0.5,3.7
86,21,0,1,16,26,776,1185.6987307512609,1186.2246948773682,"[43, 0, 211]",211,a,0.002569453834439628,1,colour,0.5,3.7
86,21,0,1,16,27,777,1186.7456898436067,1187.576668697613,"[39, 0, 215]",215,a,0.307642470987048,1,colour,0.5,3.7
86,21,0,1,16,28,778,1188.089551609839,1188.7287379074405,"[41, 0, 213]",213,a,0.1160133608354954,1,colour,0.5,3.7
86,21,0,1,16,29,779,1189.2477467063727,1189.8806728156633,"[3, 0, 251]",251,a,0.1061270288482774,1,colour,0.5,3.7
86,21,0,1,16,30,780,1190.3926384596562,1191.0966881063505,"[26, 0, 228]",228,a,0.180685694431304,1,colour,0.5,3.7
86,21,0,1,16,31,781,1191.6114488781604,1192.3047488815791,"[54, 0, 200]",200,a,0.16992029731045477,0,colour,0.5,3.7
86,21,0,1,16,32,782,1192.8146956689889,1193.3847154519026,"[90, 0, 164]",164,l,0.04669167066458613,1,colour,0.5,3.7
86,21,0,1,16,33,783,1193.8928812659578,1194.712683941034,"[8, 0, 246]",246,a,0.2967045691329986,1,colour,0.5,3.7
86,21,0,1,16,34,784,1195.2211675891303,1195.9927551957226,"[86, 0, 168]",168,l,0.24823704510345124,1,colour,0.5,3.7
86,21,0,1,16,35,785,1196.499917883033,1197.2886897951685,"[69, 0, 185]",185,l,0.2654693999065785,1,colour,0.5,3.7
86,21,0,1,16,36,786,1197.7875486252597,1198.5686602251808,"[85, 0, 169]",169,l,0.2576842383859912,1,colour,0.5,3.7
86,21,0,1,16,37,787,1199.0845584253402,1199.776650895743,"[49, 0, 205]",205,a,0.1686918904160848,1,colour,0.5,3.7
86,21,0,1,16,38,788,1200.2786392292328,1200.920696273155,"[44, 0, 210]",210,a,0.11872302398842294,1,colour,0.5,3.7
86,21,0,1,16,39,789,1201.4348257091915,1202.160686568779,"[89, 0, 165]",165,l,0.20246933806629386,1,colour,0.5,3.7
86,21,0,1,16,40,790,1202.6745926939184,1205.3366752512084,"[70, 0, 184]",184,l,2.13863471573859,1,colour,0.5,3.7
86,21,0,1,16,41,791,1205.8343545113748,1206.6486984755466,"[30, 0, 224]",224,a,0.2909327503439272,1,colour,0.5,3.7
86,21,0,1,16,42,792,1207.1625636406534,1207.9446819119476,"[66, 0, 188]",188,l,0.2588094575185096,1,colour,0.5,3.7
86,21,0,1,16,43,793,1208.461668703516,1209.112681420418,"[14, 0, 240]",240,a,0.12752903533692006,1,colour,0.5,3.7
86,21,0,1,16,44,794,1209.6336161281652,1210.3126789785747,"[0, 0, 254]",254,a,0.15562643040902913,1,colour,0.5,3.7
86,21,0,1,16,45,795,1210.821227611319,1211.4726668638614,"[7, 0, 247]",247,a,0.12805166949692648,1,colour,0.5,3.7
86,21,0,1,16,46,796,1211.993250260639,1212.7207195888623,"[67, 0, 187]",187,l,0.20414869906380773,1,colour,0.5,3.7
86,21,0,1,16,47,797,1213.227682989891,1213.9207195100898,"[33, 0, 221]",221,a,0.16951109090587124,1,colour,0.5,3.7
86,21,0,1,16,48,798,1214.4309195407259,1215.0806703738199,"[76, 0, 178]",178,l,0.12635104080254678,1,colour,0.5,3.7
86,21,0,1,16,49,799,1215.587253319245,1216.2567126193608,"[31, 0, 223]",223,a,0.14601697241596412,1,colour,0.5,3.7
86,21,0,1,16,50,800,1216.7749065500975,1217.4966950380476,"[96, 0, 158]",158,l,0.1983977541240165,1,colour,0.5,3.7
