id,age,condition,counterbalance,block,trialinblock,trial,tstart,tend,trialstim,trialintensity,response,RT,accuracy,trialtype,colourfreq,credits
49,19,1,2,Practice,1,NA,5.907699232921004e-06,1.9752901458414271,"[24, 0, 230]",230,a,1.37271156188217,1,colour,0.5,4
49,19,1,2,Practice,2,NA,2.4736757739447057,3.6713349150086287,"[54, 0, 200]",200,a,0.6751516697986517,0,colour,0.5,4
49,19,1,2,Practice,3,NA,4.192332777223783,5.455297376844101,"[97, 0, 157]",157,l,0.7396477762667928,1,colour,0.5,4
49,19,1,2,Practice,4,NA,5.973557620367501,7.5433265276951715,"[76, 0, 178]",178,a,1.0463859179872088,0,colour,0.5,4
49,19,1,2,Practice,5,NA,8.052089979493758,9.695281103166053,"[39, 0, 215]",215,a,1.120326434756862,1,colour,0.5,4
49,19,1,2,Practice,6,NA,10.208000730985077,11.503291365195764,"[31, 0, 223]",223,a,0.7721565550891683,1,colour,0.5,4
49,19,1,2,Practice,7,NA,12.02036140821292,13.135267350065988,"[28, 0, 226]",226,a,0.5916025092592463,1,colour,0.5,4
49,19,1,2,Practice,8,NA,13.645378540473757,14.97530865657609,"[93, 0, 161]",161,l,0.8066164435294922,1,colour,0.5,4
49,19,1,2,Practice,9,NA,15.48915389427566,16.8152743447572,"[63, 0, 191]",191,a,0.8027634549362119,0,colour,0.5,4
49,19,1,2,Practice,10,NA,17.332866232813103,18.775279748311732,"[37, 0, 217]",217,a,0.919002169277519,1,colour,0.5,4
49,19,1,2,1,1,1,5.568567679147236,7.48797511527664,"[1, 0, 253]",253,a,1.3952666883997153,1,colour,0.5,4.0
49,19,1,2,1,2,2,8.00690095734899,10.12004483534838,"[84, 0, 170]",170,l,1.5897782178362831,1,colour,0.5,4.0
49,19,1,2,1,3,3,10.631951566465432,12.175973231118405,"[12, 0, 242]",242,a,1.0206879059551284,1,colour,0.5,4.0
49,19,1,2,1,4,4,12.694431578827789,14.175964566529728,"[73, 0, 181]",181,l,0.9583414071821608,1,colour,0.5,4.0
49,19,1,2,1,5,5,14.694340206711786,16.087899181904504,"[16, 0, 238]",238,a,0.8705536834895611,1,colour,0.5,4.0
49,19,1,2,1,6,6,16.600607782049337,17.927895590022672,"[37, 0, 217]",217,a,0.8039343570126221,1,colour,0.5,4.0
49,19,1,2,1,7,7,18.445069214358227,19.615958296490135,"[3, 0, 251]",251,a,0.648599407315487,1,colour,0.5,4.0
49,19,1,2,1,8,8,20.13212407071842,21.42389294024906,"[77, 0, 177]",177,l,0.7683417695225216,1,colour,0.5,4.0
49,19,1,2,1,9,9,21.94464267991134,23.152014046092518,"[91, 0, 163]",163,l,0.6829620159987826,1,colour,0.5,4.0
49,19,1,2,1,10,10,23.664511939015938,25.079960836010287,"[72, 0, 182]",182,l,0.8920576368982438,1,colour,0.5,4.0
49,19,1,2,1,11,11,25.586452588118846,26.879942955449224,"[78, 0, 176]",176,l,0.7701975685777143,1,colour,0.5,4.0
49,19,1,2,1,12,12,27.398990889574634,28.41594671746134,"[24, 0, 230]",230,a,0.49357638315996155,1,colour,0.5,4.0
49,19,1,2,1,13,13,28.930151535896584,29.96790554645122,"[97, 0, 157]",157,l,0.5145025655219797,1,colour,0.5,4.0
49,19,1,2,1,14,14,30.476973834476667,31.63987888468546,"[25, 0, 229]",229,a,0.6397540357429534,1,colour,0.5,4.0
49,19,1,2,1,15,15,32.148817597626476,33.935904828074854,"[55, 0, 199]",199,a,1.263723933370784,0,colour,0.5,4.0
49,19,1,2,1,16,16,34.448743397166254,35.95991718219011,"[29, 0, 225]",225,a,0.9878140325308777,1,colour,0.5,4.0
49,19,1,2,1,17,17,36.47997178492369,38.00788241982809,"[44, 0, 210]",210,a,1.004580814682413,1,colour,0.5,4.0
49,19,1,2,1,18,18,38.52683976953267,39.69592661559,"[74, 0, 180]",180,l,0.6459043239592575,1,colour,0.5,4.0
49,19,1,2,1,19,19,40.21619625782478,41.54388184956042,"[2, 0, 252]",252,a,0.8045570264512207,1,colour,0.5,4.0
49,19,1,2,1,20,20,42.061676174082095,43.2719029186992,"[42, 0, 212]",212,a,0.686859115230618,1,colour,0.5,4.0
49,19,1,2,1,21,21,43.78045526941423,44.92787904854049,"[83, 0, 171]",171,l,0.6235031909600366,1,colour,0.5,4.0
49,19,1,2,1,22,22,45.43321644005482,46.60791518777842,"[0, 0, 254]",254,a,0.6514520288619678,1,colour,0.5,4.0
49,19,1,2,1,23,23,47.11138299564482,48.35184642553213,"[38, 0, 216]",216,a,0.7171974125958513,1,colour,0.5,4.0
49,19,1,2,1,24,24,48.86133179574972,50.8558608906751,"[61, 0, 193]",193,l,1.4713611451152246,1,colour,0.5,4.0
49,19,1,2,1,25,25,51.376922555820784,52.43995395160164,"[46, 0, 208]",208,a,0.539879593619844,1,colour,0.5,4.0
49,19,1,2,1,26,26,52.95830477954587,54.06394235993503,"[52, 0, 202]",202,a,0.5823951938073151,0,colour,0.5,4.0
49,19,1,2,1,27,27,54.5852679014497,55.807856662373524,"[60, 0, 194]",194,l,0.6993924542621244,1,colour,0.5,4.0
49,19,1,2,1,28,28,56.319593646156136,57.99980228964705,"[92, 0, 162]",162,l,1.1569063924252987,1,colour,0.5,4.0
49,19,1,2,1,29,29,58.50714592912118,59.61588425358059,"[79, 0, 175]",175,l,0.5854734886961523,1,colour,0.5,4.0
49,19,1,2,1,30,30,60.132067750848364,61.415983345068526,"[35, 0, 219]",219,a,0.7605865616933443,1,colour,0.5,4.0
49,19,1,2,1,31,31,61.92894361237995,63.0958217739535,"[22, 0, 232]",232,a,0.6435471598233562,1,colour,0.5,4.0
49,19,1,2,1,32,32,63.616964965098305,64.8559644719935,"[80, 0, 174]",174,l,0.7156070652708877,1,colour,0.5,4.0
49,19,1,2,1,33,33,65.36701970957802,67.80788305000169,"[57, 0, 197]",197,l,1.9175874769862276,1,colour,0.5,4.0
49,19,1,2,1,34,34,68.32006153438124,69.51185671277926,"[85, 0, 169]",169,l,0.6684952904179227,1,colour,0.5,4.0
49,19,1,2,1,35,35,70.02315967905452,71.36780070481473,"[40, 0, 214]",214,a,0.8212332241528202,1,colour,0.5,4.0
49,19,1,2,1,36,36,71.88268372489256,73.02381031148252,"[27, 0, 227]",227,a,0.6178586000751238,1,colour,0.5,4.0
49,19,1,2,1,37,37,73.53108936033095,74.71978497621603,"[93, 0, 161]",161,l,0.6663559227308724,1,colour,0.5,4.0
49,19,1,2,1,38,38,75.22175735348719,76.82383654158912,"[71, 0, 183]",183,l,1.0787678786145989,1,colour,0.5,4.0
49,19,1,2,1,39,39,77.33098128918209,78.59181282264763,"[56, 0, 198]",198,a,0.7498471880098805,0,colour,0.5,4.0
49,19,1,2,1,40,40,79.09983151298366,80.27174892518087,"[14, 0, 240]",240,a,0.6485166998172645,1,colour,0.5,4.0
49,19,1,2,1,41,41,80.78744484196068,85.02379416383337,"[68, 0, 186]",186,l,3.7129454587120563,1,colour,0.5,4.0
49,19,1,2,1,42,42,85.53745468807756,86.91181449254509,"[70, 0, 184]",184,l,0.8510866979486309,1,colour,0.5,4.0
49,19,1,2,1,43,43,87.42889832015499,88.92777704258333,"[9, 0, 245]",245,a,0.975632003537612,1,colour,0.5,4.0
49,19,1,2,1,44,44,89.44523856785963,90.95178191366722,"[51, 0, 203]",203,a,0.9858798582863528,0,colour,0.5,4.0
49,19,1,2,1,45,45,91.4582917826483,92.63182041599066,"[82, 0, 172]",172,l,0.6502007823437452,1,colour,0.5,4.0
49,19,1,2,1,46,46,93.14579483494163,94.35178577335319,"[23, 0, 231]",231,a,0.6827158626692835,1,colour,0.5,4.0
49,19,1,2,1,47,47,94.86454124111333,96.28777094586985,"[41, 0, 213]",213,a,0.8998683769023046,1,colour,0.5,4.0
49,19,1,2,1,48,48,96.80202775189537,98.02373469318263,"[48, 0, 206]",206,a,0.6984074471401982,1,colour,0.5,4.0
49,19,1,2,1,49,49,98.53636964428006,100.03173211586545,"[30, 0, 224]",224,a,0.9721303249825723,1,colour,0.5,4.0
49,19,1,2,1,50,50,100.55201396733173,101.69571315142093,"[5, 0, 249]",249,a,0.6204552221461199,1,colour,0.5,4.0
49,19,1,2,2,1,51,113.1200149031065,114.32776396692498,"[73, 0, 181]",181,l,0.6835271839809138,1,colour,0.5,4.0
49,19,1,2,2,2,52,114.8302227431559,116.32781871143379,"[94, 0, 160]",160,l,0.974498910625698,1,colour,0.5,4.0
49,19,1,2,2,3,53,116.84584343546885,119.43174385247403,"[65, 0, 189]",189,l,2.06302430658252,1,colour,0.5,4.0
49,19,1,2,2,4,54,119.93959003855707,121.29573292247369,"[23, 0, 231]",231,a,0.8328016421874054,1,colour,0.5,4.0
49,19,1,2,2,5,55,121.81498604998342,123.19172783082468,"[92, 0, 162]",162,l,0.853676230792189,1,colour,0.5,4.0
49,19,1,2,2,6,56,123.70607285821461,124.98364557386958,"[85, 0, 169]",169,l,0.7542094185482711,1,colour,0.5,4.0
49,19,1,2,2,7,57,125.50295817205915,127.67974311832222,"[48, 0, 206]",206,a,1.653777291503502,1,colour,0.5,4.0
49,19,1,2,2,8,58,128.17804603892728,129.50367221358465,"[7, 0, 247]",247,a,0.8024196279875468,1,colour,0.5,4.0
49,19,1,2,2,9,59,130.02175955902203,132.3277375792968,"[57, 0, 197]",197,a,1.7826099970552605,0,colour,0.5,4.0
49,19,1,2,2,10,60,132.83426162670366,134.19173610158032,"[24, 0, 230]",230,a,0.8342057006666437,1,colour,0.5,4.0
49,19,1,2,2,11,61,134.7092543405597,136.4236916852824,"[55, 0, 199]",199,l,1.19118156741024,1,colour,0.5,4.0
49,19,1,2,2,12,62,136.92991404718487,138.08764830243308,"[43, 0, 211]",211,a,0.634404041164089,1,colour,0.5,4.0
49,19,1,2,2,13,63,138.6047392192704,139.67968561692396,"[84, 0, 170]",170,l,0.5524680709640961,1,colour,0.5,4.0
49,19,1,2,2,14,64,140.19773318397347,141.66372661149944,"[49, 0, 205]",205,a,0.9427230779256206,1,colour,0.5,4.0
49,19,1,2,2,15,65,142.18206050407025,143.3836766088789,"[2, 0, 252]",252,a,0.6783520567405503,1,colour,0.5,4.0
49,19,1,2,2,16,66,143.90074310731143,144.9996467207675,"[60, 0, 194]",194,l,0.5755525255808607,1,colour,0.5,4.0
49,19,1,2,2,17,67,145.5101182796061,146.60766864061588,"[33, 0, 221]",221,a,0.5743142759602051,1,colour,0.5,4.0
49,19,1,2,2,18,68,147.11950447960407,148.07165030631586,"[75, 0, 179]",179,l,0.42762541215051897,1,colour,0.5,4.0
49,19,1,2,2,19,69,148.5894143047626,149.50363204136374,"[40, 0, 214]",214,a,0.3909225747338496,1,colour,0.5,4.0
49,19,1,2,2,20,70,150.0112143510778,150.7196565826307,"[98, 0, 156]",156,l,0.18521835570572875,1,colour,0.5,4.0
49,19,1,2,2,21,71,151.2320036328165,151.93570790541708,"[34, 0, 220]",220,a,0.1803315232100431,1,colour,0.5,4.0
49,19,1,2,2,22,72,152.45074058670434,153.16762567995465,"[22, 0, 232]",232,a,0.19347729164292105,1,colour,0.5,4.0
49,19,1,2,2,23,73,153.68510689749382,154.31962475995533,"[16, 0, 238]",238,a,0.11117150072823279,1,colour,0.5,4.0
49,19,1,2,2,24,74,154.82573369439342,155.37565240473486,"[66, 0, 188]",188,l,0.026933110901154578,1,colour,0.5,4.0
49,19,1,2,2,25,75,155.88818968218402,161.11967658999492,"[9, 0, 245]",245,a,4.7081074630550575,1,colour,0.5,4.0
49,19,1,2,2,26,76,161.63824678974925,162.98362824469223,"[13, 0, 241]",241,a,0.8220752654306125,1,colour,0.5,4.0
49,19,1,2,2,27,77,163.49756958064972,164.43157292361138,"[32, 0, 222]",222,a,0.4106802181049716,1,colour,0.5,4.0
49,19,1,2,2,28,78,164.9506945067842,166.23162120903726,"[69, 0, 185]",185,l,0.7575417436601128,1,colour,0.5,4.0
49,19,1,2,2,29,79,166.74755894680857,167.8556293096335,"[99, 0, 155]",155,l,0.5847310902900063,1,colour,0.5,4.0
49,19,1,2,2,30,80,168.37253511918243,169.59965664567426,"[5, 0, 249]",249,a,0.703828333877027,1,colour,0.5,4.0
49,19,1,2,2,31,81,170.10893012711313,171.83158702327637,"[30, 0, 224]",224,a,1.1994483802991454,1,colour,0.5,4.0
49,19,1,2,2,32,82,172.33314546910697,174.27961637891713,"[53, 0, 201]",201,a,1.4232836615701672,0,colour,0.5,4.0
49,19,1,2,2,33,83,174.7861672078143,175.8476677268918,"[79, 0, 175]",175,l,0.5384960150695406,1,colour,0.5,4.0
49,19,1,2,2,34,84,176.3643002077879,177.47160060305032,"[81, 0, 173]",173,l,0.583976876543602,1,colour,0.5,4.0
49,19,1,2,2,35,85,177.98929567856248,178.9436285282427,"[0, 0, 254]",254,a,0.43098294333321974,1,colour,0.5,4.0
49,19,1,2,2,36,86,179.45807871234138,180.37565988779534,"[14, 0, 240]",240,a,0.394330518116476,1,colour,0.5,4.0
49,19,1,2,2,37,87,180.8954903925187,181.75957556077628,"[26, 0, 228]",228,a,0.34110862723900937,1,colour,0.5,4.0
49,19,1,2,2,38,88,182.27013140253257,183.18359531922033,"[21, 0, 233]",233,a,0.3900612350553274,1,colour,0.5,4.0
49,19,1,2,2,39,89,183.69199052563636,184.32756113659707,"[93, 0, 161]",161,l,0.11223882148624398,1,colour,0.5,4.0
49,19,1,2,2,40,90,184.84822541184258,185.72762210384826,"[76, 0, 178]",178,l,0.3560097642184701,1,colour,0.5,4.0
49,19,1,2,2,41,91,186.2285015603993,188.3515975153132,"[51, 0, 203]",203,a,1.5995640920300502,0,colour,0.5,4.0
49,19,1,2,2,42,92,188.8693355199648,189.79955794801936,"[64, 0, 190]",190,l,0.40693986928090453,1,colour,0.5,4.0
49,19,1,2,2,43,93,190.30675547089777,191.17558017349802,"[3, 0, 251]",251,a,0.34556065453216434,1,colour,0.5,4.0
49,19,1,2,2,44,94,191.68175724320463,192.9755114868749,"[82, 0, 172]",172,l,0.7708970377861988,1,colour,0.5,4.0
49,19,1,2,2,45,95,193.49426009858144,194.64758722489933,"[86, 0, 168]",168,l,0.6302702408866026,1,colour,0.5,4.0
49,19,1,2,2,46,96,195.16614639700856,196.26360459820717,"[10, 0, 244]",244,a,0.5741791870095767,1,colour,0.5,4.0
49,19,1,2,2,47,97,196.77540656650672,197.83955293832696,"[83, 0, 171]",171,l,0.5407893762749154,1,colour,0.5,4.0
49,19,1,2,2,48,98,198.35363566473825,200.31151548519847,"[56, 0, 198]",198,l,1.4345708740293048,1,colour,0.5,4.0
49,19,1,2,2,49,99,200.8223178741173,201.8875122682657,"[8, 0, 246]",246,a,0.542177680938039,1,colour,0.5,4.0
49,19,1,2,2,50,100,202.38803765791818,204.43157804358634,"[27, 0, 227]",227,a,1.5202566453372128,1,colour,0.5,4.0
49,19,1,2,3,1,101,212.85589712444926,215.58353064983385,"[20, 0, 234]",234,a,2.2035743036540225,1,colour,0.5,4.0
49,19,1,2,3,2,102,216.0911074457108,219.16747483721701,"[52, 0, 202]",202,a,2.5530911342357285,0,colour,0.5,4.0
49,19,1,2,3,3,103,219.68487886106595,220.71145514809177,"[17, 0, 237]",237,a,0.5040451850800309,1,colour,0.5,4.0
49,19,1,2,3,4,104,221.2316617750912,221.99948248727014,"[64, 0, 190]",190,l,0.24442827052553184,1,colour,0.5,4.0
49,19,1,2,3,5,105,222.5153406682948,223.18350552249467,"[66, 0, 188]",188,l,0.14478580330614932,1,colour,0.5,4.0
49,19,1,2,3,6,106,223.70301543714595,224.32750521056005,"[18, 0, 236]",236,a,0.101374598860275,1,colour,0.5,4.0
49,19,1,2,3,7,107,224.84348390824744,227.64753287425265,"[57, 0, 197]",197,a,2.2808451762539335,0,colour,0.5,4.0
49,19,1,2,3,8,108,228.15601118205814,229.1915096405428,"[45, 0, 209]",209,a,0.5122497703996487,1,colour,0.5,4.0
49,19,1,2,3,9,109,229.70286026209942,230.8634849480004,"[9, 0, 245]",245,a,0.6373539424675982,1,colour,0.5,4.0
49,19,1,2,3,10,110,231.37462840694934,232.34350596359582,"[34, 0, 220]",220,a,0.45788690968765877,1,colour,0.5,4.0
49,19,1,2,3,11,111,232.8622896275192,233.95151685577002,"[42, 0, 212]",212,a,0.5663550562458113,1,colour,0.5,4.0
49,19,1,2,3,12,112,234.4716659813712,235.39949225462624,"[30, 0, 224]",224,a,0.4045393821725156,1,colour,0.5,4.0
49,19,1,2,3,13,113,235.9091643075226,236.879423473496,"[13, 0, 241]",241,a,0.4469951179053169,1,colour,0.5,4.0
49,19,1,2,3,14,114,237.39352825525566,238.51151997502893,"[63, 0, 191]",191,l,0.5949037205718923,1,colour,0.5,4.0
49,19,1,2,3,15,115,239.0192740013299,240.12744558238774,"[88, 0, 166]",166,l,0.5856432360305917,1,colour,0.5,4.0
49,19,1,2,3,16,116,240.64345696923556,241.5834310069622,"[90, 0, 164]",164,l,0.41678206334472634,1,colour,0.5,4.0
49,19,1,2,3,17,117,242.0985920818057,243.1274896930554,"[4, 0, 250]",250,a,0.505589846346993,1,colour,0.5,4.0
49,19,1,2,3,18,118,243.64550181405502,245.6794508851308,"[51, 0, 203]",203,a,1.5106716322770808,0,colour,0.5,4.0
49,19,1,2,3,19,119,246.1922996942012,247.27143306125072,"[50, 0, 204]",204,a,0.5557617992162704,1,colour,0.5,4.0
49,19,1,2,3,20,120,247.77681062498596,248.76745010373998,"[82, 0, 172]",172,l,0.46807332456228323,1,colour,0.5,4.0
49,19,1,2,3,21,121,249.2768299234158,250.50342842334067,"[60, 0, 194]",194,l,0.7034301562525798,1,colour,0.5,4.0
49,19,1,2,3,22,122,251.0129689319001,252.1594340915617,"[6, 0, 248]",248,a,0.6232385268958751,1,colour,0.5,4.0
49,19,1,2,3,23,123,252.66922784264898,253.70344551623566,"[72, 0, 182]",182,l,0.5233459679002408,1,colour,0.5,4.0
49,19,1,2,3,24,124,254.21925643581199,255.43941083893878,"[68, 0, 186]",186,l,0.69690335195628,1,colour,0.5,4.0
49,19,1,2,3,25,125,255.9555033579236,257.08744468441,"[8, 0, 246]",246,a,0.6086835799505934,1,colour,0.5,4.0
49,19,1,2,3,26,126,257.59856490648235,259.43944707271294,"[39, 0, 215]",215,a,1.3174668815627228,1,colour,0.5,4.0
49,19,1,2,3,27,127,259.95802948166966,260.7995059604582,"[56, 0, 198]",198,l,0.31822582145105116,1,colour,0.5,4.0
49,19,1,2,3,28,128,261.3173428202863,262.0075405621319,"[15, 0, 239]",239,a,0.16684704783256166,1,colour,0.5,4.0
49,19,1,2,3,29,129,262.5224385483016,263.72744723653886,"[74, 0, 180]",180,l,0.6817816616094206,1,colour,0.5,4.0
49,19,1,2,3,30,130,264.24113336074515,265.66336703073466,"[24, 0, 230]",230,a,0.8988916405651253,1,colour,0.5,4.0
49,19,1,2,3,31,131,266.1786868252384,268.85541820854996,"[11, 0, 243]",243,a,2.1535327135643456,1,colour,0.5,4.0
49,19,1,2,3,32,132,269.36615797606646,270.21538493651315,"[71, 0, 183]",183,l,0.32664190168725327,1,colour,0.5,4.0
49,19,1,2,3,33,133,270.7254925823072,271.6155053744151,"[80, 0, 174]",174,l,0.36675347018172033,1,colour,0.5,4.0
49,19,1,2,3,34,134,272.13174243460526,273.16739173585665,"[29, 0, 225]",225,a,0.5123375979019329,1,colour,0.5,4.0
49,19,1,2,3,35,135,273.6786242038361,274.24737620260566,"[79, 0, 175]",175,l,0.04545565537409857,1,colour,0.5,4.0
49,19,1,2,3,36,136,274.75674144999357,275.6074614779791,"[85, 0, 169]",169,l,0.3274402261013165,1,colour,0.5,4.0
49,19,1,2,3,37,137,276.11613552688505,276.815344843053,"[22, 0, 232]",232,a,0.17594605579506606,1,colour,0.5,4.0
49,19,1,2,3,38,138,277.3348736623011,278.23135733269737,"[37, 0, 217]",217,a,0.37324167767656036,1,colour,0.5,4.0
49,19,1,2,3,39,139,278.74111091156374,279.67937802374945,"[91, 0, 163]",163,l,0.41489318129606545,1,colour,0.5,4.0
49,19,1,2,3,40,140,280.19424410845386,281.19138321620994,"[78, 0, 176]",176,l,0.47400069632567465,1,colour,0.5,4.0
49,19,1,2,3,41,141,281.70979390863795,282.89531828212785,"[33, 0, 221]",221,a,0.6623883251450025,1,colour,0.5,4.0
49,19,1,2,3,42,142,283.41295270546107,284.42336951981997,"[35, 0, 219]",219,a,0.48712559093837626,1,colour,0.5,4.0
49,19,1,2,3,43,143,284.9441318625468,286.0394203699834,"[96, 0, 158]",158,l,0.5720866869087331,1,colour,0.5,4.0
49,19,1,2,3,44,144,286.553692535992,288.0233632970776,"[25, 0, 229]",229,a,0.9463373962498736,1,colour,0.5,4.0
49,19,1,2,3,45,145,288.5381710926886,290.0233443925099,"[1, 0, 253]",253,a,0.961919885565294,1,colour,0.5,4.0
49,19,1,2,3,46,146,290.53815652042977,291.9673640091496,"[62, 0, 192]",192,l,0.9060029113024939,1,colour,0.5,4.0
49,19,1,2,3,47,147,292.47557213905384,293.7113129699428,"[49, 0, 205]",205,l,0.7124870227999054,0,colour,0.5,4.0
49,19,1,2,3,48,148,294.22556347446516,295.26330251886975,"[46, 0, 208]",208,a,0.5144123749341816,1,colour,0.5,4.0
49,19,1,2,3,49,149,295.7724231883476,296.9033625723969,"[77, 0, 177]",177,l,0.6076725790626369,1,colour,0.5,4.0
49,19,1,2,3,50,150,297.4130653452303,298.37535938381916,"[81, 0, 173]",173,l,0.43899887675070204,1,colour,0.5,4.0
49,19,1,2,4,1,151,305.1152446488268,306.4634909344604,"[22, 0, 232]",232,a,0.8240767872193828,1,colour,0.5,4.0
49,19,1,2,4,2,152,306.9755516590958,308.05529824330006,"[89, 0, 165]",165,l,0.5565223144949414,1,colour,0.5,4.0
49,19,1,2,4,3,153,308.5692309146398,309.8873539424676,"[63, 0, 191]",191,l,0.7947943891340401,1,colour,0.5,4.0
49,19,1,2,4,4,154,310.398565930489,314.63934719352983,"[51, 0, 203]",203,l,3.7162679376779124,1,colour,0.5,4.0
49,19,1,2,4,5,155,315.14968838958885,316.1912879056472,"[68, 0, 186]",186,l,0.5182905696274247,1,colour,0.5,4.0
49,19,1,2,4,6,156,316.71216210041894,317.7352922410937,"[2, 0, 252]",252,a,0.49976329898345284,1,colour,0.5,4.0
49,19,1,2,4,7,157,318.23095836740686,319.23926968476735,"[36, 0, 218]",218,a,0.4849732263828628,1,colour,0.5,4.0
49,19,1,2,4,8,158,319.7465747274109,320.7673024117539,"[44, 0, 210]",210,a,0.49743173480965197,1,colour,0.5,4.0
49,19,1,2,4,9,159,321.2778035090014,322.47927074026666,"[6, 0, 248]",248,a,0.6782965245365631,1,colour,0.5,4.0
49,19,1,2,4,10,160,322.99662435191567,324.14331439725356,"[39, 0, 215]",215,a,0.6234240280464292,1,colour,0.5,4.0
49,19,1,2,4,11,161,324.65287223499035,325.7753096805536,"[67, 0, 187]",187,l,0.5992084497120231,1,colour,0.5,4.0
49,19,1,2,4,12,162,326.29339663212886,327.3752660424798,"[87, 0, 167]",167,l,0.5586904328665696,1,colour,0.5,4.0
49,19,1,2,4,13,163,327.88722515504924,332.66321224952117,"[54, 0, 200]",200,l,4.252731317159487,1,colour,0.5,4.0
49,19,1,2,4,14,164,333.1840324875084,334.3592270864756,"[0, 0, 254]",254,a,0.6519325201225001,1,colour,0.5,4.0
49,19,1,2,4,15,165,334.8714587399736,335.9993414906494,"[19, 0, 235]",235,a,0.6045249674352817,1,colour,0.5,4.0
49,19,1,2,4,16,166,336.5121347675449,337.67126520437887,"[62, 0, 192]",192,l,0.6359053794294596,1,colour,0.5,4.0
49,19,1,2,4,17,167,338.18405651208013,339.4072415547562,"[57, 0, 197]",197,l,0.6999292653636076,1,colour,0.5,4.0
49,19,1,2,4,18,168,339.9183566568536,349.3912364694406,"[42, 0, 212]",212,a,8.949527149321511,1,colour,0.5,4.0
49,19,1,2,4,19,169,349.9025473126385,350.6391876861744,"[70, 0, 184]",184,l,0.2134976298257243,1,colour,0.5,4.0
49,19,1,2,4,20,170,351.15271863533417,352.13517243333627,"[99, 0, 155]",155,l,0.45924567597103305,1,colour,0.5,4.0
49,19,1,2,4,21,171,352.65265837701736,353.48725122760516,"[81, 0, 173]",173,l,0.31139969467767514,1,colour,0.5,4.0
49,19,1,2,4,22,172,353.99640261702007,356.56720221749856,"[40, 0, 214]",214,a,2.047463872557273,1,colour,0.5,4.0
49,19,1,2,4,23,173,357.07454428158235,357.74320853163954,"[49, 0, 205]",205,l,0.14529543911339715,0,colour,0.5,4.0
49,19,1,2,4,24,174,358.26201149396366,360.4071994133119,"[83, 0, 171]",171,l,1.6217812992690597,1,colour,0.5,4.0
49,19,1,2,4,25,175,360.9183125461859,362.3591573758458,"[15, 0, 239]",239,a,0.9175335201725829,1,colour,0.5,4.0
49,19,1,2,4,26,176,362.871445349243,363.75115042211837,"[30, 0, 224]",224,a,0.3564122741227038,1,colour,0.5,4.0
49,19,1,2,4,27,177,364.262002829375,365.1112026144983,"[72, 0, 182]",182,l,0.32582782342797145,1,colour,0.5,4.0
49,19,1,2,4,28,178,365.6213976939616,366.72726449230686,"[52, 0, 202]",202,a,0.5826173225650564,0,colour,0.5,4.0
49,19,1,2,4,29,179,367.2462726480735,368.16717787785456,"[13, 0, 241]",241,a,0.3975096373760607,1,colour,0.5,4.0
49,19,1,2,4,30,180,368.6839088200941,370.08723909716355,"[24, 0, 230]",230,a,0.880012666049879,1,colour,0.5,4.0
49,19,1,2,4,31,181,370.6056805095286,371.8551626029657,"[37, 0, 217]",217,a,0.7270167636452243,1,colour,0.5,4.0
49,19,1,2,4,32,182,372.37136776171974,373.5192117737606,"[95, 0, 159]",159,l,0.624533490248723,1,colour,0.5,4.0
49,19,1,2,4,33,183,374.02750891272444,375.59112674414064,"[61, 0, 193]",193,a,1.0407822870474774,0,colour,0.5,4.0
49,19,1,2,4,34,184,376.10563954961253,377.4152366143826,"[29, 0, 225]",225,a,0.7862715768278576,1,colour,0.5,4.0
49,19,1,2,4,35,185,377.93378357726033,379.1991561470495,"[59, 0, 195]",195,l,0.741991943505127,1,colour,0.5,4.0
49,19,1,2,4,36,186,379.71572718807147,380.8071883068769,"[7, 0, 247]",247,a,0.5681604431301821,1,colour,0.5,4.0
49,19,1,2,4,37,187,381.32505470511387,382.62313691480085,"[28, 0, 226]",226,a,0.7747240326134488,1,colour,0.5,4.0
49,19,1,2,4,38,188,383.1382298544049,384.88712708756793,"[38, 0, 216]",216,a,1.2255788344482426,1,colour,0.5,4.0
49,19,1,2,4,39,189,385.40376114385435,387.0152126685716,"[12, 0, 242]",242,a,1.0881327321694698,1,colour,0.5,4.0
49,19,1,2,4,40,190,387.52874755617813,388.68726162513485,"[4, 0, 250]",250,a,0.6352157563378569,1,colour,0.5,4.0
49,19,1,2,4,41,191,389.2006555161206,390.2231755903922,"[64, 0, 190]",190,l,0.49931234610266984,1,colour,0.5,4.0
49,19,1,2,4,42,192,390.71950692142127,393.6472138595709,"[47, 0, 207]",207,l,2.404378299455857,0,colour,0.5,4.0
49,19,1,2,4,43,193,394.15691938932287,395.0871737188427,"[96, 0, 158]",158,l,0.40691111856722273,1,colour,0.5,4.0
49,19,1,2,4,44,194,395.5945405951934,396.6391349109181,"[10, 0, 244]",244,a,0.5214539350708947,1,colour,0.5,4.0
49,19,1,2,4,45,195,397.15696153076715,398.263090630091,"[69, 0, 185]",185,l,0.5828095190809108,1,colour,0.5,4.0
49,19,1,2,4,46,196,398.781978663028,400.079095557885,"[60, 0, 194]",194,l,0.7737996776704676,1,colour,0.5,4.0
49,19,1,2,4,47,197,400.59656653541606,402.3830933239951,"[56, 0, 198]",198,l,1.263234777492471,1,colour,0.5,4.0
49,19,1,2,4,48,198,402.8934014370607,403.90309042530134,"[94, 0, 160]",160,l,0.48696372055565007,1,colour,0.5,4.0
49,19,1,2,4,49,199,404.42461013252614,405.42320646787994,"[23, 0, 231]",231,a,0.47524879209231585,1,colour,0.5,4.0
49,19,1,2,4,50,200,405.9402217664174,407.2230920951988,"[66, 0, 188]",188,a,0.7595066378707998,0,colour,0.5,4.0
49,19,1,2,5,1,201,431.2863401059003,432.74301712281886,"[29, 0, 225]",225,a,0.9325161831220612,1,colour,0.4,4.0
49,19,1,2,5,2,202,433.255879716482,434.4310561985767,"[17, 0, 237]",237,a,0.6519313385942951,1,colour,0.4,4.0
49,19,1,2,5,3,203,434.932892305369,436.0470322181063,"[95, 0, 159]",159,l,0.5908900431240909,1,colour,0.4,4.0
49,19,1,2,5,4,204,436.55782791165984,437.6790156860661,"[92, 0, 162]",162,l,0.5978355050028767,1,colour,0.4,4.0
49,19,1,2,5,5,205,438.19843580399174,439.43106919547427,"[60, 0, 194]",194,l,0.7091728146187961,1,colour,0.4,4.0
49,19,1,2,5,6,206,439.94841256711516,440.9990606789652,"[71, 0, 183]",183,l,0.5272663040377665,1,colour,0.4,4.0
49,19,1,2,5,7,207,441.5109548070468,442.61505402770126,"[0, 0, 254]",254,a,0.5808761325024534,1,colour,0.4,4.0
49,19,1,2,5,8,208,443.13593176708673,444.22305152914487,"[15, 0, 239]",239,a,0.5637718249345198,1,colour,0.4,4.0
49,19,1,2,5,9,209,444.7296342595073,445.94302436956787,"[46, 0, 208]",208,a,0.6900756498216651,1,colour,0.4,4.0
49,19,1,2,5,10,210,446.4494956416893,447.47902576849447,"[61, 0, 193]",193,l,0.5062838017765898,1,colour,0.4,4.0
49,19,1,2,5,11,211,447.9965121060086,449.19108901376603,"[10, 0, 244]",244,a,0.6713140412175562,1,colour,0.4,4.0
49,19,1,2,5,12,212,449.6995625954005,453.47905136845657,"[45, 0, 209]",209,a,3.2561947927461006,1,colour,0.4,4.0
49,19,1,2,5,13,213,453.9964628753369,455.16698056136374,"[81, 0, 173]",173,l,0.6472650594660081,1,colour,0.4,4.0
49,19,1,2,5,14,214,455.68398522606003,456.68698435803526,"[40, 0, 214]",214,a,0.4797791945748031,1,colour,0.4,4.0
49,19,1,2,5,15,215,457.19959095225204,458.39898892035126,"[35, 0, 219]",219,a,0.6761445538431872,1,colour,0.4,4.0
49,19,1,2,5,16,216,458.9182585893723,459.9989740329911,"[93, 0, 161]",161,l,0.5667910430056509,1,colour,0.4,4.0
49,19,1,2,5,17,217,460.51867614415823,461.6870201979473,"[99, 0, 155]",155,l,0.6450248673791066,1,colour,0.4,4.0
49,19,1,2,5,18,218,462.20813739529694,463.18293247758993,"[13, 0, 241]",241,a,0.45156963108456694,1,colour,0.4,4.0
49,19,1,2,5,19,219,463.6924422662123,464.7190350947494,"[33, 0, 221]",221,a,0.5033016051456798,1,colour,0.4,4.0
49,19,1,2,5,20,220,465.23934766615275,466.3189804290305,"[75, 0, 179]",179,l,0.5563387825677637,1,colour,0.4,4.0
49,19,1,2,5,21,221,466.8330320416717,467.85496922492166,"[56, 0, 198]",198,l,0.49864162754965946,1,colour,0.4,4.0
49,19,1,2,5,22,222,468.3642935124226,469.486981049733,"[66, 0, 188]",188,l,0.5993120310304221,1,colour,0.4,4.0
49,19,1,2,5,23,223,470.0049281862448,471.0550056162174,"[22, 0, 232]",232,a,0.5295813266711775,1,colour,0.4,4.0
49,19,1,2,5,24,224,471.56458550933166,472.60692624220974,"[64, 0, 190]",190,l,0.519005792652024,1,colour,0.4,4.0
49,19,1,2,5,25,225,473.12705606938107,474.19898167357314,"[16, 0, 238]",238,a,0.548823032702785,1,colour,0.4,4.0
49,19,1,2,5,26,226,474.6976965563663,475.76691841258435,"[20, 0, 234]",234,a,0.5458975498040672,1,colour,0.4,4.0
49,19,1,2,5,27,227,476.27581025793916,477.19096101404284,"[27, 0, 227]",227,a,0.3922128119447734,1,colour,0.4,4.0
49,19,1,2,5,28,228,477.686037947773,478.60695774984197,"[86, 0, 168]",168,l,0.3976439386315178,1,colour,0.4,4.0
49,19,1,2,5,29,229,479.1235961384082,480.3669559066475,"[55, 0, 199]",199,l,0.7201579477114137,1,colour,0.4,4.0
49,19,1,2,5,30,230,480.87350791707286,481.85489990815404,"[34, 0, 220]",220,a,0.4610577582207043,1,colour,0.4,4.0
49,19,1,2,5,31,231,482.36525685802917,483.4789529071131,"[82, 0, 172]",172,l,0.5903544134926051,1,colour,0.4,4.0
49,19,1,2,5,32,232,483.9901802551176,485.63091023950255,"[38, 0, 216]",216,a,1.1174493948346935,1,colour,0.4,4.0
49,19,1,2,5,33,233,486.1463785136875,487.1189987822145,"[63, 0, 191]",191,l,0.4492719375703018,1,colour,0.4,4.0
49,19,1,2,5,34,234,487.6306522708328,488.7109955306223,"[94, 0, 160]",160,l,0.5568184861331247,1,colour,0.4,4.0
49,19,1,2,5,35,235,489.2120723036933,490.1993097467057,"[59, 0, 195]",195,l,0.4638548475049902,1,colour,0.4,4.0
49,19,1,2,5,36,236,490.71208766364725,491.65491314136307,"[58, 0, 196]",196,l,0.41951377436635084,1,colour,0.4,4.0
49,19,1,2,5,37,237,492.1652598512592,493.14286856437684,"[77, 0, 177]",177,l,0.4545892429887317,1,colour,0.4,4.0
49,19,1,2,5,38,238,493.64956944831647,494.99893464846537,"[50, 0, 204]",204,a,0.8261854349693749,1,colour,0.4,4.0
49,19,1,2,5,39,239,495.5089717959345,496.68690637664986,"[52, 0, 202]",202,a,0.6547051910310984,0,colour,0.4,4.0
49,19,1,2,5,40,240,497.1964677590295,498.2949440503435,"[78, 0, 176]",176,l,0.5751303234137595,1,colour,0.4,4.0
49,19,1,2,5,41,241,498.8058665620629,499.92686725995736,"[80, 0, 174]",174,l,0.5977425575256348,1,colour,0.4,4.0
49,19,1,2,5,42,242,500.4465024174133,501.77489141683327,"[51, 0, 203]",203,l,0.805118649819633,1,colour,0.4,4.0
49,19,1,2,5,43,243,502.29018246065243,503.4549098330608,"[6, 0, 248]",248,a,0.6414629305072594,1,colour,0.4,4.0
49,19,1,2,5,44,244,503.9621002667118,505.17490315344185,"[79, 0, 175]",175,l,0.6895132387289777,1,colour,0.4,4.0
49,19,1,2,5,45,245,505.682348405011,506.98293547079084,"[97, 0, 157]",157,l,0.7773911529511679,1,colour,0.4,4.0
49,19,1,2,5,46,246,507.48283110180637,508.80698271963047,"[90, 0, 164]",164,l,0.8009076558810193,1,colour,0.4,4.0
49,19,1,2,5,47,247,509.32654501573415,511.08695946700755,"[26, 0, 228]",228,a,1.2372937629115768,1,colour,0.4,4.0
49,19,1,2,5,48,248,511.6078100310697,513.3428470604122,"[65, 0, 189]",189,l,1.2242476373212412,1,colour,0.4,4.0
49,19,1,2,5,49,249,513.8609769411269,514.60681517786,"[8, 0, 246]",246,a,0.2226190870278515,1,colour,0.4,4.0
49,19,1,2,5,50,250,515.1266055103624,515.7828463042388,"[76, 0, 178]",178,l,0.13309726247098297,1,colour,0.4,4.0
49,19,1,2,6,1,251,522.2038637799269,523.2628586552164,"[26, 0, 228]",228,a,0.5348336476308759,1,colour,0.28,4.0
49,19,1,2,6,2,252,523.7828860825975,524.7268222040439,"[95, 0, 159]",159,l,0.4207398147555068,1,colour,0.28,4.0
49,19,1,2,6,3,253,525.2238789981056,526.2788424729079,"[81, 0, 173]",173,l,0.532085788960103,1,colour,0.28,4.0
49,19,1,2,6,4,254,526.7863747642841,527.8948736307793,"[66, 0, 188]",188,l,0.5852482091868296,1,colour,0.28,4.0
49,19,1,2,6,5,255,528.4113343951467,529.5668674490007,"[92, 0, 162]",162,l,0.632216624362627,1,colour,0.28,4.0
49,19,1,2,6,6,256,530.083191155165,531.1108627259964,"[6, 0, 248]",248,a,0.5043393875239417,1,colour,0.28,4.0
49,19,1,2,6,7,257,531.6301568134513,532.7508227428189,"[65, 0, 189]",189,l,0.5974243304808624,1,colour,0.28,4.0
49,19,1,2,6,8,258,533.2707477704389,534.4788662611682,"[86, 0, 168]",168,l,0.6847792182234116,1,colour,0.28,4.0
49,19,1,2,6,9,259,534.9894524289994,536.0467935478664,"[71, 0, 183]",183,l,0.536876917059999,1,colour,0.28,4.0
49,19,1,2,6,10,260,536.5649695085012,537.6148303235532,"[12, 0, 242]",242,a,0.5264026012737304,1,colour,0.28,4.0
49,19,1,2,6,11,261,538.1274400685506,539.4547999502101,"[85, 0, 169]",169,l,0.8041206458292436,1,colour,0.28,4.0
49,19,1,2,6,12,262,539.9711575270921,541.1347963110893,"[64, 0, 190]",190,l,0.6410277314425912,1,colour,0.28,4.0
49,19,1,2,6,13,263,541.6430060163839,546.1667950602423,"[57, 0, 197]",197,a,4.000553746504011,0,colour,0.28,4.0
49,19,1,2,6,14,264,546.6742899362871,547.9907792938175,"[80, 0, 174]",174,l,0.7932753278000746,1,colour,0.28,4.0
49,19,1,2,6,15,265,548.502388277906,549.8707876275876,"[76, 0, 178]",178,l,0.8449915480741765,1,colour,0.28,4.0
49,19,1,2,6,16,266,550.3776015451294,551.5028226892755,"[58, 0, 196]",196,l,0.6019708806707058,1,colour,0.28,4.0
49,19,1,2,6,17,267,552.0181405145559,553.8548164129315,"[51, 0, 203]",203,l,1.3132554937328678,1,colour,0.28,4.0
49,19,1,2,6,18,268,554.3619745512842,555.4228334963846,"[77, 0, 177]",177,l,0.5375503925024532,1,colour,0.28,4.0
49,19,1,2,6,19,269,555.9401028251159,557.158759828395,"[74, 0, 180]",180,l,0.6953326968650799,1,colour,0.28,4.0
49,19,1,2,6,20,270,557.674431720603,558.8467831503367,"[69, 0, 185]",185,l,0.6490641447890084,1,colour,0.28,4.0
49,19,1,2,6,21,271,559.3619359544537,560.438726335793,"[2, 0, 252]",252,a,0.5534542595851235,1,colour,0.28,4.0
49,19,1,2,6,22,272,560.9557073697797,562.2147504517343,"[28, 0, 226]",226,a,0.7357203509309329,1,colour,0.28,4.0
49,19,1,2,6,23,273,562.7212548068783,563.8707825075835,"[99, 0, 155]",155,l,0.6261506190348882,1,colour,0.28,4.0
49,19,1,2,6,24,274,564.3682993129769,565.3187244295841,"[72, 0, 182]",182,l,0.42713586243917234,1,colour,0.28,4.0
49,19,1,2,6,25,275,565.8388904905296,566.8947334218537,"[87, 0, 167]",167,l,0.5325099603505805,1,colour,0.28,4.0
49,19,1,2,6,26,276,567.4089114588569,568.3507507478935,"[7, 0, 247]",247,a,0.418522465712158,1,colour,0.28,4.0
49,19,1,2,6,27,277,568.8620489880559,569.9267617094156,"[83, 0, 171]",171,l,0.5413817196094897,1,colour,0.28,4.0
49,19,1,2,6,28,278,570.4327631240885,571.510737404431,"[90, 0, 164]",164,l,0.5547196845582221,1,colour,0.28,4.0
49,19,1,2,6,29,279,572.0264053581923,572.9987759288051,"[21, 0, 233]",233,a,0.44713532683090307,1,colour,0.28,4.0
49,19,1,2,6,30,280,573.5126865448256,574.5028388369246,"[43, 0, 211]",211,a,0.46686737023992464,1,colour,0.28,4.0
49,19,1,2,6,31,281,575.0126956032473,576.5507256993442,"[55, 0, 199]",199,a,1.0154513388406485,0,colour,0.28,4.0
49,19,1,2,6,32,282,577.0595427140943,578.1027971680742,"[63, 0, 191]",191,l,0.5200447565584909,1,colour,0.28,4.0
49,19,1,2,6,33,283,578.6219250528084,579.5266979852458,"[59, 0, 195]",195,l,0.3814470506622456,1,colour,0.28,4.0
49,19,1,2,6,34,284,580.0439098125789,580.9266990880133,"[54, 0, 200]",200,a,0.36086430138675496,0,colour,0.28,4.0
49,19,1,2,6,35,285,581.433756008104,582.4467150938872,"[62, 0, 192]",192,l,0.48964895782410167,1,colour,0.28,4.0
49,19,1,2,6,36,286,582.9659792490711,584.4627245115116,"[98, 0, 156]",156,a,0.9733819653629325,0,colour,0.28,4.0
49,19,1,2,6,37,287,584.9816688643186,589.1987347325776,"[33, 0, 221]",221,l,3.693735260341782,0,colour,0.28,4.0
49,19,1,2,6,38,288,589.7166070384847,590.734983860224,"[97, 0, 157]",157,l,0.49494184480863623,1,colour,0.28,4.0
49,19,1,2,6,39,289,591.247865752317,592.1186754352238,"[40, 0, 214]",214,a,0.34743417662684806,1,colour,0.28,4.0
49,19,1,2,6,40,290,592.6385421737214,593.4547318149707,"[60, 0, 194]",194,l,0.29286179022165015,1,colour,0.28,4.0
49,19,1,2,6,41,291,593.9665235432913,594.7987218144408,"[82, 0, 172]",172,l,0.30870776204392314,1,colour,0.28,4.0
49,19,1,2,6,42,292,595.3103823922866,596.3747650712612,"[61, 0, 193]",193,l,0.5412395414314233,1,colour,0.28,4.0
49,19,1,2,6,43,293,596.8904743787716,597.7826690738439,"[42, 0, 212]",212,l,0.3688967762864195,0,colour,0.28,4.0
49,19,1,2,6,44,294,598.296654520469,599.2946915954817,"[78, 0, 176]",176,l,0.47457649814896286,1,colour,0.28,4.0
49,19,1,2,6,45,295,599.8124142401794,601.3186551128165,"[35, 0, 219]",219,a,0.9828744247788563,1,colour,0.28,4.0
49,19,1,2,6,46,296,601.8280912523624,602.8466850828554,"[48, 0, 206]",206,a,0.495555061934283,1,colour,0.28,4.0
49,19,1,2,6,47,297,603.3608871444012,604.5426762891002,"[47, 0, 207]",207,a,0.6585365181381349,1,colour,0.28,4.0
49,19,1,2,6,48,298,605.0483771998261,605.822636888799,"[70, 0, 184]",184,l,0.25165611947886646,1,colour,0.28,4.0
49,19,1,2,6,49,299,606.3316606723238,607.2067286106467,"[96, 0, 158]",158,l,0.35165659210179,1,colour,0.28,4.0
49,19,1,2,6,50,300,607.7222768354404,608.7267615518649,"[89, 0, 165]",165,l,0.48142389254644513,1,colour,0.28,4.0
49,19,1,2,7,1,301,618.4249697132909,619.6946560706419,"[67, 0, 187]",187,l,0.7456393448228482,1,colour,0.14,3.9
49,19,1,2,7,2,302,620.2070696806768,621.4386101514392,"[51, 0, 203]",203,l,0.7082909949822351,1,colour,0.14,3.9
49,19,1,2,7,3,303,621.9570243884809,623.31863778361,"[90, 0, 164]",164,l,0.8383359563304111,1,colour,0.14,3.9
49,19,1,2,7,4,304,623.8339158305316,624.9666397276451,"[82, 0, 172]",172,l,0.6095346796500962,1,colour,0.14,3.9
49,19,1,2,7,5,305,625.4744654337701,628.7347085623478,"[64, 0, 190]",190,l,2.736933000618592,1,colour,0.14,3.9
49,19,1,2,7,6,306,629.2557714090217,630.4066007684742,"[58, 0, 196]",196,l,0.62754798217793,1,colour,0.14,3.9
49,19,1,2,7,7,307,630.9276100521965,632.0386102302,"[80, 0, 174]",174,l,0.5878200189908966,1,colour,0.14,3.9
49,19,1,2,7,8,308,632.5525929199066,633.6226253097411,"[35, 0, 219]",219,a,0.5469707782322075,1,colour,0.14,3.9
49,19,1,2,7,9,309,634.1316518502135,635.1265905442415,"[93, 0, 161]",161,l,0.471543889347231,1,colour,0.14,3.9
49,19,1,2,7,10,310,635.6472686040506,636.6706358396041,"[97, 0, 157]",157,l,0.49995234471862204,1,colour,0.14,3.9
49,19,1,2,7,11,311,637.1785155025427,638.0785930112761,"[9, 0, 245]",245,a,0.3767654115508776,1,colour,0.14,3.9
49,19,1,2,7,12,312,638.5847519641102,639.6305916186539,"[11, 0, 243]",243,a,0.5224633605685085,1,colour,0.14,3.9
49,19,1,2,7,13,313,640.1495678729261,641.1346253822267,"[75, 0, 179]",179,l,0.46163119695847854,1,colour,0.14,3.9
49,19,1,2,7,14,314,641.6495273068722,642.6306097355264,"[78, 0, 176]",176,l,0.4577120423782617,1,colour,0.14,3.9
49,19,1,2,7,15,315,643.1495710236777,644.206602974009,"[72, 0, 182]",182,l,0.5336721978383139,1,colour,0.14,3.9
49,19,1,2,7,16,316,644.7277012667619,645.8146059892897,"[81, 0, 173]",173,l,0.5636922681878787,1,colour,0.14,3.9
49,19,1,2,7,17,317,646.3213848545856,647.3986395795655,"[56, 0, 198]",198,l,0.5538232926628552,1,colour,0.14,3.9
49,19,1,2,7,18,318,647.9166079837014,648.9985730984772,"[98, 0, 156]",156,l,0.5585041440499481,1,colour,0.14,3.9
49,19,1,2,7,19,319,649.5103805805848,650.4625425549748,"[71, 0, 183]",183,l,0.4290471936983522,1,colour,0.14,3.9
49,19,1,2,7,20,320,650.9791517989943,651.9425442721404,"[83, 0, 171]",171,l,0.44006422828533687,1,colour,0.14,3.9
49,19,1,2,7,21,321,652.4657011942763,653.4065247563121,"[92, 0, 162]",162,l,0.4176115015288815,1,colour,0.14,3.9
49,19,1,2,7,22,322,653.9187721636263,654.9185362503049,"[21, 0, 233]",233,a,0.4764618356130086,1,colour,0.14,3.9
49,19,1,2,7,23,323,655.4343778898474,656.4145127267111,"[84, 0, 170]",170,l,0.4569601916882675,1,colour,0.14,3.9
49,19,1,2,7,24,324,656.9343192068918,657.9985451354587,"[76, 0, 178]",178,l,0.5413758119102567,1,colour,0.14,3.9
49,19,1,2,7,25,325,658.5124746560468,659.6625277464045,"[73, 0, 181]",181,l,0.6267480823735241,1,colour,0.14,3.9
49,19,1,2,7,26,326,660.1687410498562,661.1185241986241,"[79, 0, 175]",175,l,0.4264600239112042,1,colour,0.14,3.9
49,19,1,2,7,27,327,661.6375264466915,662.5905277054408,"[53, 0, 201]",201,a,0.42972736453521065,0,colour,0.14,3.9
49,19,1,2,7,28,328,663.1061881761416,664.118523804791,"[63, 0, 191]",191,l,0.48899044847348705,1,colour,0.14,3.9
49,19,1,2,7,29,329,664.6306337600981,665.6305668063869,"[46, 0, 208]",208,l,0.4765795953280758,0,colour,0.14,3.9
49,19,1,2,7,30,330,666.1462579970248,667.2385391017306,"[89, 0, 165]",165,l,0.578923841327196,1,colour,0.14,3.9
49,19,1,2,7,31,331,667.747799586301,669.8225372459565,"[57, 0, 197]",197,a,1.547736413544044,0,colour,0.14,3.9
49,19,1,2,7,32,332,670.3295244554174,671.638545324502,"[77, 0, 177]",177,l,0.7856229135941248,1,colour,0.14,3.9
49,19,1,2,7,33,333,672.1577074737579,673.1825402076647,"[74, 0, 180]",180,l,0.5015052767412271,1,colour,0.14,3.9
49,19,1,2,7,34,334,673.6907971743785,674.6705172921647,"[7, 0, 247]",247,a,0.45647103583905846,1,colour,0.14,3.9
49,19,1,2,7,35,335,675.1907826021197,676.2065966724767,"[91, 0, 163]",163,l,0.4925019731745124,1,colour,0.14,3.9
49,19,1,2,7,36,336,676.7220271374972,677.7185160066583,"[86, 0, 168]",168,l,0.47321458111400716,1,colour,0.14,3.9
49,19,1,2,7,37,337,678.2376604328747,679.1985169361287,"[87, 0, 167]",167,l,0.43761884281411767,1,colour,0.14,3.9
49,19,1,2,7,38,338,679.7063536699279,680.8945404376718,"[60, 0, 194]",194,l,0.6649695872620214,1,colour,0.14,3.9
49,19,1,2,7,39,339,681.4094691437786,682.4624692997604,"[70, 0, 184]",184,l,0.529837719979696,1,colour,0.14,3.9
49,19,1,2,7,40,340,682.9719912975852,683.958559597464,"[95, 0, 159]",159,l,0.46326329189469106,1,colour,0.14,3.9
49,19,1,2,7,41,341,684.4720267436642,685.4785385818686,"[54, 0, 200]",200,l,0.48332458996446803,1,colour,0.14,3.9
49,19,1,2,7,42,342,685.9875789069047,687.1504748986627,"[55, 0, 199]",199,l,0.6395827130472753,1,colour,0.14,3.9
49,19,1,2,7,43,343,687.660091419355,688.710485500982,"[65, 0, 189]",189,l,0.5272036826063413,1,colour,0.14,3.9
49,19,1,2,7,44,344,689.2226954929938,690.1584502659971,"[5, 0, 249]",249,a,0.41255925403675064,1,colour,0.14,3.9
49,19,1,2,7,45,345,690.6758168745437,691.6464817011438,"[50, 0, 204]",204,l,0.4475012090988457,0,colour,0.14,3.9
49,19,1,2,7,46,346,692.1600835424615,693.2064261374471,"[61, 0, 193]",193,l,0.5231947312713601,1,colour,0.14,3.9
49,19,1,2,7,47,347,693.7225706440222,694.7425051239261,"[68, 0, 186]",186,l,0.4965514905634336,1,colour,0.14,3.9
49,19,1,2,7,48,348,695.2539140346053,696.2384248866001,"[59, 0, 195]",195,l,0.4613224222266581,1,colour,0.14,3.9
49,19,1,2,7,49,349,696.7538352655247,697.7745117499726,"[99, 0, 155]",155,l,0.4973096427565906,1,colour,0.14,3.9
49,19,1,2,7,50,350,698.2726984862238,699.2224761211546,"[88, 0, 166]",166,l,0.4264954699901864,1,colour,0.14,3.9
49,19,1,2,8,1,351,705.0379808654252,706.4065330270678,"[55, 0, 199]",199,l,0.8444354385137558,1,colour,0.06,3.9
49,19,1,2,8,2,352,706.9138128636114,707.7984922026517,"[75, 0, 179]",179,l,0.361323525023181,1,colour,0.06,3.9
49,19,1,2,8,3,353,708.3199914299184,709.462426370621,"[53, 0, 201]",201,a,0.6191228435200173,0,colour,0.06,3.9
49,19,1,2,8,4,354,709.9781415858015,710.630480160442,"[91, 0, 163]",163,l,0.1290126928652171,1,colour,0.06,3.9
49,19,1,2,8,5,355,711.1499109121796,711.8624058119021,"[68, 0, 186]",186,l,0.18901935670874082,1,colour,0.06,3.9
49,19,1,2,8,6,356,712.3687416012399,714.7024364845711,"[77, 0, 177]",177,l,1.8107100715860724,1,colour,0.06,3.9
49,19,1,2,8,7,357,715.2124972627789,716.1504772617191,"[50, 0, 204]",204,a,0.41478566150180995,1,colour,0.06,3.9
49,19,1,2,8,8,358,716.6656773272553,717.4383970811323,"[60, 0, 194]",194,l,0.24946870270650834,1,colour,0.06,3.9
49,19,1,2,8,9,359,717.9468281274894,718.8624704025278,"[87, 0, 167]",167,l,0.392253771860851,1,colour,0.06,3.9
49,19,1,2,8,10,360,719.3686872505932,720.0544963742432,"[63, 0, 191]",191,l,0.16242770967073739,1,colour,0.06,3.9
49,19,1,2,8,11,361,720.5718302936293,721.2464262477297,"[73, 0, 181]",181,l,0.15125589389936067,1,colour,0.06,3.9
49,19,1,2,8,12,362,721.7592868721986,724.054378220666,"[80, 0, 174]",174,l,1.7718568388081621,1,colour,0.06,3.9
49,19,1,2,8,13,363,724.5718566812575,727.6144037891063,"[62, 0, 192]",192,l,2.5194023949152324,1,colour,0.06,3.9
49,19,1,2,8,14,364,728.1342835245014,728.9264198516903,"[88, 0, 166]",166,l,0.2689534112578258,1,colour,0.06,3.9
49,19,1,2,8,15,365,729.4468163121201,730.3424382489757,"[76, 0, 178]",178,l,0.37232126118033193,1,colour,0.06,3.9
49,19,1,2,8,16,366,730.853024810669,731.6223815194971,"[99, 0, 155]",155,l,0.24597765793441795,1,colour,0.06,3.9
49,19,1,2,8,17,367,732.1342350815248,733.5024150593672,"[64, 0, 190]",190,l,0.8449186866928358,1,colour,0.06,3.9
49,19,1,2,8,18,368,734.0091844724084,735.1583872507617,"[54, 0, 200]",200,a,0.6259229764691554,0,colour,0.06,3.9
49,19,1,2,8,19,369,735.6674712926033,736.3183817841636,"[90, 0, 164]",164,l,0.12768622185103595,1,colour,0.06,3.9
49,19,1,2,8,20,370,736.839248495904,737.6464108089858,"[74, 0, 180]",180,l,0.28380964981624857,1,colour,0.06,3.9
49,19,1,2,8,21,371,738.1674429357518,738.9423260818585,"[69, 0, 185]",185,l,0.2516726609901525,1,colour,0.06,3.9
49,19,1,2,8,22,372,739.4486571450543,740.3744102166675,"[51, 0, 203]",203,a,0.4024803589563817,0,colour,0.06,3.9
49,19,1,2,8,23,373,740.8861460189219,741.766327250778,"[30, 0, 224]",224,a,0.3569475098629482,1,colour,0.06,3.9
49,19,1,2,8,24,374,742.2767759666021,743.118330032914,"[85, 0, 169]",169,l,0.31847433783696033,1,colour,0.06,3.9
49,19,1,2,8,25,375,743.6268209437549,744.8224025508389,"[93, 0, 161]",161,l,0.6724947894108482,1,colour,0.06,3.9
49,19,1,2,8,26,376,745.3299100299773,746.1503945542208,"[97, 0, 157]",157,l,0.2971720331988763,1,colour,0.06,3.9
49,19,1,2,8,27,377,746.6579941931413,747.5263655798044,"[52, 0, 202]",202,a,0.34497894503874704,0,colour,0.06,3.9
49,19,1,2,8,28,378,748.0329420086346,748.8223336279334,"[81, 0, 173]",173,l,0.26628235244425014,1,colour,0.06,3.9
49,19,1,2,8,29,379,749.3298958515516,750.134307155211,"[92, 0, 162]",162,l,0.28102437587222084,1,colour,0.06,3.9
49,19,1,2,8,30,380,750.6424132791872,751.4623696568888,"[67, 0, 187]",187,l,0.2967092649778351,1,colour,0.06,3.9
49,19,1,2,8,31,381,751.9704635716625,752.8223182679503,"[70, 0, 184]",184,a,0.32845240851747803,0,colour,0.06,3.9
49,19,1,2,8,32,382,753.329893094633,754.1103554532456,"[84, 0, 170]",170,l,0.2574743961158674,1,colour,0.06,3.9
49,19,1,2,8,33,383,754.6268343344855,755.6143427430652,"[98, 0, 156]",156,l,0.4645346245088149,1,colour,0.06,3.9
49,19,1,2,8,34,384,756.1268528452201,757.9343085730507,"[96, 0, 158]",158,l,1.284911235125037,1,colour,0.06,3.9
49,19,1,2,8,35,385,758.4549429160543,759.5342799011269,"[61, 0, 193]",193,l,0.5560623031924479,1,colour,0.06,3.9
49,19,1,2,8,36,386,760.0487033037352,761.1183367282792,"[66, 0, 188]",188,l,0.5463504719082266,1,colour,0.06,3.9
49,19,1,2,8,37,387,761.6267008209252,763.0063428785652,"[82, 0, 172]",172,l,0.8565249138628133,1,colour,0.06,3.9
49,19,1,2,8,38,388,763.5173126517329,764.3822713688714,"[58, 0, 196]",196,l,0.3416434692044277,1,colour,0.06,3.9
49,19,1,2,8,39,389,764.87985552178,765.6303210469196,"[32, 0, 222]",222,a,0.22712979721836746,1,colour,0.06,3.9
49,19,1,2,8,40,390,766.1455608908436,767.0462929704809,"[26, 0, 228]",228,a,0.3774207701499108,1,colour,0.06,3.9
49,19,1,2,8,41,391,767.5673569987121,768.4384148041718,"[71, 0, 183]",183,l,0.3477244406240061,1,colour,0.06,3.9
49,19,1,2,8,42,392,768.9579916725343,769.8862622032757,"[89, 0, 165]",165,l,0.40493165206862614,1,colour,0.06,3.9
49,19,1,2,8,43,393,770.395512054034,771.214281381981,"[94, 0, 160]",160,l,0.29553245520219207,1,colour,0.06,3.9
49,19,1,2,8,44,394,771.7235595895618,772.6222578520828,"[56, 0, 198]",198,a,0.3752802209346555,0,colour,0.06,3.9
49,19,1,2,8,45,395,773.1298311033752,774.0222821917268,"[72, 0, 182]",182,l,0.3698128604737576,1,colour,0.06,3.9
49,19,1,2,8,46,396,774.5361207340611,775.4463149470394,"[86, 0, 168]",168,l,0.38693252799566835,1,colour,0.06,3.9
49,19,1,2,8,47,397,775.9579963986762,776.6942610437982,"[59, 0, 195]",195,l,0.21297342173056677,1,colour,0.06,3.9
49,19,1,2,8,48,398,777.2098644069338,778.0063515431539,"[95, 0, 159]",159,l,0.27329988798010163,1,colour,0.06,3.9
49,19,1,2,8,49,399,778.5222400502826,779.1822637282603,"[78, 0, 176]",176,l,0.13657727953977883,1,colour,0.06,3.9
49,19,1,2,8,50,400,779.694198816258,780.4623082170147,"[79, 0, 175]",175,l,0.24470750684849918,1,colour,0.06,3.9
49,19,1,2,9,1,401,798.8808291073656,800.8062072382309,"[56, 0, 198]",198,a,1.4012763738282956,0,colour,0.06,3.9
49,19,1,2,9,2,402,801.3191415117471,802.11024045042,"[71, 0, 183]",183,l,0.2677990506635979,1,colour,0.06,3.9
49,19,1,2,9,3,403,802.6316219179425,803.5422615699936,"[61, 0, 193]",193,l,0.38734803479746915,1,colour,0.06,3.9
49,19,1,2,9,4,404,804.053499157948,805.3022605144943,"[90, 0, 164]",164,l,0.725440200912999,1,colour,0.06,3.9
49,19,1,2,9,5,405,805.8191178810375,806.6702510527393,"[92, 0, 162]",162,l,0.3281589937687386,1,colour,0.06,3.9
49,19,1,2,9,6,406,807.178491477971,808.1821806268999,"[70, 0, 184]",184,l,0.4803880793915596,1,colour,0.06,3.9
49,19,1,2,9,7,407,808.6940117397462,809.5981793319515,"[10, 0, 244]",244,a,0.38083028892287984,1,colour,0.06,3.9
49,19,1,2,9,8,408,810.1160047702433,811.0142115138297,"[99, 0, 155]",155,l,0.37490488635376096,1,colour,0.06,3.9
49,19,1,2,9,9,409,811.5221730965714,812.550211337395,"[57, 0, 197]",197,l,0.50499592765118,1,colour,0.06,3.9
49,19,1,2,9,10,410,813.0690001212934,814.0382026003208,"[87, 0, 167]",167,l,0.44579704050556757,1,colour,0.06,3.9
49,19,1,2,9,11,411,814.5534298411803,815.5182456712355,"[97, 0, 157]",157,l,0.4414714375452604,1,colour,0.06,3.9
49,19,1,2,9,12,412,816.0377709458699,816.982219460042,"[4, 0, 250]",250,a,0.4211072724137921,1,colour,0.06,3.9
49,19,1,2,9,13,413,817.4919679189334,818.4622262972116,"[54, 0, 200]",200,a,0.44695652107475325,0,colour,0.06,3.9
49,19,1,2,9,14,414,818.9763302912761,819.9741834405286,"[66, 0, 188]",188,a,0.4746544795052614,0,colour,0.06,3.9
49,19,1,2,9,15,415,820.491966343543,821.4381694385374,"[52, 0, 202]",202,a,0.4229548007424455,0,colour,0.06,3.9
49,19,1,2,9,16,416,821.9451097804413,822.8541823220148,"[86, 0, 168]",168,l,0.385785650491016,1,colour,0.06,3.9
49,19,1,2,9,17,417,823.3669614204846,824.3742022663355,"[96, 0, 158]",158,l,0.48389448411762714,1,colour,0.06,3.9
49,19,1,2,9,18,418,824.8825218544807,825.8061989674752,"[63, 0, 191]",191,a,0.4003307512612082,0,colour,0.06,3.9
49,19,1,2,9,19,419,826.3200004883693,827.214154563786,"[82, 0, 172]",172,l,0.371109793020878,1,colour,0.06,3.9
49,19,1,2,9,20,420,827.7263212328253,828.7181615458976,"[67, 0, 187]",187,l,0.4695986873994116,1,colour,0.06,3.9
49,19,1,2,9,21,421,829.2263409250882,830.1182103039173,"[76, 0, 178]",178,l,0.36877901654224843,1,colour,0.06,3.9
49,19,1,2,9,22,422,830.6201909519441,831.5021559091692,"[78, 0, 176]",176,l,0.3587182383344043,1,colour,0.06,3.9
49,19,1,2,9,23,423,832.0108484688099,832.9182239309885,"[94, 0, 160]",160,l,0.3842709214659408,1,colour,0.06,3.9
49,19,1,2,9,24,424,833.432571715297,834.318129329331,"[79, 0, 175]",175,l,0.36220022465568036,1,colour,0.06,3.9
49,19,1,2,9,25,425,834.8388562259788,836.1341586755298,"[59, 0, 195]",195,a,0.7719249740475789,0,colour,0.06,3.9
49,19,1,2,9,26,426,836.6513283614186,837.7181552443653,"[55, 0, 199]",199,a,0.5434631920070387,0,colour,0.06,3.9
49,19,1,2,9,27,427,838.2294416691293,839.8861204189889,"[74, 0, 180]",180,l,1.1332520436844788,1,colour,0.06,3.9
49,19,1,2,9,28,428,840.4013106383791,841.222177980264,"[83, 0, 171]",171,l,0.2976060507353395,1,colour,0.06,3.9
49,19,1,2,9,29,429,841.7294672690914,842.3821512460418,"[93, 0, 161]",161,l,0.129237972345436,1,colour,0.06,3.9
49,19,1,2,9,30,430,842.9013204845251,843.966207285499,"[58, 0, 196]",196,a,0.5416192082921043,0,colour,0.06,3.9
49,19,1,2,9,31,431,844.4795062597841,845.1981293923454,"[68, 0, 186]",186,l,0.19543312743189745,1,colour,0.06,3.9
49,19,1,2,9,32,432,845.7148808145139,846.4301369636378,"[30, 0, 224]",224,a,0.20433363737538457,1,colour,0.06,3.9
49,19,1,2,9,33,433,846.936871718266,847.7981160803756,"[64, 0, 190]",190,a,0.33796416636323556,0,colour,0.06,3.9
49,19,1,2,9,34,434,848.3118400137173,851.3660902346892,"[84, 0, 170]",170,l,2.530938517622417,1,colour,0.06,3.9
49,19,1,2,9,35,435,851.8743432629562,852.6861037199269,"[95, 0, 159]",159,l,0.2884495413163677,1,colour,0.06,3.9
49,19,1,2,9,36,436,853.2024167923082,854.0220773921756,"[85, 0, 169]",169,l,0.2962583120970521,1,colour,0.06,3.9
49,19,1,2,9,37,437,854.530550579977,855.3021592962323,"[81, 0, 173]",173,l,0.24819776389631443,1,colour,0.06,3.9
49,19,1,2,9,38,438,855.8118250475964,856.5181932898122,"[75, 0, 179]",179,l,0.1830368465743959,1,colour,0.06,3.9
49,19,1,2,9,39,439,857.0305911460309,857.5821029606159,"[98, 0, 156]",156,l,0.0282485542120412,1,colour,0.06,3.9
49,19,1,2,9,40,440,858.0825783318724,858.7260888640885,"[91, 0, 163]",163,l,0.1202425456722267,1,colour,0.06,3.9
49,19,1,2,9,41,441,859.2387821042794,859.8460801364854,"[51, 0, 203]",203,a,0.08396624273154885,0,colour,0.06,3.9
49,19,1,2,9,42,442,860.3638114457717,861.1661251293845,"[73, 0, 181]",181,l,0.2789688972698059,1,colour,0.06,3.9
49,19,1,2,9,43,443,861.6782023955311,863.2141250254062,"[60, 0, 194]",194,l,1.0125605143548455,1,colour,0.06,3.9
49,19,1,2,9,44,444,863.7126477116835,864.2940874368069,"[53, 0, 201]",201,l,0.05810596645460464,1,colour,0.06,3.9
49,19,1,2,9,45,445,864.8064435454144,866.7101432493946,"[50, 0, 204]",204,a,1.3804533789516427,1,colour,0.06,3.9
49,19,1,2,9,46,446,867.2282904593158,867.7981160803756,"[80, 0, 174]",174,l,0.04646783779026009,1,colour,0.06,3.9
49,19,1,2,9,47,447,868.306375410175,869.158094229846,"[88, 0, 166]",166,l,0.3283567041216884,1,colour,0.06,3.9
49,19,1,2,9,48,448,869.6658632222388,870.5901574908639,"[77, 0, 177]",177,l,0.40110583885689266,1,colour,0.06,3.9
49,19,1,2,9,49,449,871.1032847485621,871.9500659297046,"[72, 0, 182]",182,l,0.32356321296538226,1,colour,0.06,3.9
49,19,1,2,9,50,450,872.4626366840093,873.3340757317201,"[69, 0, 185]",185,l,0.34809819981455803,1,colour,0.06,3.9
49,19,1,2,10,1,451,884.0554979228473,888.3500516724889,"[56, 0, 198]",198,l,3.7704000050434843,1,colour,0.06,3.9
49,19,1,2,10,2,452,888.8688420318067,890.038086415967,"[81, 0, 173]",173,l,0.6459752161172219,1,colour,0.06,3.9
49,19,1,2,10,3,453,890.5563620194444,891.5660647922778,"[68, 0, 186]",186,l,0.4863800418097526,1,colour,0.06,3.9
49,19,1,2,10,4,454,892.0875738656905,893.0300452764495,"[83, 0, 171]",171,l,0.41918333814828657,1,colour,0.06,3.9
49,19,1,2,10,5,455,893.5406917026266,894.7740344094636,"[50, 0, 204]",204,a,0.7100447880802676,1,colour,0.06,3.9
49,19,1,2,10,6,456,895.2906645273033,896.3099913038895,"[85, 0, 169]",169,l,0.4960312209150288,1,colour,0.06,3.9
49,19,1,2,10,7,457,896.8218480166688,897.8140195536253,"[90, 0, 164]",164,l,0.46925958659267053,1,colour,0.06,3.9
49,19,1,2,10,8,458,898.3219177272986,899.3500036233745,"[80, 0, 174]",174,l,0.504767497361172,1,colour,0.06,3.9
49,19,1,2,10,9,459,899.8687313612609,900.8380323016027,"[91, 0, 163]",163,l,0.44596757550607435,1,colour,0.06,3.9
49,19,1,2,10,10,460,901.3531150012568,902.4140149062441,"[52, 0, 202]",202,a,0.5378749210212845,0,colour,0.06,3.9
49,19,1,2,10,11,461,902.9312468197022,904.1900595021434,"[76, 0, 178]",178,l,0.7354934960312676,1,colour,0.06,3.9
49,19,1,2,10,12,462,904.6968596350926,905.7819975675957,"[88, 0, 166]",166,l,0.5618348937423434,1,colour,0.06,3.9
49,19,1,2,10,13,463,906.2905660659599,907.3499673896004,"[97, 0, 157]",157,l,0.5360092758492101,1,colour,0.06,3.9
49,19,1,2,10,14,464,907.8687069428561,908.9820378973673,"[93, 0, 161]",161,l,0.5900440634286497,1,colour,0.06,3.9
49,19,1,2,10,15,465,909.4825207517133,910.757998604211,"[59, 0, 195]",195,a,0.7520030972082168,0,colour,0.06,3.9
49,19,1,2,10,16,466,911.2640689418186,912.3819511726324,"[64, 0, 190]",190,l,0.5945362629136071,1,colour,0.06,3.9
49,19,1,2,10,17,467,912.8766657686792,914.0060226823261,"[53, 0, 201]",201,l,0.6062590682704467,1,colour,0.06,3.9
49,19,1,2,10,18,468,914.5173579439288,915.8620824649115,"[54, 0, 200]",200,l,0.8215612973144744,1,colour,0.06,3.9
49,19,1,2,10,19,469,916.3766452887503,917.5180006994633,"[77, 0, 177]",177,l,0.6182126670028083,1,colour,0.06,3.9
49,19,1,2,10,20,470,918.0328608764976,919.1339743559365,"[78, 0, 176]",176,l,0.5777592407830525,1,colour,0.06,3.9
49,19,1,2,10,21,471,919.6422829164076,920.7580013611296,"[38, 0, 216]",216,a,0.5925044150208123,1,colour,0.06,3.9
49,19,1,2,10,22,472,921.2672559380007,922.4379949650611,"[70, 0, 184]",184,l,0.6474828558857553,1,colour,0.06,3.9
49,19,1,2,10,23,473,922.9547290580522,924.0619609242422,"[94, 0, 160]",160,l,0.583895744435722,1,colour,0.06,3.9
49,19,1,2,10,24,474,924.5796934150567,925.8059768387466,"[62, 0, 192]",192,l,0.7029307604243513,1,colour,0.06,3.9
49,19,1,2,10,25,475,926.3141270733904,927.5099741322338,"[66, 0, 188]",188,l,0.6725172386213671,1,colour,0.06,3.9
49,19,1,2,10,26,476,928.0172555441677,929.2699872551602,"[51, 0, 203]",203,a,0.7294408814632334,0,colour,0.06,3.9
49,19,1,2,10,27,477,929.7846245157707,930.9020101076458,"[58, 0, 196]",196,l,0.5939537657250185,1,colour,0.06,3.9
49,19,1,2,10,28,478,931.4107239349105,932.6299291708565,"[60, 0, 194]",194,l,0.6960353169124573,1,colour,0.06,3.9
49,19,1,2,10,29,479,933.1450410150283,934.2700175812352,"[65, 0, 189]",189,l,0.6015837307204492,1,colour,0.06,3.9
49,19,1,2,10,30,480,934.780469841673,935.9019077078556,"[73, 0, 181]",181,l,0.5980789013847243,1,colour,0.06,3.9
49,19,1,2,10,31,481,936.4210651309695,937.5579622128862,"[67, 0, 187]",187,l,0.6135188186890446,1,colour,0.06,3.9
49,19,1,2,10,32,482,938.0773327063362,939.1660077634733,"[63, 0, 191]",191,l,0.5655413718777709,1,colour,0.06,3.9
49,19,1,2,10,33,483,939.6729067515989,940.7899307934858,"[69, 0, 185]",185,l,0.593680830905214,1,colour,0.06,3.9
49,19,1,2,10,34,484,941.2981460126175,942.5019231465994,"[95, 0, 159]",159,l,0.6804445568122901,1,colour,0.06,3.9
49,19,1,2,10,35,485,943.0168443696457,943.7819266754377,"[87, 0, 167]",167,l,0.24169774106121622,1,colour,0.06,3.9
49,19,1,2,10,36,486,944.29808260352,945.3179946342425,"[74, 0, 180]",180,l,0.49643451848533005,1,colour,0.06,3.9
49,19,1,2,10,37,487,945.829303508217,946.5579988405225,"[57, 0, 197]",197,a,0.20560693924198858,0,colour,0.06,3.9
49,19,1,2,10,38,488,947.079288542096,947.9659343507083,"[82, 0, 172]",172,l,0.36325336698791943,1,colour,0.06,3.9
49,19,1,2,10,39,489,948.4855588743521,949.3818960342905,"[75, 0, 179]",179,l,0.37303805965348147,1,colour,0.06,3.9
49,19,1,2,10,40,490,949.8937239963561,950.8138734370295,"[98, 0, 156]",156,l,0.3970701060607098,1,colour,0.06,3.9
49,19,1,2,10,41,491,951.3312183840608,952.2699502336909,"[55, 0, 199]",199,a,0.41541896475246176,0,colour,0.06,3.9
49,19,1,2,10,42,492,952.7845276298176,953.7498901171493,"[61, 0, 193]",193,a,0.44213073459104635,0,colour,0.06,3.9
49,19,1,2,10,43,493,954.2688707037305,955.061853404477,"[79, 0, 175]",175,l,0.2697619756509084,1,colour,0.06,3.9
49,19,1,2,10,44,494,955.5814397251233,956.4858944305452,"[71, 0, 183]",183,l,0.3812524910608772,1,colour,0.06,3.9
49,19,1,2,10,45,495,957.0032531621691,957.8058764081798,"[96, 0, 158]",158,l,0.27937258867314085,1,colour,0.06,3.9
49,19,1,2,10,46,496,958.3157942205435,959.2379254907719,"[6, 0, 248]",248,a,0.3989014866820071,1,colour,0.06,3.9
49,19,1,2,10,47,497,959.7532393776055,960.6538635436154,"[27, 0, 227]",227,a,0.37738847482251003,1,colour,0.06,3.9
49,19,1,2,10,48,498,961.175163091335,961.9258857974492,"[84, 0, 170]",170,l,0.22752049175323918,1,colour,0.06,3.9
49,19,1,2,10,49,499,962.4406928053941,963.3178985359846,"[86, 0, 168]",168,l,0.35383967659436166,1,colour,0.06,3.9
49,19,1,2,10,50,500,963.8321584927908,964.4778883432737,"[89, 0, 165]",165,l,0.12325900685391389,1,colour,0.06,3.9
49,19,1,2,11,1,501,969.4867715240398,982.0858929339447,"[50, 0, 204]",204,l,12.075429251999594,0,colour,0.06,3.9
49,19,1,2,11,2,502,982.5980907167541,983.1498664076789,"[86, 0, 168]",168,l,0.028374978544889018,1,colour,0.06,3.9
49,19,1,2,11,3,503,983.6605482799059,984.3738210240845,"[57, 0, 197]",197,l,0.19005713908700272,1,colour,0.06,3.9
49,19,1,2,11,4,504,984.8949071076349,985.4298644226801,"[98, 0, 156]",156,l,0.01167160549084656,1,colour,0.06,3.9
49,19,1,2,11,5,505,985.9417880891706,987.1018594224297,"[58, 0, 196]",196,l,0.6375099052092992,1,colour,0.06,3.9
49,19,1,2,11,6,506,987.6136204307841,989.7178941249149,"[97, 0, 157]",157,l,1.5808521079306956,1,colour,0.06,3.9
49,19,1,2,11,7,507,990.2386517414998,990.7819014693378,"[83, 0, 171]",171,l,0.019906516856281087,1,colour,0.06,3.9
49,19,1,2,11,8,508,991.3011246646347,993.3978491320449,"[56, 0, 198]",198,a,1.5733832256519236,0,colour,0.06,3.9
49,19,1,2,11,9,509,993.9105144092173,996.0618285922101,"[94, 0, 160]",160,l,1.628240756050218,1,colour,0.06,3.9
49,19,1,2,11,10,510,996.5824349721952,997.2937853574695,"[68, 0, 186]",186,l,0.18810642330208793,1,colour,0.06,3.9
49,19,1,2,11,11,511,997.8011061539,998.5338636066299,"[62, 0, 192]",192,a,0.20945598935941234,0,colour,0.06,3.9
49,19,1,2,11,12,512,999.0514873961511,999.709774216346,"[96, 0, 158]",158,l,0.13536462985211983,1,colour,0.06,3.9
49,19,1,2,11,13,513,1000.224876608263,1001.0377918196609,"[81, 0, 173]",173,l,0.3017788416764233,1,colour,0.06,3.9
49,19,1,2,11,14,514,1001.5562816750025,1002.1897901119664,"[87, 0, 167]",167,l,0.11002029091469012,1,colour,0.06,3.9
49,19,1,2,11,15,515,1002.696937616478,1003.325777411228,"[76, 0, 178]",178,l,0.10538551941863261,1,colour,0.06,3.9
49,19,1,2,11,16,516,1003.8376293978654,1004.5338525789848,"[72, 0, 182]",182,l,0.172881545528071,1,colour,0.06,3.9
49,19,1,2,11,17,517,1005.0421067887801,1005.6458436717512,"[73, 0, 181]",181,l,0.07971192579134367,1,colour,0.06,3.9
49,19,1,2,11,18,518,1006.1538143129728,1006.7737709269568,"[59, 0, 195]",195,a,0.09656614158302546,0,colour,0.06,3.9
49,19,1,2,11,19,519,1007.2968215108849,1007.9818590916111,"[75, 0, 179]",179,l,0.1607239349395968,1,colour,0.06,3.9
49,19,1,2,11,20,520,1008.5011098560644,1009.4218138309079,"[65, 0, 189]",189,l,0.39739069613278843,1,colour,0.06,3.9
49,19,1,2,11,21,521,1009.9387535111164,1010.7658132826618,"[89, 0, 165]",165,l,0.3042498271097429,1,colour,0.06,3.9
49,19,1,2,11,22,522,1011.28243119127,1012.1178156709357,"[61, 0, 193]",193,a,0.31210034547257237,0,colour,0.06,3.9
49,19,1,2,11,23,523,1012.6262230865832,1013.4457462344435,"[92, 0, 162]",162,l,0.29640088410815224,1,colour,0.06,3.9
49,19,1,2,11,24,524,1013.9543753849866,1015.1018105856201,"[77, 0, 177]",177,l,0.6242042355879676,1,colour,0.06,3.9
49,19,1,2,11,25,525,1015.6103826285689,1016.6057561278285,"[41, 0, 213]",213,a,0.4727994681452401,1,colour,0.06,3.9
49,19,1,2,11,26,526,1017.1263227294257,1018.2217534150113,"[55, 0, 199]",199,l,0.572396249306621,1,colour,0.06,3.9
49,19,1,2,11,27,527,1018.7355246098014,1019.6457924718852,"[85, 0, 169]",169,l,0.3868927496368997,1,colour,0.06,3.9
49,19,1,2,11,28,528,1020.1574731357978,1021.1257524414395,"[63, 0, 191]",191,l,0.44501013756962493,1,colour,0.06,3.9
49,19,1,2,11,29,529,1021.6417650098447,1022.5657473529573,"[66, 0, 188]",188,l,0.4007052981760353,1,colour,0.06,3.9
49,19,1,2,11,30,530,1023.0792141053244,1023.8937948885141,"[60, 0, 194]",194,l,0.28818330192007124,1,colour,0.06,3.9
49,19,1,2,11,31,531,1024.4123513037048,1025.3897973587154,"[52, 0, 202]",202,a,0.4541233239870053,0,colour,0.06,3.9
49,19,1,2,11,32,532,1025.8967152514088,1026.8537691782985,"[79, 0, 175]",175,l,0.43378869726439007,1,colour,0.06,3.9
49,19,1,2,11,33,533,1027.3654553560482,1028.2297622592014,"[71, 0, 183]",183,l,0.3413138206524309,1,colour,0.06,3.9
49,19,1,2,11,34,534,1028.740466974501,1029.733739309071,"[80, 0, 174]",174,l,0.470007498835912,1,colour,0.06,3.9
49,19,1,2,11,35,535,1030.2405551958364,1031.165772243985,"[22, 0, 232]",232,a,0.4020089261175599,1,colour,0.06,3.9
49,19,1,2,11,36,536,1031.6779566360638,1032.5976952960482,"[78, 0, 176]",176,l,0.3964399535325356,1,colour,0.06,3.9
49,19,1,2,11,37,537,1033.1156286479963,1034.1177333572705,"[93, 0, 161]",161,l,0.478976143989712,1,colour,0.06,3.9
49,19,1,2,11,38,538,1034.6310406022822,1035.5977382251876,"[53, 0, 201]",201,a,0.4436773650813848,0,colour,0.06,3.9
49,19,1,2,11,39,539,1036.1154120330757,1037.0057111507049,"[88, 0, 166]",166,l,0.3669149467605166,1,colour,0.06,3.9
49,19,1,2,11,40,540,1037.5217178114108,1038.4937571581395,"[95, 0, 159]",159,l,0.44888439381611533,1,colour,0.06,3.9
49,19,1,2,11,41,541,1039.0060155931278,1040.0297262617678,"[69, 0, 185]",185,l,0.5004395313735586,1,colour,0.06,3.9
49,19,1,2,11,42,542,1040.537308965344,1041.421676772734,"[48, 0, 206]",206,a,0.3610482271469664,1,colour,0.06,3.9
49,19,1,2,11,43,543,1041.9288467264269,1042.893723208661,"[82, 0, 172]",172,l,0.44189009509864263,1,colour,0.06,3.9
49,19,1,2,11,44,544,1043.4132496648235,1044.349711784016,"[99, 0, 155]",155,l,0.4134489505668171,1,colour,0.06,3.9
49,19,1,2,11,45,545,1044.8677554126189,1045.6537146701012,"[64, 0, 190]",190,l,0.26260580655070953,1,colour,0.06,3.9
49,19,1,2,11,46,546,1046.1666682420473,1047.125683124672,"[90, 0, 164]",164,l,0.43576383145409636,1,colour,0.06,3.9
49,19,1,2,11,47,547,1047.6353303653013,1048.5656996976759,"[67, 0, 187]",187,l,0.4070186383323744,1,colour,0.06,3.9
49,19,1,2,11,48,548,1049.072931485076,1049.8936917010287,"[54, 0, 200]",200,l,0.2975150724523701,1,colour,0.06,3.9
49,19,1,2,11,49,549,1050.4010085590417,1051.5818020628067,"[74, 0, 180]",180,l,0.6575420587614644,1,colour,0.06,3.9
49,19,1,2,11,50,550,1052.0884678945004,1052.8297135011817,"[91, 0, 163]",163,l,0.21798786011640914,1,colour,0.06,3.9
49,19,1,2,12,1,551,1065.4222127961984,1067.8937456578424,"[59, 0, 195]",195,l,1.9572799940651748,1,colour,0.06,3.9
49,19,1,2,12,2,552,1068.4131515973422,1069.7976521306264,"[57, 0, 197]",197,l,0.8611620484443847,1,colour,0.06,3.9
49,19,1,2,12,3,553,1070.3039402646828,1071.3817282561795,"[55, 0, 199]",199,l,0.554525912652025,1,colour,0.06,3.9
49,19,1,2,12,4,554,1071.8975970710453,1072.5176608109614,"[91, 0, 163]",163,l,0.09662521837162785,1,colour,0.06,3.9
49,19,1,2,12,5,555,1073.0382215048885,1074.0136916380143,"[88, 0, 166]",166,l,0.4520706022740342,1,colour,0.06,3.9
49,19,1,2,12,6,556,1074.5226630401448,1075.1576117693621,"[54, 0, 200]",200,l,0.111605518264696,1,colour,0.06,3.9
49,19,1,2,12,7,557,1075.6788861109526,1078.469627438084,"[94, 0, 160]",160,l,2.2674914574890863,1,colour,0.06,3.9
49,19,1,2,12,8,558,1078.9913952678617,1080.4056456936232,"[62, 0, 192]",192,l,0.8909962238103617,1,colour,0.06,3.9
49,19,1,2,12,9,559,1080.9132705386437,1081.6776084768062,"[89, 0, 165]",165,l,0.2411077608121559,1,colour,0.06,3.9
49,19,1,2,12,10,560,1082.1945355539792,1082.9896332039789,"[79, 0, 175]",175,l,0.271810758888023,1,colour,0.06,3.9
49,19,1,2,12,11,561,1083.5088185901113,1084.181626486563,"[72, 0, 182]",182,l,0.14948122698115185,1,colour,0.06,3.9
49,19,1,2,12,12,562,1084.6970506500802,1085.3096199077845,"[53, 0, 201]",201,a,0.08910631775506772,0,colour,0.06,3.9
49,19,1,2,12,13,563,1085.8220768407919,1086.4535971466685,"[77, 0, 177]",177,l,0.10845514968968928,1,colour,0.06,3.9
49,19,1,2,12,14,564,1086.9626867023471,1088.9175910215708,"[63, 0, 191]",191,l,1.4315500805678312,1,colour,0.06,3.9
49,19,1,2,12,15,565,1089.431499668368,1090.3256265684904,"[76, 0, 178]",178,l,0.37086482127779163,1,colour,0.06,3.9
49,19,1,2,12,16,566,1090.8374927335535,1091.581671699998,"[61, 0, 193]",193,a,0.22012210779939778,0,colour,0.06,3.9
49,19,1,2,12,17,567,1092.0881579382694,1093.005589846347,"[60, 0, 194]",194,a,0.39404576798551716,0,colour,0.06,3.9
49,19,1,2,12,18,568,1093.525686984358,1094.365611712623,"[95, 0, 159]",159,l,0.31701986712869257,1,colour,0.06,3.9
49,19,1,2,12,19,569,1094.8850597935962,1095.7976379522006,"[84, 0, 170]",170,l,0.3892786644573789,1,colour,0.06,3.9
49,19,1,2,12,20,570,1096.306919704395,1097.0376370384765,"[68, 0, 186]",186,l,0.20740641842712648,1,colour,0.06,3.9
49,19,1,2,12,21,571,1097.556939396658,1098.2855579291354,"[67, 0, 187]",187,l,0.2053316413948778,1,colour,0.06,3.9
49,19,1,2,12,22,572,1098.8069004059653,1099.5335650719062,"[73, 0, 181]",181,l,0.20337462407769635,1,colour,0.06,3.9
49,19,1,2,12,23,573,1100.041283258266,1100.7015916864038,"[97, 0, 157]",157,l,0.13700460171094164,1,colour,0.06,3.9
49,19,1,2,12,24,574,1101.2131297783344,1101.9015619116835,"[83, 0, 171]",171,l,0.16509995007072575,1,colour,0.06,3.9
49,19,1,2,12,25,575,1102.416249584494,1103.0856034576427,"[80, 0, 174]",174,l,0.1459578869107645,1,colour,0.06,3.9
49,19,1,2,12,26,576,1103.603771147522,1104.4535431898548,"[27, 0, 227]",227,a,0.32655171109945513,1,colour,0.06,3.9
49,19,1,2,12,27,577,1104.9631553782674,1105.7736492287659,"[52, 0, 202]",202,a,0.2872168055328075,0,colour,0.06,3.9
49,19,1,2,12,28,578,1106.291283258266,1106.965709465032,"[81, 0, 173]",173,l,0.15113774029305205,1,colour,0.06,3.9
49,19,1,2,12,29,579,1107.4787307783845,1108.317616542743,"[71, 0, 183]",183,l,0.31553034420358017,1,colour,0.06,3.9
49,19,1,2,12,30,580,1108.8361052165565,1109.653551224299,"[98, 0, 156]",156,l,0.2941795966180507,1,colour,0.06,3.9
49,19,1,2,12,31,581,1110.1641830781882,1110.9175433662895,"[70, 0, 184]",184,l,0.23007418468478136,1,colour,0.06,3.9
49,19,1,2,12,32,582,1111.4305725565355,1112.3415879369713,"[99, 0, 155]",155,l,0.38836966949747875,1,colour,0.06,3.9
49,19,1,2,12,33,583,1112.851678647421,1113.7175975594146,"[96, 0, 158]",158,l,0.3425953932746779,1,colour,0.06,3.9
49,19,1,2,12,34,584,1114.2291734604805,1114.973550924973,"[50, 0, 204]",204,a,0.2210700934228953,1,colour,0.06,3.9
49,19,1,2,12,35,585,1115.4947783990065,1116.5735655760218,"[78, 0, 176]",176,l,0.5544313897844404,1,colour,0.06,3.9
49,19,1,2,12,36,586,1117.0801758755406,1117.8695367749024,"[75, 0, 179]",179,l,0.2659901191946119,1,colour,0.06,3.9
49,19,1,2,12,37,587,1118.3771226292301,1119.1816044312145,"[42, 0, 212]",212,a,0.2856166120618582,1,colour,0.06,3.9
49,19,1,2,12,38,588,1119.7007709127793,1120.6375678004697,"[74, 0, 180]",180,l,0.413552531885216,1,colour,0.06,3.9
49,19,1,2,12,39,589,1121.1539856356685,1122.0455651443626,"[58, 0, 196]",196,a,0.3683190052397549,0,colour,0.06,3.9
49,19,1,2,12,40,590,1122.56018113732,1123.4455170164874,"[51, 0, 203]",203,a,0.3623664273764007,0,colour,0.06,3.9
49,19,1,2,12,41,591,1123.9698720160231,1125.4614988649264,"[65, 0, 189]",189,a,0.9683167209441308,0,colour,0.06,3.9
49,19,1,2,12,42,592,1125.9704332455876,1126.5894989815133,"[90, 0, 164]",164,l,0.09402977785794064,1,colour,0.06,3.9
49,19,1,2,12,43,593,1127.0979288463132,1127.8935239229468,"[87, 0, 167]",167,l,0.27226958869141527,1,colour,0.06,3.9
49,19,1,2,12,44,594,1128.4104029510054,1129.0215047411039,"[86, 0, 168]",168,l,0.08794683718588203,1,colour,0.06,3.9
49,19,1,2,12,45,595,1129.535439775529,1130.4375310153118,"[66, 0, 188]",188,l,0.3788275855476968,1,colour,0.06,3.9
49,19,1,2,12,46,596,1130.957274086395,1131.7417103440966,"[19, 0, 235]",235,a,0.26115763737470843,1,colour,0.06,3.9
49,19,1,2,12,47,597,1132.2553165176942,1132.9815318061446,"[93, 0, 161]",161,l,0.2028066991479136,1,colour,0.06,3.9
49,19,1,2,12,48,598,1133.489663923916,1134.693527703872,"[56, 0, 198]",198,a,0.6805075720767491,0,colour,0.06,3.9
49,19,1,2,12,49,599,1135.2083646440296,1136.2535004970268,"[69, 0, 185]",185,l,0.5218245434807613,1,colour,0.06,3.9
49,19,1,2,12,50,600,1136.7709281515854,1137.7415004245704,"[92, 0, 162]",162,l,0.447299560328247,1,colour,0.06,3.9
49,19,1,2,13,1,601,1155.3562677328882,1157.2614577474887,"[77, 0, 177]",177,l,1.3810894391208421,1,colour,0.06,3.8
49,19,1,2,13,2,602,1157.780916068412,1158.8774495208345,"[54, 0, 200]",200,a,0.573136284656357,0,colour,0.06,3.8
49,19,1,2,13,3,603,1159.3912797924131,1160.4134497382329,"[69, 0, 185]",185,l,0.49875072270515375,1,colour,0.06,3.8
49,19,1,2,13,4,604,1160.9225849799986,1161.965455828671,"[80, 0, 174]",174,l,0.5195335453900043,1,colour,0.06,3.8
49,19,1,2,13,5,605,1162.4850535708247,1163.533478032099,"[42, 0, 212]",212,a,0.525037927320227,1,colour,0.06,3.8
49,19,1,2,13,6,606,1164.0487182698562,1165.1095114427735,"[71, 0, 183]",183,l,0.5376220723555889,1,colour,0.06,3.8
49,19,1,2,13,7,607,1165.6267547777388,1166.653530744341,"[57, 0, 197]",197,l,0.5036001398984808,1,colour,0.06,3.8
49,19,1,2,13,8,608,1167.173638516164,1168.2694547763094,"[85, 0, 169]",169,l,0.5724998306541238,1,colour,0.06,3.8
49,19,1,2,13,9,609,1168.7829010487185,1169.8374261737044,"[89, 0, 165]",165,l,0.5294123670610134,1,colour,0.06,3.8
49,19,1,2,13,10,610,1170.3471722695103,1171.3574067334994,"[68, 0, 186]",186,a,0.48687549922033213,0,colour,0.06,3.8
49,19,1,2,13,11,611,1171.8783825403661,1172.9175902338757,"[63, 0, 191]",191,a,0.5158211595553439,0,colour,0.06,3.8
49,19,1,2,13,12,612,1173.4253320509742,1174.3734165449569,"[53, 0, 201]",201,a,0.4248988211329561,0,colour,0.06,3.8
49,19,1,2,13,13,613,1174.894007564988,1175.8054293937748,"[3, 0, 251]",251,a,0.38814872229704633,1,colour,0.06,3.8
49,19,1,2,13,14,614,1176.3158863803546,1177.109416919906,"[92, 0, 162]",162,l,0.270238528464688,1,colour,0.06,3.8
49,19,1,2,13,15,615,1177.6283545773476,1178.6614253734006,"[26, 0, 228]",228,a,0.5098189571872354,1,colour,0.06,3.8
49,19,1,2,13,16,616,1179.1752765187703,1179.8373871830117,"[81, 0, 173]",173,l,0.138848979229806,1,colour,0.06,3.8
49,19,1,2,13,17,617,1180.3471171311685,1181.2294566352502,"[56, 0, 198]",198,l,0.3597130915732123,1,colour,0.06,3.8
49,19,1,2,13,18,618,1181.7378116694745,1182.5414277994714,"[78, 0, 176]",176,l,0.28038004494737834,1,colour,0.06,3.8
49,19,1,2,13,19,619,1183.0502964079787,1183.8133712842537,"[86, 0, 168]",168,l,0.23986045274068601,1,colour,0.06,3.8
49,19,1,2,13,20,620,1184.3315370049095,1185.0853793596616,"[79, 0, 175]",175,l,0.23122263760888018,1,colour,0.06,3.8
49,19,1,2,13,21,621,1185.5978693756915,1186.59739912441,"[74, 0, 180]",180,a,0.4761510916869156,0,colour,0.06,3.8
49,19,1,2,13,22,622,1187.1134435942513,1188.1093995906995,"[65, 0, 189]",189,a,0.47261829930357635,0,colour,0.06,3.8
49,19,1,2,13,23,623,1188.6291265141335,1189.3653813131386,"[82, 0, 172]",172,l,0.21296278791851364,1,colour,0.06,3.8
49,19,1,2,13,24,624,1189.880277723947,1190.8373674907489,"[61, 0, 193]",193,a,0.433787515736185,0,colour,0.06,3.8
49,19,1,2,13,25,625,1191.34894417951,1192.301354670286,"[58, 0, 196]",196,a,0.42791685767588206,0,colour,0.06,3.8
49,19,1,2,13,26,626,1192.8190123304958,1193.7814572118514,"[55, 0, 199]",199,a,0.4394466788507998,0,colour,0.06,3.8
49,19,1,2,13,27,627,1194.2878690133512,1195.2773486176739,"[70, 0, 184]",184,l,0.4645952766877599,1,colour,0.06,3.8
49,19,1,2,13,28,628,1195.7894676314318,1196.8613869340916,"[99, 0, 155]",155,l,0.548713543714257,1,colour,0.06,3.8
49,19,1,2,13,29,629,1197.3676045698521,1198.3974056622246,"[93, 0, 161]",161,l,0.5065472842834424,1,colour,0.06,3.8
49,19,1,2,13,30,630,1198.9144894898345,1199.757383811695,"[95, 0, 159]",159,l,0.3195865569578018,1,colour,0.06,3.8
49,19,1,2,13,31,631,1200.2738402437244,1201.2054501888051,"[83, 0, 171]",171,l,0.4083317185577471,1,colour,0.06,3.8
49,19,1,2,13,32,632,1201.726939569955,1202.6773674434808,"[72, 0, 182]",182,a,0.42413673049304634,0,colour,0.06,3.8
49,19,1,2,13,33,633,1203.1986413912382,1204.029361954861,"[76, 0, 178]",178,l,0.30739586337585934,1,colour,0.06,3.8
49,19,1,2,13,34,634,1204.52989561524,1205.6133545852208,"[96, 0, 158]",158,l,0.5601354512909893,1,colour,0.06,3.8
49,19,1,2,13,35,635,1206.123432692606,1207.021353504504,"[97, 0, 157]",157,l,0.37439564437954687,1,colour,0.06,3.8
49,19,1,2,13,36,636,1207.5298889198748,1208.9573898769158,"[59, 0, 195]",195,a,0.9041364784352481,0,colour,0.06,3.8
49,19,1,2,13,37,637,1209.4673332892125,1210.2852975973801,"[67, 0, 187]",187,a,0.2947546107461676,0,colour,0.06,3.8
49,19,1,2,13,38,638,1210.7954371446394,1211.7733534509316,"[73, 0, 181]",181,l,0.45434466504957527,1,colour,0.06,3.8
49,19,1,2,13,39,639,1212.2798199969402,1213.1493323534378,"[88, 0, 166]",166,l,0.34616284401272424,1,colour,0.06,3.8
49,19,1,2,13,40,640,1213.670457033848,1214.5093191674969,"[94, 0, 160]",160,l,0.3155468857148662,1,colour,0.06,3.8
49,19,1,2,13,41,641,1215.0298365384515,1216.125363322295,"[87, 0, 167]",167,l,0.5721244960732292,1,colour,0.06,3.8
49,19,1,2,13,42,642,1216.6391305786092,1218.1413684076106,"[75, 0, 179]",179,l,0.9787985197617672,1,colour,0.06,3.8
49,19,1,2,13,43,643,1218.654867849138,1220.2453801946249,"[98, 0, 156]",156,l,1.067308555735508,1,colour,0.06,3.8
49,19,1,2,13,44,644,1220.764228843007,1221.7653682374803,"[60, 0, 194]",194,a,0.4779005525051616,0,colour,0.06,3.8
49,19,1,2,13,45,645,1222.2797471355589,1224.1893545190396,"[64, 0, 190]",190,a,1.3863433354126755,0,colour,0.06,3.8
49,19,1,2,13,46,646,1224.7016188617272,1228.853314286971,"[84, 0, 170]",170,l,3.6283849034516606,1,colour,0.06,3.8
49,19,1,2,13,47,647,1229.3735866861243,1230.165309475764,"[51, 0, 203]",203,a,0.26857374439714476,0,colour,0.06,3.8
49,19,1,2,13,48,648,1230.6860190432053,1231.6773044282454,"[62, 0, 192]",192,a,0.467913029511692,0,colour,0.06,3.8
49,19,1,2,13,49,649,1232.185972175619,1232.9332983598579,"[91, 0, 163]",163,l,0.22396840099827386,1,colour,0.06,3.8
49,19,1,2,13,50,650,1233.4538937121688,1234.3892652736977,"[66, 0, 188]",188,l,0.4118428494257387,1,colour,0.06,3.8
49,19,1,2,14,1,651,1248.687634202768,1249.8692335140368,"[72, 0, 182]",182,l,0.6574250867124647,1,colour,0.06,3.8
49,19,1,2,14,2,652,1250.3760001701303,1251.125240836409,"[71, 0, 183]",183,l,0.22612706711515784,1,colour,0.06,3.8
49,19,1,2,14,3,653,1251.6435164398863,1252.2932639062637,"[70, 0, 184]",184,l,0.12665080255828798,1,colour,0.06,3.8
49,19,1,2,14,4,654,1252.799653258582,1255.1252955808886,"[95, 0, 159]",159,l,1.8023117143602576,1,colour,0.06,3.8
49,19,1,2,14,5,655,1255.6434144339582,1257.3333750809252,"[86, 0, 168]",168,l,1.1668785554356873,1,colour,0.06,3.8
49,19,1,2,14,6,656,1257.8478989140713,1258.6932244429772,"[58, 0, 196]",196,a,0.3220047671056818,0,colour,0.06,3.8
49,19,1,2,14,7,657,1259.2071917727299,1259.7812528061331,"[82, 0, 172]",172,l,0.05066347177489661,1,colour,0.06,3.8
49,19,1,2,14,8,658,1260.3009797295672,1261.005371262203,"[83, 0, 171]",171,l,0.18108416159520857,1,colour,0.06,3.8
49,19,1,2,14,9,659,1261.519767883321,1262.3252445385442,"[92, 0, 162]",162,l,0.28218818875029683,1,colour,0.06,3.8
49,19,1,2,14,10,660,1262.8322939755744,1263.573251287482,"[53, 0, 201]",201,a,0.21770153459510766,0,colour,0.06,3.8
49,19,1,2,14,11,661,1264.082342024718,1264.8532512717065,"[75, 0, 179]",179,l,0.26014899954316206,1,colour,0.06,3.8
49,19,1,2,14,12,662,1265.366643981164,1266.0932806840865,"[81, 0, 173]",173,l,0.20401462269364856,1,colour,0.06,3.8
49,19,1,2,14,13,663,1266.6010394365003,1267.3812304357416,"[98, 0, 156]",156,l,0.2568804774200544,1,colour,0.06,3.8
49,19,1,2,14,14,664,1267.8980767746107,1268.701277791697,"[62, 0, 192]",192,a,0.27830723716760986,0,colour,0.06,3.8
49,19,1,2,14,15,665,1269.212081362144,1270.445210210979,"[68, 0, 186]",186,l,0.7098246285459027,1,colour,0.06,3.8
49,19,1,2,14,16,666,1270.9620979036263,1271.7172702739772,"[57, 0, 197]",197,a,0.23224112155730836,0,colour,0.06,3.8
49,19,1,2,14,17,667,1272.2276646391547,1273.0932003396447,"[0, 0, 254]",254,a,0.342162163433386,1,colour,0.06,3.8
49,19,1,2,14,18,668,1273.6026545960922,1274.3972103149572,"[69, 0, 185]",185,l,0.27115579418023117,1,colour,0.06,3.8
49,19,1,2,14,19,669,1274.9152472481946,1275.613218314742,"[61, 0, 193]",193,l,0.17468535699299537,1,colour,0.06,3.8
49,19,1,2,14,20,670,1276.1339637221245,1276.957177200442,"[79, 0, 175]",175,l,0.29999944861629046,1,colour,0.06,3.8
49,19,1,2,14,21,671,1277.4776520360901,1278.1891871347907,"[78, 0, 176]",176,l,0.18819346310920082,1,colour,0.06,3.8
49,19,1,2,14,22,672,1278.696358663874,1279.4291940979892,"[52, 0, 202]",202,a,0.2094260571175255,0,colour,0.06,3.8
49,19,1,2,14,23,673,1279.946379143832,1280.893215542077,"[65, 0, 189]",189,l,0.42234237131197006,1,colour,0.06,3.8
49,19,1,2,14,24,674,1281.4007316858042,1282.141167546506,"[55, 0, 199]",199,l,0.21720332026598044,1,colour,0.06,3.8
49,19,1,2,14,25,675,1282.650665125926,1283.7731809467077,"[67, 0, 187]",187,l,0.5993214833142702,1,colour,0.06,3.8
49,19,1,2,14,26,676,1284.2913659657643,1285.1332158098812,"[74, 0, 180]",180,l,0.31872049113735557,1,colour,0.06,3.8
49,19,1,2,14,27,677,1285.6506422829116,1286.4771924186207,"[60, 0, 194]",194,l,0.3033451644296292,1,colour,0.06,3.8
49,19,1,2,14,28,678,1286.994374313712,1287.9092060551338,"[91, 0, 163]",163,l,0.3901821455801837,1,colour,0.06,3.8
49,19,1,2,14,29,679,1288.4176099261676,1289.3412094516389,"[66, 0, 188]",188,l,0.40029412365402095,1,colour,0.06,3.8
49,19,1,2,14,30,680,1289.855092498503,1290.877182493714,"[76, 0, 178]",178,l,0.498557738494128,1,colour,0.06,3.8
49,19,1,2,14,31,681,1291.380155631894,1292.5731989060587,"[63, 0, 191]",191,l,0.6688552650157362,1,colour,0.06,3.8
49,19,1,2,14,32,682,1293.072453356901,1294.189234396239,"[89, 0, 165]",165,l,0.593479575967649,1,colour,0.06,3.8
49,19,1,2,14,33,683,1294.6974728522473,1295.2771674488322,"[96, 0, 158]",158,l,0.05630569957429543,1,colour,0.06,3.8
49,19,1,2,14,34,684,1295.791171406192,1296.717126914271,"[56, 0, 198]",198,a,0.4026166294061113,0,colour,0.06,3.8
49,19,1,2,14,35,685,1297.2286744584853,1298.1411545496085,"[90, 0, 164]",164,l,0.38918020311393775,1,colour,0.06,3.8
49,19,1,2,14,36,686,1298.6506312552374,1300.0852226092247,"[85, 0, 169]",169,l,0.9113907150167506,1,colour,0.06,3.8
49,19,1,2,14,37,687,1300.6036978922784,1301.9171995393408,"[73, 0, 181]",181,l,0.7901525284105446,1,colour,0.06,3.8
49,19,1,2,14,38,688,1302.4318631875794,1303.9411713274312,"[87, 0, 167]",167,l,0.9860334579425398,1,colour,0.06,3.8
49,19,1,2,14,39,689,1304.4474228338804,1305.8051603974309,"[51, 0, 203]",203,a,0.8343372450035531,0,colour,0.06,3.8
49,19,1,2,14,40,690,1306.3224112154567,1307.357120014116,"[84, 0, 170]",170,l,0.5114167875726707,1,colour,0.06,3.8
49,19,1,2,14,41,691,1307.8692831385415,1309.237129135552,"[99, 0, 155]",155,l,0.8445342936611269,1,colour,0.06,3.8
49,19,1,2,14,42,692,1309.7442589170532,1310.7092078668065,"[93, 0, 161]",161,l,0.44165496944333427,1,colour,0.06,3.8
49,19,1,2,14,43,693,1311.228607110941,1312.2371188956022,"[94, 0, 160]",160,l,0.48518905363744125,1,colour,0.06,3.8
49,19,1,2,14,44,694,1312.7442518278258,1313.6530805791554,"[50, 0, 204]",204,a,0.38547766345436685,1,colour,0.06,3.8
49,19,1,2,14,45,695,1314.166021548066,1315.0292075674806,"[80, 0, 174]",174,l,0.339695116475923,1,colour,0.06,3.8
49,19,1,2,14,46,696,1315.5411166616832,1316.3491395267774,"[88, 0, 166]",166,l,0.2846851679496467,1,colour,0.06,3.8
49,19,1,2,14,47,697,1316.86953047337,1317.6930838402186,"[54, 0, 200]",200,a,0.30019715896924026,0,colour,0.06,3.8
49,19,1,2,14,48,698,1318.21329519336,1319.085152110929,"[36, 0, 218]",218,a,0.3484558113559615,1,colour,0.06,3.8
49,19,1,2,14,49,699,1319.603837313538,1320.3891380616697,"[77, 0, 177]",177,l,0.26202291549998336,1,colour,0.06,3.8
49,19,1,2,14,50,700,1320.900806516409,1321.6530656130344,"[32, 0, 222]",222,a,0.22903443308314309,1,colour,0.06,3.8
49,19,1,2,15,1,701,1329.9155375121918,1335.6050850154425,"[72, 0, 182]",182,l,5.165326804970391,1,colour,0.06,3.8
49,19,1,2,15,2,702,1336.1194950272911,1336.7890899337654,"[12, 0, 242]",242,a,0.14620837252005003,1,colour,0.06,3.8
49,19,1,2,15,3,703,1337.3069492427749,1338.5090474142344,"[58, 0, 196]",196,l,0.678572610107949,1,colour,0.06,3.8
49,19,1,2,15,4,704,1339.025840584014,1340.6290493204433,"[64, 0, 190]",190,l,1.0799596544820815,1,colour,0.06,3.8
49,19,1,2,15,5,705,1341.1371960105025,1342.0850627080363,"[76, 0, 178]",178,l,0.424627461732598,1,colour,0.06,3.8
49,19,1,2,15,6,706,1342.5936012741586,1343.405055319512,"[24, 0, 230]",230,a,0.28831917853676714,1,colour,0.06,3.8
49,19,1,2,15,7,707,1343.9217240341532,1344.541038680327,"[93, 0, 161]",161,l,0.0959367768082302,1,colour,0.06,3.8
49,19,1,2,15,8,708,1345.0641018672904,1345.8130447865115,"[71, 0, 183]",183,l,0.22565760349971242,1,colour,0.06,3.8
49,19,1,2,15,9,709,1346.3295965291036,1347.0450074594119,"[90, 0, 164]",164,l,0.19204723936854862,1,colour,0.06,3.8
49,19,1,2,15,10,710,1347.5639356645697,1348.333140742965,"[50, 0, 204]",204,a,0.24578034144360572,1,colour,0.06,3.8
49,19,1,2,15,11,711,1348.845204224548,1349.5090738018625,"[66, 0, 188]",188,l,0.14054212017799728,1,colour,0.06,3.8
49,19,1,2,15,12,712,1350.0170767383825,1350.9330435419397,"[98, 0, 156]",156,l,0.39268385092145763,1,colour,0.06,3.8
49,19,1,2,15,13,713,1351.4545990891056,1352.6294250488572,"[77, 0, 177]",177,l,0.6515894808399025,1,colour,0.06,3.8
49,19,1,2,15,14,714,1353.142122227524,1354.0770656792156,"[10, 0, 244]",244,a,0.41179913259111345,1,colour,0.06,3.8
49,19,1,2,15,15,715,1354.5951798061142,1355.3890451141924,"[74, 0, 180]",180,l,0.270520521706203,1,colour,0.06,3.8
49,19,1,2,15,16,716,1355.907681873825,1356.6770834810159,"[94, 0, 160]",160,l,0.24600050097797066,1,colour,0.06,3.8
49,19,1,2,15,17,717,1357.190799537464,1358.0850985479774,"[67, 0, 187]",187,l,0.37099872867111117,1,colour,0.06,3.8
49,19,1,2,15,18,718,1358.597018669825,1359.3490591823356,"[87, 0, 167]",167,l,0.2286713077337481,1,colour,0.06,3.8
49,19,1,2,15,19,719,1359.8627043466258,1361.125003347668,"[55, 0, 199]",199,a,0.7389746946282685,0,colour,0.06,3.8
49,19,1,2,15,20,720,1361.6439083159494,1362.3651304336672,"[83, 0, 171]",171,l,0.1978576390829403,1,colour,0.06,3.8
49,19,1,2,15,21,721,1362.8783049528429,1363.6130595950817,"[99, 0, 155]",155,l,0.21140158514026552,1,colour,0.06,3.8
49,19,1,2,15,22,722,1364.1282572975615,1365.1970203239762,"[68, 0, 186]",186,a,0.5454473846184555,0,colour,0.06,3.8
49,19,1,2,15,23,723,1365.706399749819,1366.38905811109,"[86, 0, 168]",168,l,0.15938092247233726,1,colour,0.06,3.8
49,19,1,2,15,24,724,1366.9094947437407,1367.6609574851755,"[51, 0, 203]",203,a,0.2283243300335016,0,colour,0.06,3.8
49,19,1,2,15,25,725,1368.1750985007093,1368.7889713863551,"[75, 0, 179]",179,l,0.09065137288416736,1,colour,0.06,3.8
49,19,1,2,15,26,726,1369.3001951897168,1369.8929780533654,"[91, 0, 163]",163,l,0.06995874078711495,1,colour,0.06,3.8
49,19,1,2,15,27,727,1370.4094470884593,1371.1730871327454,"[78, 0, 176]",176,l,0.24084073369158432,1,colour,0.06,3.8
49,19,1,2,15,28,728,1371.6906483008643,1372.4850078847667,"[84, 0, 170]",170,l,0.27102070522960275,1,colour,0.06,3.8
49,19,1,2,15,29,729,1373.0032259868458,1373.83700278998,"[52, 0, 202]",202,a,0.31057065032655373,0,colour,0.06,3.8
49,19,1,2,15,30,730,1374.346977709938,1374.8930410686007,"[97, 0, 157]",157,l,0.022745747643057257,1,colour,0.06,3.8
49,19,1,2,15,31,731,1375.409455753048,1376.2850096964685,"[57, 0, 197]",197,a,0.35272627594531514,0,colour,0.06,3.8
49,19,1,2,15,32,732,1376.800043559284,1377.333282527281,"[88, 0, 166]",166,l,0.009945775382220745,1,colour,0.06,3.8
49,19,1,2,15,33,733,1377.8469387192454,1378.6769629643532,"[85, 0, 169]",169,l,0.30664164960035123,1,colour,0.06,3.8
49,19,1,2,15,34,734,1379.19068768539,1379.82899394579,"[95, 0, 159]",159,l,0.11506663073669188,1,colour,0.06,3.8
49,19,1,2,15,35,735,1380.3469804668275,1381.0769719440432,"[82, 0, 172]",172,l,0.20667741078068502,1,colour,0.06,3.8
49,19,1,2,15,36,736,1381.5968548301898,1382.2369680528354,"[56, 0, 198]",198,a,0.11664791963994503,0,colour,0.06,3.8
49,19,1,2,15,37,737,1382.753151156241,1383.3409751137078,"[92, 0, 162]",162,l,0.06443545428919606,1,colour,0.06,3.8
49,19,1,2,15,38,738,1383.846891457797,1384.6611516509147,"[59, 0, 195]",195,a,0.29084884689655155,0,colour,0.06,3.8
49,19,1,2,15,39,739,1385.1750197316287,1385.8209917969943,"[61, 0, 193]",193,a,0.12265287895570509,0,colour,0.06,3.8
49,19,1,2,15,40,740,1386.3312967592792,1387.2209873859247,"[60, 0, 194]",194,a,0.3663111819187179,0,colour,0.06,3.8
49,19,1,2,15,41,741,1387.7375048639951,1388.661016561964,"[53, 0, 201]",201,a,0.39878530229907483,0,colour,0.06,3.8
49,19,1,2,15,42,742,1389.176418670162,1389.804937480978,"[62, 0, 192]",192,a,0.10537764249602333,0,colour,0.06,3.8
49,19,1,2,15,43,743,1390.317041134782,1390.9809650627722,"[96, 0, 158]",158,l,0.14073510438902304,1,colour,0.06,3.8
49,19,1,2,15,44,744,1391.4889357039647,1392.133062604058,"[79, 0, 175]",175,l,0.12080535062705167,1,colour,0.06,3.8
49,19,1,2,15,45,745,1392.6452040669974,1393.2529278459551,"[81, 0, 173]",173,l,0.08434787881560624,1,colour,0.06,3.8
49,19,1,2,15,46,746,1393.7701936301019,1394.6049837972096,"[80, 0, 174]",174,l,0.31155605128151365,1,colour,0.06,3.8
49,19,1,2,15,47,747,1395.1139729223505,1396.1009602736158,"[73, 0, 181]",181,l,0.4637520539108664,1,colour,0.06,3.8
49,19,1,2,15,48,748,1396.6138870640716,1398.876943429641,"[69, 0, 185]",185,l,1.73964383782004,1,colour,0.06,3.8
49,19,1,2,15,49,749,1399.395233211544,1401.6049010896822,"[54, 0, 200]",200,l,1.6863530240079854,1,colour,0.06,3.8
49,19,1,2,15,50,750,1402.1139020301925,1404.9969118589943,"[89, 0, 165]",165,l,2.359700488537783,1,colour,0.06,3.8
49,19,1,2,16,1,751,1409.5059592732287,1413.9649450113066,"[60, 0, 194]",194,a,3.9348749225900974,0,colour,0.06,3.8
49,19,1,2,16,2,752,1414.4754630439274,1416.5809718368982,"[90, 0, 164]",164,l,1.5822360803140327,1,colour,0.06,3.8
49,19,1,2,16,3,753,1417.1010926056188,1417.7008977309742,"[67, 0, 187]",187,l,0.07480697642313316,1,colour,0.06,3.8
49,19,1,2,16,4,754,1418.2121813988488,1419.7569048957957,"[99, 0, 155]",155,l,1.021767829748569,1,colour,0.06,3.8
49,19,1,2,16,5,755,1420.2746401435288,1421.32486723474,"[82, 0, 172]",172,l,0.5269539846922271,1,colour,0.06,3.8
49,19,1,2,16,6,756,1421.8371473312145,1423.1728587024845,"[36, 0, 218]",218,a,0.8124355078325607,1,colour,0.06,3.8
49,19,1,2,16,7,757,1423.6808529743867,1424.4289089539961,"[68, 0, 186]",186,l,0.222369782946771,1,colour,0.06,3.8
49,19,1,2,16,8,758,1424.9488568246306,1425.5409760589246,"[84, 0, 170]",170,l,0.06887802926939912,1,colour,0.06,3.8
49,19,1,2,16,9,759,1426.0582268769504,1427.5808725878887,"[97, 0, 157]",157,l,0.9994470411911607,1,colour,0.06,3.8
49,19,1,2,16,10,760,1428.0893938248046,1428.9888246395858,"[58, 0, 196]",196,a,0.37611005298094824,0,colour,0.06,3.8
49,19,1,2,16,11,761,1429.4977369648986,1430.1889161692234,"[98, 0, 156]",156,l,0.167816694942303,1,colour,0.06,3.8
49,19,1,2,16,12,762,1430.7008240818977,1432.2129115880234,"[78, 0, 176]",176,l,0.9887214521295391,1,colour,0.06,3.8
49,19,1,2,16,13,763,1432.7322056754492,1434.6208884519874,"[79, 0, 175]",175,l,1.365474654478021,1,colour,0.06,3.8
49,19,1,2,16,14,764,1435.1384039340483,1436.2208337862394,"[51, 0, 203]",203,a,0.5591890409996267,0,colour,0.06,3.8
49,19,1,2,16,15,765,1436.7321115464438,1437.4288388495333,"[73, 0, 181]",181,l,0.1734927934303414,1,colour,0.06,3.8
49,19,1,2,16,16,766,1437.9351663681155,1438.972869178775,"[63, 0, 191]",191,a,0.5143363628012594,0,colour,0.06,3.8
49,19,1,2,16,17,767,1439.4734055960726,1440.3088263094833,"[61, 0, 193]",193,a,0.3127907562884502,0,colour,0.06,3.8
49,19,1,2,16,18,768,1440.8164613944828,1441.3493143940868,"[89, 0, 165]",165,l,0.00983234791783616,1,colour,0.06,3.8
49,19,1,2,16,19,769,1441.863361280586,1442.7888374789327,"[69, 0, 185]",185,l,0.40222278409055434,1,colour,0.06,3.8
49,19,1,2,16,20,770,1443.300770597707,1444.0608636712423,"[53, 0, 201]",201,a,0.23524301045108587,0,colour,0.06,3.8
49,19,1,2,16,21,771,1444.567869785271,1445.1328826167737,"[91, 0, 163]",163,l,0.04162235907278955,1,colour,0.06,3.8
49,19,1,2,16,22,772,1445.6460071175534,1446.4049174736429,"[62, 0, 192]",192,a,0.23586449830327183,0,colour,0.06,3.8
49,19,1,2,16,23,773,1446.9116758590098,1448.4128243119048,"[95, 0, 159]",159,l,0.9778603802551515,1,colour,0.06,3.8
49,19,1,2,16,24,774,1448.9272693759995,1449.932815899374,"[87, 0, 167]",167,l,0.48227814299752936,1,colour,0.06,3.8
49,19,1,2,16,25,775,1450.4457001545525,1451.2448701649555,"[96, 0, 158]",158,l,0.2766231546411291,1,colour,0.06,3.8
49,19,1,2,16,26,776,1451.7582034037623,1452.3572039031715,"[77, 0, 177]",177,l,0.0764331636892166,1,colour,0.06,3.8
49,19,1,2,16,27,777,1452.8675131977361,1453.8288572814781,"[88, 0, 166]",166,l,0.4378902022144757,1,colour,0.06,3.8
49,19,1,2,16,28,778,1454.3370862852025,1455.3088511217502,"[57, 0, 197]",197,a,0.44883949545328505,0,colour,0.06,3.8
49,19,1,2,16,29,779,1455.8213746146066,1456.6288244347961,"[76, 0, 178]",178,l,0.284407507017022,1,colour,0.06,3.8
49,19,1,2,16,30,780,1457.14942018094,1457.9968350591662,"[64, 0, 190]",190,l,0.32388183381408453,1,colour,0.06,3.8
49,19,1,2,16,31,781,1458.5088741223153,1459.3648047236202,"[70, 0, 184]",184,l,0.3327531992108561,1,colour,0.06,3.8
49,19,1,2,16,32,782,1459.8838412362384,1460.7168197149294,"[93, 0, 161]",161,l,0.30971364295692183,1,colour,0.06,3.8
49,19,1,2,16,33,783,1461.2276744852716,1462.0768041659321,"[72, 0, 182]",182,l,0.32598260464146733,1,colour,0.06,3.8
49,19,1,2,16,34,784,1462.588846773695,1463.436815004563,"[92, 0, 162]",162,l,0.3247333273466211,1,colour,0.06,3.8
49,19,1,2,16,35,785,1463.9482566043735,1464.524768143252,"[2, 0, 252]",252,a,0.05324000774999149,1,colour,0.06,3.8
49,19,1,2,16,36,786,1465.0419622475456,1466.0288196298643,"[80, 0, 174]",174,l,0.4639123489323538,1,colour,0.06,3.8
49,19,1,2,16,37,787,1466.54202526281,1467.484795996017,"[65, 0, 189]",189,l,0.4195393742993474,1,colour,0.06,3.8
49,19,1,2,16,38,788,1467.9977054572664,1468.5887534323556,"[0, 0, 254]",254,a,0.06773784713004716,1,colour,0.06,3.8
49,19,1,2,16,39,789,1469.107003829733,1469.7568308528862,"[83, 0, 171]",171,l,0.12647711680619977,1,colour,0.06,3.8
49,19,1,2,16,40,790,1470.2632899158343,1471.6607916763169,"[52, 0, 202]",202,l,0.8740829312300775,1,colour,0.06,3.8
49,19,1,2,16,41,791,1472.1695374050469,1473.1247571943677,"[55, 0, 199]",199,a,0.43013263135799207,0,colour,0.06,3.8
49,19,1,2,16,42,792,1473.6400470566296,1474.2048476054915,"[54, 0, 200]",200,a,0.041525079286657274,0,colour,0.06,3.8
49,19,1,2,16,43,793,1474.7181012875517,1475.4207811685046,"[71, 0, 183]",183,l,0.17937526683090255,1,colour,0.06,3.8
49,19,1,2,16,44,794,1475.936962696549,1478.3409109169152,"[81, 0, 173]",173,l,1.8806566031416878,1,colour,0.06,3.8
49,19,1,2,16,45,795,1478.8566659104836,1479.4847558237961,"[94, 0, 160]",160,l,0.10472897932049818,1,colour,0.06,3.8
49,19,1,2,16,46,796,1479.9972804981808,1481.732894904737,"[85, 0, 169]",169,l,1.2121833680721465,1,colour,0.06,3.8
49,19,1,2,16,47,797,1482.2472738028155,1483.2607645797543,"[75, 0, 179]",179,l,0.4900376831064932,1,colour,0.06,3.8
49,19,1,2,16,48,798,1483.7785447258502,1484.4208047992433,"[56, 0, 198]",198,l,0.11893773623160087,1,colour,0.06,3.8
49,19,1,2,16,49,799,1484.9348162396636,1486.0047497743217,"[86, 0, 168]",168,l,0.544938536506379,1,colour,0.06,3.8
49,19,1,2,16,50,800,1486.5146675866854,1487.3407206896227,"[59, 0, 195]",195,l,0.30272091962979175,1,colour,0.06,3.8
