id,age,condition,counterbalance,block,trialinblock,trial,tstart,tend,trialstim,trialintensity,response,RT,accuracy,trialtype,colourfreq,credits
53,22,1,2,Practice,1,NA,6.301546818576753e-06,0.7792756619310239,"[38, 0, 216]",216,a,0.25652415871445555,1,colour,0.5,4
53,22,1,2,Practice,2,NA,1.2978941444162047,2.1553502217138885,"[26, 0, 228]",228,a,0.33570218618842773,1,colour,0.5,4
53,22,1,2,Practice,3,NA,2.6728482121252455,3.595303858164698,"[89, 0, 165]",165,l,0.4006434657203499,1,colour,0.5,4
53,22,1,2,Practice,4,NA,4.1106104889913695,7.3073220317892265,"[98, 0, 156]",156,l,2.6750793501269072,1,colour,0.5,4
53,22,1,2,Practice,5,NA,7.814416184235597,8.41930192358268,"[6, 0, 248]",248,a,0.08371040812926367,1,colour,0.5,4
53,22,1,2,Practice,6,NA,8.939071224303916,9.515306630841224,"[95, 0, 159]",159,l,0.05445630928443279,1,colour,0.5,4
53,22,1,2,Practice,7,NA,10.032938528907835,13.051299632978044,"[29, 0, 225]",225,a,2.4967052806459833,1,colour,0.5,4
53,22,1,2,Practice,8,NA,13.564427507313667,15.09131833279389,"[51, 0, 203]",203,a,1.0052389405027498,0,colour,0.5,4
53,22,1,2,Practice,9,NA,15.61135938730149,16.53128378461406,"[66, 0, 188]",188,a,0.39809094929660205,0,colour,0.5,4
53,22,1,2,Practice,10,NA,17.04909960880468,17.723418836001656,"[36, 0, 218]",218,a,0.15251492380048148,1,colour,0.5,4
53,22,1,2,1,1,1,4.247744148146012,5.263989511091495,"[52, 0, 202]",202,a,0.49382665967277717,0,colour,0.5,4.0
53,22,1,2,1,2,2,5.7799782833317295,6.840028388425708,"[18, 0, 236]",236,a,0.5382584047620185,1,colour,0.5,4.0
53,22,1,2,1,3,3,7.35822033561999,8.303996001675841,"[21, 0, 233]",233,a,0.4241804949269863,1,colour,0.5,4.0
53,22,1,2,1,4,4,8.811430830988684,9.375980824435828,"[85, 0, 169]",169,l,0.04282761002832558,1,colour,0.5,4.0
53,22,1,2,1,5,5,9.889673080193461,12.872011052895687,"[53, 0, 201]",201,a,2.4597026540868683,0,colour,0.5,4.0
53,22,1,2,1,6,6,13.389936366293114,14.392005633577355,"[48, 0, 206]",206,a,0.4803996592381736,1,colour,0.5,4.0
53,22,1,2,1,7,7,14.906407993825269,15.784071525602485,"[75, 0, 179]",179,l,0.35598644067067653,1,colour,0.5,4.0
53,22,1,2,1,8,8,16.29703713535855,17.311996590869967,"[7, 0, 247]",247,a,0.4932130474917358,1,colour,0.5,4.0
53,22,1,2,1,9,9,17.828472156863427,18.80804572395573,"[46, 0, 208]",208,a,0.4578240083064884,1,colour,0.5,4.0
53,22,1,2,1,10,10,19.32855151683907,20.70401443367882,"[63, 0, 191]",191,l,0.8537992164783645,1,colour,0.5,4.0
53,22,1,2,1,11,11,21.219253322982695,22.17599484535458,"[6, 0, 248]",248,a,0.43496321281418204,1,colour,0.5,4.0
53,22,1,2,1,12,12,22.68817197525641,23.616007558695856,"[91, 0, 163]",163,l,0.40604152003652416,1,colour,0.5,4.0
53,22,1,2,1,13,13,24.125862178305397,25.10397851491871,"[40, 0, 214]",214,a,0.4564380639640149,1,colour,0.5,4.0
53,22,1,2,1,14,14,25.610234956766362,26.488150943885557,"[19, 0, 235]",235,a,0.3560427606571466,1,colour,0.5,4.0
53,22,1,2,1,15,15,27.001238645912963,27.8240043669648,"[41, 0, 213]",213,a,0.30128358374349773,1,colour,0.5,4.0
53,22,1,2,1,16,16,28.329237596713938,29.311996984717553,"[64, 0, 190]",190,l,0.46103149074770045,1,colour,0.5,4.0
53,22,1,2,1,17,17,29.829478827436105,30.703989227535203,"[60, 0, 194]",194,a,0.3529207428218797,0,colour,0.5,4.0
53,22,1,2,1,18,18,31.220074492055574,32.184030092990724,"[45, 0, 209]",209,a,0.442215494447737,1,colour,0.5,4.0
53,22,1,2,1,19,19,32.70468436584633,33.56002470203384,"[39, 0, 215]",215,a,0.33343678357778117,1,colour,0.5,4.0
53,22,1,2,1,20,20,34.07976525199774,34.95202245868859,"[77, 0, 177]",177,l,0.3506407678796677,1,colour,0.5,4.0
53,22,1,2,1,21,21,35.470433384296484,36.27999659717898,"[38, 0, 216]",216,a,0.28784082947822753,1,colour,0.5,4.0
53,22,1,2,1,22,22,36.79870487656444,37.680004789173836,"[33, 0, 221]",221,a,0.3596192768745823,1,colour,0.5,4.0
53,22,1,2,1,23,23,38.189437993467436,38.968021273991326,"[95, 0, 159]",159,l,0.2568093032750767,1,colour,0.5,4.0
53,22,1,2,1,24,24,39.48639911653299,40.2400342173496,"[10, 0, 244]",244,a,0.2319497389398748,1,colour,0.5,4.0
53,22,1,2,1,25,25,40.75210973498179,41.511986114564934,"[49, 0, 205]",205,a,0.23821583000244573,1,colour,0.5,4.0
53,22,1,2,1,26,26,42.01789360879047,42.78401402407326,"[69, 0, 185]",185,l,0.24435510265175253,1,colour,0.5,4.0
53,22,1,2,1,27,27,43.29918005186482,44.2159777051711,"[68, 0, 186]",186,l,0.3950733006640803,1,colour,0.5,4.0
53,22,1,2,1,28,28,44.72114949491515,45.4559630855947,"[87, 0, 167]",167,l,0.21279542885895353,1,colour,0.5,4.0
53,22,1,2,1,29,29,45.97124411644472,46.7120000567229,"[8, 0, 246]",246,a,0.2188086707610637,1,colour,0.5,4.0
53,22,1,2,1,30,30,47.22138048564375,47.97600098935072,"[2, 0, 252]",252,a,0.23281186800159048,1,colour,0.5,4.0
53,22,1,2,1,31,31,48.48708795331186,49.19999267447565,"[16, 0, 238]",238,a,0.1911591008247342,1,colour,0.5,4.0
53,22,1,2,1,32,32,49.70604589174036,50.487999313132605,"[54, 0, 200]",200,a,0.2603291056584567,0,colour,0.5,4.0
53,22,1,2,1,33,33,51.00299913788331,51.792006736344774,"[22, 0, 232]",232,a,0.26742503041168675,1,colour,0.5,4.0
53,22,1,2,1,34,34,52.29989960863895,53.191957426824956,"[31, 0, 223]",223,a,0.3698667579446919,1,colour,0.5,4.0
53,22,1,2,1,35,35,53.7062546301604,54.51196602842538,"[66, 0, 188]",188,l,0.2834447195782559,1,colour,0.5,4.0
53,22,1,2,1,36,36,55.018916427055956,55.76795258723723,"[44, 0, 210]",210,a,0.22681437994469889,1,colour,0.5,4.0
53,22,1,2,1,37,37,56.284628227032954,57.07997162733227,"[71, 0, 183]",183,l,0.273124770828872,1,colour,0.5,4.0
53,22,1,2,1,38,38,57.59727348238812,58.37595010444056,"[72, 0, 182]",182,l,0.2564729587320471,1,colour,0.5,4.0
53,22,1,2,1,39,39,58.89417946699541,59.75191714424,"[81, 0, 173]",173,l,0.3355135339224944,1,colour,0.5,4.0
53,22,1,2,1,40,40,60.26929422389367,61.02398010605248,"[70, 0, 184]",184,l,0.23239557268971112,1,colour,0.5,4.0
53,22,1,2,1,41,41,61.53508951925323,62.111990131801576,"[76, 0, 178]",178,l,0.05475011844828259,1,colour,0.5,4.0
53,22,1,2,1,42,42,62.62886151309067,63.55197291284276,"[61, 0, 193]",193,a,0.40088213644048665,0,colour,0.5,4.0
53,22,1,2,1,43,43,64.06649460845802,64.87196930521168,"[80, 0, 174]",174,l,0.2833395626512356,1,colour,0.5,4.0
53,22,1,2,1,44,44,65.37910323611868,66.15200095469481,"[50, 0, 204]",204,a,0.2514132181822788,1,colour,0.5,4.0
53,22,1,2,1,45,45,66.66035698995984,67.43998002413718,"[30, 0, 224]",224,a,0.25723071857646573,1,colour,0.5,4.0
53,22,1,2,1,46,46,67.95744768838631,68.75999886573118,"[1, 0, 253]",253,a,0.28038138478586916,1,colour,0.5,4.0
53,22,1,2,1,47,47,69.26999290683307,70.04797714747838,"[74, 0, 180]",180,l,0.2557427681022091,1,colour,0.5,4.0
53,22,1,2,1,48,48,70.56705327911186,71.31198123087233,"[73, 0, 181]",181,l,0.2228345653420547,1,colour,0.5,4.0
53,22,1,2,1,49,49,71.81709039909765,72.56000697896525,"[12, 0, 242]",242,a,0.2207018888584571,1,colour,0.5,4.0
53,22,1,2,1,50,50,73.06711964217538,73.79202130866179,"[27, 0, 227]",227,a,0.2025987539527705,1,colour,0.5,4.0
53,22,1,2,2,1,51,81.17238918451767,82.04799526439456,"[49, 0, 205]",205,l,0.3525292598060332,0,colour,0.5,4.0
53,22,1,2,2,2,52,82.56391511356924,83.31199777241272,"[32, 0, 222]",222,a,0.22585812167380936,1,colour,0.5,4.0
53,22,1,2,2,3,53,83.82959146740905,84.58398393423704,"[63, 0, 191]",191,l,0.23211082197667565,1,colour,0.5,4.0
53,22,1,2,2,4,54,85.09537652276049,85.87194094830193,"[86, 0, 168]",168,l,0.2542075560922967,1,colour,0.5,4.0
53,22,1,2,2,5,55,86.39231755967194,87.13598284091859,"[43, 0, 211]",211,a,0.2214021471736487,1,colour,0.5,4.0
53,22,1,2,2,6,56,87.6424314796459,88.39194458743441,"[95, 0, 159]",159,l,0.2271219737303909,1,colour,0.5,4.0
53,22,1,2,2,7,57,88.90810035041068,89.66395398617897,"[9, 0, 245]",245,a,0.23345974479161669,1,colour,0.5,4.0
53,22,1,2,2,8,58,90.17391809499532,90.89595374357305,"[21, 0, 233]",233,a,0.19974927758448757,1,colour,0.5,4.0
53,22,1,2,2,9,59,91.40837033189018,92.13597890245728,"[57, 0, 197]",197,l,0.20532416879723314,1,colour,0.5,4.0
53,22,1,2,2,10,60,92.64285604572797,93.39194734436751,"[42, 0, 212]",212,a,0.22683013380446937,1,colour,0.5,4.0
53,22,1,2,2,11,61,93.90876240567013,94.65596048621228,"[30, 0, 224]",224,a,0.22495857723697554,1,colour,0.5,4.0
53,22,1,2,2,12,62,95.17444269795669,95.93593896647508,"[99, 0, 155]",155,l,0.2391736636782298,1,colour,0.5,4.0
53,22,1,2,2,13,63,96.45580160871032,97.19994856370613,"[16, 0, 238]",238,a,0.2225553284806665,1,colour,0.5,4.0
53,22,1,2,2,14,64,97.70597224251833,98.47197607936687,"[41, 0, 213]",213,a,0.24378520737809595,1,colour,0.5,4.0
53,22,1,2,2,15,65,98.98723151021113,99.73597622429952,"[28, 0, 226]",226,a,0.2264851246291073,1,colour,0.5,4.0
53,22,1,2,2,16,66,100.2530646147934,100.86394114680297,"[62, 0, 192]",192,l,0.08874612406361848,1,colour,0.5,4.0
53,22,1,2,2,17,67,101.37868733466894,102.08797339806915,"[73, 0, 181]",181,l,0.18777044917806052,1,colour,0.5,4.0
53,22,1,2,2,18,68,102.59757359309879,103.3359790599934,"[65, 0, 189]",189,l,0.21622307125653606,1,colour,0.5,4.0
53,22,1,2,2,19,69,103.84759299001598,104.5759660158219,"[19, 0, 235]",235,a,0.20605829788837582,1,colour,0.5,4.0
53,22,1,2,2,20,70,105.08207476537791,105.76798055031395,"[91, 0, 163]",163,l,0.16363280470250174,1,colour,0.5,4.0
53,22,1,2,2,21,71,106.28531273151748,106.97594388166908,"[90, 0, 164]",164,l,0.1683483237720793,1,colour,0.5,4.0
53,22,1,2,2,22,72,107.48851840227144,108.23198085278273,"[23, 0, 231]",231,a,0.22142420255113393,1,colour,0.5,4.0
53,22,1,2,2,23,73,108.7386145991768,109.49593413004186,"[83, 0, 171]",171,l,0.23532736289780587,1,colour,0.5,4.0
53,22,1,2,2,24,74,110.00437799298379,110.75993624419789,"[71, 0, 183]",183,l,0.2334046063333517,1,colour,0.5,4.0
53,22,1,2,2,25,75,111.27008900528017,111.9919458477525,"[88, 0, 166]",166,l,0.19963624376396183,1,colour,0.5,4.0
53,22,1,2,2,26,76,112.50083515061124,113.12797910095833,"[93, 0, 161]",161,l,0.10493437934201211,1,colour,0.5,4.0
53,22,1,2,2,27,77,113.64154729520669,114.27994421565381,"[84, 0, 170]",170,l,0.11621176789049059,1,colour,0.5,4.0
53,22,1,2,2,28,78,114.79795617518539,115.54398256365675,"[54, 0, 200]",200,a,0.22380185131623875,0,colour,0.5,4.0
53,22,1,2,2,29,79,116.0636380428623,116.80792284398922,"[58, 0, 196]",196,a,0.22210122396063525,0,colour,0.5,4.0
53,22,1,2,2,30,80,117.3137208489934,118.03997065059957,"[38, 0, 216]",216,a,0.20397327675891574,1,colour,0.5,4.0
53,22,1,2,2,31,81,118.54814118437935,119.11197122719022,"[92, 0, 162]",162,l,0.04152201028773561,1,colour,0.5,4.0
53,22,1,2,2,32,82,119.62636334743001,120.32797453233798,"[33, 0, 221]",221,a,0.17929763853317127,1,colour,0.5,4.0
53,22,1,2,2,33,83,120.84520234433876,121.50397804229578,"[24, 0, 230]",230,a,0.13652910542441532,1,colour,0.5,4.0
53,22,1,2,2,34,84,122.0171886243188,122.66397170926211,"[79, 0, 175]",175,l,0.12455067086557392,1,colour,0.5,4.0
53,22,1,2,2,35,85,123.17349943661247,123.8079492316756,"[11, 0, 243]",243,a,0.11219296252238564,1,colour,0.5,4.0
53,22,1,2,2,36,86,124.31429586427112,124.9759568785812,"[70, 0, 184]",184,l,0.1393986679322552,1,colour,0.5,4.0
53,22,1,2,2,37,87,125.48619471042184,126.15993695313227,"[26, 0, 228]",228,a,0.15145153940829914,1,colour,0.5,4.0
53,22,1,2,2,38,88,126.67377768886217,127.30396606937575,"[75, 0, 179]",179,l,0.10787798490491696,1,colour,0.5,4.0
53,22,1,2,2,39,89,127.81457135960227,128.55996089897235,"[39, 0, 215]",215,a,0.22317484836094081,1,colour,0.5,4.0
53,22,1,2,2,40,90,129.08028000881313,129.61597290023929,"[46, 0, 208]",208,a,0.013459295805660076,1,colour,0.5,4.0
53,22,1,2,2,41,91,130.1272595441842,130.8641435836762,"[68, 0, 186]",186,l,0.2146732869441621,1,colour,0.5,4.0
53,22,1,2,2,42,92,131.3773002087837,132.11196256257244,"[20, 0, 234]",234,a,0.21289743499073666,1,colour,0.5,4.0
53,22,1,2,2,43,93,132.6274243687658,133.25627052184427,"[82, 0, 172]",172,l,0.10656962824577931,1,colour,0.5,4.0
53,22,1,2,2,44,94,133.75563308197889,134.46396603787434,"[61, 0, 193]",193,a,0.1861911264131777,0,colour,0.5,4.0
53,22,1,2,2,45,95,134.9745539988653,135.68794708914356,"[44, 0, 210]",210,a,0.1911220792826498,1,colour,0.5,4.0
53,22,1,2,2,46,96,136.19332604193187,136.80795553320786,"[1, 0, 253]",253,a,0.09239668333611917,1,colour,0.5,4.0
53,22,1,2,2,47,97,137.31846669421066,138.0240131891187,"[45, 0, 209]",209,a,0.18328454236325342,1,colour,0.5,4.0
53,22,1,2,2,48,98,138.53736319264863,139.19994580678758,"[98, 0, 156]",156,l,0.14049119694391266,1,colour,0.5,4.0
53,22,1,2,2,49,99,139.7093187526334,140.45596938714152,"[29, 0, 225]",225,a,0.2244012850424042,1,colour,0.5,4.0
53,22,1,2,2,50,100,140.97500770953775,141.69596264448774,"[27, 0, 227]",227,a,0.1986981024092529,1,colour,0.5,4.0
53,22,1,2,3,1,101,148.3966723157355,149.11996827177063,"[26, 0, 228]",228,a,0.20027033594669774,1,colour,0.5,4.0
53,22,1,2,3,2,102,149.6319874694018,150.34396153227135,"[58, 0, 196]",196,l,0.18973731648293324,1,colour,0.5,4.0
53,22,1,2,3,3,103,150.85079220170155,151.43198061647126,"[86, 0, 168]",168,l,0.05905249298666604,1,colour,0.5,4.0
53,22,1,2,3,4,104,151.94443934633455,152.51997922068404,"[55, 0, 199]",199,a,0.05324483873846475,0,colour,0.5,4.0
53,22,1,2,3,5,105,153.03844292166468,154.31196705241746,"[45, 0, 209]",209,a,0.7515055750845931,1,colour,0.5,4.0
53,22,1,2,3,6,106,154.81983865702932,155.91996220653527,"[95, 0, 159]",159,l,0.5778722308168653,1,colour,0.5,4.0
53,22,1,2,3,7,107,156.42937886930304,157.08796118883765,"[35, 0, 219]",219,a,0.13990357860166114,1,colour,0.5,4.0
53,22,1,2,3,8,108,157.59772601153236,158.2399704142881,"[98, 0, 156]",156,l,0.11995685021975078,1,colour,0.5,4.0
53,22,1,2,3,9,109,158.7541648237966,159.32793672311527,"[16, 0, 238]",238,a,0.05169859903980978,1,colour,0.5,4.0
53,22,1,2,3,10,110,159.84791358072835,160.543971535968,"[25, 0, 229]",229,a,0.17382278424338438,1,colour,0.5,4.0
53,22,1,2,3,11,111,161.05115902992839,161.69595634295547,"[84, 0, 170]",170,l,0.12252551433630288,1,colour,0.5,4.0
53,22,1,2,3,12,112,162.2075470360578,162.9839566800947,"[70, 0, 184]",184,l,0.25418077457288746,1,colour,0.5,4.0
53,22,1,2,3,13,113,163.48888034680567,164.20797042059712,"[89, 0, 165]",165,l,0.19743858266156167,1,colour,0.5,4.0
53,22,1,2,3,14,114,164.72332470679248,165.51997685761307,"[51, 0, 203]",203,a,0.2743106413690839,0,colour,0.5,4.0
53,22,1,2,3,15,115,166.03594239293307,166.76796834108245,"[18, 0, 236]",236,a,0.20972027869720478,1,colour,0.5,4.0
53,22,1,2,3,16,116,167.28599999292055,168.11194090104254,"[73, 0, 181]",181,l,0.3036482355964836,1,colour,0.5,4.0
53,22,1,2,3,17,117,168.63007574054063,169.16794423770625,"[5, 0, 249]",249,a,0.015884206106420606,1,colour,0.5,4.0
53,22,1,2,3,18,118,169.67675831596716,170.38394321055966,"[63, 0, 191]",191,l,0.18910479969053995,1,colour,0.5,4.0
53,22,1,2,3,19,119,170.8915013136866,171.5679689712415,"[11, 0, 243]",243,a,0.16674537023936864,1,colour,0.5,4.0
53,22,1,2,3,20,120,172.08236975609907,172.80795159474656,"[80, 0, 174]",174,l,0.20337581225612666,1,colour,0.5,4.0
53,22,1,2,3,21,121,173.31680348223017,174.02393796452088,"[19, 0, 235]",235,a,0.18487016667495482,1,colour,0.5,4.0
53,22,1,2,3,22,122,174.53777751872258,175.31192727397138,"[36, 0, 218]",218,a,0.25204022113757674,1,colour,0.5,4.0
53,22,1,2,3,23,123,175.8191198879358,176.5199461376178,"[46, 0, 208]",208,a,0.17852845715242438,1,colour,0.5,4.0
53,22,1,2,3,24,124,177.03795218945015,177.76798842723656,"[61, 0, 193]",193,l,0.2079310359840747,1,colour,0.5,4.0
53,22,1,2,3,25,125,178.2881622078712,178.86396123294253,"[41, 0, 213]",213,a,0.05383718323719222,1,colour,0.5,4.0
53,22,1,2,3,26,126,179.38183495250996,180.11196610718616,"[69, 0, 185]",185,l,0.20843318972038105,1,colour,0.5,4.0
53,22,1,2,3,27,127,180.63198983247275,181.2159532867081,"[28, 0, 226]",226,a,0.06171843707852531,1,colour,0.5,4.0
53,22,1,2,3,28,128,181.7157927944354,182.399925484322,"[9, 0, 245]",245,a,0.1619006696564611,1,colour,0.5,4.0
53,22,1,2,3,29,129,182.91904415133467,183.80794765628525,"[44, 0, 210]",210,l,0.3667069308576174,0,colour,0.5,4.0
53,22,1,2,3,30,130,184.32540862515452,185.0559300813038,"[67, 0, 187]",187,l,0.2082969189796131,1,colour,0.5,4.0
53,22,1,2,3,31,131,185.57553239128902,186.22391606667952,"[72, 0, 182]",182,l,0.12612841824011412,1,colour,0.5,4.0
53,22,1,2,3,32,132,186.7318010620511,187.35197314915422,"[6, 0, 248]",248,a,0.09788571610988583,1,colour,0.5,4.0
53,22,1,2,3,33,133,187.85700039740186,188.52796641911846,"[62, 0, 192]",192,l,0.14876669070508797,1,colour,0.5,4.0
53,22,1,2,3,34,134,189.04448806509026,189.73593802124378,"[34, 0, 220]",220,a,0.16919627437891904,1,colour,0.5,4.0
53,22,1,2,3,35,135,190.2477201235306,191.0079257584439,"[2, 0, 252]",252,a,0.23790114698931575,1,colour,0.5,4.0
53,22,1,2,3,36,136,191.51329762200476,192.19192788837245,"[81, 0, 173]",173,l,0.1561670584778767,1,colour,0.5,4.0
53,22,1,2,3,37,137,192.70099599735113,193.3439300245809,"[7, 0, 247]",247,a,0.12058779163635336,1,colour,0.5,4.0
53,22,1,2,3,38,138,193.85743205269682,194.63196502017672,"[13, 0, 241]",241,a,0.2522509287955472,1,colour,0.5,4.0
53,22,1,2,3,39,139,195.1386582373234,195.9119171127386,"[17, 0, 237]",237,a,0.2511461905523902,1,colour,0.5,4.0
53,22,1,2,3,40,140,196.42007661881507,197.0719478012179,"[64, 0, 190]",190,l,0.1296182883233996,1,colour,0.5,4.0
53,22,1,2,3,41,141,197.59206920034194,198.27192038953945,"[90, 0, 164]",164,l,0.15756993820832577,1,colour,0.5,4.0
53,22,1,2,3,42,142,198.77981641259976,199.52793845604174,"[4, 0, 250]",250,a,0.2260322016372811,1,colour,0.5,4.0
53,22,1,2,3,43,143,200.04539036644564,200.83195336232893,"[83, 0, 171]",171,l,0.26429198487312533,1,colour,0.5,4.0
53,22,1,2,3,44,144,201.3423597602814,202.07193913661467,"[43, 0, 211]",211,a,0.2073698053281987,1,colour,0.5,4.0
53,22,1,2,3,45,145,202.59526447355165,203.32793278465397,"[54, 0, 200]",200,a,0.21039257395023014,0,colour,0.5,4.0
53,22,1,2,3,46,146,203.84610267647076,204.51993629147182,"[10, 0, 244]",244,a,0.15231681923614815,1,colour,0.5,4.0
53,22,1,2,3,47,147,205.03298460890073,205.75994530266325,"[33, 0, 221]",221,a,0.20477081506396644,1,colour,0.5,4.0
53,22,1,2,3,48,148,206.2674029750342,206.99193285082583,"[87, 0, 167]",167,l,0.20225177555403206,1,colour,0.5,4.0
53,22,1,2,3,49,149,207.50191507655836,208.26397060648014,"[53, 0, 201]",201,a,0.2398128758504754,0,colour,0.5,4.0
53,22,1,2,3,50,150,208.78327044268372,209.5199382606952,"[74, 0, 180]",180,l,0.21446769930480514,1,colour,0.5,4.0
53,22,1,2,4,1,151,221.9770836722164,222.6959165645094,"[74, 0, 180]",180,l,0.1958407491329126,1,colour,0.5,4.0
53,22,1,2,4,2,152,223.2125043766282,223.9839503785479,"[97, 0, 157]",157,l,0.24936561242793687,1,colour,0.5,4.0
53,22,1,2,4,3,153,224.49364076433994,225.52792860989575,"[42, 0, 212]",212,a,0.5119219176558545,1,colour,0.5,4.0
53,22,1,2,4,4,154,226.0406642135349,226.77591142874735,"[91, 0, 163]",163,l,0.21299156421446241,1,colour,0.5,4.0
53,22,1,2,4,5,155,227.29082539504452,228.03195233833685,"[96, 0, 158]",158,l,0.21883820921357255,1,colour,0.5,4.0
53,22,1,2,4,6,156,228.5408889027167,229.4079091381427,"[67, 0, 187]",187,l,0.3447677351796301,1,colour,0.5,4.0
53,22,1,2,4,7,157,229.9160079919384,230.6799382291938,"[32, 0, 222]",222,a,0.24168679548893124,1,colour,0.5,4.0
53,22,1,2,4,8,158,231.19745118574065,232.01595037225343,"[24, 0, 230]",230,a,0.29640658778953366,1,colour,0.5,4.0
53,22,1,2,4,9,159,232.525611613426,233.27995484949497,"[94, 0, 160]",160,l,0.23210136967827566,1,colour,0.5,4.0
53,22,1,2,4,10,160,233.7913226257224,234.55193155900633,"[22, 0, 232]",232,a,0.2383355592173757,1,colour,0.5,4.0
53,22,1,2,4,11,161,235.0570206410921,235.82392520390567,"[77, 0, 177]",177,l,0.2446749056543922,1,colour,0.5,4.0
53,22,1,2,4,12,162,236.33836891799,237.09593499649782,"[31, 0, 223]",223,a,0.2355211351532489,1,colour,0.5,4.0
53,22,1,2,4,13,163,237.60411655796634,238.36791249370435,"[6, 0, 248]",248,a,0.24168285701307468,1,colour,0.5,4.0
53,22,1,2,4,14,164,238.88548964717484,239.78391319948423,"[73, 0, 181]",181,l,0.37617223362030927,1,colour,0.5,4.0
53,22,1,2,4,15,165,240.29185057638097,241.27196174337587,"[44, 0, 210]",210,l,0.4578228267637314,0,colour,0.5,4.0
53,22,1,2,4,16,166,241.79200201020285,242.58395321424177,"[2, 0, 252]",252,a,0.26971603304264136,1,colour,0.5,4.0
53,22,1,2,4,17,167,243.0889426532667,243.81593524856726,"[99, 0, 155]",155,l,0.20492047657899093,1,colour,0.5,4.0
53,22,1,2,4,18,168,244.3233724409365,245.08794504114485,"[87, 0, 167]",167,l,0.24236145381291863,1,colour,0.5,4.0
53,22,1,2,4,19,169,245.6047955485992,246.46392980402743,"[63, 0, 191]",191,l,0.33711491206486244,1,colour,0.5,4.0
53,22,1,2,4,20,170,246.97983941320854,247.93595275108237,"[41, 0, 213]",213,a,0.43383720687415916,1,colour,0.5,4.0
53,22,1,2,4,21,171,248.44874191778945,249.19199129758636,"[14, 0, 240]",240,a,0.22103665801114403,1,colour,0.5,4.0
53,22,1,2,4,22,172,249.69877588702366,250.63992740630056,"[21, 0, 233]",233,a,0.41884860675781965,1,colour,0.5,4.0
53,22,1,2,4,23,173,251.1521447085106,252.1519009177864,"[90, 0, 164]",164,l,0.4776679428614443,1,colour,0.5,4.0
53,22,1,2,4,24,174,252.66332383245754,253.40793237506296,"[5, 0, 249]",249,a,0.22226703315391205,1,colour,0.5,4.0
53,22,1,2,4,25,175,253.91334913707396,254.61597368793446,"[70, 0, 184]",184,l,0.1802219952805899,1,colour,0.5,4.0
53,22,1,2,4,26,176,255.13226296473294,255.9839484093245,"[84, 0, 170]",170,l,0.3294506674283184,1,colour,0.5,4.0
53,22,1,2,4,27,177,256.49175975547405,257.3279446000379,"[18, 0, 236]",236,a,0.31388232587778475,1,colour,0.5,4.0
53,22,1,2,4,28,178,257.8356153431523,258.63992780014814,"[61, 0, 193]",193,l,0.2821702336659655,1,colour,0.5,4.0
53,22,1,2,4,29,179,259.14826690003974,260.1359572409274,"[38, 0, 216]",216,a,0.4655339391028974,1,colour,0.5,4.0
53,22,1,2,4,30,180,260.6482844261918,261.3839459674782,"[71, 0, 183]",183,l,0.21331018568889704,1,colour,0.5,4.0
53,22,1,2,4,31,181,261.89844678922964,262.65594906467595,"[49, 0, 205]",205,a,0.23525450135639403,1,colour,0.5,4.0
53,22,1,2,4,32,182,263.1642259368964,263.9279241988115,"[59, 0, 195]",195,l,0.24143630937032867,1,colour,0.5,4.0
53,22,1,2,4,33,183,264.44556633688626,265.1599491623492,"[80, 0, 174]",174,l,0.19218349445145577,1,colour,0.5,4.0
53,22,1,2,4,34,184,265.6800823768572,266.6559589108365,"[48, 0, 206]",206,a,0.4536267906805733,1,colour,0.5,4.0
53,22,1,2,4,35,185,267.164520927603,268.0239320568362,"[69, 0, 185]",185,l,0.33717398898443207,1,colour,0.5,4.0
53,22,1,2,4,36,186,268.5396254445077,269.28793220176885,"[15, 0, 239]",239,a,0.22617004776839167,1,colour,0.5,4.0
53,22,1,2,4,37,187,269.8052998291096,270.5999252480251,"[20, 0, 234]",234,a,0.272556450945558,1,colour,0.5,4.0
53,22,1,2,4,38,188,271.11796950292774,271.8719114098494,"[51, 0, 203]",203,l,0.23169216360838618,1,colour,0.5,4.0
53,22,1,2,4,39,189,272.3836612167652,273.0718997520016,"[40, 0, 214]",214,a,0.16654175182338804,1,colour,0.5,4.0
53,22,1,2,4,40,190,273.58688264136435,274.3679514844698,"[83, 0, 171]",171,l,0.2592613889428321,1,colour,0.5,4.0
53,22,1,2,4,41,191,274.88384652134846,275.7199490520725,"[82, 0, 172]",172,l,0.31481967953732237,1,colour,0.5,4.0
53,22,1,2,4,42,192,276.2276973828557,277.05598718898545,"[28, 0, 226]",226,a,0.3060337612841977,1,colour,0.5,4.0
53,22,1,2,4,43,193,277.5716797889618,278.3279406615766,"[39, 0, 215]",215,a,0.23449201535549946,1,colour,0.5,4.0
53,22,1,2,4,44,194,278.8372864320554,279.61593824179727,"[53, 0, 201]",201,a,0.2564729587320471,0,colour,0.5,4.0
53,22,1,2,4,45,195,280.13427079202665,280.9279832757311,"[8, 0, 246]",246,a,0.2714265065587824,1,colour,0.5,4.0
53,22,1,2,4,46,196,281.4469337704504,282.2079550605995,"[46, 0, 208]",208,a,0.23931387288030237,1,colour,0.5,4.0
53,22,1,2,4,47,197,282.72828834889515,283.51995716530655,"[54, 0, 200]",200,a,0.2701023960398743,0,colour,0.5,4.0
53,22,1,2,4,48,198,284.0252679827245,284.7839730640844,"[47, 0, 207]",207,a,0.2364415534393629,1,colour,0.5,4.0
53,22,1,2,4,49,199,285.29095851501916,285.93598268338246,"[64, 0, 190]",190,a,0.12269408044812735,0,colour,0.5,4.0
53,22,1,2,4,50,200,286.4473504596099,287.2719853741437,"[45, 0, 209]",209,a,0.30238871584879234,1,colour,0.5,4.0
53,22,1,2,5,1,201,294.13455829965824,299.3359822107741,"[48, 0, 206]",206,l,4.6782277556776535,0,colour,0.4,4.0
53,22,1,2,5,2,202,299.85463613939646,300.47996918548597,"[71, 0, 183]",183,l,0.10360002882953268,1,colour,0.4,4.0
53,22,1,2,5,3,203,300.9953171701636,301.75994569651084,"[43, 0, 211]",211,a,0.24231576766760554,1,colour,0.4,4.0
53,22,1,2,5,4,204,302.2766843516729,303.055955681295,"[37, 0, 217]",217,a,0.25696487247478217,1,colour,0.4,4.0
53,22,1,2,5,5,205,303.5737065208814,304.35994026143453,"[23, 0, 231]",231,a,0.2640060526318848,1,colour,0.4,4.0
53,22,1,2,5,6,206,304.87062668394356,305.6799299584236,"[80, 0, 174]",174,l,0.28708110039588064,1,colour,0.4,4.0
53,22,1,2,5,7,207,306.1988753331534,306.9679318709386,"[79, 0, 175]",175,l,0.2468166406324599,1,colour,0.4,4.0
53,22,1,2,5,8,208,307.4802031300642,308.3199711862253,"[66, 0, 188]",188,l,0.31805630659800954,1,colour,0.4,4.0
53,22,1,2,5,9,209,308.83973851772316,309.59197270804725,"[87, 0, 167]",167,l,0.2306366561242612,1,colour,0.4,4.0
53,22,1,2,5,10,210,310.1054101454065,310.90392558200983,"[60, 0, 194]",194,a,0.27664339168404695,0,colour,0.4,4.0
53,22,1,2,5,11,211,311.4180463422963,312.17598696843197,"[69, 0, 185]",185,l,0.23541834134084638,1,colour,0.4,4.0
53,22,1,2,5,12,212,312.6838609361148,313.4639597363275,"[40, 0, 214]",214,a,0.2584622752474388,1,colour,0.4,4.0
53,22,1,2,5,13,213,313.9807267484139,314.79994115940644,"[34, 0, 220]",220,a,0.29692922152753454,1,colour,0.4,4.0
53,22,1,2,5,14,214,315.30895688685996,316.10393597953953,"[67, 0, 187]",187,l,0.27326419233577326,1,colour,0.4,4.0
53,22,1,2,5,15,215,316.6216119883611,317.33594637077476,"[19, 0, 235]",235,a,0.1926887989829993,1,colour,0.4,4.0
53,22,1,2,5,16,216,317.8560386252793,318.6879565414565,"[0, 0, 254]",254,a,0.3096851082518697,1,colour,0.4,4.0
53,22,1,2,5,17,217,319.20015769597376,319.96799134169123,"[78, 0, 176]",176,l,0.2464082222431898,1,colour,0.4,4.0
53,22,1,2,5,18,218,320.48124091446516,321.35195030608156,"[74, 0, 180]",180,l,0.3483288913994329,1,colour,0.4,4.0
53,22,1,2,5,19,219,321.87196024676086,322.6479650170222,"[11, 0, 243]",243,a,0.2541382391791558,1,colour,0.4,4.0
53,22,1,2,5,20,220,323.1533065544354,323.93593266492826,"[97, 0, 157]",157,l,0.26035943180613685,1,colour,0.4,4.0
53,22,1,2,5,21,221,324.45028146210825,325.2639320095768,"[81, 0, 173]",173,l,0.2918809025286464,1,colour,0.4,4.0
53,22,1,2,5,22,222,325.7785564990045,326.5439514498139,"[91, 0, 163]",163,l,0.24321019210037775,1,colour,0.4,4.0
53,22,1,2,5,23,223,327.0601438404701,327.82394174544606,"[6, 0, 248]",248,a,0.24166749702999368,1,colour,0.4,4.0
53,22,1,2,5,24,224,328.3412365112745,329.103974970305,"[77, 0, 177]",177,l,0.2404178234282881,1,colour,0.4,4.0
53,22,1,2,5,25,225,329.62262377893785,330.376050535182,"[88, 0, 166]",166,l,0.23161693899601232,1,colour,0.4,4.0
53,22,1,2,5,26,226,330.88826429277833,331.59996226955263,"[68, 0, 186]",186,a,0.18958686728728935,0,colour,0.4,4.0
53,22,1,2,5,27,227,332.10712967737345,332.9119423188822,"[15, 0, 239]",239,a,0.28299534118559677,1,colour,0.4,4.0
53,22,1,2,5,28,228,333.41976941887697,334.14393498704885,"[82, 0, 172]",172,l,0.20194772638205905,1,colour,0.4,4.0
53,22,1,2,5,29,229,334.6542992434697,335.4319479272526,"[70, 0, 184]",184,l,0.25605508804437704,1,colour,0.4,4.0
53,22,1,2,5,30,230,335.95119971422537,336.7119181367307,"[62, 0, 192]",192,a,0.2384592268790584,0,colour,0.4,4.0
53,22,1,2,5,31,231,337.21697374188807,337.96793541555235,"[55, 0, 199]",199,a,0.22928615791897755,0,colour,0.4,4.0
53,22,1,2,5,32,232,338.4826745141909,339.46396209941304,"[63, 0, 191]",191,l,0.4589689188578632,1,colour,0.4,4.0
53,22,1,2,5,33,233,339.9827948341699,341.02395253682334,"[4, 0, 250]",250,a,0.518875270121498,1,colour,0.4,4.0
53,22,1,2,5,34,234,341.5298293110536,342.2959383048001,"[49, 0, 205]",205,a,0.24453351490956265,1,colour,0.4,4.0
53,22,1,2,5,35,235,342.8111484433466,344.527944757574,"[56, 0, 198]",198,a,1.1945891062932787,0,colour,0.4,4.0
53,22,1,2,5,36,236,345.0456451848586,345.815938793181,"[72, 0, 182]",182,l,0.2486417233449174,1,colour,0.4,4.0
53,22,1,2,5,37,237,346.32701984945743,347.0479121628741,"[53, 0, 201]",201,a,0.19861224395572208,0,colour,0.4,4.0
53,22,1,2,5,38,238,347.5613846525375,348.32795326465566,"[12, 0, 242]",242,a,0.24479305949353147,1,colour,0.4,4.0
53,22,1,2,5,39,239,348.8429243386345,349.53590911293577,"[21, 0, 233]",233,a,0.17119071089837234,1,colour,0.4,4.0
53,22,1,2,5,40,240,350.0461284339981,350.7919011855993,"[98, 0, 156]",156,l,0.2241251989325974,1,colour,0.4,4.0
53,22,1,2,5,41,241,351.3118429909082,352.04794445825974,"[51, 0, 203]",203,a,0.2150557114946423,0,colour,0.4,4.0
53,22,1,2,5,42,242,352.56170721247327,353.3359609430772,"[24, 0, 230]",230,a,0.25265540870896075,1,colour,0.4,4.0
53,22,1,2,5,43,243,353.8431098401343,354.5360170267668,"[42, 0, 212]",212,a,0.1716534800507361,1,colour,0.4,4.0
53,22,1,2,5,44,244,355.0462926678156,355.7839277717867,"[93, 0, 161]",161,l,0.21619747126533184,1,colour,0.4,4.0
53,22,1,2,5,45,245,356.2963738985709,356.87194488676323,"[10, 0, 244]",244,a,0.05415383548825048,1,colour,0.4,4.0
53,22,1,2,5,46,246,357.3904621508118,358.128075593253,"[28, 0, 226]",226,a,0.21641172353702132,1,colour,0.4,4.0
53,22,1,2,5,47,247,358.6403169200639,359.35993986758695,"[96, 0, 158]",158,l,0.2087789865763625,1,colour,0.4,4.0
53,22,1,2,5,48,248,359.8643578359479,360.42392016267695,"[44, 0, 210]",210,a,0.038151869404828176,1,colour,0.4,4.0
53,22,1,2,5,49,249,360.9426634943811,361.5441534928541,"[95, 0, 159]",159,l,0.0800535473099444,1,colour,0.4,4.0
53,22,1,2,5,50,250,362.0537702294241,362.68807311989076,"[83, 0, 171]",171,l,0.12034281936939806,1,colour,0.4,4.0
53,22,1,2,6,1,251,368.64776888168126,370.3839416351693,"[54, 0, 200]",200,a,1.2257427247823216,0,colour,0.28,3.9
53,22,1,2,6,2,252,370.90245574845176,371.951904304864,"[94, 0, 160]",160,l,0.5280377052549738,1,colour,0.28,3.9
53,22,1,2,6,3,253,372.46494671460823,373.21592059748946,"[22, 0, 232]",232,a,0.22983124089660123,1,colour,0.28,3.9
53,22,1,2,6,4,254,373.7305293330719,374.42393591652217,"[85, 0, 169]",169,l,0.17165032927005086,1,colour,0.28,3.9
53,22,1,2,6,5,255,374.9338200745842,375.6639193277224,"[48, 0, 206]",206,a,0.20796057442203164,1,colour,0.28,3.9
53,22,1,2,6,6,256,376.1839119391807,376.927970672652,"[32, 0, 222]",222,a,0.22198425166425295,1,colour,0.28,3.9
53,22,1,2,6,7,257,377.4340581545257,378.1759916945739,"[34, 0, 220]",220,a,0.21990553206705954,1,colour,0.28,3.9
53,22,1,2,6,8,258,378.684517083675,379.3599209629756,"[51, 0, 203]",203,a,0.15338099133805372,0,colour,0.28,3.9
53,22,1,2,6,9,259,379.8717073975713,380.57601879119466,"[49, 0, 205]",205,a,0.18144213042978663,1,colour,0.28,3.9
53,22,1,2,6,10,260,381.0916050527303,381.8800080974761,"[70, 0, 184]",184,l,0.2729061862482922,1,colour,0.28,3.9
53,22,1,2,6,11,261,382.397592340174,383.0719308658445,"[83, 0, 171]",171,l,0.1526704930147389,1,colour,0.28,3.9
53,22,1,2,6,12,262,383.58509497401246,384.36791682601324,"[97, 0, 157]",157,l,0.26152403464948293,1,colour,0.28,3.9
53,22,1,2,6,13,263,384.8821659801324,385.68795417838555,"[10, 0, 244]",244,a,0.28442224553145934,1,colour,0.28,3.9
53,22,1,2,6,14,264,386.19475334011076,386.9679259632394,"[81, 0, 173]",173,l,0.25131554434483405,1,colour,0.28,3.9
53,22,1,2,6,15,265,387.47618078008236,388.39995147817535,"[67, 0, 187]",187,l,0.4019368562439922,1,colour,0.28,3.9
53,22,1,2,6,16,266,388.9136969031533,389.60793371414184,"[4, 0, 250]",250,a,0.17243171989684924,1,colour,0.28,3.9
53,22,1,2,6,17,267,390.11692147851863,390.86393720834167,"[1, 0, 253]",253,a,0.225118872593157,1,colour,0.28,3.9
53,22,1,2,6,18,268,391.3826671492716,392.1279019071226,"[98, 0, 156]",156,l,0.2238684112962801,1,colour,0.28,3.9
53,22,1,2,6,19,269,392.6333261522086,393.3760840120958,"[75, 0, 179]",179,l,0.22135370409523603,1,colour,0.28,3.9
53,22,1,2,6,20,270,393.8834002937365,394.8000333193777,"[59, 0, 195]",195,a,0.403478763619205,0,colour,0.28,3.9
53,22,1,2,6,21,271,395.3127173292014,396.1121405809972,"[28, 0, 226]",226,a,0.2779997975594597,1,colour,0.28,3.9
53,22,1,2,6,22,272,396.6253082337935,397.48790912238474,"[99, 0, 155]",155,l,0.34076113904302474,1,colour,0.28,3.9
53,22,1,2,6,23,273,397.9943207395845,398.735939202772,"[38, 0, 216]",216,a,0.2200520428159507,1,colour,0.28,3.9
53,22,1,2,6,24,274,399.244368493426,400.15191549008887,"[62, 0, 192]",192,l,0.3858525763207581,1,colour,0.28,3.9
53,22,1,2,6,25,275,400.66645175799204,401.56794967278256,"[56, 0, 198]",198,a,0.3798645405768184,0,colour,0.28,3.9
53,22,1,2,6,26,276,402.0727327364584,402.7840872794477,"[96, 0, 158]",158,l,0.18947147038124967,1,colour,0.28,3.9
53,22,1,2,6,27,277,403.28181971066806,404.02392102914746,"[86, 0, 168]",168,l,0.2208058642136166,1,colour,0.28,3.9
53,22,1,2,6,28,278,404.53494970389875,405.6239392248244,"[58, 0, 196]",196,l,0.5673959251871565,1,colour,0.28,3.9
53,22,1,2,6,29,279,406.128818780795,407.0399143306131,"[50, 0, 204]",204,a,0.3993162044498604,1,colour,0.28,3.9
53,22,1,2,6,30,280,407.55696412417456,408.27193417414674,"[84, 0, 170]",170,l,0.1936820787814213,1,colour,0.28,3.9
53,22,1,2,6,31,281,408.791391942621,409.59192072036967,"[57, 0, 197]",197,a,0.2782825790491188,0,colour,0.28,3.9
53,22,1,2,6,32,282,410.10410690873687,410.72009319973586,"[82, 0, 172]",172,l,0.0942182214348577,1,colour,0.28,3.9
53,22,1,2,6,33,283,411.2291790317977,412.1199249486963,"[72, 0, 182]",182,l,0.36899084426113404,1,colour,0.28,3.9
53,22,1,2,6,34,284,412.6356868656003,413.42397490728763,"[77, 0, 177]",177,l,0.2668066920741694,1,colour,0.28,3.9
53,22,1,2,6,35,285,413.93242192101025,414.6959197152755,"[29, 0, 225]",225,a,0.2416552877984941,1,colour,0.28,3.9
53,22,1,2,6,36,286,415.21384581635357,417.1199190410116,"[60, 0, 194]",194,a,1.3847167242493015,0,colour,0.28,3.9
53,22,1,2,6,37,287,417.6358853640122,418.59195537882624,"[71, 0, 183]",183,l,0.43472926823596936,1,colour,0.28,3.9
53,22,1,2,6,38,288,419.10484970243124,419.8959261743439,"[79, 0, 175]",175,l,0.2692772885056911,1,colour,0.28,3.9
53,22,1,2,6,39,289,420.4019207085512,421.2079519098188,"[68, 0, 186]",186,l,0.28439191936922725,1,colour,0.28,3.9
53,22,1,2,6,40,290,421.71454824083776,422.49592979773297,"[5, 0, 249]",249,a,0.25976472423644736,1,colour,0.28,3.9
53,22,1,2,6,41,291,423.01152157312026,423.776002801038,"[61, 0, 193]",193,a,0.24282185987976845,0,colour,0.28,3.9
53,22,1,2,6,42,292,424.2929265638668,424.95989150328387,"[30, 0, 224]",224,a,0.14528745446295943,1,colour,0.28,3.9
53,22,1,2,6,43,293,425.4805012715369,426.2639375234139,"[73, 0, 181]",181,l,0.2618225699843606,1,colour,0.28,3.9
53,22,1,2,6,44,294,426.777381656153,427.70398016906984,"[95, 0, 159]",159,l,0.4047434033709578,1,colour,0.28,3.9
53,22,1,2,6,45,295,428.2151049422682,429.13591155478207,"[76, 0, 178]",178,l,0.39920868446643,1,colour,0.28,3.9
53,22,1,2,6,46,296,429.65266990225064,430.3279516892653,"[92, 0, 162]",162,l,0.1536397481977474,1,colour,0.28,3.9
53,22,1,2,6,47,297,430.84032495452266,431.51995362069283,"[88, 0, 166]",166,l,0.15782593814947177,1,colour,0.28,3.9
53,22,1,2,6,48,298,432.02777796376904,432.8159336731769,"[91, 0, 163]",163,l,0.2656105815403862,1,colour,0.28,3.9
53,22,1,2,6,49,299,433.3247906806646,434.1359328224644,"[93, 0, 161]",161,l,0.2893165707209846,1,colour,0.28,3.9
53,22,1,2,6,50,300,434.6531035267835,435.41591721041186,"[19, 0, 235]",235,a,0.2410503402206814,1,colour,0.28,3.9
53,22,1,2,7,1,301,449.2315279297909,449.7759689302766,"[27, 0, 227]",227,a,0.021985669518471695,1,colour,0.14,3.9
53,22,1,2,7,2,302,450.29504703113344,450.94390962335456,"[84, 0, 170]",170,l,0.1273985718289623,1,colour,0.14,3.9
53,22,1,2,7,3,303,451.45129128344706,452.1199241610011,"[51, 0, 203]",203,a,0.14634965732693672,0,colour,0.14,3.9
53,22,1,2,7,4,304,452.638850237272,453.45592488253897,"[71, 0, 183]",183,l,0.295349504929618,1,colour,0.14,3.9
53,22,1,2,7,5,305,453.9670559572696,454.727941764344,"[94, 0, 160]",160,l,0.23922250057512429,1,colour,0.14,3.9
53,22,1,2,7,6,306,455.24840384031995,455.9199015542399,"[60, 0, 194]",194,a,0.14982101664645597,0,colour,0.14,3.9
53,22,1,2,7,7,307,456.4360277787637,457.2479131081054,"[77, 0, 177]",177,l,0.2905946012324421,1,colour,0.14,3.9
53,22,1,2,7,8,308,457.76434771411004,458.52791246220295,"[41, 0, 213]",213,a,0.2418073123844806,1,colour,0.14,3.9
53,22,1,2,7,9,309,459.04559044026246,459.82390393622336,"[79, 0, 175]",175,l,0.2564922571909847,1,colour,0.14,3.9
53,22,1,2,7,10,310,460.34269807406235,461.15990544544184,"[83, 0, 171]",171,l,0.29566261255240534,1,colour,0.14,3.9
53,22,1,2,7,11,311,461.6708718925074,462.46392389634275,"[3, 0, 251]",251,a,0.2713087465672288,1,colour,0.14,3.9
53,22,1,2,7,12,312,462.98346673557535,463.9439403433498,"[55, 0, 199]",199,a,0.4388359012664296,0,colour,0.14,3.9
53,22,1,2,7,13,313,464.4523219786206,465.19194167297974,"[76, 0, 178]",178,l,0.21801664629310835,1,colour,0.14,3.9
53,22,1,2,7,14,314,465.7023358617007,466.44793768410455,"[99, 0, 155]",155,l,0.22385147592285648,1,colour,0.14,3.9
53,22,1,2,7,15,315,466.9681295816699,467.87192243753816,"[61, 0, 193]",193,l,0.3820704724494135,1,colour,0.14,3.9
53,22,1,2,7,16,316,468.3901206862647,469.16792809001345,"[85, 0, 169]",169,l,0.25563642966153566,1,colour,0.14,3.9
53,22,1,2,7,17,317,469.68702588317683,470.4479061764141,"[22, 0, 232]",232,a,0.23903187907126267,1,colour,0.14,3.9
53,22,1,2,7,18,318,470.95283575083886,471.77601146565576,"[80, 0, 174]",174,l,0.30141591603751294,1,colour,0.14,3.9
53,22,1,2,7,19,319,472.2810359569703,473.02395608143706,"[44, 0, 210]",210,a,0.22134307025407907,1,colour,0.14,3.9
53,22,1,2,7,20,320,473.53112782156677,474.40795246121706,"[68, 0, 186]",186,l,0.355222773127025,1,colour,0.14,3.9
53,22,1,2,7,21,321,474.9219042615441,475.64792642010434,"[6, 0, 248]",248,a,0.20431789207214024,1,colour,0.14,3.9
53,22,1,2,7,22,322,476.156346652293,476.91989092039876,"[90, 0, 164]",164,l,0.24179825391911436,1,colour,0.14,3.9
53,22,1,2,7,23,323,477.4377284061193,478.18393084379204,"[50, 0, 204]",204,a,0.22452574041381013,1,colour,0.14,3.9
53,22,1,2,7,24,324,478.70336537534604,479.46388963173376,"[58, 0, 196]",196,a,0.2388770975812804,0,colour,0.14,3.9
53,22,1,2,7,25,325,479.9690901722497,480.6798897861154,"[91, 0, 163]",163,l,0.18907211045734584,1,colour,0.14,3.9
53,22,1,2,7,26,326,481.1878945107019,481.95190666793496,"[65, 0, 189]",189,a,0.24215035230736248,0,colour,0.14,3.9
53,22,1,2,7,27,327,482.4692542091361,483.1919542760588,"[72, 0, 182]",182,l,0.20097925889422186,1,colour,0.14,3.9
53,22,1,2,7,28,328,483.70384547370486,484.35192549378553,"[74, 0, 180]",180,l,0.126397415107931,1,colour,0.14,3.9
53,22,1,2,7,29,329,484.86016219369776,485.64792484472855,"[97, 0, 157]",157,l,0.2661958368116757,1,colour,0.14,3.9
53,22,1,2,7,30,330,486.1570654213865,486.93593739108474,"[52, 0, 202]",202,a,0.25697038632642943,0,colour,0.14,3.9
53,22,1,2,7,31,331,487.45419195979775,488.1679229700094,"[92, 0, 162]",162,l,0.19213662677793764,1,colour,0.14,3.9
53,22,1,2,7,32,332,488.67295336902316,489.53591541446804,"[53, 0, 201]",201,a,0.3412290281848982,0,colour,0.14,3.9
53,22,1,2,7,33,333,490.04803740592615,490.743877958128,"[87, 0, 167]",167,l,0.17416818723722827,1,colour,0.14,3.9
53,22,1,2,7,34,334,491.25129073206335,491.8558956591587,"[93, 0, 161]",161,l,0.0829754913575016,1,colour,0.14,3.9
53,22,1,2,7,35,335,492.3763742766605,493.1919420668273,"[73, 0, 181]",181,a,0.2930616530647967,0,colour,0.14,3.9
53,22,1,2,7,36,336,493.70459811355977,494.3759410459752,"[70, 0, 184]",184,a,0.14960558284656145,0,colour,0.14,3.9
53,22,1,2,7,37,337,494.89224253199063,495.5999925957003,"[86, 0, 168]",168,l,0.1860631264426047,1,colour,0.14,3.9
53,22,1,2,7,38,338,496.11096455661755,496.8558633637731,"[81, 0, 173]",173,l,0.22259195616061334,1,colour,0.14,3.9
53,22,1,2,7,39,339,497.36104578737286,497.9838779108686,"[82, 0, 172]",172,l,0.10051070019835606,1,colour,0.14,3.9
53,22,1,2,7,40,340,498.5018264611863,499.1919066206756,"[78, 0, 176]",176,l,0.16790485309320502,1,colour,0.14,3.9
53,22,1,2,7,41,341,499.7050805750041,500.3999211520277,"[75, 0, 179]",179,l,0.1728066613577539,1,colour,0.14,3.9
53,22,1,2,7,42,342,500.9082303196192,501.447876244114,"[88, 0, 166]",166,l,0.017261879678699188,1,colour,0.14,3.9
53,22,1,2,7,43,343,501.955179528828,502.5198835160845,"[56, 0, 198]",198,a,0.042537739311228506,0,colour,0.14,3.9
53,22,1,2,7,44,344,503.03343083649816,503.69586103220354,"[69, 0, 185]",185,a,0.14018005854450166,0,colour,0.14,3.9
53,22,1,2,7,45,345,504.2054352333944,504.8638722237374,"[66, 0, 188]",188,a,0.136659862313536,0,colour,0.14,3.9
53,22,1,2,7,46,346,505.3773419564677,506.0638538705098,"[23, 0, 231]",231,a,0.16489074907440227,1,colour,0.14,3.9
53,22,1,2,7,47,347,506.5805425072176,507.3198876908573,"[96, 0, 158]",158,l,0.21703124341729563,1,colour,0.14,3.9
53,22,1,2,7,48,348,507.8307643410226,508.43991031337646,"[54, 0, 200]",200,a,0.08694664134236518,0,colour,0.14,3.9
53,22,1,2,7,49,349,508.9557986548607,509.7038683167775,"[62, 0, 192]",192,a,0.22599281702423468,0,colour,0.14,3.9
53,22,1,2,7,50,350,510.22150415330543,510.82390787468466,"[89, 0, 165]",165,l,0.08035168879723642,1,colour,0.14,3.9
53,22,1,2,8,1,351,527.8823656601016,528.6478693124227,"[64, 0, 190]",190,l,0.24244967532285955,1,colour,0.06,3.9
53,22,1,2,8,2,352,529.1646272660437,529.8798560728901,"[89, 0, 165]",165,l,0.19304247274703812,1,colour,0.06,3.9
53,22,1,2,8,3,353,530.3989932506665,531.2558912480745,"[65, 0, 189]",189,l,0.3346431341051357,1,colour,0.06,3.9
53,22,1,2,8,4,354,531.7741320321802,532.4958951392764,"[67, 0, 187]",187,l,0.19959292068961076,1,colour,0.06,3.9
53,22,1,2,8,5,355,533.0085653644783,533.7598980411276,"[61, 0, 193]",193,l,0.22907229949487373,1,colour,0.06,3.9
53,22,1,2,8,6,356,534.2742232075398,535.1758948084462,"[73, 0, 181]",181,l,0.3793170945282327,1,colour,0.06,3.9
53,22,1,2,8,7,357,535.6963375859632,536.4798793885857,"[53, 0, 201]",201,a,0.26136058852716815,0,colour,0.06,3.9
53,22,1,2,8,8,358,536.993270745952,537.703897461397,"[51, 0, 203]",203,a,0.188477796735242,0,colour,0.06,3.9
53,22,1,2,8,9,359,538.2121310105431,538.9678542832553,"[86, 0, 168]",168,l,0.23347195402311627,1,colour,0.06,3.9
53,22,1,2,8,10,360,539.4778215428378,540.2158524621191,"[94, 0, 160]",160,l,0.21568547138303984,1,colour,0.06,3.9
53,22,1,2,8,11,361,540.7279063182068,541.49590537927,"[54, 0, 200]",200,a,0.24569299776339903,0,colour,0.06,3.9
53,22,1,2,8,12,362,542.0093959858496,542.7598625949904,"[97, 0, 157]",157,l,0.22827988120843656,1,colour,0.06,3.9
53,22,1,2,8,13,363,543.2749656074011,544.0478534798167,"[77, 0, 177]",177,l,0.25042545222095214,1,colour,0.06,3.9
53,22,1,2,8,14,364,544.5562748935336,545.3998939766461,"[70, 0, 184]",184,l,0.32133034903381485,1,colour,0.06,3.9
53,22,1,2,8,15,365,545.915891019642,546.6078624279908,"[84, 0, 170]",170,l,0.16979492040991317,1,colour,0.06,3.9
53,22,1,2,8,16,366,547.1189986227255,547.8078602224559,"[75, 0, 179]",179,l,0.16652678565878887,1,colour,0.06,3.9
53,22,1,2,8,17,367,548.3224898318877,549.0158905076532,"[85, 0, 169]",169,l,0.1714730985404458,1,colour,0.06,3.9
53,22,1,2,8,18,368,549.52311935545,550.1998965760286,"[66, 0, 188]",188,a,0.1535590097628301,0,colour,0.06,3.9
53,22,1,2,8,19,369,550.7117554783035,551.4718693470786,"[74, 0, 180]",180,l,0.23787554699811153,1,colour,0.06,3.9
53,22,1,2,8,20,370,551.9773991429247,552.6238927509985,"[87, 0, 167]",167,l,0.1240678155736532,1,colour,0.06,3.9
53,22,1,2,8,21,371,553.1339970690024,553.7758724379819,"[76, 0, 178]",178,l,0.11983475793385878,1,colour,0.06,3.9
53,22,1,2,8,22,372,554.2902109951683,554.9598485740717,"[79, 0, 175]",175,l,0.14738232175295707,1,colour,0.06,3.9
53,22,1,2,8,23,373,555.4778120905248,556.1838863391749,"[83, 0, 171]",171,l,0.18383238225942478,1,colour,0.06,3.9
53,22,1,2,8,24,374,556.6966502997384,557.3438634646009,"[40, 0, 214]",214,a,0.1250595199962845,1,colour,0.06,3.9
53,22,1,2,8,25,375,557.852970564345,558.4238992888422,"[62, 0, 192]",192,a,0.04863329503859859,0,colour,0.06,3.9
53,22,1,2,8,26,376,558.9312265981716,559.5838901988755,"[58, 0, 196]",196,a,0.1304855373891769,0,colour,0.06,3.9
53,22,1,2,8,27,377,560.1030986627738,560.7998875963385,"[59, 0, 195]",195,a,0.17462741176132113,0,colour,0.06,3.9
53,22,1,2,8,28,378,561.3061491581757,561.911860005057,"[57, 0, 197]",197,a,0.08346819279540796,0,colour,0.06,3.9
53,22,1,2,8,29,379,562.4314768873446,563.143877091672,"[78, 0, 176]",176,l,0.19024222715233918,1,colour,0.06,3.9
53,22,1,2,8,30,380,563.6505998472712,564.3919091412972,"[72, 0, 182]",182,l,0.21932224604825024,1,colour,0.06,3.9
53,22,1,2,8,31,381,564.9003864811675,565.7278791428253,"[63, 0, 191]",191,a,0.3052830906526651,0,colour,0.06,3.9
53,22,1,2,8,32,382,566.2442204073013,566.9198905265512,"[50, 0, 204]",204,a,0.1534239205502672,1,colour,0.06,3.9
53,22,1,2,8,33,383,567.4318853057339,568.0958436242072,"[81, 0, 173]",173,l,0.1418570551322773,1,colour,0.06,3.9
53,22,1,2,8,34,384,568.6037869088032,569.2878380725597,"[96, 0, 158]",158,l,0.1617261958454037,1,colour,0.06,3.9
53,22,1,2,8,35,385,569.8070087272354,570.4638943578902,"[69, 0, 185]",185,a,0.13451694582181517,0,colour,0.06,3.9
53,22,1,2,8,36,386,570.9790418749035,571.6478874293389,"[92, 0, 162]",162,l,0.14651192190649454,1,colour,0.06,3.9
53,22,1,2,8,37,387,572.1665775918227,572.9598560571467,"[95, 0, 159]",159,l,0.2709826420323225,1,colour,0.06,3.9
53,22,1,2,8,38,388,573.4792047302617,574.1278581902152,"[52, 0, 202]",202,a,0.12643916279193945,0,colour,0.06,3.9
53,22,1,2,8,39,389,574.6355415363942,575.3438874892163,"[80, 0, 174]",174,l,0.18605406797723845,1,colour,0.06,3.9
53,22,1,2,8,40,390,575.8544132225215,576.5518496390287,"[36, 0, 218]",218,a,0.17528355933609419,1,colour,0.06,3.9
53,22,1,2,8,41,391,577.0575905363512,577.7278570874478,"[99, 0, 155]",155,l,0.14793685702898074,1,colour,0.06,3.9
53,22,1,2,8,42,392,578.2451597301842,578.8958426789759,"[56, 0, 198]",198,a,0.12847062085347716,0,colour,0.06,3.9
53,22,1,2,8,43,393,579.40214047466,580.1118436210527,"[60, 0, 194]",194,a,0.18804771681607235,0,colour,0.06,3.9
53,22,1,2,8,44,394,580.6204150901467,581.3518778384023,"[14, 0, 240]",240,a,0.20926853724813554,1,colour,0.06,3.9
53,22,1,2,8,45,395,581.8704041609162,582.4638971148088,"[98, 0, 156]",156,l,0.07219868116953876,1,colour,0.06,3.9
53,22,1,2,8,46,396,582.9797634009155,583.6798602476629,"[68, 0, 186]",186,a,0.17762536810187157,0,colour,0.06,3.9
53,22,1,2,8,47,397,584.1986803793407,584.9678412863432,"[91, 0, 163]",163,l,0.24679497910256032,1,colour,0.06,3.9
53,22,1,2,8,48,398,585.4801223916147,586.2558573773131,"[82, 0, 172]",172,l,0.2535128116142005,1,colour,0.06,3.9
53,22,1,2,8,49,399,586.7614974500466,587.3918559720769,"[90, 0, 164]",164,l,0.1088350308855297,1,colour,0.06,3.9
53,22,1,2,8,50,400,587.9023206592392,588.4798904162744,"[93, 0, 161]",161,l,0.0554641613853164,1,colour,0.06,3.9
53,22,1,2,9,1,401,600.7461843207566,601.7439015888958,"[54, 0, 200]",200,a,0.4752233402541606,0,colour,0.06,3.8
53,22,1,2,9,2,402,602.2627169944317,603.175869208455,"[80, 0, 174]",174,a,0.39149205829016864,0,colour,0.06,3.8
53,22,1,2,9,3,403,603.6847069174837,604.3198790262395,"[53, 0, 201]",201,a,0.11343948534340598,0,colour,0.06,3.8
53,22,1,2,9,4,404,604.8254320589913,605.5918888188316,"[68, 0, 186]",186,a,0.24473358872637618,0,colour,0.06,3.8
53,22,1,2,9,5,405,606.1067622189876,606.783880510251,"[95, 0, 159]",159,l,0.1553679447824834,1,colour,0.06,3.8
53,22,1,2,9,6,406,607.2943341697392,608.0558950289997,"[84, 0, 170]",170,l,0.23975143585994374,1,colour,0.06,3.8
53,22,1,2,9,7,407,608.5757612158632,609.2798622956616,"[96, 0, 158]",158,l,0.1823995702288812,1,colour,0.06,3.8
53,22,1,2,9,8,408,609.7946128158364,610.4318774288113,"[73, 0, 181]",181,a,0.11562375570065342,0,colour,0.06,3.8
53,22,1,2,9,9,409,610.9509886127344,611.6798645799718,"[88, 0, 166]",166,l,0.2066986916033784,1,colour,0.06,3.8
53,22,1,2,9,10,410,612.1853861050331,612.8398641546228,"[92, 0, 162]",162,l,0.1327198261715239,1,colour,0.06,3.8
53,22,1,2,9,11,411,613.3573393019469,614.095945630339,"[66, 0, 188]",188,a,0.21625615433731582,0,colour,0.06,3.8
53,22,1,2,9,12,412,614.6074993019138,615.6399069262989,"[99, 0, 155]",155,l,0.5101417333789868,1,colour,0.06,3.8
53,22,1,2,9,13,413,616.154435711127,616.8318962546473,"[15, 0, 239]",239,a,0.1552501848054817,1,colour,0.06,3.8
53,22,1,2,9,14,414,617.34209548957,618.03985997985,"[79, 0, 175]",175,a,0.17604840840795077,0,colour,0.06,3.8
53,22,1,2,9,15,415,618.5452566557069,619.295906009429,"[77, 0, 177]",177,l,0.2284968903841218,1,colour,0.06,3.8
53,22,1,2,9,16,416,619.8109408864693,620.4958821423497,"[94, 0, 160]",160,l,0.16253712491015904,1,colour,0.06,3.8
53,22,1,2,9,17,417,621.0142217818211,621.5998649895773,"[56, 0, 198]",198,a,0.06337298445578199,0,colour,0.06,3.8
53,22,1,2,9,18,418,622.1081166556396,622.807890154756,"[76, 0, 178]",178,a,0.17801212494669016,0,colour,0.06,3.8
53,22,1,2,9,19,419,623.3269737694645,624.0238962168369,"[89, 0, 165]",165,l,0.1747298117406899,1,colour,0.06,3.8
53,22,1,2,9,20,420,624.5301719571435,625.2718932141579,"[97, 0, 157]",157,l,0.2194711198535515,1,colour,0.06,3.8
53,22,1,2,9,21,421,625.7802173478995,626.5198559468699,"[75, 0, 179]",179,a,0.21737979719182476,0,colour,0.06,3.8
53,22,1,2,9,22,422,627.0302934586507,627.7598558996106,"[93, 0, 161]",161,l,0.20731584841269068,1,colour,0.06,3.8
53,22,1,2,9,23,423,628.2648784216872,628.8878334251785,"[55, 0, 199]",199,a,0.10076945708715357,0,colour,0.06,3.8
53,22,1,2,9,24,424,629.4055196739937,630.1358682317077,"[59, 0, 195]",195,a,0.20857733738375828,0,colour,0.06,3.8
53,22,1,2,9,25,425,630.6556544678169,631.4718606824754,"[71, 0, 183]",183,a,0.2942947851261124,0,colour,0.06,3.8
53,22,1,2,9,26,426,631.9839314739365,632.7438870165934,"[61, 0, 193]",193,a,0.23776015010662377,0,colour,0.06,3.8
53,22,1,2,9,27,427,633.2507708552439,633.9918792877579,"[13, 0, 241]",241,a,0.21882954459579196,1,colour,0.06,3.8
53,22,1,2,9,28,428,634.5009584244399,635.1838729484152,"[83, 0, 171]",171,l,0.16069825759041123,1,colour,0.06,3.8
53,22,1,2,9,29,429,635.7041321936558,636.4078709350724,"[85, 0, 169]",169,l,0.18154610578494612,1,colour,0.06,3.8
53,22,1,2,9,30,430,636.9230066367018,637.6078580956964,"[51, 0, 203]",203,a,0.16281478641030844,0,colour,0.06,3.8
53,22,1,2,9,31,431,638.1262323936098,638.7758803149045,"[50, 0, 204]",204,a,0.12742141490161885,1,colour,0.06,3.8
53,22,1,2,9,32,432,639.2825282397534,640.3438410153758,"[78, 0, 176]",176,a,0.5390874507720582,0,colour,0.06,3.8
53,22,1,2,9,33,433,640.8607825012732,641.6078789695312,"[72, 0, 182]",182,a,0.22478292188316118,0,colour,0.06,3.8
53,22,1,2,9,34,434,642.1265301412495,643.0398714013863,"[82, 0, 172]",172,l,0.39105882760486566,1,colour,0.06,3.8
53,22,1,2,9,35,435,643.5485397566081,644.175857393071,"[36, 0, 218]",218,a,0.10512736391683575,1,colour,0.06,3.8
53,22,1,2,9,36,436,644.689215273509,645.3758390398434,"[86, 0, 168]",168,l,0.16458118605078198,1,colour,0.06,3.8
53,22,1,2,9,37,437,645.892408735046,646.5198768207047,"[91, 0, 163]",163,l,0.1050950685312273,1,colour,0.06,3.8
53,22,1,2,9,38,438,647.0331082765624,647.6878439014836,"[65, 0, 189]",189,a,0.13244964777550194,0,colour,0.06,3.8
53,22,1,2,9,39,439,648.2051051903836,648.8878416959342,"[52, 0, 202]",202,a,0.1606116114417091,0,colour,0.06,3.8
53,22,1,2,9,40,440,649.3926692642126,650.0718788781669,"[70, 0, 184]",184,l,0.15691457834327593,1,colour,0.06,3.8
53,22,1,2,9,41,441,650.5804227780172,651.5358992667898,"[81, 0, 173]",173,l,0.43334411158866715,1,colour,0.06,3.8
53,22,1,2,9,42,442,652.0491917687759,652.6078561264585,"[74, 0, 180]",180,a,0.03642327898705844,0,colour,0.06,3.8
53,22,1,2,9,43,443,653.1273930579919,653.7438665366062,"[69, 0, 185]",185,a,0.09408628301753197,0,colour,0.06,3.8
53,22,1,2,9,44,444,654.2524754210608,654.8958206235984,"[58, 0, 196]",196,a,0.12099424078769516,0,colour,0.06,3.8
53,22,1,2,9,45,445,655.4089500733244,655.9918792877579,"[62, 0, 192]",192,a,0.060642449592705816,0,colour,0.06,3.8
53,22,1,2,9,46,446,656.5028287994501,657.1358469640254,"[67, 0, 187]",187,a,0.11083183049049694,0,colour,0.06,3.8
53,22,1,2,9,47,447,657.643503922518,658.2398404450796,"[63, 0, 191]",191,a,0.07411671154841315,0,colour,0.06,3.8
53,22,1,2,9,48,448,658.7436790658685,659.3198628785613,"[60, 0, 194]",194,a,0.05385569401551038,0,colour,0.06,3.8
53,22,1,2,9,49,449,659.8375731519918,660.6398383970809,"[64, 0, 190]",190,a,0.28005646176461596,0,colour,0.06,3.8
53,22,1,2,9,50,450,661.1500919827522,661.7598338442185,"[98, 0, 156]",156,l,0.08736687510099728,1,colour,0.06,3.8
53,22,1,2,10,1,451,682.682313908721,684.0398666752299,"[68, 0, 186]",186,a,0.8345566848875023,0,colour,0.06,3.8
53,22,1,2,10,2,452,684.5583591269824,685.743826364298,"[71, 0, 183]",183,l,0.6632627863145899,1,colour,0.06,3.8
53,22,1,2,10,3,453,686.2614917392784,687.0558686413133,"[98, 0, 156]",156,l,0.27208344179962296,1,colour,0.06,3.8
53,22,1,2,10,4,454,687.574129117711,688.4079075627524,"[88, 0, 166]",166,l,0.3114995571086183,1,colour,0.06,3.8
53,22,1,2,10,5,455,688.9179075115535,689.6558927446895,"[57, 0, 197]",197,a,0.21491589614015538,0,colour,0.06,3.8
53,22,1,2,10,6,456,690.1688244836841,690.9198464157962,"[70, 0, 184]",184,a,0.22892657647025771,0,colour,0.06,3.8
53,22,1,2,10,7,457,691.4345540067443,692.1758436084492,"[75, 0, 179]",179,a,0.21900756302056834,0,colour,0.06,3.8
53,22,1,2,10,8,458,692.6846226344205,693.3678289983363,"[99, 0, 155]",155,l,0.16098103906551842,1,colour,0.06,3.8
53,22,1,2,10,9,459,693.8878483913286,694.6478177185927,"[74, 0, 180]",180,a,0.23778614394541364,0,colour,0.06,3.8
53,22,1,2,10,10,460,695.1535826405307,695.911840706598,"[93, 0, 161]",161,l,0.23605558428971563,1,colour,0.06,3.8
53,22,1,2,10,11,461,696.4192605697463,697.1838465607289,"[69, 0, 185]",185,a,0.2422448753786739,0,colour,0.06,3.8
53,22,1,2,10,12,462,697.7006399605016,698.487829565478,"[59, 0, 195]",195,a,0.2649823970423313,0,colour,0.06,3.8
53,22,1,2,10,13,463,698.9975892681687,699.6398714801617,"[79, 0, 175]",175,l,0.1200151394441491,1,colour,0.06,3.8
53,22,1,2,10,14,464,700.154013508145,700.7998458486545,"[91, 0, 163]",163,l,0.12356644951796625,1,colour,0.06,3.8
53,22,1,2,10,15,465,701.3103589788952,701.983818440116,"[10, 0, 244]",244,a,0.1512833671295084,1,colour,0.06,3.8
53,22,1,2,10,16,466,702.4979214773339,703.1918554206932,"[65, 0, 189]",189,a,0.17030888954468537,0,colour,0.06,3.8
53,22,1,2,10,17,467,703.7024638616713,704.3838620782626,"[80, 0, 174]",174,l,0.159140596355428,1,colour,0.06,3.8
53,22,1,2,10,18,468,704.8851970195392,705.6238620310032,"[82, 0, 172]",172,l,0.21647355737513863,1,colour,0.06,3.8
53,22,1,2,10,19,469,706.1353558379633,706.8078531332285,"[51, 0, 203]",203,a,0.15034483192721382,0,colour,0.06,3.8
53,22,1,2,10,20,470,707.3228738318139,708.0238521060819,"[76, 0, 178]",178,l,0.1788935524673434,1,colour,0.06,3.8
53,22,1,2,10,21,471,708.5417431548703,709.1518406593386,"[64, 0, 190]",190,a,0.08795094882952981,0,colour,0.06,3.8
53,22,1,2,10,22,472,709.6668578132958,710.4238217011589,"[62, 0, 192]",192,a,0.23471847685868852,0,colour,0.06,3.8
53,22,1,2,10,23,473,710.9325574040558,711.6398135847849,"[18, 0, 236]",236,a,0.18568936650990508,1,colour,0.06,3.8
53,22,1,2,10,24,474,712.153650775901,712.7358671289403,"[33, 0, 221]",221,a,0.05997645587194711,1,colour,0.06,3.8
53,22,1,2,10,25,475,713.2475566774083,713.9838404954935,"[60, 0, 194]",194,a,0.21413253628998064,0,colour,0.06,3.8
53,22,1,2,10,26,476,714.4975327512657,715.1518583824072,"[90, 0, 164]",164,l,0.13201720477081835,1,colour,0.06,3.8
53,22,1,2,10,27,477,715.6695143050893,716.2718573741586,"[86, 0, 168]",168,l,0.08006851345999166,1,colour,0.06,3.8
53,22,1,2,10,28,478,716.779022812756,717.471859107085,"[78, 0, 176]",176,l,0.1706247540860204,1,colour,0.06,3.8
53,22,1,2,10,29,479,717.9823178865627,718.6638311062125,"[83, 0, 171]",171,l,0.1592890763276955,1,colour,0.06,3.8
53,22,1,2,10,30,480,719.169770895809,719.9278426726814,"[96, 0, 158]",158,l,0.23585117817856371,1,colour,0.06,3.8
53,22,1,2,10,31,481,720.4355208988563,721.111827867222,"[50, 0, 204]",204,a,0.15405171121528838,1,colour,0.06,3.8
53,22,1,2,10,32,482,721.6231531080557,722.3438378646097,"[53, 0, 201]",201,a,0.19883752393070608,0,colour,0.06,3.8
53,22,1,2,10,33,483,722.8577089264872,723.5358492483356,"[81, 0, 173]",173,l,0.15577596932416782,1,colour,0.06,3.8
53,22,1,2,10,34,484,724.0453072649252,724.839838160784,"[67, 0, 187]",187,a,0.27233904792228714,0,colour,0.06,3.8
53,22,1,2,10,35,485,725.3578879295237,726.0878217673308,"[55, 0, 199]",199,a,0.20766006987832952,0,colour,0.06,3.8
53,22,1,2,10,36,486,726.6080821941141,727.4318723088072,"[77, 0, 177]",177,l,0.301538008308853,1,colour,0.06,3.8
53,22,1,2,10,37,487,727.9518527110195,728.6478224447492,"[95, 0, 159]",159,l,0.174387953360565,1,colour,0.06,3.8
53,22,1,2,10,38,488,729.1551288802293,729.8158320608927,"[94, 0, 160]",160,l,0.13860585578368045,1,colour,0.06,3.8
53,22,1,2,10,39,489,730.3271612402023,731.2398365066183,"[72, 0, 182]",182,a,0.39040583081077784,0,colour,0.06,3.8
53,22,1,2,10,40,490,731.7490424617281,732.5038713100075,"[54, 0, 200]",200,a,0.2325873757363297,0,colour,0.06,3.8
53,22,1,2,10,41,491,733.0148499663192,733.6958244045236,"[56, 0, 198]",198,a,0.1588207933382364,0,colour,0.06,3.8
53,22,1,2,10,42,492,734.2022159355693,735.0238072076318,"[61, 0, 193]",193,a,0.2991769010841381,0,colour,0.06,3.8
53,22,1,2,10,43,493,735.5305957355158,736.2638339418918,"[92, 0, 162]",162,l,0.21097152767470106,1,colour,0.06,3.8
53,22,1,2,10,44,494,736.7806844493462,737.5198815468611,"[89, 0, 165]",165,l,0.21703006187453866,1,colour,0.06,3.8
53,22,1,2,10,45,495,738.030817667779,738.7438366042916,"[66, 0, 188]",188,a,0.19078415934927762,0,colour,0.06,3.8
53,22,1,2,10,46,496,739.2496523323789,739.8878527236229,"[52, 0, 202]",202,a,0.11588093717000447,0,colour,0.06,3.8
53,22,1,2,10,47,497,740.4059745662089,741.0558261059341,"[87, 0, 167]",167,l,0.1276908056170214,1,colour,0.06,3.8
53,22,1,2,10,48,498,741.5623491815786,742.2238432051527,"[97, 0, 157]",157,l,0.13917299412423745,1,colour,0.06,3.8
53,22,1,2,10,49,499,742.7347651476157,743.4478443425905,"[58, 0, 196]",196,a,0.19087907626817469,0,colour,0.06,3.8
53,22,1,2,10,50,500,743.9535584583791,744.5358358575613,"[63, 0, 191]",191,a,0.060109181998996064,0,colour,0.06,3.8
53,22,1,2,11,1,501,751.2501576368959,752.1278381040611,"[68, 0, 186]",186,a,0.3545737147942418,0,colour,0.06,3.7
53,22,1,2,11,2,502,752.6417245259508,753.3278571662086,"[51, 0, 203]",203,a,0.16397190616407897,0,colour,0.06,3.7
53,22,1,2,11,3,503,753.8449538274581,754.4478289825929,"[97, 0, 157]",157,l,0.08079988563258667,1,colour,0.06,3.7
53,22,1,2,11,4,504,754.9544883289636,755.6558498154773,"[76, 0, 178]",178,a,0.1792527400975814,0,colour,0.06,3.7
53,22,1,2,11,5,505,756.1733233874111,756.8238460408465,"[62, 0, 192]",192,a,0.12835404241923243,0,colour,0.06,3.7
53,22,1,2,11,6,506,757.3296141135652,757.9678385294101,"[83, 0, 171]",171,l,0.11606171252788045,1,colour,0.06,3.7
53,22,1,2,11,7,507,758.4859895166155,759.1918329714681,"[94, 0, 160]",160,l,0.18362128076842055,1,colour,0.06,3.7
53,22,1,2,11,8,508,759.7048233935202,760.4398079133971,"[52, 0, 202]",202,a,0.2129238226916641,0,colour,0.06,3.7
53,22,1,2,11,9,509,760.9548376704333,761.63985100016,"[95, 0, 159]",159,l,0.16291246023320127,1,colour,0.06,3.7
53,22,1,2,11,10,510,762.1549831571756,762.8318210300495,"[98, 0, 156]",156,l,0.1545877357129939,1,colour,0.06,3.7
53,22,1,2,11,11,511,763.3426496309985,763.9918343893078,"[81, 0, 173]",173,l,0.1269424980855547,1,colour,0.06,3.7
53,22,1,2,11,12,512,764.4989750155946,765.4879611100769,"[70, 0, 184]",184,a,0.46696281267213635,0,colour,0.06,3.7
53,22,1,2,11,13,513,765.9990472863428,766.6558399693167,"[91, 0, 163]",163,l,0.13356423216464464,1,colour,0.06,3.7
53,22,1,2,11,14,514,767.1721182184265,767.8158505716565,"[72, 0, 182]",182,a,0.1340612659114413,0,colour,0.06,3.7
53,22,1,2,11,15,515,768.3314427408914,769.1198071887193,"[78, 0, 176]",176,l,0.2661466060526436,1,colour,0.06,3.7
53,22,1,2,11,16,516,769.6284440362506,770.2958422063675,"[84, 0, 170]",170,l,0.1452078975562472,1,colour,0.06,3.7
53,22,1,2,11,17,517,770.816066399304,772.7518466457987,"[74, 0, 180]",180,l,1.4136258139333222,1,colour,0.06,3.7
53,22,1,2,11,18,518,773.2694178915699,773.9918131216255,"[66, 0, 188]",188,a,0.20016754213429522,0,colour,0.06,3.7
53,22,1,2,11,19,519,774.5038287746429,775.135830422485,"[93, 0, 161]",161,l,0.10990392912935931,1,colour,0.06,3.7
53,22,1,2,11,20,520,775.649649496685,776.3198116785643,"[69, 0, 185]",185,a,0.14793410009588115,0,colour,0.06,3.7
53,22,1,2,11,21,521,776.8372990351199,778.4078575443127,"[80, 0, 174]",174,a,1.0483977750991471,0,colour,0.06,3.7
53,22,1,2,11,22,522,778.9155322258739,779.7358356212644,"[50, 0, 204]",204,a,0.29812178744759876,1,colour,0.06,3.7
53,22,1,2,11,23,523,780.2438037181564,780.8480104668561,"[60, 0, 194]",194,a,0.08186878387641627,0,colour,0.06,3.7
53,22,1,2,11,24,524,781.353075918174,781.9758556601446,"[85, 0, 169]",169,l,0.1003996356157586,1,colour,0.06,3.7
53,22,1,2,11,25,525,782.4938944012101,783.2478237050527,"[53, 0, 201]",201,a,0.23155313594907057,0,colour,0.06,3.7
53,22,1,2,11,26,526,783.7596991488681,785.3358305800211,"[75, 0, 179]",179,a,1.0538801124639576,0,colour,0.06,3.7
53,22,1,2,11,27,527,785.8535636965389,786.5278285729873,"[8, 0, 246]",246,a,0.15204782236833125,1,colour,0.06,3.7
53,22,1,2,11,28,528,787.0411762134318,787.7038419290911,"[55, 0, 199]",199,a,0.14104179375863168,0,colour,0.06,3.7
53,22,1,2,11,29,529,788.2132069980144,788.8638470175938,"[58, 0, 196]",196,a,0.12847022702044342,0,colour,0.06,3.7
53,22,1,2,11,30,530,789.3694886657031,791.0078139061661,"[65, 0, 189]",189,a,1.1160676202271134,0,colour,0.06,3.7
53,22,1,2,11,31,531,791.5258873056737,792.1998205637356,"[96, 0, 158]",158,l,0.15160868399834726,1,colour,0.06,3.7
53,22,1,2,11,32,532,792.7134702841286,793.6158649864228,"[77, 0, 177]",177,l,0.3801166020712117,1,colour,0.06,3.7
53,22,1,2,11,33,533,794.1356283794594,794.847826146899,"[59, 0, 195]",195,a,0.1900512118008919,0,colour,0.06,3.7
53,22,1,2,11,34,534,795.3543259856233,796.0078213892411,"[90, 0, 164]",164,l,0.13130394952895585,1,colour,0.06,3.7
53,22,1,2,11,35,535,796.5262823332887,797.1758455776871,"[61, 0, 193]",193,a,0.12731468262791168,0,colour,0.06,3.7
53,22,1,2,11,36,536,797.6826250471204,798.4078465166094,"[99, 0, 155]",155,l,0.20294888310309034,1,colour,0.06,3.7
53,22,1,2,11,37,537,798.9171186378662,799.8078275332373,"[63, 0, 191]",191,a,0.36832327516458463,0,colour,0.06,3.7
53,22,1,2,11,38,538,800.3236264716688,801.0078135123185,"[79, 0, 175]",175,l,0.16197077426477335,1,colour,0.06,3.7
53,22,1,2,11,39,539,801.5268573485664,802.2718443772465,"[67, 0, 187]",187,a,0.22279636228631716,0,colour,0.06,3.7
53,22,1,2,11,40,540,802.7768944685522,803.5758411666175,"[56, 0, 198]",198,a,0.27667253628897015,0,colour,0.06,3.7
53,22,1,2,11,41,541,804.0880332626693,804.815811580891,"[82, 0, 172]",172,l,0.20559907336428296,1,colour,0.06,3.7
53,22,1,2,11,42,542,805.3225047980377,806.4638065302133,"[92, 0, 162]",162,l,0.6192272503685672,1,colour,0.06,3.7
53,22,1,2,11,43,543,806.9803864654095,807.5757942989294,"[89, 0, 165]",165,l,0.07316833021468483,1,colour,0.06,3.7
53,22,1,2,11,44,544,808.0898036007857,808.6958523675858,"[39, 0, 215]",215,a,0.08400185422215145,1,colour,0.06,3.7
53,22,1,2,11,45,545,809.2148969915288,810.4238134303887,"[71, 0, 183]",183,a,0.6866072247794364,0,colour,0.06,3.7
53,22,1,2,11,46,546,810.9337869915034,811.6398254001688,"[57, 0, 197]",197,a,0.18381662842875812,0,colour,0.06,3.7
53,22,1,2,11,47,547,812.1526196868799,812.8958513435937,"[64, 0, 190]",190,a,0.22098467033356428,0,colour,0.06,3.7
53,22,1,2,11,48,548,813.4026902837795,814.3278189631383,"[23, 0, 231]",231,a,0.402804892975837,1,colour,0.06,3.7
53,22,1,2,11,49,549,814.8404013606632,815.543824237524,"[73, 0, 181]",181,l,0.18128774275828619,1,colour,0.06,3.7
53,22,1,2,11,50,550,816.0591950652743,816.967825532498,"[86, 0, 168]",168,l,0.38635276084824,1,colour,0.06,3.7
53,22,1,2,12,1,551,822.5152373139281,823.631809450977,"[60, 0, 194]",194,a,0.5934894092788454,0,colour,0.06,3.7
53,22,1,2,12,2,552,824.1411607352929,824.879816294444,"[58, 0, 196]",196,a,0.2163947881635977,0,colour,0.06,3.7
53,22,1,2,12,3,553,825.3912923783355,825.9438221895252,"[99, 0, 155]",155,l,0.030321815560455434,1,colour,0.06,3.7
53,22,1,2,12,4,554,826.4538591598684,827.0718111366295,"[90, 0, 164]",164,l,0.09575028267863672,1,colour,0.06,3.7
53,22,1,2,12,5,555,827.578944673689,828.2398333558522,"[77, 0, 177]",177,a,0.13867556652985513,0,colour,0.06,3.7
53,22,1,2,12,6,556,828.7509163813666,829.4558260271733,"[56, 0, 198]",198,a,0.18268274556612596,0,colour,0.06,3.7
53,22,1,2,12,7,557,829.9698341474868,830.6078655787715,"[61, 0, 193]",193,a,0.11592110949277412,0,colour,0.06,3.7
53,22,1,2,12,8,558,831.126122904403,831.8798233836715,"[67, 0, 187]",187,a,0.2314015051961178,0,colour,0.06,3.7
53,22,1,2,12,9,559,832.3918039843848,833.151825299341,"[71, 0, 183]",183,a,0.23775621164531913,0,colour,0.06,3.7
53,22,1,2,12,10,560,833.6575433535909,834.3998601058847,"[69, 0, 185]",185,a,0.22003471359494142,0,colour,0.06,3.7
53,22,1,2,12,11,561,834.9076560920366,835.5998035495868,"[88, 0, 166]",166,l,0.1689749328797916,1,colour,0.06,3.7
53,22,1,2,12,12,562,836.1117254672426,836.8318348146568,"[53, 0, 201]",201,a,0.1979041087179212,0,colour,0.06,3.7
53,22,1,2,12,13,563,837.3462304795248,838.0158042553521,"[79, 0, 175]",175,l,0.14753789093811065,1,colour,0.06,3.7
53,22,1,2,12,14,564,838.5337961287296,839.2478075573599,"[78, 0, 176]",176,l,0.191821549917222,1,colour,0.06,3.7
53,22,1,2,12,15,565,839.7527552487009,840.4638289794384,"[72, 0, 182]",182,a,0.1889831012522336,0,colour,0.06,3.7
53,22,1,2,12,16,566,840.971579279445,841.6878064860939,"[75, 0, 179]",179,l,0.19416690329671837,1,colour,0.06,3.7
53,22,1,2,12,17,567,842.205975196368,843.0398611613928,"[76, 0, 178]",178,l,0.31231245542585384,1,colour,0.06,3.7
53,22,1,2,12,18,568,843.5497650117468,844.2718097187899,"[82, 0, 172]",172,l,0.1998374991089804,1,colour,0.06,3.7
53,22,1,2,12,19,569,844.7842979871057,845.3998215089669,"[92, 0, 162]",162,l,0.09324227087199688,1,colour,0.06,3.7
53,22,1,2,12,20,570,845.9093645963148,846.6718179107847,"[80, 0, 174]",174,l,0.24001255580515135,1,colour,0.06,3.7
53,22,1,2,12,21,571,847.1909097962634,847.855808619177,"[51, 0, 203]",203,a,0.14264238422038034,0,colour,0.06,3.7
53,22,1,2,12,22,572,848.3628263654828,849.127815654836,"[66, 0, 188]",188,a,0.24271512759150937,0,colour,0.06,3.7
53,22,1,2,12,23,573,849.6441372270056,850.2878026264079,"[87, 0, 167]",167,l,0.12143101608671714,1,colour,0.06,3.7
53,22,1,2,12,24,574,850.8013349806715,851.4958069177519,"[62, 0, 192]",192,a,0.1730748705303995,0,colour,0.06,3.7
53,22,1,2,12,25,575,852.0037450823438,852.7758094226156,"[55, 0, 199]",199,a,0.2497736369696213,0,colour,0.06,3.7
53,22,1,2,12,26,576,853.285062639261,854.0398446198524,"[3, 0, 251]",251,a,0.23249482190294657,1,colour,0.06,3.7
53,22,1,2,12,27,577,854.5508713253803,855.1278109286795,"[50, 0, 204]",204,a,0.0546993122989079,1,colour,0.06,3.7
53,22,1,2,12,28,578,855.6447492638108,856.3758043813868,"[74, 0, 180]",180,l,0.20886169424920809,1,colour,0.06,3.7
53,22,1,2,12,29,579,856.8947166730504,857.9758095801517,"[68, 0, 186]",186,a,0.5586875945882639,0,colour,0.06,3.7
53,22,1,2,12,30,580,858.4886416760855,859.2317906251265,"[54, 0, 200]",200,a,0.22093780264549423,0,colour,0.06,3.7
53,22,1,2,12,31,581,859.7387630791491,860.7918007548578,"[70, 0, 184]",184,a,0.5309962769824779,0,colour,0.06,3.7
53,22,1,2,12,32,582,861.3013017006742,862.2637933757505,"[30, 0, 224]",224,a,0.4401919133088086,1,colour,0.06,3.7
53,22,1,2,12,33,583,862.7702073560213,863.719836018252,"[59, 0, 195]",195,a,0.42737419276090804,0,colour,0.06,3.7
53,22,1,2,12,34,584,864.2391110421449,864.9438249464583,"[93, 0, 161]",161,l,0.18269141018390656,1,colour,0.06,3.7
53,22,1,2,12,35,585,865.4579594913666,866.0478089752141,"[84, 0, 170]",170,l,0.06821335272979923,1,colour,0.06,3.7
53,22,1,2,12,36,586,866.5674274328776,867.2718530418642,"[89, 0, 165]",165,l,0.18218610566691495,1,colour,0.06,3.7
53,22,1,2,12,37,587,867.7862286205636,868.4318179580441,"[98, 0, 156]",156,l,0.12332147725101095,1,colour,0.06,3.7
53,22,1,2,12,38,588,868.9425402205525,869.615816543359,"[96, 0, 158]",158,l,0.15093914566386957,1,colour,0.06,3.7
53,22,1,2,12,39,589,870.1302070882084,870.7598594442243,"[95, 0, 159]",159,l,0.10456928402709309,1,colour,0.06,3.7
53,22,1,2,12,40,590,871.273748623018,871.9598568448419,"[86, 0, 168]",168,l,0.1639407923357794,1,colour,0.06,3.7
53,22,1,2,12,41,591,872.4769972229988,873.2477851081348,"[52, 0, 202]",202,a,0.24859012951492332,0,colour,0.06,3.7
53,22,1,2,12,42,592,873.7582966629852,874.9438481833786,"[63, 0, 191]",191,a,0.6632537278637756,0,colour,0.06,3.7
53,22,1,2,12,43,593,875.4615856321907,876.1757782300119,"[91, 0, 163]",163,l,0.1919066206755815,1,colour,0.06,3.7
53,22,1,2,12,44,594,876.695981155266,877.4157919673598,"[81, 0, 173]",173,l,0.19747560418909416,1,colour,0.06,3.7
53,22,1,2,12,45,595,877.9304861675482,878.6078525818448,"[97, 0, 157]",157,l,0.15514581560273655,1,colour,0.06,3.7
53,22,1,2,12,46,596,879.1085620955564,879.8958277128258,"[64, 0, 190]",190,a,0.2648638493847102,0,colour,0.06,3.7
53,22,1,2,12,47,597,880.4055732370616,881.1358418440213,"[94, 0, 160]",160,l,0.208187823620392,1,colour,0.06,3.7
53,22,1,2,12,48,598,881.640076673968,882.3517927676585,"[73, 0, 181]",181,a,0.18981923647515941,0,colour,0.06,3.7
53,22,1,2,12,49,599,882.8588554124144,883.591824228075,"[0, 0, 254]",254,a,0.2106560569809517,1,colour,0.06,3.7
53,22,1,2,12,50,600,884.1090303785313,884.7678348272602,"[83, 0, 171]",171,l,0.14922827830014285,1,colour,0.06,3.7
53,22,1,2,13,1,601,895.2563563802978,896.2797780125984,"[94, 0, 160]",160,l,0.5003081845497945,1,colour,0.06,3.6
53,22,1,2,13,2,602,896.7886062693287,897.5118104592257,"[57, 0, 197]",197,a,0.20119744961266406,0,colour,0.06,3.6
53,22,1,2,13,3,603,898.0230155770114,898.7038194798661,"[62, 0, 192]",192,a,0.15875068872992415,0,colour,0.06,3.6
53,22,1,2,13,4,604,899.2107001677505,899.9678527078795,"[83, 0, 171]",171,l,0.2349575414264109,1,colour,0.06,3.6
53,22,1,2,13,5,605,900.4763536785031,901.1998260775727,"[84, 0, 170]",170,l,0.20120847728685476,1,colour,0.06,3.6
53,22,1,2,13,6,606,901.7107492015784,902.4478376471961,"[77, 0, 177]",177,a,0.21473236386373173,0,colour,0.06,3.6
53,22,1,2,13,7,607,902.9608635154,903.5758214743109,"[55, 0, 199]",199,a,0.09264362484100275,0,colour,0.06,3.6
53,22,1,2,13,8,608,904.0860211030667,904.7198466520931,"[89, 0, 165]",165,l,0.11163094417133834,1,colour,0.06,3.6
53,22,1,2,13,9,609,905.2267553030397,906.0798026673729,"[75, 0, 179]",179,l,0.3308523656160105,1,colour,0.06,3.6
53,22,1,2,13,10,610,906.5861768691975,907.1998217452783,"[97, 0, 157]",157,l,0.09135102201253176,1,colour,0.06,3.6
53,22,1,2,13,11,611,907.711507749118,908.3517959184246,"[70, 0, 184]",184,a,0.11822274595033377,0,colour,0.06,3.6
53,22,1,2,13,12,612,908.8677173429751,909.9758119432372,"[50, 0, 204]",204,a,0.58595355846046,1,colour,0.06,3.6
53,22,1,2,13,13,613,910.4927376752894,911.2157886590576,"[66, 0, 188]",188,a,0.20074452663538978,0,colour,0.06,3.6
53,22,1,2,13,14,614,911.7273395736993,912.3757988675352,"[61, 0, 193]",193,a,0.1270523811253952,0,colour,0.06,3.6
53,22,1,2,13,15,615,912.8835881583218,913.5358240421774,"[99, 0, 155]",155,l,0.12997353747778106,1,colour,0.06,3.6
53,22,1,2,13,16,616,914.0554460444691,914.6880506706657,"[63, 0, 191]",191,a,0.11045098133035935,0,colour,0.06,3.6
53,22,1,2,13,17,617,915.1870627077878,915.8238550993119,"[98, 0, 156]",156,l,0.11438826055382378,1,colour,0.06,3.6
53,22,1,2,13,18,618,916.3434822215931,917.055813109022,"[88, 0, 166]",166,l,0.19001458412094507,1,colour,0.06,3.6
53,22,1,2,13,19,619,917.5623995938658,918.1038032534125,"[85, 0, 169]",169,l,0.01919093776086811,1,colour,0.06,3.6
53,22,1,2,13,20,620,918.6092282861937,919.2798118833598,"[81, 0, 173]",173,l,0.1481475646723993,1,colour,0.06,3.6
53,22,1,2,13,21,621,919.7969325692247,921.039800902945,"[80, 0, 174]",174,l,0.7206875134725124,1,colour,0.06,3.6
53,22,1,2,13,22,622,921.5470423538209,923.5758108404552,"[67, 0, 187]",187,a,1.5065671863849275,0,colour,0.06,3.6
53,22,1,2,13,23,623,924.0940189353423,925.8397842038685,"[64, 0, 190]",190,a,1.2233768914011307,0,colour,0.06,3.6
53,22,1,2,13,24,624,926.3600127291138,927.0637684059038,"[91, 0, 163]",163,l,0.18147245656291489,1,colour,0.06,3.6
53,22,1,2,13,25,625,927.5787745321868,928.303810500176,"[86, 0, 168]",168,l,0.20279725236468948,1,colour,0.06,3.6
53,22,1,2,13,26,626,928.813242916789,929.8718200375588,"[53, 0, 201]",201,a,0.5363218636193778,0,colour,0.06,3.6
53,22,1,2,13,27,627,930.391508205983,931.2318048035959,"[82, 0, 172]",172,l,0.3180807250610087,1,colour,0.06,3.6
53,22,1,2,13,28,628,931.750955765965,932.543812028307,"[60, 0, 194]",194,a,0.27054704826150555,0,colour,0.06,3.6
53,22,1,2,13,29,629,933.0636085044098,933.799791891739,"[68, 0, 186]",186,a,0.21396318248298485,0,colour,0.06,3.6
53,22,1,2,13,30,630,934.3136987936159,935.0157900768972,"[74, 0, 180]",180,a,0.17987934919074178,0,colour,0.06,3.6
53,22,1,2,13,31,631,935.5326019874337,936.2078164267732,"[69, 0, 185]",185,a,0.152968634487479,0,colour,0.06,3.6
53,22,1,2,13,32,632,936.7201510951127,937.399807724345,"[71, 0, 183]",183,a,0.15743760591431055,0,colour,0.06,3.6
53,22,1,2,13,33,633,937.9077454951039,938.6318141771335,"[90, 0, 164]",164,l,0.20177837257506326,1,colour,0.06,3.6
53,22,1,2,13,34,634,939.14220167046,939.8558448530093,"[54, 0, 200]",200,a,0.1914072238432709,0,colour,0.06,3.6
53,22,1,2,13,35,635,940.3609685935371,941.0877886842645,"[87, 0, 167]",167,l,0.20439114744658582,1,colour,0.06,3.6
53,22,1,2,13,36,636,941.5955216550356,942.3758146213804,"[65, 0, 189]",189,a,0.258053463025135,0,colour,0.06,3.6
53,22,1,2,13,37,637,942.8924922304141,943.6558084616263,"[72, 0, 182]",182,a,0.2410089863842586,0,colour,0.06,3.6
53,22,1,2,13,38,638,944.1738535042387,944.8638474114268,"[51, 0, 203]",203,a,0.1678103300218936,0,colour,0.06,3.6
53,22,1,2,13,39,639,945.377078079604,946.1117845441477,"[92, 0, 162]",162,l,0.21315776725532487,1,colour,0.06,3.6
53,22,1,2,13,40,640,946.6271431626665,947.3837935490446,"[96, 0, 158]",158,l,0.2344100953778252,1,colour,0.06,3.6
53,22,1,2,13,41,641,947.8929305810889,948.4797813209152,"[42, 0, 212]",212,a,0.06461241804936435,1,colour,0.06,3.6
53,22,1,2,13,42,642,948.9868100949097,949.7198163259454,"[35, 0, 219]",219,a,0.21088409384537954,1,colour,0.06,3.6
53,22,1,2,13,43,643,950.2368090118398,950.9758076109283,"[56, 0, 198]",198,a,0.21663976041600108,0,colour,0.06,3.6
53,22,1,2,13,44,644,951.4868906364281,952.2078101252409,"[30, 0, 224]",224,a,0.1985984593629837,1,colour,0.06,3.6
53,22,1,2,13,45,645,952.7215843009908,953.4238138242363,"[78, 0, 176]",176,l,0.18031297372363042,1,colour,0.06,3.6
53,22,1,2,13,46,646,953.9402496117691,954.6398155540082,"[93, 0, 161]",161,l,0.17739693737530615,1,colour,0.06,3.6
53,22,1,2,13,47,647,955.1590775809891,955.7998001625092,"[73, 0, 181]",181,a,0.11840352129365783,0,colour,0.06,3.6
53,22,1,2,13,48,648,956.3154596794193,956.8637930606783,"[52, 0, 202]",202,a,0.026123416391783394,0,colour,0.06,3.6
53,22,1,2,13,49,649,957.3780091317167,958.1437746916927,"[59, 0, 195]",195,a,0.24391123812529258,0,colour,0.06,3.6
53,22,1,2,13,50,650,958.6593530763203,959.4797809270676,"[76, 0, 178]",178,l,0.29813832898798864,1,colour,0.06,3.6
53,22,1,2,14,1,651,966.0057765404053,967.7998029194277,"[71, 0, 183]",183,l,1.271208709673374,1,colour,0.06,3.5
53,22,1,2,14,2,652,968.3192480848375,969.063810941283,"[95, 0, 159]",159,l,0.2222623069974361,1,colour,0.06,3.5
53,22,1,2,14,3,653,969.5694120232656,970.1917817714711,"[64, 0, 190]",190,a,0.1001968048803974,0,colour,0.06,3.5
53,22,1,2,14,4,654,970.7102076632291,971.6558163385489,"[79, 0, 175]",175,l,0.42347117814642843,1,colour,0.06,3.5
53,22,1,2,14,5,655,972.1633622324589,972.9277950172982,"[84, 0, 170]",170,l,0.2421810723026283,1,colour,0.06,3.5
53,22,1,2,14,6,656,973.4446805770567,974.1037729272648,"[24, 0, 230]",230,a,0.13680558536725584,1,colour,0.06,3.5
53,22,1,2,14,7,657,974.6166062047414,975.343792966145,"[87, 0, 167]",167,l,0.20489802733936813,1,colour,0.06,3.5
53,22,1,2,14,8,658,975.8511234262405,977.1837752745923,"[74, 0, 180]",180,a,0.8104088004183723,0,colour,0.06,3.5
53,22,1,2,14,9,659,977.6950347431412,978.391809892084,"[98, 0, 156]",156,l,0.1744395471905591,1,colour,0.06,3.5
53,22,1,2,14,10,660,978.8982738908089,979.6477834539837,"[91, 0, 163]",163,l,0.22724879217275884,1,colour,0.06,3.5
53,22,1,2,14,11,661,980.1639750569448,980.8878286990221,"[55, 0, 199]",199,a,0.20573258718650322,0,colour,0.06,3.5
53,22,1,2,14,12,662,981.3941268885537,982.0398016906256,"[59, 0, 195]",195,a,0.12329627109284047,0,colour,0.06,3.5
53,22,1,2,14,13,663,982.5506235961948,983.271822321869,"[94, 0, 160]",160,l,0.1990324777289061,1,colour,0.06,3.5
53,22,1,2,14,14,664,983.785075045409,984.5598053297726,"[88, 0, 166]",166,l,0.25264595641056076,1,colour,0.06,3.5
53,22,1,2,14,15,665,985.0663752730907,985.7757948503131,"[90, 0, 164]",164,l,0.1871465969888959,1,colour,0.06,3.5
53,22,1,2,14,16,666,986.2852485346084,987.0077993338491,"[69, 0, 185]",185,a,0.20041487745766062,0,colour,0.06,3.5
53,22,1,2,14,17,667,987.5196688699798,988.2398113004747,"[81, 0, 173]",173,l,0.19785566565406043,1,colour,0.06,3.5
53,22,1,2,14,18,668,988.7541825468797,989.4638191332924,"[57, 0, 197]",197,a,0.18742071387532633,0,colour,0.06,3.5
53,22,1,2,14,19,669,989.9729971253255,990.6717986123258,"[86, 0, 168]",168,l,0.1768105005612597,1,colour,0.06,3.5
53,22,1,2,14,20,670,991.1918518760795,992.3677943398943,"[78, 0, 176]",176,l,0.6537068989709951,1,colour,0.06,3.5
53,22,1,2,14,21,671,992.8794819191244,993.7197733967332,"[76, 0, 178]",178,a,0.3180704850674374,0,colour,0.06,3.5
53,22,1,2,14,22,672,994.2389854052453,994.9437725649186,"[60, 0, 194]",194,a,0.18275403170264326,0,colour,0.06,3.5
53,22,1,2,14,23,673,995.4577692637104,996.1118026610638,"[52, 0, 202]",202,a,0.1317143371416023,0,colour,0.06,3.5
53,22,1,2,14,24,674,996.629721672929,997.3277831231535,"[85, 0, 169]",169,l,0.17573490693757776,1,colour,0.06,3.5
53,22,1,2,14,25,675,997.833003355976,998.4237957073201,"[70, 0, 184]",184,a,0.06863161725050304,0,colour,0.06,3.5
53,22,1,2,14,26,676,998.9424642082595,999.5677669282013,"[75, 0, 179]",179,a,0.10301516740582883,0,colour,0.06,3.5
53,22,1,2,14,27,677,1000.0832204636245,1000.7357907227997,"[68, 0, 186]",186,a,0.13040913123404607,0,colour,0.06,3.5
53,22,1,2,14,28,678,1001.2551078882243,1001.919798760413,"[58, 0, 196]",196,a,0.14252619961916935,0,colour,0.06,3.5
53,22,1,2,14,29,679,1002.4271422174352,1003.2397813681746,"[72, 0, 182]",182,a,0.2996396702219499,0,colour,0.06,3.5
53,22,1,2,14,30,680,1003.746107914616,1005.0637699812942,"[56, 0, 198]",198,a,0.7954686433513416,0,colour,0.06,3.5
53,22,1,2,14,31,681,1005.57438708689,1006.2317732959054,"[32, 0, 222]",222,a,0.1351285887794802,1,colour,0.06,3.5
53,22,1,2,14,32,682,1006.7463276807248,1007.4158124473615,"[92, 0, 162]",162,l,0.14715704179252498,1,colour,0.06,3.5
53,22,1,2,14,33,683,1007.9339252314821,1008.6238057110168,"[65, 0, 189]",189,a,0.1676669700682396,0,colour,0.06,3.5
53,22,1,2,14,34,684,1009.1371139668481,1009.7918169025361,"[63, 0, 191]",191,a,0.13240908161969855,0,colour,0.06,3.5
53,22,1,2,14,35,685,1010.3091254529718,1010.9918036693125,"[61, 0, 193]",193,a,0.16047691609128378,0,colour,0.06,3.5
53,22,1,2,14,36,686,1011.5125280467764,1012.1357807978784,"[51, 0, 203]",203,a,0.10125585697824135,0,colour,0.06,3.5
53,22,1,2,14,37,687,1012.653007822184,1013.3439379015035,"[96, 0, 158]",158,l,0.16860983756487258,1,colour,0.06,3.5
53,22,1,2,14,38,688,1013.8562268836977,1014.5517708698171,"[97, 0, 157]",157,l,0.17340609508391935,1,colour,0.06,3.5
53,22,1,2,14,39,689,1015.0594959636801,1015.7838147379662,"[80, 0, 174]",174,l,0.20203437253076117,1,colour,0.06,3.5
53,22,1,2,14,40,690,1016.2938639175263,1016.8637808514468,"[66, 0, 188]",188,a,0.04746160296781454,0,colour,0.06,3.5
53,22,1,2,14,41,691,1017.3722128990194,1017.9757698017056,"[50, 0, 204]",204,a,0.08079949178500101,1,colour,0.06,3.5
53,22,1,2,14,42,692,1018.4828123603074,1019.0957924242248,"[54, 0, 200]",200,a,0.09080633289704565,0,colour,0.06,3.5
53,22,1,2,14,43,693,1019.6077836587792,1020.2317756589764,"[99, 0, 155]",155,l,0.10167687843204476,1,colour,0.06,3.5
53,22,1,2,14,44,694,1020.7485202218377,1021.4877700947254,"[93, 0, 161]",161,l,0.2169713788171066,1,colour,0.06,3.5
53,22,1,2,14,45,695,1021.9986593479698,1022.655787193944,"[89, 0, 165]",165,l,0.13484738268016372,1,colour,0.06,3.5
53,22,1,2,14,46,696,1023.17056331411,1024.4077795627818,"[77, 0, 177]",177,l,0.7149558715173043,1,colour,0.06,3.5
53,22,1,2,14,47,697,1024.9209011355852,1025.6317684909882,"[73, 0, 181]",181,a,0.1886120982526336,0,colour,0.06,3.5
53,22,1,2,14,48,698,1026.139688932497,1026.7918161148555,"[67, 0, 187]",187,a,0.1301235928403912,0,colour,0.06,3.5
53,22,1,2,14,49,699,1027.3117496493796,1027.9197637081088,"[44, 0, 210]",210,a,0.08577534310461488,1,colour,0.06,3.5
53,22,1,2,14,50,700,1028.4243841133575,1029.0317743198975,"[53, 0, 201]",201,a,0.08506130016758107,0,colour,0.06,3.5
53,22,1,2,15,1,701,1034.986593479567,1035.7117917121504,"[68, 0, 186]",186,a,0.20226752939925063,0,colour,0.06,3.5
53,22,1,2,15,2,702,1036.221933839377,1036.951796391033,"[90, 0, 164]",164,l,0.20774041446566116,1,colour,0.06,3.5
53,22,1,2,15,3,703,1037.4720457901276,1038.479748631682,"[81, 0, 173]",173,l,0.4856677443603985,1,colour,0.06,3.5
53,22,1,2,15,4,704,1038.987755325492,1040.0157951969013,"[76, 0, 178]",178,a,0.5057791004073806,0,colour,0.06,3.5
53,22,1,2,15,5,705,1040.5347464793158,1042.1917628668598,"[80, 0, 174]",174,l,1.1347217457805527,1,colour,0.06,3.5
53,22,1,2,15,6,706,1042.7067654485145,1043.3197624478053,"[91, 0, 163]",163,l,0.09088549594162032,1,colour,0.06,3.5
53,22,1,2,15,7,707,1043.8318627777335,1044.5117994315224,"[48, 0, 206]",206,a,0.1576750950916903,1,colour,0.06,3.5
53,22,1,2,15,8,708,1045.0195745438396,1045.6557982216327,"[54, 0, 200]",200,a,0.11411178061098326,0,colour,0.06,3.5
53,22,1,2,15,9,709,1046.1757565684675,1046.7917755486997,"[82, 0, 172]",172,l,0.09372591384453699,1,colour,0.06,3.5
53,22,1,2,15,10,710,1047.3009232145996,1047.9517786679644,"[84, 0, 170]",170,l,0.12857971621269826,1,colour,0.06,3.5
53,22,1,2,15,11,711,1048.4573139776476,1049.2077920083248,"[73, 0, 181]",181,a,0.22828263812698424,0,colour,0.06,3.5
53,22,1,2,15,12,712,1049.7229789099365,1050.4717956978711,"[51, 0, 203]",203,a,0.22673482305253856,0,colour,0.06,3.5
53,22,1,2,15,13,713,1050.9887261560798,1051.5917639696272,"[94, 0, 160]",160,l,0.08097987328073941,1,colour,0.06,3.5
53,22,1,2,15,14,714,1052.0981937037432,1052.759785007307,"[57, 0, 197]",197,a,0.13936637254664674,0,colour,0.06,3.5
53,22,1,2,15,15,715,1053.2712996881164,1053.9037849789602,"[63, 0, 191]",191,a,0.11032179981702939,0,colour,0.06,3.5
53,22,1,2,15,16,716,1054.412044521945,1055.52776988993,"[78, 0, 176]",176,l,0.5935473046556581,1,colour,0.06,3.5
53,22,1,2,15,17,717,1056.0371329896152,1056.7997903163487,"[56, 0, 198]",198,a,0.24034535573446192,0,colour,0.06,3.5
53,22,1,2,15,18,718,1057.3184745711333,1058.0318062214355,"[53, 0, 201]",201,a,0.1909775377716869,0,colour,0.06,3.5
53,22,1,2,15,19,719,1058.5373198695743,1059.1358024594228,"[97, 0, 157]",157,l,0.07623599730140995,1,colour,0.06,3.5
53,22,1,2,15,20,720,1059.646769300336,1060.5117671361513,"[62, 0, 192]",192,a,0.34269374175346456,0,colour,0.06,3.5
53,22,1,2,15,21,721,1061.021948647991,1061.623755298715,"[99, 0, 155]",155,l,0.07976722122111823,1,colour,0.06,3.5
53,22,1,2,15,22,722,1062.1313346695242,1062.9997759015823,"[77, 0, 177]",177,l,0.34621118105133064,1,colour,0.06,3.5
53,22,1,2,15,23,723,1063.5064769956516,1064.503765759262,"[39, 0, 215]",215,a,0.4752387002517935,1,colour,0.06,3.5
53,22,1,2,15,24,724,1065.0223523402237,1065.7757743703114,"[92, 0, 162]",162,l,0.23143025595345534,1,colour,0.06,3.5
53,22,1,2,15,25,725,1066.288018847903,1067.127793205611,"[85, 0, 169]",169,l,0.3183839865378104,1,colour,0.06,3.5
53,22,1,2,15,26,726,1067.6474230848253,1068.2797799818363,"[86, 0, 168]",168,l,0.11015638445678633,1,colour,0.06,3.5
53,22,1,2,15,27,727,1068.7881411371054,1069.3597815414687,"[89, 0, 165]",165,l,0.0495312640996417,1,colour,0.06,3.5
53,22,1,2,15,28,728,1069.8663755094021,1070.4957966777583,"[58, 0, 196]",196,a,0.10728367118281312,0,colour,0.06,3.5
53,22,1,2,15,29,729,1071.0070841093839,1071.751765119654,"[79, 0, 175]",175,l,0.22261676847119816,1,colour,0.06,3.5
53,22,1,2,15,30,730,1072.2571448601375,1072.91975268042,"[59, 0, 195]",195,a,0.14044826771714725,0,colour,0.06,3.5
53,22,1,2,15,31,731,1073.416636373353,1074.1757668084756,"[83, 0, 171]",171,l,0.23687596566742286,1,colour,0.06,3.5
53,22,1,2,15,32,732,1074.682380074868,1075.8717956190958,"[95, 0, 159]",159,l,0.6670720655529294,1,colour,0.06,3.5
53,22,1,2,15,33,733,1076.3857096102001,1077.0557831767073,"[64, 0, 190]",190,a,0.14833897385688033,0,colour,0.06,3.5
53,22,1,2,15,34,734,1077.573427677853,1078.2957823417673,"[87, 0, 167]",167,l,0.2003877020906657,1,colour,0.06,3.5
53,22,1,2,15,35,735,1078.8077085917175,1079.423760655016,"[52, 0, 202]",202,a,0.093783415373764,0,colour,0.06,3.5
53,22,1,2,15,36,736,1079.9328366409318,1080.7037860029523,"[93, 0, 161]",161,l,0.24868544025230221,1,colour,0.06,3.5
53,22,1,2,15,37,737,1081.2141955516709,1081.9357790649665,"[67, 0, 187]",187,a,0.1993014746112749,0,colour,0.06,3.5
53,22,1,2,15,38,738,1082.4486678747344,1083.8397960192524,"[72, 0, 182]",182,a,0.8688732812152011,0,colour,0.06,3.5
53,22,1,2,15,39,739,1084.3550317577901,1085.7997422671324,"[69, 0, 185]",185,a,0.9225076337170321,0,colour,0.06,3.5
53,22,1,2,15,40,740,1086.3083353977563,1087.1197985241015,"[96, 0, 158]",158,l,0.2898990690591745,1,colour,0.06,3.5
53,22,1,2,15,41,741,1087.6365702623443,1088.2317894435982,"[60, 0, 194]",194,a,0.07294698871555738,0,colour,0.06,3.5
53,22,1,2,15,42,742,1088.746026388486,1089.4877496147237,"[55, 0, 199]",199,a,0.21938723063794896,0,colour,0.06,3.5
53,22,1,2,15,43,743,1089.9961710284551,1090.6557883754867,"[98, 0, 156]",156,l,0.13743219447496813,1,colour,0.06,3.5
53,22,1,2,15,44,744,1091.1680927176785,1091.8637993622106,"[88, 0, 166]",166,l,0.17344626737758517,1,colour,0.06,3.5
53,22,1,2,15,45,745,1092.3713684930262,1093.047764470597,"[70, 0, 184]",184,a,0.1547070710657863,0,colour,0.06,3.5
53,22,1,2,15,46,746,1093.5588833360962,1094.407790196623,"[65, 0, 189]",189,a,0.326500760318595,0,colour,0.06,3.5
53,22,1,2,15,47,747,1094.9183710683865,1095.5997744049673,"[50, 0, 204]",204,a,0.15911578404484317,1,colour,0.06,3.5
53,22,1,2,15,48,748,1096.1058358930168,1096.8478040915215,"[18, 0, 236]",236,a,0.21981888594746124,1,colour,0.06,3.5
53,22,1,2,15,49,749,1097.3560333083587,1098.3037490601855,"[74, 0, 180]",180,l,0.4256085808010539,1,colour,0.06,3.5
53,22,1,2,15,50,750,1098.8093399021745,1099.583785041963,"[61, 0, 193]",193,a,0.2521993349510012,0,colour,0.06,3.5
53,22,1,2,16,1,751,1104.4964646407025,1105.295759104847,"[87, 0, 167]",167,l,0.2761510840791743,1,colour,0.06,3.4
53,22,1,2,16,2,752,1105.8098144866963,1106.6077734187857,"[88, 0, 166]",166,l,0.2756091518822359,1,colour,0.06,3.4
53,22,1,2,16,3,753,1107.1224290220562,1107.8957418543869,"[96, 0, 158]",158,l,0.2512080243759556,1,colour,0.06,3.4
53,22,1,2,16,4,754,1108.403825742018,1110.4957836808317,"[76, 0, 178]",178,a,1.5696329709026031,0,colour,0.06,3.4
53,22,1,2,16,5,755,1111.0134451173653,1113.5037724546419,"[89, 0, 165]",165,l,1.968131550878752,1,colour,0.06,3.4
53,22,1,2,16,6,756,1114.0136392834684,1114.6237923202425,"[24, 0, 230]",230,a,0.08643306605517864,1,colour,0.06,3.4
53,22,1,2,16,7,757,1115.1401654862566,1116.039734736798,"[79, 0, 175]",175,l,0.37740733490500133,1,colour,0.06,3.4
53,22,1,2,16,8,758,1116.5465449262265,1117.2077624698577,"[12, 0, 242]",242,a,0.13890045264270157,1,colour,0.06,3.4
53,22,1,2,16,9,759,1117.7185075754387,1118.943779260313,"[97, 0, 157]",157,l,0.7028884277387988,1,colour,0.06,3.4
53,22,1,2,16,10,760,1119.453060046173,1120.2477508435259,"[69, 0, 185]",185,a,0.27241190943459515,0,colour,0.06,3.4
53,22,1,2,16,11,761,1120.765655283074,1121.4797844716813,"[95, 0, 159]",159,l,0.19182745761645492,1,colour,0.06,3.4
53,22,1,2,16,12,762,1121.9851819352334,1122.8797643067664,"[72, 0, 182]",182,a,0.37236649898113683,0,colour,0.06,3.4
53,22,1,2,16,13,763,1123.3915440459823,1124.2157977175084,"[65, 0, 189]",189,a,0.3019696636038134,0,colour,0.06,3.4
53,22,1,2,16,14,764,1124.7353826982726,1125.5517815036583,"[73, 0, 181]",181,a,0.2942038066830719,0,colour,0.06,3.4
53,22,1,2,16,15,765,1126.0636482828559,1126.8398105915549,"[85, 0, 169]",169,l,0.2542516668618191,1,colour,0.06,3.4
53,22,1,2,16,16,766,1127.3449536305416,1128.1197449610481,"[23, 0, 231]",231,a,0.25247935952211265,1,colour,0.06,3.4
53,22,1,2,16,17,767,1128.6262908797507,1129.311776037066,"[83, 0, 171]",171,l,0.16324014015845023,1,colour,0.06,3.4
53,22,1,2,16,18,768,1129.829556415105,1130.9677865417325,"[56, 0, 198]",198,a,0.6159614787029568,0,colour,0.06,3.4
53,22,1,2,16,19,769,1131.4858835720224,1132.2717502480373,"[74, 0, 180]",180,l,0.2636074804031523,1,colour,0.06,3.4
53,22,1,2,16,20,770,1132.7829274027463,1133.5037385838805,"[68, 0, 186]",186,a,0.20692279002105352,0,colour,0.06,3.4
53,22,1,2,16,21,771,1134.0090238013072,1134.7837339995167,"[64, 0, 190]",190,a,0.2524545472115278,0,colour,0.06,3.4
53,22,1,2,16,22,772,1135.2903208782227,1135.983766846286,"[51, 0, 203]",203,a,0.17134824933600612,0,colour,0.06,3.4
53,22,1,2,16,23,773,1136.4936198904907,1137.135731960967,"[90, 0, 164]",164,l,0.11972172411333304,1,colour,0.06,3.4
53,22,1,2,16,24,774,1137.6508460010664,1138.3757425475487,"[84, 0, 170]",170,l,0.20262632316735107,1,colour,0.06,3.4
53,22,1,2,16,25,775,1138.8853671610414,1139.575736009705,"[81, 0, 173]",173,l,0.16816833610937465,1,colour,0.06,3.4
53,22,1,2,16,26,776,1140.0886508133117,1140.8157501409005,"[63, 0, 191]",191,a,0.20506265500443988,0,colour,0.06,3.4
53,22,1,2,16,27,777,1141.3230416102451,1142.0557634844154,"[61, 0, 193]",193,a,0.2108510107937036,0,colour,0.06,3.4
53,22,1,2,16,28,778,1142.5731122071447,1143.2157559698244,"[86, 0, 168]",168,l,0.12060433317674324,1,colour,0.06,3.4
53,22,1,2,16,29,779,1143.7295982809446,1144.3517628353584,"[94, 0, 160]",160,l,0.10015348182059824,1,colour,0.06,3.4
53,22,1,2,16,30,780,1144.8702552870964,1145.4957714716147,"[71, 0, 183]",183,a,0.10333733350853436,0,colour,0.06,3.4
53,22,1,2,16,31,781,1146.0109272593982,1146.6637306754565,"[98, 0, 156]",156,l,0.1304296112357406,1,colour,0.06,3.4
53,22,1,2,16,32,782,1147.182917083992,1147.8237467916333,"[53, 0, 201]",201,a,0.11861304740887135,0,colour,0.06,3.4
53,22,1,2,16,33,783,1148.3392444378114,1148.9677365232783,"[62, 0, 192]",192,a,0.10647628671722487,0,colour,0.06,3.4
53,22,1,2,16,34,784,1149.4800534685492,1150.175739633094,"[78, 0, 176]",176,l,0.1735518181376392,1,colour,0.06,3.4
53,22,1,2,16,35,785,1150.6832327516167,1151.3917752336274,"[82, 0, 172]",172,l,0.18638135406945366,1,colour,0.06,3.4
53,22,1,2,16,36,786,1151.9019839208486,1152.8877436282637,"[57, 0, 197]",197,a,0.4634902717953082,0,colour,0.06,3.4
53,22,1,2,16,37,787,1153.402111330055,1155.0797569812275,"[50, 0, 204]",204,a,1.1560804123437265,1,colour,0.06,3.4
53,22,1,2,16,38,788,1155.5965984302165,1156.3517722876568,"[60, 0, 194]",194,a,0.2329914618167095,0,colour,0.06,3.4
53,22,1,2,16,39,789,1156.8622523348313,1157.543783277535,"[67, 0, 187]",187,a,0.1593174332374474,0,colour,0.06,3.4
53,22,1,2,16,40,790,1158.0498904517153,1158.7037371660408,"[80, 0, 174]",174,l,0.13171197407064028,1,colour,0.06,3.4
53,22,1,2,16,41,791,1159.2218003255548,1159.8797686390608,"[92, 0, 162]",162,l,0.13579891479457729,1,colour,0.06,3.4
53,22,1,2,16,42,792,1160.3938082670793,1161.0717768720206,"[66, 0, 188]",188,a,0.15568617240933236,0,colour,0.06,3.4
53,22,1,2,16,43,793,1161.5814404762787,1162.207739626785,"[55, 0, 199]",199,a,0.10407067488995381,0,colour,0.06,3.4
53,22,1,2,16,44,794,1162.7221427747281,1163.4237484457844,"[59, 0, 195]",195,a,0.17956663540098816,0,colour,0.06,3.4
53,22,1,2,16,45,795,1163.940972319324,1164.4877941193263,"[58, 0, 196]",196,a,0.02457953976409044,0,colour,0.06,3.4
53,22,1,2,16,46,796,1164.9977802835201,1165.6397478124854,"[70, 0, 184]",184,a,0.11981270255637355,0,colour,0.06,3.4
53,22,1,2,16,47,797,1166.1540174466063,1166.8157595932134,"[91, 0, 163]",163,l,0.13943844639288727,1,colour,0.06,3.4
53,22,1,2,16,48,798,1167.326088009635,1167.855796803793,"[93, 0, 161]",161,l,0.007468503143172711,1,colour,0.06,3.4
53,22,1,2,16,49,799,1168.3730041357776,1168.9757745278475,"[99, 0, 155]",155,l,0.08114095631754026,1,colour,0.06,3.4
53,22,1,2,16,50,800,1169.4824673511466,1170.1437427901546,"[77, 0, 177]",177,a,0.1389713449316332,0,colour,0.06,3.4
