id,age,condition,counterbalance,block,trialinblock,trial,tstart,tend,trialstim,trialintensity,response,RT,accuracy,trialtype,colourfreq,credits
84,19,0,1,Practice,1,NA,5.513778887689114e-06,1.5114400424063206,"[49, 0, 205]",205,a,0.9088782322360203,1,colour,0.5,4
84,19,0,1,Practice,2,NA,2.032297334750183,2.5834189291344956,"[70, 0, 184]",184,a,0.027810642030090094,0,colour,0.5,4
84,19,0,1,Practice,3,NA,3.0947565716924146,4.047380058094859,"[63, 0, 191]",191,a,0.4291400294750929,0,colour,0.5,4
84,19,0,1,Practice,4,NA,4.564870755537413,11.256480734562501,"[57, 0, 197]",197,l,6.168509734212421,1,colour,0.5,4
84,19,0,1,Practice,5,NA,11.7689317795448,12.767378845019266,"[96, 0, 158]",158,l,0.4753834482980892,1,colour,0.5,4
84,19,0,1,Practice,6,NA,13.284234268940054,14.25539647671394,"[83, 0, 171]",171,l,0.4477846954250708,1,colour,0.5,4
84,19,0,1,Practice,7,NA,14.770498498575762,15.655378123512492,"[43, 0, 211]",211,a,0.3613217311212793,1,colour,0.5,4
84,19,0,1,Practice,8,NA,16.164908407139592,16.967361594666727,"[16, 0, 238]",238,a,0.2790307766990736,1,colour,0.5,4
84,19,0,1,Practice,9,NA,17.477470831712708,18.407430454622954,"[48, 0, 206]",206,a,0.4066644243430346,1,colour,0.5,4
84,19,0,1,Practice,10,NA,18.91800521768164,19.575379352318123,"[42, 0, 212]",212,a,0.13396669004578143,1,colour,0.5,4
84,19,0,1,1,1,1,5.464590100920759,8.024019087315537,"[3, 0, 251]",251,l,2.0352460591821,0,colour,0.5,4.0
84,19,0,1,1,2,2,8.543804724817164,9.096170478500426,"[81, 0, 173]",173,l,0.029193828930146992,1,colour,0.5,4.0
84,19,0,1,1,3,3,9.606359272496775,10.2240041999612,"[48, 0, 206]",206,a,0.10671846009790897,1,colour,0.5,4.0
84,19,0,1,1,4,4,10.734666396747343,11.799984954996035,"[46, 0, 208]",208,a,0.541922535165213,1,colour,0.5,4.0
84,19,0,1,1,5,5,12.315508785890415,13.463984759757295,"[21, 0, 233]",233,a,0.6250630153808743,1,colour,0.5,4.0
84,19,0,1,1,6,6,13.971872705849819,15.136003661202267,"[22, 0, 232]",232,a,0.640732963103801,1,colour,0.5,4.0
84,19,0,1,1,7,7,15.643892788793892,16.719968066900037,"[69, 0, 185]",185,l,0.5527225780533627,1,colour,0.5,4.0
84,19,0,1,1,8,8,17.23767459183,18.216013066237792,"[79, 0, 175]",175,l,0.4548593497602269,1,colour,0.5,4.0
84,19,0,1,1,9,9,18.722153517999686,19.65598070784472,"[6, 0, 248]",248,a,0.410314982291311,1,colour,0.5,4.0
84,19,0,1,1,10,10,20.175413853256032,21.13603516877629,"[78, 0, 176]",176,l,0.4371331324800849,1,colour,0.5,4.0
84,19,0,1,1,11,11,21.644290179363452,22.592002407182008,"[28, 0, 226]",226,a,0.424224438611418,1,colour,0.5,4.0
84,19,0,1,1,12,12,23.113195256213658,24.055972200701945,"[80, 0, 174]",174,l,0.4195030137198046,1,colour,0.5,4.0
84,19,0,1,1,13,13,24.5664244776126,25.48005721787922,"[99, 0, 155]",155,l,0.3901626741280779,1,colour,0.5,4.0
84,19,0,1,1,14,14,25.98845834529493,26.888029210735112,"[14, 0, 240]",240,a,0.376175630139187,1,colour,0.5,4.0
84,19,0,1,1,15,15,27.394697022158653,28.240010098204948,"[41, 0, 213]",213,a,0.32195013598538935,1,colour,0.5,4.0
84,19,0,1,1,16,16,28.754275197396055,29.599964396329597,"[12, 0, 242]",242,a,0.32229750812985003,1,colour,0.5,4.0
84,19,0,1,1,17,17,30.113669840502553,30.94400810683146,"[92, 0, 162]",162,l,0.30681621248368174,1,colour,0.5,4.0
84,19,0,1,1,18,18,31.457605637260713,32.69602105335798,"[63, 0, 191]",191,a,0.7149863098748028,0,colour,0.5,4.0
84,19,0,1,1,19,19,33.207741908030584,34.111992450780235,"[98, 0, 156]",156,l,0.38088839047122747,1,colour,0.5,4.0
84,19,0,1,1,20,20,34.63015741226263,35.55995516455732,"[72, 0, 182]",182,l,0.4067227136110887,1,colour,0.5,4.0
84,19,0,1,1,21,21,36.06767493847292,36.983981892466545,"[54, 0, 200]",200,a,0.39286878937855363,0,colour,0.5,4.0
84,19,0,1,1,22,22,37.50521097530145,38.45595502911601,"[40, 0, 214]",214,a,0.4272357845911756,1,colour,0.5,4.0
84,19,0,1,1,23,23,38.974132987554185,39.887973284581676,"[85, 0, 169]",169,l,0.39040055708028376,1,colour,0.5,4.0
84,19,0,1,1,24,24,40.39612431975547,41.31197756330948,"[0, 0, 254]",254,a,0.39272503566462547,1,colour,0.5,4.0
84,19,0,1,1,25,25,41.81818339356687,42.65608822775539,"[4, 0, 250]",250,a,0.3145454387413338,1,colour,0.5,4.0
84,19,0,1,1,26,26,43.17762687348295,44.08801392954774,"[91, 0, 163]",163,l,0.3869701591320336,1,colour,0.5,4.0
84,19,0,1,1,27,27,44.59956976270769,45.47995521174744,"[18, 0, 236]",236,a,0.3568838752107695,1,colour,0.5,4.0
84,19,0,1,1,28,28,45.99036810407415,46.823983956244774,"[17, 0, 237]",237,a,0.31025527510792017,1,colour,0.5,4.0
84,19,0,1,1,29,29,47.334223162499256,48.256009694887325,"[52, 0, 202]",202,a,0.3983105585211888,0,colour,0.5,4.0
84,19,0,1,1,30,30,48.77178401174024,49.62396300362889,"[26, 0, 228]",228,a,0.3290035225218162,1,colour,0.5,4.0
84,19,0,1,1,31,31,50.13127672241535,51.039997810148634,"[32, 0, 222]",222,a,0.3853459384990856,1,colour,0.5,4.0
84,19,0,1,1,32,32,51.55326372233685,53.072015514364466,"[65, 0, 189]",189,a,0.995373098179698,0,colour,0.5,4.0
84,19,0,1,1,33,33,53.58472964831162,54.56802624894772,"[42, 0, 212]",212,a,0.45992775284685194,1,colour,0.5,4.0
84,19,0,1,1,34,34,55.084878128254786,56.07198282517493,"[30, 0, 224]",224,a,0.4638075290713459,1,colour,0.5,4.0
84,19,0,1,1,35,35,56.58498131588567,57.67199684609659,"[62, 0, 192]",192,a,0.5636750393314287,0,colour,0.5,4.0
84,19,0,1,1,36,36,58.178742245188914,59.37608504551463,"[66, 0, 188]",188,a,0.6739826172124594,0,colour,0.5,4.0
84,19,0,1,1,37,37,59.88204432814382,61.11196409387048,"[60, 0, 194]",194,a,0.7065245303092524,0,colour,0.5,4.0
84,19,0,1,1,38,38,61.63214672799222,62.535944347968325,"[67, 0, 187]",187,l,0.3806327843340114,1,colour,0.5,4.0
84,19,0,1,1,39,39,63.05415814637672,63.8799557632301,"[55, 0, 199]",199,a,0.3023346399422735,0,colour,0.5,4.0
84,19,0,1,1,40,40,64.39802777708974,65.37599209789187,"[43, 0, 211]",211,a,0.45460098690818995,1,colour,0.5,4.0
84,19,0,1,1,41,41,65.88254569401033,66.823970959289,"[56, 0, 198]",198,a,0.4181147067574784,0,colour,0.5,4.0
84,19,0,1,1,42,42,67.33569457090925,68.15209581167437,"[15, 0, 239]",239,a,0.29289454699028283,1,colour,0.5,4.0
84,19,0,1,1,43,43,68.66401752771344,69.44819468900096,"[29, 0, 225]",225,a,0.2607413597870618,1,colour,0.5,4.0
84,19,0,1,1,44,44,69.9609675060492,70.7519550510915,"[84, 0, 170]",170,l,0.2675316573586315,1,colour,0.5,4.0
84,19,0,1,1,45,45,71.25793757068459,72.3680049024988,"[68, 0, 186]",186,a,0.5866815487388521,0,colour,0.5,4.0
84,19,0,1,1,46,46,72.88301909680013,73.64793364796788,"[86, 0, 168]",168,l,0.2415134081384167,1,colour,0.5,4.0
84,19,0,1,1,47,47,74.16442003822885,75.32800118462183,"[44, 0, 210]",210,a,0.6402414432959631,1,colour,0.5,4.0
84,19,0,1,1,48,48,75.83642554888502,76.96797993266955,"[95, 0, 159]",159,l,0.6081855359952897,1,colour,0.5,4.0
84,19,0,1,1,49,49,77.47716481343377,78.5599614661187,"[37, 0, 217]",217,a,0.5593959033722058,1,colour,0.5,4.0
84,19,0,1,1,50,50,79.07107304106466,80.17596996366046,"[2, 0, 252]",252,a,0.581437096465379,1,colour,0.5,4.0
84,19,0,1,2,1,51,88.25851140415762,90.75191094039474,"[50, 0, 204]",204,a,1.9691551689757034,1,colour,0.5,4.0
84,19,0,1,2,2,52,91.2595570650883,92.35193835210521,"[47, 0, 207]",207,a,0.5690297684632242,1,colour,0.5,4.0
84,19,0,1,2,3,53,92.86895525280852,93.75193457107525,"[88, 0, 166]",166,l,0.3565199616132304,1,colour,0.5,4.0
84,19,0,1,2,4,54,94.26268144475762,95.12795108743012,"[31, 0, 223]",223,a,0.34209811175242066,1,colour,0.5,4.0
84,19,0,1,2,5,55,95.63784646627028,98.36797024414409,"[62, 0, 192]",192,l,2.206972333136946,1,colour,0.5,4.0
84,19,0,1,2,6,56,98.888107979903,99.99993698461913,"[8, 0, 246]",246,a,0.588478667777963,1,colour,0.5,4.0
84,19,0,1,2,7,57,100.513156816829,101.62392952677328,"[15, 0, 239]",239,a,0.587433400680311,1,colour,0.5,4.0
84,19,0,1,2,8,58,102.13831396133173,103.07991054968443,"[22, 0, 232]",232,a,0.4184746820246801,1,colour,0.5,4.0
84,19,0,1,2,9,59,103.59155381668825,104.73593497439288,"[2, 0, 252]",252,a,0.6210611469577998,1,colour,0.5,4.0
84,19,0,1,2,10,60,105.24796578579117,106.32795471081045,"[79, 0, 175]",175,l,0.5566173203988001,1,colour,0.5,4.0
84,19,0,1,2,11,61,106.84177437040489,108.03995606256649,"[36, 0, 218]",218,a,0.6747289552586153,1,colour,0.5,4.0
84,19,0,1,2,12,62,108.56075939792208,109.61592145764735,"[90, 0, 164]",164,l,0.5318093596724793,1,colour,0.5,4.0
84,19,0,1,2,13,63,110.12338129326236,111.27195572853088,"[91, 0, 163]",163,l,0.6251984983682632,1,colour,0.5,4.0
84,19,0,1,2,14,64,111.77973733621184,113.05597732076421,"[37, 0, 217]",217,a,0.7530916904797778,1,colour,0.5,4.0
84,19,0,1,2,15,65,113.57674796693027,114.70392908563372,"[17, 0, 237]",237,a,0.6037740679457784,1,colour,0.5,4.0
84,19,0,1,2,16,66,115.21749038225971,116.30392420198768,"[51, 0, 203]",203,a,0.5629688736516982,0,colour,0.5,4.0
84,19,0,1,2,17,67,116.81136946519837,117.959922632901,"[3, 0, 251]",251,a,0.6252682091435418,1,colour,0.5,4.0
84,19,0,1,2,18,68,118.46785311435815,119.64793601108249,"[96, 0, 158]",158,l,0.6566726951859891,1,colour,0.5,4.0
84,19,0,1,2,19,69,120.1554171142634,121.20790929254144,"[48, 0, 206]",206,a,0.5291678351350129,1,colour,0.5,4.0
84,19,0,1,2,20,70,121.71805752033833,122.96799214195926,"[45, 0, 209]",209,a,0.7265665614977479,1,colour,0.5,4.0
84,19,0,1,2,21,71,123.48376921575982,124.57590671209618,"[87, 0, 167]",167,l,0.5687253256328404,1,colour,0.5,4.0
84,19,0,1,2,22,72,125.09332572948188,126.74395604047459,"[74, 0, 180]",180,l,1.1272594940382987,1,colour,0.5,4.0
84,19,0,1,2,23,73,127.26530879095662,128.7039389318088,"[80, 0, 174]",174,l,0.9151683455565944,1,colour,0.5,4.0
84,19,0,1,2,24,74,129.21847578475717,130.36793164722621,"[60, 0, 194]",194,a,0.6264174515381455,0,colour,0.5,4.0
84,19,0,1,2,25,75,130.874991335324,131.9278895687312,"[93, 0, 161]",161,l,0.5294868502533063,1,colour,0.5,4.0
84,19,0,1,2,26,76,132.43758802453522,133.44790599995758,"[26, 0, 228]",228,a,0.48632685118354857,1,colour,0.5,4.0
84,19,0,1,2,27,77,133.9694785164902,135.05589894542936,"[57, 0, 197]",197,a,0.5628743505803868,0,colour,0.5,4.0
84,19,0,1,2,28,78,135.56344345782418,136.5919512071414,"[77, 0, 177]",177,l,0.5052369692130014,1,colour,0.5,4.0
84,19,0,1,2,29,79,137.11031781788915,138.55194670159835,"[43, 0, 211]",211,a,0.9181993837701157,1,colour,0.5,4.0
84,19,0,1,2,30,80,139.06363329163287,141.1999256418785,"[98, 0, 156]",156,l,1.6128317364491522,1,colour,0.5,4.0
84,19,0,1,2,31,81,141.72017010988202,143.19991461420432,"[69, 0, 185]",185,a,0.9564788441639394,0,colour,0.5,4.0
84,19,0,1,2,32,82,143.7208309833659,144.85593194968533,"[53, 0, 201]",201,a,0.6116407463559881,0,colour,0.5,4.0
84,19,0,1,2,33,83,145.3773252662504,146.66390528157353,"[56, 0, 198]",198,a,0.763327352120541,0,colour,0.5,4.0
84,19,0,1,2,34,84,147.17428706004284,148.39188062993344,"[30, 0, 224]",224,a,0.6942184205399826,1,colour,0.5,4.0
84,19,0,1,2,35,85,148.90874983847607,150.00791827216744,"[39, 0, 215]",215,a,0.5757448413642123,1,colour,0.5,4.0
84,19,0,1,2,36,86,150.5058084395714,151.77591624308843,"[40, 0, 214]",214,a,0.746711780433543,1,colour,0.5,4.0
84,19,0,1,2,37,87,152.28720426105428,153.4799524549162,"[12, 0, 242]",242,a,0.6692993954056874,1,colour,0.5,4.0
84,19,0,1,2,38,88,153.99048901477363,155.07992433430627,"[58, 0, 196]",196,a,0.566049930290319,0,colour,0.5,4.0
84,19,0,1,2,39,89,155.6000010239659,157.38408169301692,"[71, 0, 183]",183,a,1.2606779505731538,0,colour,0.5,4.0
84,19,0,1,2,40,90,157.89700062701013,159.27990550850518,"[10, 0, 244]",244,a,0.8594816831173375,1,colour,0.5,4.0
84,19,0,1,2,41,91,159.78781432844698,161.6480175370816,"[21, 0, 233]",233,a,1.3375771543942392,1,colour,0.5,4.0
84,19,0,1,2,42,92,162.16295493138023,163.4399306200212,"[1, 0, 253]",253,a,0.7537060900358483,1,colour,0.5,4.0
84,19,0,1,2,43,93,163.96144878584892,164.81595737638418,"[7, 0, 247]",247,a,0.3311424998100847,1,colour,0.5,4.0
84,19,0,1,2,44,94,165.33656575810164,166.30398052197415,"[76, 0, 178]",178,l,0.4440407961374149,1,colour,0.5,4.0
84,19,0,1,2,45,95,166.80859206384048,167.86392780952156,"[4, 0, 250]",250,a,0.5319298764225096,1,colour,0.5,4.0
84,19,0,1,2,46,96,168.37122301757336,169.53588015108835,"[11, 0, 243]",243,a,0.6412288150750101,1,colour,0.5,4.0
84,19,0,1,2,47,97,170.04322734673042,170.98391375713982,"[94, 0, 160]",160,l,0.41720334731508046,1,colour,0.5,4.0
84,19,0,1,2,48,98,171.49644987285137,174.22387777536642,"[72, 0, 182]",182,a,2.2041035593720153,0,colour,0.5,4.0
84,19,0,1,2,49,99,174.73114147572778,175.56788643368054,"[97, 0, 157]",157,l,0.3133831995073706,1,colour,0.5,4.0
84,19,0,1,2,50,100,176.074997715652,177.03188655339181,"[20, 0, 234]",234,a,0.4335073869442567,1,colour,0.5,4.0
84,19,0,1,3,1,101,191.6940108637791,192.66393954621162,"[22, 0, 232]",232,a,0.44585681974422187,1,colour,0.5,3.9
84,19,0,1,3,2,102,193.17935585707892,193.73587786674034,"[94, 0, 160]",160,l,0.03340679872781038,1,colour,0.5,3.9
84,19,0,1,3,3,103,194.2575709001394,194.99189189402387,"[4, 0, 250]",250,a,0.21090764156542718,1,colour,0.5,3.9
84,19,0,1,3,4,104,195.5076063462766,197.98389209562447,"[53, 0, 201]",201,a,1.952902723220177,0,colour,0.5,3.9
84,19,0,1,3,5,105,198.4922325706575,199.3039064789191,"[15, 0, 239]",239,a,0.28826725122053176,1,colour,0.5,3.9
84,19,0,1,3,6,106,199.8219847943401,200.74387372669298,"[6, 0, 248]",248,a,0.39853938308078796,1,colour,0.5,3.9
84,19,0,1,3,7,107,201.25957518198993,202.18386381748132,"[16, 0, 238]",238,a,0.40080439089797437,1,colour,0.5,3.9
84,19,0,1,3,8,108,202.6972069235053,203.5519604862202,"[71, 0, 183]",183,l,0.3314288257388398,1,colour,0.5,3.9
84,19,0,1,3,9,109,204.07236524950713,204.93589566857554,"[14, 0, 240]",240,a,0.34015093743801117,1,colour,0.5,3.9
84,19,0,1,3,10,110,205.44745622796472,206.47184946888592,"[40, 0, 214]",214,a,0.5010432978160679,1,colour,0.5,3.9
84,19,0,1,3,11,111,206.9788232985884,207.96793897275347,"[46, 0, 208]",208,a,0.4658886109245941,1,colour,0.5,3.9
84,19,0,1,3,12,112,208.47898083704058,209.3598893134622,"[45, 0, 209]",209,a,0.35764675482641906,1,colour,0.5,3.9
84,19,0,1,3,13,113,209.87069644557778,210.7518873095978,"[33, 0, 221]",221,a,0.3578157147858292,1,colour,0.5,3.9
84,19,0,1,3,14,114,211.2614152301103,212.11986031068955,"[0, 0, 254]",254,a,0.33502857747953385,1,colour,0.5,3.9
84,19,0,1,3,15,115,212.63652117468882,213.80791425495408,"[2, 0, 252]",252,a,0.6482818077784032,1,colour,0.5,3.9
84,19,0,1,3,16,116,214.32412928540725,215.27188207930885,"[47, 0, 207]",207,a,0.4242811524309218,1,colour,0.5,3.9
84,19,0,1,3,17,117,215.79305759910494,216.79987310280558,"[20, 0, 234]",234,a,0.4834119974402711,1,colour,0.5,3.9
84,19,0,1,3,18,118,217.29639544337988,218.1758892253274,"[88, 0, 166]",166,l,0.35645340173505247,1,colour,0.5,3.9
84,19,0,1,3,19,119,218.68701970484108,219.4798535995651,"[21, 0, 233]",233,a,0.27861290622968227,1,colour,0.5,3.9
84,19,0,1,3,20,120,219.9903952794848,220.7758559846552,"[3, 0, 251]",251,a,0.2620969774434343,1,colour,0.5,3.9
84,19,0,1,3,21,121,221.2892715582857,222.0558737393003,"[92, 0, 162]",162,l,0.2431919794762507,1,colour,0.5,3.9
84,19,0,1,3,22,122,222.55946325103287,223.56800537521485,"[67, 0, 187]",187,l,0.4850496088620275,1,colour,0.5,3.9
84,19,0,1,3,23,123,224.07525529083796,224.943896254641,"[83, 0, 171]",171,l,0.34526266367174685,1,colour,0.5,3.9
84,19,0,1,3,24,124,225.45065071224235,226.19186597887892,"[79, 0, 175]",175,l,0.21772826521191746,1,colour,0.5,3.9
84,19,0,1,3,25,125,226.7007960412884,227.50392703758553,"[82, 0, 172]",172,l,0.27967707777861506,1,colour,0.5,3.9
84,19,0,1,3,26,126,228.01586293207947,228.7999176074518,"[25, 0, 229]",229,a,0.2592569545377046,1,colour,0.5,3.9
84,19,0,1,3,27,127,229.3142295742873,230.1838622421492,"[63, 0, 191]",191,a,0.3462043493054807,0,colour,0.5,3.9
84,19,0,1,3,28,128,230.70496883883607,231.52789807575755,"[36, 0, 218]",218,a,0.2995765368686989,1,colour,0.5,3.9
84,19,0,1,3,29,129,232.04881562653463,232.8638959081145,"[37, 0, 217]",217,a,0.29217814130242914,1,colour,0.5,3.9
84,19,0,1,3,30,130,233.37704760488123,234.15986363473348,"[75, 0, 179]",179,l,0.259467268246226,1,colour,0.5,3.9
84,19,0,1,3,31,131,234.6739310233388,235.7838880784111,"[84, 0, 170]",170,l,0.5865295242983848,1,colour,0.5,3.9
84,19,0,1,3,32,132,236.2991019524634,237.35984795971308,"[74, 0, 180]",180,l,0.5373109934153035,1,colour,0.5,3.9
84,19,0,1,3,33,133,237.87745208467823,238.97587614960503,"[91, 0, 163]",163,l,0.5751603740500286,1,colour,0.5,3.9
84,19,0,1,3,34,134,239.4869219523389,240.543867346365,"[7, 0, 247]",247,a,0.5336226263316348,1,colour,0.5,3.9
84,19,0,1,3,35,135,241.06512596760876,242.04786212556064,"[9, 0, 245]",245,a,0.4599805283360183,1,colour,0.5,3.9
84,19,0,1,3,36,136,242.5652063122252,243.7438441881677,"[61, 0, 193]",193,l,0.6552390959113836,1,colour,0.5,3.9
84,19,0,1,3,37,137,244.25279669987503,245.20785612333566,"[51, 0, 203]",203,a,0.43147671746555716,0,colour,0.5,3.9
84,19,0,1,3,38,138,245.72172383207362,246.7438662436325,"[57, 0, 197]",197,a,0.4987038531107828,0,colour,0.5,3.9
84,19,0,1,3,39,139,247.25309129664674,248.32787712314166,"[52, 0, 202]",202,a,0.5513523881090805,0,colour,0.5,3.9
84,19,0,1,3,40,140,248.8470081888372,250.36006339336745,"[60, 0, 194]",194,l,0.98961034452077,1,colour,0.5,3.9
84,19,0,1,3,41,141,250.87837407796178,252.05583868699614,"[93, 0, 161]",161,l,0.6541036382550374,1,colour,0.5,3.9
84,19,0,1,3,42,142,252.56608025636524,253.6638658969896,"[26, 0, 228]",228,a,0.5743990698829293,1,colour,0.5,3.9
84,19,0,1,3,43,143,254.17556784697808,255.183857909753,"[87, 0, 167]",167,l,0.48492987966164947,1,colour,0.5,3.9
84,19,0,1,3,44,144,255.69131932081655,256.8878401647089,"[41, 0, 213]",213,a,0.6731244269758463,1,colour,0.5,3.9
84,19,0,1,3,45,145,257.385182492435,258.73583021142986,"[90, 0, 164]",164,l,0.8272816281532869,1,colour,0.5,3.9
84,19,0,1,3,46,146,259.24475594155956,260.99183951248415,"[99, 0, 155]",155,l,1.2237411108799279,1,colour,0.5,3.9
84,19,0,1,3,47,147,261.5105814583367,262.6078629762633,"[42, 0, 212]",212,a,0.5739906516391784,1,colour,0.5,3.9
84,19,0,1,3,48,148,263.12007259367965,264.175849052961,"[19, 0, 235]",235,a,0.5324962269514799,1,colour,0.5,3.9
84,19,0,1,3,49,149,264.68264250131324,266.1281665212009,"[68, 0, 186]",186,l,0.9220953076146543,1,colour,0.5,3.9
84,19,0,1,3,50,150,266.635885113501,267.8078457257943,"[65, 0, 189]",189,l,0.6487591490149498,1,colour,0.5,3.9
84,19,0,1,4,1,151,272.87431392038707,273.5598236200167,"[1, 0, 253]",253,a,0.16123540012631565,1,colour,0.5,3.9
84,19,0,1,4,2,152,274.07839699974284,274.81587703176774,"[57, 0, 197]",197,a,0.21415293193422258,0,colour,0.5,3.9
84,19,0,1,4,3,153,275.3285029443214,276.1038418094395,"[85, 0, 169]",169,l,0.25202554964926094,1,colour,0.5,3.9
84,19,0,1,4,4,154,276.6254068427952,277.3358261154499,"[22, 0, 232]",232,a,0.18730406172107905,1,colour,0.5,3.9
84,19,0,1,4,5,155,277.83183921314776,278.9679291265784,"[68, 0, 186]",186,l,0.6126828626729548,1,colour,0.5,3.9
84,19,0,1,4,6,156,279.48827638837975,280.2238608399639,"[93, 0, 161]",161,l,0.22195108118467033,1,colour,0.5,3.9
84,19,0,1,4,7,157,280.7446354246931,281.5605128504103,"[78, 0, 176]",176,l,0.292540873400867,1,colour,0.5,3.9
84,19,0,1,4,8,158,282.0751733708894,282.8798557263799,"[80, 0, 174]",174,l,0.28132768615614623,1,colour,0.5,3.9
84,19,0,1,4,9,159,283.387736583245,284.1918825204484,"[31, 0, 223]",223,a,0.28077945252880454,1,colour,0.5,3.9
84,19,0,1,4,10,160,284.7003234262811,285.5198919759132,"[82, 0, 172]",172,l,0.2961516526993364,1,colour,0.5,3.9
84,19,0,1,4,11,161,286.02860699850135,286.8477958806325,"[18, 0, 236]",236,a,0.2959220405900851,1,colour,0.5,3.9
84,19,0,1,4,12,162,287.356814952218,288.31984266638756,"[56, 0, 198]",198,a,0.43691179109737277,0,colour,0.5,3.9
84,19,0,1,4,13,163,288.82833949825726,289.64785881724674,"[67, 0, 187]",187,a,0.29621072963345796,0,colour,0.5,3.9
84,19,0,1,4,14,164,290.1565383935813,291.0238363428507,"[53, 0, 201]",201,a,0.34382985229603946,0,colour,0.5,3.9
84,19,0,1,4,15,165,291.53168805513997,292.3518461921485,"[89, 0, 165]",165,l,0.29673966474365443,1,colour,0.5,3.9
84,19,0,1,4,16,166,292.8605604269542,293.791837858269,"[20, 0, 234]",234,a,0.4089306137757376,1,colour,0.5,3.9
84,19,0,1,4,17,167,294.31319100258406,295.26384092716035,"[7, 0, 247]",247,a,0.4273413352202624,1,colour,0.5,3.9
84,19,0,1,4,18,168,295.78201022103895,296.72783592692576,"[8, 0, 246]",246,a,0.42235918436199427,1,colour,0.5,3.9
84,19,0,1,4,19,169,297.23520320875105,297.99181194324046,"[34, 0, 220]",220,a,0.2331717514898628,1,colour,0.5,3.9
84,19,0,1,4,20,170,298.5010070640128,299.447848104639,"[0, 0, 254]",254,a,0.4234190237475559,1,colour,0.5,3.9
84,19,0,1,4,21,171,299.9541464885697,300.8164256592281,"[94, 0, 160]",160,l,0.33880043984390795,1,colour,0.5,3.9
84,19,0,1,4,22,172,301.3293264762033,302.35983338742517,"[32, 0, 222]",222,a,0.5072471587918699,1,colour,0.5,3.9
84,19,0,1,4,23,173,302.8763059930643,303.83185221010353,"[2, 0, 252]",252,a,0.43210765859112144,1,colour,0.5,3.9
84,19,0,1,4,24,174,304.34526699595153,305.2481028441107,"[95, 0, 159]",159,l,0.3796146926470101,1,colour,0.5,3.9
84,19,0,1,4,25,175,305.7672280020779,306.6077810563147,"[26, 0, 228]",228,a,0.31793330144137144,1,colour,0.5,3.9
84,19,0,1,4,26,176,307.1267175619723,307.88782283547334,"[14, 0, 240]",240,a,0.2501496614422649,1,colour,0.5,3.9
84,19,0,1,4,27,177,308.3956576123601,309.74386466818396,"[65, 0, 189]",189,l,0.8250749094877392,1,colour,0.5,3.9
84,19,0,1,4,28,178,310.25704157119617,311.19982048496604,"[81, 0, 173]",173,l,0.4198948903940618,1,colour,0.5,3.9
84,19,0,1,4,29,179,311.7102069896646,312.47984296572395,"[74, 0, 180]",180,l,0.24654439592268318,1,colour,0.5,3.9
84,19,0,1,4,30,180,312.9915811495157,313.8718315095175,"[49, 0, 205]",205,a,0.35692207841202617,1,colour,0.5,3.9
84,19,0,1,4,31,181,314.3829210291151,315.22393133840524,"[24, 0, 230]",230,a,0.3182007228024304,1,colour,0.5,3.9
84,19,0,1,4,32,182,315.7417910693912,316.65579678176437,"[13, 0, 241]",241,a,0.3908916829386726,1,colour,0.5,3.9
84,19,0,1,4,33,183,317.1637690109201,318.1278585336404,"[40, 0, 214]",214,a,0.4390830636257306,1,colour,0.5,3.9
84,19,0,1,4,34,184,318.63427782827057,319.94381236541085,"[63, 0, 191]",191,l,0.7986580880824476,1,colour,0.5,3.9
84,19,0,1,4,35,185,320.4501009032829,321.35180129366927,"[37, 0, 217]",217,a,0.3783248473191634,1,colour,0.5,3.9
84,19,0,1,4,36,186,321.87209105398506,322.8238086948404,"[86, 0, 168]",168,l,0.42838187620509416,1,colour,0.5,3.9
84,19,0,1,4,37,187,323.34093941701576,324.43182251404505,"[75, 0, 179]",179,l,0.5674811662174761,1,colour,0.5,3.9
84,19,0,1,4,38,188,324.95045969693456,325.7758355047554,"[5, 0, 249]",249,a,0.3019561539404094,1,colour,0.5,3.9
84,19,0,1,4,39,189,326.29424110613763,327.1998256050283,"[4, 0, 250]",250,a,0.3821967465337366,1,colour,0.5,3.9
84,19,0,1,4,40,190,327.71626709681004,328.78382742614485,"[38, 0, 216]",216,a,0.5441422509029508,1,colour,0.5,3.9
84,19,0,1,4,41,191,329.2944073091494,330.30387851584237,"[21, 0, 233]",233,a,0.48647336184512824,1,colour,0.5,3.9
84,19,0,1,4,42,192,330.81006662291475,331.8558527866844,"[73, 0, 181]",181,l,0.5222538699163124,1,colour,0.5,3.9
84,19,0,1,4,43,193,332.3734254039591,333.16012199770194,"[79, 0, 175]",175,l,0.2637684595538303,1,colour,0.5,3.9
84,19,0,1,4,44,194,333.6704943238292,334.55189116927795,"[90, 0, 164]",164,l,0.3580059423111379,1,colour,0.5,3.9
84,19,0,1,4,45,195,335.0613355945097,335.96796772349626,"[91, 0, 163]",163,l,0.38346571812871844,1,colour,0.5,3.9
84,19,0,1,4,46,196,336.4832347667543,337.39984498219565,"[36, 0, 218]",218,a,0.3935489613795653,1,colour,0.5,3.9
84,19,0,1,4,47,197,337.9226104579866,338.9279439194361,"[46, 0, 208]",208,a,0.4823836657451466,1,colour,0.5,3.9
84,19,0,1,4,48,198,339.4385557039641,340.63986256346107,"[66, 0, 188]",188,l,0.6778234025696293,1,colour,0.5,3.9
84,19,0,1,4,49,199,341.15730127319694,342.2078076802427,"[29, 0, 225]",225,a,0.527175368508324,1,colour,0.5,3.9
84,19,0,1,4,50,200,342.7200700730318,343.6877632859396,"[55, 0, 199]",199,a,0.4442739528603852,0,colour,0.5,3.9
84,19,0,1,5,1,201,352.3294265130535,353.96781884972006,"[97, 0, 157]",157,l,1.1142818770604208,1,colour,0.5,3.9
84,19,0,1,5,2,202,354.4866517740302,355.27986218535807,"[30, 0, 224]",224,a,0.26989433902781457,1,colour,0.5,3.9
84,19,0,1,5,3,203,355.79924806929193,356.59183856728487,"[86, 0, 168]",168,l,0.2691188564058393,1,colour,0.5,3.9
84,19,0,1,5,4,204,357.1118423953885,357.89579073234927,"[10, 0, 244]",244,a,0.2606098153628409,1,colour,0.5,3.9
84,19,0,1,5,5,205,358.4088522384409,359.3037796604913,"[59, 0, 195]",195,a,0.37160741118714213,0,colour,0.5,3.9
84,19,0,1,5,6,206,359.81517244142015,360.6958292503841,"[40, 0, 214]",214,a,0.357279296615161,1,colour,0.5,3.9
84,19,0,1,5,7,207,361.20592430909164,361.959785180632,"[81, 0, 173]",173,l,0.23041955614462495,1,colour,0.5,3.9
84,19,0,1,5,8,208,362.4716115859337,363.2878324453486,"[18, 0, 236]",236,a,0.3051789951277897,1,colour,0.5,3.9
84,19,0,1,5,9,209,363.80414160492364,366.7437858990161,"[88, 0, 166]",166,l,2.416223064879887,1,colour,0.5,3.9
84,19,0,1,5,10,210,367.2576067401096,368.1677712731762,"[2, 0, 252]",252,a,0.38717456511221826,1,colour,0.5,3.9
84,19,0,1,5,11,211,368.67953308776487,370.0957943557296,"[67, 0, 187]",187,l,0.8910905751399696,1,colour,0.5,3.9
84,19,0,1,5,12,212,370.60338376660366,371.67984619527124,"[75, 0, 179]",179,l,0.5537721774308011,1,colour,0.5,3.9
84,19,0,1,5,13,213,372.19728963111993,373.0237760844175,"[92, 0, 162]",162,l,0.3031282394658774,1,colour,0.5,3.9
84,19,0,1,5,14,214,373.5411210587481,374.39176838390995,"[16, 0, 238]",238,a,0.3271808036370203,1,colour,0.5,3.9
84,19,0,1,5,15,215,374.9005936833564,375.84777894522995,"[8, 0, 246]",246,a,0.4237144080689177,1,colour,0.5,3.9
84,19,0,1,5,16,216,376.36935933865607,377.1437482472975,"[43, 0, 211]",211,a,0.25084913172759116,1,colour,0.5,3.9
84,19,0,1,5,17,217,377.6508280215785,378.5037435054546,"[62, 0, 192]",192,a,0.32950646383687854,0,colour,0.5,3.9
84,19,0,1,5,18,218,379.01228287268896,379.99179185717367,"[53, 0, 201]",201,a,0.4562661674572155,0,colour,0.5,3.9
84,19,0,1,5,19,219,380.51240496488754,381.303759180475,"[44, 0, 210]",210,a,0.26810194621793926,1,colour,0.5,3.9
84,19,0,1,5,20,220,381.8250323741231,382.75980203726795,"[55, 0, 199]",199,a,0.41132047085557133,0,colour,0.5,3.9
84,19,0,1,5,21,221,383.27831279556267,384.13578468281776,"[70, 0, 184]",184,a,0.3341983502032235,0,colour,0.5,3.9
84,19,0,1,5,22,222,384.6533663586015,385.4718203243101,"[20, 0, 234]",234,a,0.2951304102316499,1,colour,0.5,3.9
84,19,0,1,5,23,223,385.9815451677423,386.79981166287325,"[83, 0, 171]",171,l,0.2951615240890533,1,colour,0.5,3.9
84,19,0,1,5,24,224,387.297414716566,388.12778370291926,"[12, 0, 242]",242,a,0.3163212899817154,1,colour,0.5,3.9
84,19,0,1,5,25,225,388.64764771575574,389.5597925061593,"[31, 0, 223]",223,a,0.3887928780168295,1,colour,0.5,3.9
84,19,0,1,5,26,226,390.0695764265256,390.8478431421099,"[34, 0, 220]",220,a,0.25473087711725384,1,colour,0.5,3.9
84,19,0,1,5,27,227,391.36657839268446,392.4078278451925,"[87, 0, 167]",167,l,0.5179979709209874,1,colour,0.5,3.9
84,19,0,1,5,28,228,392.9291967432946,393.7277839392191,"[19, 0, 235]",235,a,0.27571341244038194,1,colour,0.5,3.9
84,19,0,1,5,29,229,394.2417965832865,395.2958275175188,"[14, 0, 240]",240,a,0.5309350216994062,1,colour,0.5,3.9
84,19,0,1,5,30,230,395.7950106810313,396.61575919308234,"[58, 0, 196]",196,a,0.29655180021654814,0,colour,0.5,3.9
84,19,0,1,5,31,231,397.1239633974619,397.9357692440972,"[95, 0, 159]",159,l,0.28832947893533856,1,colour,0.5,3.9
84,19,0,1,5,32,232,398.4522583911894,399.35180326295085,"[45, 0, 209]",209,a,0.3760807132348418,1,colour,0.5,3.9
84,19,0,1,5,33,233,399.8586534250062,400.82377364253625,"[17, 0, 237]",237,a,0.44171907438430935,1,colour,0.5,3.9
84,19,0,1,5,34,234,401.3431284126127,403.343780621537,"[73, 0, 181]",181,l,1.4771482719806954,1,colour,0.5,3.9
84,19,0,1,5,35,235,403.8590145816561,404.83978781150654,"[15, 0, 239]",239,a,0.4573598774150014,1,colour,0.5,3.9
84,19,0,1,5,36,236,405.3591323416913,406.16773740237113,"[27, 0, 227]",227,a,0.2851818623021245,1,colour,0.5,3.9
84,19,0,1,5,37,237,406.6872934277635,407.5358470680658,"[38, 0, 216]",216,a,0.32623636117205024,1,colour,0.5,3.9
84,19,0,1,5,38,238,408.0469381629955,409.1437907826621,"[74, 0, 180]",180,l,0.5838505842257291,1,colour,0.5,3.9
84,19,0,1,5,39,239,409.6616442122031,410.5597574538551,"[21, 0, 233]",233,a,0.37471879401709884,1,colour,0.5,3.9
84,19,0,1,5,40,240,411.06814755359665,413.5117866268847,"[68, 0, 186]",186,a,1.9187338326591998,0,colour,0.5,3.9
84,19,0,1,5,41,241,414.02301359863486,414.8477761883987,"[33, 0, 221]",221,a,0.30144376039970666,1,colour,0.5,3.9
84,19,0,1,5,42,242,415.3668410878163,416.2477940690005,"[0, 0, 254]",254,a,0.357474644202739,1,colour,0.5,3.9
84,19,0,1,5,43,243,416.75753033393994,417.7437673882814,"[50, 0, 204]",204,a,0.46313365874812007,1,colour,0.5,3.9
84,19,0,1,5,44,244,418.25770480767824,419.15175867953803,"[96, 0, 158]",158,l,0.37099222384858876,1,colour,0.5,3.9
84,19,0,1,5,45,245,419.6640840875916,420.8557637775084,"[80, 0, 174]",174,l,0.668300602119416,1,colour,0.5,3.9
84,19,0,1,5,46,246,421.36727195524145,422.48776753945276,"[36, 0, 218]",218,a,0.5970160657307133,1,colour,0.5,3.9
84,19,0,1,5,47,247,423.00802579219453,423.9117985997582,"[89, 0, 165]",165,l,0.3802759599639103,1,colour,0.5,3.9
84,19,0,1,5,48,248,424.4300624167081,425.49573819327634,"[94, 0, 160]",160,l,0.5424487134441733,1,colour,0.5,3.9
84,19,0,1,5,49,249,426.00820814282633,427.27180212864187,"[1, 0, 253]",253,a,0.7400569658493623,1,colour,0.5,3.9
84,19,0,1,5,50,250,427.78967879503034,431.3518402844202,"[82, 0, 172]",172,l,3.038773343199864,1,colour,0.5,3.9
84,19,0,1,6,1,251,436.40086504316423,437.7197833531536,"[34, 0, 220]",220,a,0.7947282935492694,1,colour,0.5,3.9
84,19,0,1,6,2,252,438.2299626949243,438.99207070004195,"[30, 0, 224]",224,a,0.23883998196106404,1,colour,0.5,3.9
84,19,0,1,6,3,253,439.51124233182054,440.43174571415875,"[14, 0, 240]",240,a,0.39712941460311413,1,colour,0.5,3.9
84,19,0,1,6,4,254,440.9488465039758,442.0317873042077,"[57, 0, 197]",197,a,0.5595900693442672,0,colour,0.5,3.9
84,19,0,1,6,5,255,442.5427161346888,445.3677114873426,"[67, 0, 187]",187,a,2.3015650649322197,0,colour,0.5,3.9
84,19,0,1,6,6,256,445.8868295560824,446.7357549868757,"[40, 0, 214]",214,a,0.32594018906820565,1,colour,0.5,3.9
84,19,0,1,6,7,257,447.2462234114064,448.0720304804854,"[98, 0, 156]",156,l,0.3025788243394345,1,colour,0.5,3.9
84,19,0,1,6,8,258,448.5907196509652,449.53576475416776,"[80, 0, 174]",174,l,0.42169319081585854,1,colour,0.5,3.9
84,19,0,1,6,9,259,450.0439898323966,451.07174651755486,"[97, 0, 157]",157,l,0.5043275789357722,1,colour,0.5,3.9
84,19,0,1,6,10,260,451.5910067646764,452.46380871057045,"[93, 0, 161]",161,l,0.3495016273809597,1,colour,0.5,3.9
84,19,0,1,6,11,261,452.9817428784445,454.3117156558437,"[55, 0, 199]",199,a,0.8069627232616767,0,colour,0.5,3.9
84,19,0,1,6,12,262,454.82561526610516,455.59971942414995,"[20, 0, 234]",234,a,0.25107992556877434,1,colour,0.5,3.9
84,19,0,1,6,13,263,456.10703905054834,456.6717589631444,"[2, 0, 252]",252,a,0.04135027714073658,1,colour,0.5,3.9
84,19,0,1,6,14,264,457.1853840627009,458.0397595333634,"[92, 0, 162]",162,l,0.33121378580108285,1,colour,0.5,3.9
84,19,0,1,6,15,265,458.56025251816027,461.67971858917736,"[71, 0, 183]",183,a,2.59594874328468,0,colour,0.5,3.9
84,19,0,1,6,16,266,462.18551797035616,463.1037429540884,"[64, 0, 190]",190,a,0.3947635821532458,0,colour,0.5,3.9
84,19,0,1,6,17,267,463.62318003794644,464.65572352637537,"[73, 0, 181]",181,a,0.5091305299429223,0,colour,0.5,3.9
84,19,0,1,6,18,268,465.1702391116414,466.17574074538425,"[3, 0, 251]",251,a,0.4821800474310294,1,colour,0.5,3.9
84,19,0,1,6,19,269,466.685887397849,467.6317383098649,"[91, 0, 163]",163,l,0.4348527647089213,1,colour,0.5,3.9
84,19,0,1,6,20,270,468.14231976820156,468.9360339085106,"[88, 0, 166]",166,l,0.27058868936728686,1,colour,0.5,3.9
84,19,0,1,6,21,271,469.4549625373911,470.65567350795027,"[39, 0, 215]",215,a,0.6773251874838024,1,colour,0.5,3.9
84,19,0,1,6,22,272,471.1738699772395,471.9357030779356,"[4, 0, 250]",250,a,0.23851978522725403,1,colour,0.5,3.9
84,19,0,1,6,23,273,472.4551968756132,473.3277353387093,"[8, 0, 246]",246,a,0.34912944305688143,1,colour,0.5,3.9
84,19,0,1,6,24,274,473.84588415257167,474.7116890317993,"[65, 0, 189]",189,a,0.3425297668436542,0,colour,0.5,3.9
84,19,0,1,6,25,275,475.22294436057564,476.055755191599,"[87, 0, 167]",167,l,0.3094510417431593,1,colour,0.5,3.9
84,19,0,1,6,26,276,476.56796205206774,477.3277195848059,"[54, 0, 200]",200,a,0.23635442031081766,0,colour,0.5,3.9
84,19,0,1,6,27,277,477.8492334182374,479.2804080558708,"[78, 0, 176]",176,a,0.9077794022159651,0,colour,0.5,3.9
84,19,0,1,6,28,278,479.7868820950389,480.5840404180344,"[95, 0, 159]",159,l,0.27377490291837603,1,colour,0.5,3.9
84,19,0,1,6,29,279,481.0994768150849,481.8316797055304,"[18, 0, 236]",236,a,0.20876157516613603,1,colour,0.5,3.9
84,19,0,1,6,30,280,482.3495288026752,483.1197173446417,"[11, 0, 243]",243,a,0.2473096385365352,1,colour,0.5,3.9
84,19,0,1,6,31,281,483.63094077189453,484.50373247778043,"[77, 0, 177]",177,l,0.3493878059089184,1,colour,0.5,3.9
84,19,0,1,6,32,282,485.0217111501843,486.31972018035594,"[35, 0, 219]",219,a,0.7747079238761216,1,colour,0.5,3.9
84,19,0,1,6,33,283,486.83433737780433,487.56771668605506,"[15, 0, 239]",239,a,0.20990766666363925,1,colour,0.5,3.9
84,19,0,1,6,34,284,488.0857465584995,488.83969131927006,"[59, 0, 195]",195,a,0.23047981457784772,0,colour,0.5,3.9
84,19,0,1,6,35,285,489.35152678308077,490.1277443183353,"[27, 0, 227]",227,a,0.2536442562704906,1,colour,0.5,3.9
84,19,0,1,6,36,286,490.64854017063044,491.4317484711064,"[21, 0, 233]",233,a,0.25985363114159554,1,colour,0.5,3.9
84,19,0,1,6,37,287,491.9452766845934,492.8157218565466,"[12, 0, 242]",242,a,0.34688885358627886,1,colour,0.5,3.9
84,19,0,1,6,38,288,493.33733966527507,494.1277510137297,"[31, 0, 223]",223,a,0.26707164535764605,1,colour,0.5,3.9
84,19,0,1,6,39,289,494.6343302098103,495.63170325756073,"[32, 0, 222]",222,a,0.47392503696028143,1,colour,0.5,3.9
84,19,0,1,6,40,290,496.1500990127679,496.9437505316455,"[99, 0, 155]",155,l,0.2701853911858052,1,colour,0.5,3.9
84,19,0,1,6,41,291,497.4626669512363,498.23970919987187,"[36, 0, 218]",218,a,0.25382345623802394,1,colour,0.5,3.9
84,19,0,1,6,42,292,498.75970200041775,499.68771523679607,"[61, 0, 193]",193,a,0.4049295331351459,0,colour,0.5,3.9
84,19,0,1,6,43,293,500.19729120645206,501.0157372952672,"[6, 0, 248]",248,a,0.2949661765014753,1,colour,0.5,3.9
84,19,0,1,6,44,294,501.5254912833916,502.26369756727945,"[58, 0, 196]",196,a,0.2147740270011127,0,colour,0.5,3.9
84,19,0,1,6,45,295,502.7756279478781,503.6236928253202,"[24, 0, 230]",230,a,0.32467830658424646,1,colour,0.5,3.9
84,19,0,1,6,46,296,504.13519470160827,504.93571134866215,"[90, 0, 164]",164,l,0.2774097068468109,1,colour,0.5,3.9
84,19,0,1,6,47,297,505.44775121856946,506.2397218029946,"[13, 0, 241]",241,a,0.26862024748697877,1,colour,0.5,3.9
84,19,0,1,6,48,298,506.7603286092635,507.54373028792907,"[81, 0, 173]",173,l,0.26039044302888215,1,colour,0.5,3.9
84,19,0,1,6,49,299,508.05731718451716,508.8318187331315,"[45, 0, 209]",209,a,0.2495707079069689,1,colour,0.5,3.9
84,19,0,1,6,50,300,509.3407294971403,510.15965883492026,"[9, 0, 245]",245,a,0.2954049209365621,1,colour,0.5,3.9
84,19,0,1,7,1,301,520.6846196078695,522.9038314906647,"[48, 0, 206]",206,a,1.6950171402422711,1,colour,0.5,3.9
84,19,0,1,7,2,302,523.4218200092437,524.3276967417914,"[61, 0, 193]",193,a,0.382423207978718,0,colour,0.5,3.9
84,19,0,1,7,3,303,524.8438814460533,525.6077164656017,"[37, 0, 217]",217,a,0.24085529160220176,1,colour,0.5,3.9
84,19,0,1,7,4,304,526.12516856601,526.9676735205576,"[52, 0, 202]",202,a,0.3190986914560199,0,colour,0.5,3.9
84,19,0,1,7,5,305,527.4846703351941,528.1677385839866,"[2, 0, 252]",252,a,0.1595737641910091,1,colour,0.5,3.9
84,19,0,1,7,6,306,528.6884540916653,529.2797444254393,"[12, 0, 242]",242,a,0.06841615645680577,1,colour,0.5,3.9
84,19,0,1,7,7,307,529.7973272827221,530.7196585040074,"[63, 0, 191]",191,a,0.3988757274346426,0,colour,0.5,3.9
84,19,0,1,7,8,308,531.2349546919577,531.9278324610787,"[11, 0, 243]",243,a,0.16944275528658181,1,colour,0.5,3.9
84,19,0,1,7,9,309,532.4382091194857,533.2477054536575,"[9, 0, 245]",245,a,0.2929043931653723,1,colour,0.5,3.9
84,19,0,1,7,10,310,533.759576363489,534.6156989346491,"[59, 0, 195]",195,a,0.3330073601100594,0,colour,0.5,3.9
84,19,0,1,7,11,311,535.1345893604448,535.9597095622448,"[3, 0, 251]",251,a,0.30192779703065753,1,colour,0.5,3.9
84,19,0,1,7,12,312,536.4786641849205,537.2957719851984,"[26, 0, 228]",228,a,0.2939315432449803,1,colour,0.5,3.9
84,19,0,1,7,13,313,537.8002378041856,538.6476670142729,"[33, 0, 221]",221,a,0.32416236854624003,1,colour,0.5,3.9
84,19,0,1,7,14,314,539.161658784491,539.9597131068585,"[75, 0, 179]",179,l,0.27484025608282536,1,colour,0.5,3.9
84,19,0,1,7,15,315,540.4742188459495,541.1677035316825,"[90, 0, 164]",164,l,0.17011977639049292,1,colour,0.5,3.9
84,19,0,1,7,16,316,541.677458701306,543.1757092376938,"[68, 0, 186]",186,l,0.9748442732961848,1,colour,0.5,3.9
84,19,0,1,7,17,317,543.6932365627727,544.4876730164979,"[88, 0, 166]",166,l,0.27101995062548667,1,colour,0.5,3.9
84,19,0,1,7,18,318,545.0058722426184,545.9517708099447,"[16, 0, 238]",238,a,0.4226183348800987,1,colour,0.5,3.9
84,19,0,1,7,19,319,546.4466460868716,547.3196953680599,"[98, 0, 156]",156,l,0.3498454549117014,1,colour,0.5,3.9
84,19,0,1,7,20,320,547.8373672345188,548.7836517709075,"[60, 0, 194]",194,a,0.42288811947219074,0,colour,0.5,3.9
84,19,0,1,7,21,321,549.2905885790242,550.0716716868337,"[58, 0, 196]",196,a,0.25765518320258707,0,colour,0.5,3.9
84,19,0,1,7,22,322,550.5875873944024,551.359684513649,"[62, 0, 192]",192,a,0.24870503460988402,0,colour,0.5,3.9
84,19,0,1,7,23,323,551.8692014064873,552.5996650734451,"[42, 0, 212]",212,a,0.20734097296372056,1,colour,0.5,3.9
84,19,0,1,7,24,324,553.119043080369,554.1916678744601,"[25, 0, 229]",229,a,0.5493036017287523,1,colour,0.5,3.9
84,19,0,1,7,25,325,554.7128938065143,555.615663882345,"[64, 0, 190]",190,a,0.3797021263744682,0,colour,0.5,3.9
84,19,0,1,7,26,326,556.1349635140505,556.9676510713762,"[10, 0, 244]",244,a,0.30968065396882594,1,colour,0.5,3.9
84,19,0,1,7,27,327,557.4787957294611,558.3676512289094,"[27, 0, 227]",227,a,0.36564970400650054,1,colour,0.5,3.9
84,19,0,1,7,28,328,558.8851001786534,559.695690222783,"[44, 0, 210]",210,a,0.28717117803171277,1,colour,0.5,3.9
84,19,0,1,7,29,329,560.2134097446688,561.087670102017,"[21, 0, 233]",233,a,0.35885546798817813,1,colour,0.5,3.9
84,19,0,1,7,30,330,561.5836398766842,562.6157737653702,"[55, 0, 199]",199,a,0.5087142348056659,0,colour,0.5,3.9
84,19,0,1,7,31,331,563.1306800458115,564.0317628858611,"[93, 0, 161]",161,l,0.3776773646241054,1,colour,0.5,3.9
84,19,0,1,7,32,332,564.5526556242257,565.8476556715323,"[83, 0, 171]",171,l,0.7715327381156385,1,colour,0.5,3.9
84,19,0,1,7,33,333,566.3679383426206,567.2077182772337,"[84, 0, 170]",170,l,0.3163134130882099,1,colour,0.5,3.9
84,19,0,1,7,34,334,567.7274259333499,568.487683256506,"[34, 0, 220]",220,a,0.2368049800861627,1,colour,0.5,3.9
84,19,0,1,7,35,335,569.0088158471044,569.8316761609167,"[30, 0, 224]",224,a,0.29947610618546605,1,colour,0.5,3.9
84,19,0,1,7,36,336,570.3525173055241,571.1517027533846,"[14, 0, 240]",240,a,0.27558856329414994,1,colour,0.5,3.9
84,19,0,1,7,37,337,571.6652526285034,572.3036485097837,"[23, 0, 231]",231,a,0.11503924278076738,1,colour,0.5,3.9
84,19,0,1,7,38,338,572.822961926111,573.5916597611504,"[71, 0, 183]",183,l,0.24531205196399242,1,colour,0.5,3.9
84,19,0,1,7,39,339,574.1043002459919,574.8556475929217,"[92, 0, 162]",162,l,0.22793753922451288,1,colour,0.5,3.9
84,19,0,1,7,40,340,575.3700146982446,575.9916953648208,"[20, 0, 234]",234,a,0.09829330805223435,1,colour,0.5,3.9
84,19,0,1,7,41,341,576.5107106397627,577.095663598855,"[79, 0, 175]",175,l,0.061526609817519784,1,colour,0.5,3.9
84,19,0,1,7,42,342,577.6045530950651,578.2316652907757,"[4, 0, 250]",250,a,0.10374452942050993,1,colour,0.5,3.9
84,19,0,1,7,43,343,578.745352618047,579.4476941109169,"[51, 0, 203]",203,a,0.17909119266550988,0,colour,0.5,3.9
84,19,0,1,7,44,344,579.9641615964938,580.5436814511195,"[96, 0, 158]",158,l,0.05615218845196068,1,colour,0.5,3.9
84,19,0,1,7,45,345,581.0579674241599,581.7116910010809,"[31, 0, 223]",223,a,0.12878249620553106,1,colour,0.5,3.9
84,19,0,1,7,46,346,582.231459309347,582.9276508981129,"[43, 0, 211]",211,a,0.17280147329438478,1,colour,0.5,3.9
84,19,0,1,7,47,347,583.4346995585365,584.5596475708298,"[69, 0, 185]",185,l,0.6148368059657514,1,colour,0.5,3.9
84,19,0,1,7,48,348,585.0786620581057,586.0076362785185,"[95, 0, 159]",159,l,0.4056943819159642,1,colour,0.5,3.9
84,19,0,1,7,49,349,586.5162587473169,587.3676996720023,"[22, 0, 232]",232,a,0.32804017548915,1,colour,0.5,3.9
84,19,0,1,7,50,350,587.8757841471815,588.6476855250075,"[53, 0, 201]",201,a,0.24857900384813547,0,colour,0.5,3.9
84,19,0,1,8,1,351,598.8471676964546,602.4876529303147,"[62, 0, 192]",192,a,3.116378712817095,0,colour,0.5,3.9
84,19,0,1,8,2,352,603.0045839726226,603.919634164311,"[95, 0, 159]",159,l,0.39173451310489327,1,colour,0.5,3.9
84,19,0,1,8,3,353,604.4265012618853,605.23971943988,"[20, 0, 234]",234,a,0.29061693605035543,1,colour,0.5,3.9
84,19,0,1,8,4,354,605.7547946801642,608.0156565568177,"[79, 0, 175]",175,l,1.7377805364085361,1,colour,0.5,3.9
84,19,0,1,8,5,355,608.5361593877897,610.0716165484628,"[14, 0, 240]",240,a,1.0119319560471922,1,colour,0.5,3.9
84,19,0,1,8,6,356,610.5832621784648,611.4315940834349,"[54, 0, 200]",200,a,0.324941789614968,0,colour,0.5,3.9
84,19,0,1,8,7,357,611.9427391353529,613.1836361745372,"[82, 0, 172]",172,l,0.7180921788094565,1,colour,0.5,3.9
84,19,0,1,8,8,358,613.6928655598313,614.5516725848429,"[5, 0, 249]",249,a,0.33540470036678016,1,colour,0.5,3.9
84,19,0,1,8,9,359,615.0679856828647,615.8156509642722,"[15, 0, 239]",239,a,0.22430194751359522,1,colour,0.5,3.9
84,19,0,1,8,10,360,616.3337052551797,617.1836590176681,"[84, 0, 170]",170,l,0.3265797948697582,1,colour,0.5,3.9
84,19,0,1,8,11,361,617.693144796649,618.455655312282,"[99, 0, 155]",155,l,0.2391259140567854,1,colour,0.5,3.9
84,19,0,1,8,12,362,618.9745000519324,619.7676572941709,"[60, 0, 194]",194,a,0.26982147758826613,0,colour,0.5,3.9
84,19,0,1,8,13,363,620.2871101319324,621.0716543575982,"[32, 0, 222]",222,a,0.261069827247411,1,colour,0.5,3.9
84,19,0,1,8,14,364,621.5841345471563,622.3517063767649,"[8, 0, 246]",246,a,0.2441167295910418,1,colour,0.5,3.9
84,19,0,1,8,15,365,622.8654240302276,623.6797288291855,"[65, 0, 189]",189,a,0.2908745112363249,0,colour,0.5,3.9
84,19,0,1,8,16,366,624.1813105143374,625.0156522245379,"[68, 0, 186]",186,a,0.31088227790314704,0,colour,0.5,3.9
84,19,0,1,8,17,367,625.5251931420062,626.3596234675497,"[6, 0, 248]",248,a,0.3109783763065934,1,colour,0.5,3.9
84,19,0,1,8,18,368,626.8689973942237,627.6876065352699,"[19, 0, 235]",235,a,0.2955010192235932,1,colour,0.5,3.9
84,19,0,1,8,19,369,628.1972809664439,629.055610650219,"[38, 0, 216]",216,a,0.33506244828458875,1,colour,0.5,3.9
84,19,0,1,8,20,370,629.5723810034106,630.4796637658728,"[73, 0, 181]",181,l,0.3839257301297039,1,colour,0.5,3.9
84,19,0,1,8,21,371,630.9943892710144,631.9677463821135,"[76, 0, 178]",178,l,0.45001662033610046,1,colour,0.5,3.9
84,19,0,1,8,22,372,632.478874104796,633.6076475424925,"[39, 0, 215]",215,a,0.6055101407691836,1,colour,0.5,3.9
84,19,0,1,8,23,373,634.1195771354251,635.1036287387833,"[30, 0, 224]",224,a,0.460584688000381,1,colour,0.5,3.9
84,19,0,1,8,24,374,635.6196425139206,636.4556131707504,"[75, 0, 179]",179,l,0.3125415507238358,1,colour,0.5,3.9
84,19,0,1,8,25,375,636.9635814614594,637.7275996193057,"[86, 0, 168]",168,l,0.24075092235580087,1,colour,0.5,3.9
84,19,0,1,8,26,376,638.2448595230235,638.9836345204385,"[85, 0, 169]",169,l,0.21532147284597158,1,colour,0.5,3.9
84,19,0,1,8,27,377,639.4950623536715,640.3837043886306,"[0, 0, 254]",254,a,0.3652605841634795,1,colour,0.5,3.9
84,19,0,1,8,28,378,640.9013837382663,641.6875801476417,"[2, 0, 252]",252,a,0.26339351828210056,1,colour,0.5,3.9
84,19,0,1,8,29,379,642.1983864919748,643.0236244536936,"[71, 0, 183]",183,l,0.3019274031976238,1,colour,0.5,3.9
84,19,0,1,8,30,380,643.5421887750272,644.3995956777362,"[4, 0, 250]",250,a,0.3340549903223291,1,colour,0.5,3.9
84,19,0,1,8,31,381,644.9173372549703,645.8156222135294,"[16, 0, 238]",238,a,0.3748487632256001,1,colour,0.5,3.9
84,19,0,1,8,32,382,646.3236476118909,647.3836090780096,"[63, 0, 191]",191,a,0.5365166062256321,0,colour,0.5,3.9
84,19,0,1,8,33,383,647.9019386671716,648.7915944615379,"[26, 0, 228]",228,a,0.36622038669884205,1,colour,0.5,3.9
84,19,0,1,8,34,384,649.3083565440029,650.2476357428823,"[93, 0, 161]",161,l,0.4160194465657696,1,colour,0.5,3.9
84,19,0,1,8,35,385,650.7615609531058,651.5276294728974,"[97, 0, 157]",157,l,0.24287847813684493,1,colour,0.5,3.9
84,19,0,1,8,36,386,652.0428685530787,652.9836093143094,"[28, 0, 226]",226,a,0.4173577349865809,1,colour,0.5,3.9
84,19,0,1,8,37,387,653.496136765345,654.2556150612654,"[21, 0, 233]",233,a,0.2363390603568405,1,colour,0.5,3.9
84,19,0,1,8,38,388,654.7619055683026,655.5677060522139,"[27, 0, 227]",227,a,0.2827888544416055,1,colour,0.5,3.9
84,19,0,1,8,39,389,656.0751233524643,656.7995859890943,"[17, 0, 237]",237,a,0.20102447201497853,1,colour,0.5,3.9
84,19,0,1,8,40,390,657.3096223647008,658.0956242142711,"[43, 0, 211]",211,a,0.2627070448361337,1,colour,0.5,3.9
84,19,0,1,8,41,391,658.5941528058611,659.5595845555654,"[80, 0, 174]",174,l,0.4420632957480848,1,colour,0.5,3.9
84,19,0,1,8,42,392,660.0785907719983,660.9196566136088,"[3, 0, 251]",251,a,0.31872493168339133,1,colour,0.5,3.9
84,19,0,1,8,43,393,661.4379909288837,662.215604647994,"[48, 0, 206]",206,a,0.25411529606208205,1,colour,0.5,3.9
84,19,0,1,8,44,394,662.7351275902474,663.511596793076,"[53, 0, 201]",201,a,0.2530700289644301,0,colour,0.5,3.9
84,19,0,1,8,45,395,664.0320570886834,664.8316103887046,"[66, 0, 188]",188,a,0.2762230491498485,0,colour,0.5,3.9
84,19,0,1,8,46,396,665.3446407809388,666.175615896238,"[56, 0, 198]",198,a,0.30746172612998635,0,colour,0.5,3.9
84,19,0,1,8,47,397,666.6885088363197,667.5115688299993,"[23, 0, 231]",231,a,0.29958086914848536,1,colour,0.5,3.9
84,19,0,1,8,48,398,668.0323331747204,668.7675852203975,"[51, 0, 203]",203,a,0.21200883481651545,0,colour,0.5,3.9
84,19,0,1,8,49,399,669.2824930761708,670.0396142042009,"[89, 0, 165]",165,l,0.23377591103781015,1,colour,0.5,3.9
84,19,0,1,8,50,400,670.5481464823242,671.2956290191505,"[18, 0, 236]",236,a,0.23641546652652323,1,colour,0.5,3.9
84,19,0,1,9,1,401,681.9422038986813,683.8076992151327,"[61, 0, 193]",193,a,1.3412958476692438,0,colour,0.5,3.8
84,19,0,1,9,2,402,684.3089181681862,685.1035503634484,"[31, 0, 223]",223,a,0.27126649825368077,1,colour,0.5,3.8
84,19,0,1,9,3,403,685.6219449371565,686.3835964748869,"[32, 0, 222]",222,a,0.23832010535988957,1,colour,0.5,3.8
84,19,0,1,9,4,404,686.9032639586367,687.6315890422557,"[22, 0, 232]",232,a,0.20488888816908002,1,colour,0.5,3.8
84,19,0,1,9,5,405,688.1377428846899,688.8075952398358,"[71, 0, 183]",183,l,0.14671508874744177,1,colour,0.5,3.8
84,19,0,1,9,6,406,689.3252958570374,690.0076000447152,"[74, 0, 180]",180,l,0.15885854000225663,1,colour,0.5,3.8
84,19,0,1,9,7,407,690.5285250784364,691.1195668955334,"[84, 0, 170]",170,l,0.06763909850269556,1,colour,0.5,3.8
84,19,0,1,9,8,408,691.6380418137414,692.1916214006487,"[72, 0, 182]",182,l,0.030415145098231733,1,colour,0.5,3.8
84,19,0,1,9,9,409,692.7005947860889,693.2555811904604,"[52, 0, 202]",202,a,0.031561236712150276,0,colour,0.5,3.8
84,19,0,1,9,10,410,693.7631985645276,694.303669777466,"[7, 0, 247]",247,a,0.017304014414548874,1,colour,0.5,3.8
84,19,0,1,9,11,411,694.800379588618,697.2235674248077,"[3, 0, 251]",251,a,1.8997579423012212,1,colour,0.5,3.8
84,19,0,1,9,12,412,697.7381145177642,698.5435944111086,"[29, 0, 225]",225,a,0.2820326703367755,1,colour,0.5,3.8
84,19,0,1,9,13,413,699.0507285360945,699.8796044526389,"[73, 0, 181]",181,l,0.3054893456865102,1,colour,0.5,3.8
84,19,0,1,9,14,414,700.3965016241418,701.1435655028326,"[25, 0, 229]",229,a,0.22388407692778856,1,colour,0.5,3.8
84,19,0,1,9,15,415,701.6622424641391,702.4316055049421,"[10, 0, 244]",244,a,0.24607729457784444,1,colour,0.5,3.8
84,19,0,1,9,16,416,702.943613473326,703.7755649324972,"[24, 0, 230]",230,a,0.30845894385129213,1,colour,0.5,3.8
84,19,0,1,9,17,417,704.2875024024397,705.1036287387833,"[49, 0, 205]",205,a,0.29289572848938406,1,colour,0.5,3.8
84,19,0,1,9,18,418,705.6157205961645,706.2715713349171,"[12, 0, 242]",242,a,0.1325216693803668,1,colour,0.5,3.8
84,19,0,1,9,19,419,706.7876209500246,707.5756306260591,"[35, 0, 219]",219,a,0.26455930212978274,1,colour,0.5,3.8
84,19,0,1,9,20,420,708.0846382761374,708.8235759318341,"[88, 0, 166]",166,l,0.21395167661830783,1,colour,0.5,3.8
84,19,0,1,9,21,421,709.3362770689419,710.087605117471,"[80, 0, 174]",174,l,0.22782293008640409,1,colour,0.5,3.8
84,19,0,1,9,22,422,710.6020557180746,711.3115923820296,"[50, 0, 204]",204,a,0.18614772998262197,1,colour,0.5,3.8
84,19,0,1,9,23,423,711.8209552811459,712.5675815970171,"[77, 0, 177]",177,l,0.22328306816052645,1,colour,0.5,3.8
84,19,0,1,9,24,424,713.0867173887091,713.847585566924,"[38, 0, 216]",216,a,0.23736896750051528,1,colour,0.5,3.8
84,19,0,1,9,25,425,714.3681277824799,715.0395921488525,"[82, 0, 172]",172,l,0.14802226331084967,1,colour,0.5,3.8
84,19,0,1,9,26,426,715.5556874501053,716.2875937747303,"[85, 0, 169]",169,l,0.20856819686014205,1,colour,0.5,3.8
84,19,0,1,9,27,427,716.8077011842979,717.5115613469388,"[87, 0, 167]",167,l,0.1805023425258696,1,colour,0.5,3.8
84,19,0,1,9,28,428,718.0265026796842,718.7915751631372,"[37, 0, 217]",217,a,0.24169615260325372,1,colour,0.5,3.8
84,19,0,1,9,29,429,719.307879596483,720.0078686475754,"[23, 0, 231]",231,a,0.17668243101797998,1,colour,0.5,3.8
84,19,0,1,9,30,430,720.5267047226662,721.2076253296109,"[93, 0, 161]",161,l,0.15752143308054656,1,colour,0.5,3.8
84,19,0,1,9,31,431,721.7143644271418,722.3035543806618,"[81, 0, 173]",173,l,0.06578250881284475,1,colour,0.5,3.8
84,19,0,1,9,32,432,722.8238055440597,723.527589300531,"[5, 0, 249]",249,a,0.18032038572710007,1,colour,0.5,3.8
84,19,0,1,9,33,433,724.0426294886274,724.7116023857379,"[1, 0, 253]",253,a,0.14559026481583714,1,colour,0.5,3.8
84,19,0,1,9,34,434,725.2302844669903,725.9195841458859,"[18, 0, 236]",236,a,0.16612184641417116,1,colour,0.5,3.8
84,19,0,1,9,35,435,726.4334943899885,726.9995640125126,"[86, 0, 168]",168,l,0.042780725518241525,1,colour,0.5,3.8
84,19,0,1,9,36,436,727.5116814699722,728.0556008040439,"[97, 0, 157]",157,l,0.021363778156228364,1,colour,0.5,3.8
84,19,0,1,9,37,437,728.5742045099614,729.1195554739097,"[79, 0, 175]",175,l,0.02229955606162548,1,colour,0.5,3.8
84,19,0,1,9,38,438,729.6368189222412,731.7115574872587,"[89, 0, 165]",165,l,1.5513575080549344,1,colour,0.5,3.8
84,19,0,1,9,39,439,732.2307590512792,733.0396874595899,"[64, 0, 190]",190,a,0.2854709451785311,0,colour,0.5,3.8
84,19,0,1,9,40,440,733.5589870912954,735.3435931508429,"[41, 0, 213]",213,a,1.2611568672582507,1,colour,0.5,3.8
84,19,0,1,9,41,441,735.8560583742801,736.7995501491241,"[54, 0, 200]",200,a,0.42041279771365225,0,colour,0.5,3.8
84,19,0,1,9,42,442,737.3092832633993,737.9595638392493,"[44, 0, 210]",210,a,0.12685974047053605,1,colour,0.5,3.8
84,19,0,1,9,43,443,738.4656164633343,739.3035591067746,"[70, 0, 184]",184,l,0.314628146472387,1,colour,0.5,3.8
84,19,0,1,9,44,444,739.8094750663731,740.5755451614968,"[19, 0, 235]",235,a,0.24118021444883198,1,colour,0.5,3.8
84,19,0,1,9,45,445,741.0923269361956,741.775553904823,"[30, 0, 224]",224,a,0.15981243480928242,1,colour,0.5,3.8
84,19,0,1,9,46,446,742.2955585207092,743.0315360305831,"[48, 0, 206]",206,a,0.21295445878058672,1,colour,0.5,3.8
84,19,0,1,9,47,447,743.5456416222733,744.3436226892518,"[0, 0, 254]",254,a,0.2747000469826162,1,colour,0.5,3.8
84,19,0,1,9,48,448,744.8583285021596,746.3596077136463,"[68, 0, 186]",186,a,0.9779974037082866,0,colour,0.5,3.8
84,19,0,1,9,49,449,746.8740969112841,747.759584240499,"[11, 0, 243]",243,a,0.3621239953208715,1,colour,0.5,3.8
84,19,0,1,9,50,450,748.2803785173455,749.007540180115,"[55, 0, 199]",199,a,0.20393184258136898,0,colour,0.5,3.8
84,19,0,1,10,1,451,754.7644990436966,755.9435429748846,"[62, 0, 192]",192,a,0.654850370134227,0,colour,0.5,3.8
84,19,0,1,10,2,452,756.4529310801299,757.199529038975,"[63, 0, 191]",191,a,0.2232176896650344,0,colour,0.5,3.8
84,19,0,1,10,3,453,757.7186790092383,758.351578770671,"[2, 0, 252]",252,a,0.10955848288722336,1,colour,0.5,3.8
84,19,0,1,10,4,454,758.859384402982,759.5355910682119,"[7, 0, 247]",247,a,0.15285120822954923,1,colour,0.5,3.8
84,19,0,1,10,5,455,760.0469444645569,760.5917586165015,"[18, 0, 236]",236,a,0.021180639741942286,1,colour,0.5,3.8
84,19,0,1,10,6,456,761.1093820399838,761.743824495934,"[53, 0, 201]",201,a,0.11127683275844902,0,colour,0.5,3.8
84,19,0,1,10,7,457,762.2504044796806,762.9837235296145,"[60, 0, 194]",194,a,0.2105307310121134,0,colour,0.5,3.8
84,19,0,1,10,8,458,763.5002008613665,764.1517929441761,"[83, 0, 171]",171,l,0.12806293973699212,1,colour,0.5,3.8
84,19,0,1,10,9,459,764.6726073072059,766.4796617965912,"[67, 0, 187]",187,l,1.2842543551232666,1,colour,0.5,3.8
84,19,0,1,10,10,460,767.0004647381138,767.7675474111456,"[11, 0, 243]",243,a,0.24354407761711627,1,colour,0.5,3.8
84,19,0,1,10,11,461,768.2819688671734,768.9595721099759,"[15, 0, 239]",239,a,0.1542592073092237,1,colour,0.5,3.8
84,19,0,1,10,12,462,769.4696187255904,770.1435662904987,"[71, 0, 183]",183,l,0.15049679717049003,1,colour,0.5,3.8
84,19,0,1,10,13,463,770.6571433410281,771.2315652539255,"[31, 0, 223]",223,a,0.05100147135090083,1,colour,0.5,3.8
84,19,0,1,10,14,464,771.7510003686184,772.3515996445203,"[14, 0, 240]",240,a,0.07739229884464294,1,colour,0.5,3.8
84,19,0,1,10,15,465,772.8604568454903,773.5275542483432,"[38, 0, 216]",216,a,0.14371477055829018,1,colour,0.5,3.8
84,19,0,1,10,16,466,774.0480661377078,774.6556160064647,"[98, 0, 156]",156,l,0.0841081595281139,1,colour,0.5,3.8
84,19,0,1,10,17,467,775.1731933499686,775.8236932979198,"[28, 0, 226]",226,a,0.12716182018630207,1,colour,0.5,3.8
84,19,0,1,10,18,468,776.3453701835824,777.3675378012704,"[65, 0, 189]",189,l,0.4990417727967724,1,colour,0.5,3.8
84,19,0,1,10,19,469,777.8764450206654,778.6075963425683,"[75, 0, 179]",179,a,0.21062998019624501,0,colour,0.5,3.8
84,19,0,1,10,20,470,779.1251807751833,779.695729607367,"[46, 0, 208]",208,a,0.047725067124702036,1,colour,0.5,3.8
84,19,0,1,10,21,471,780.2032615167554,780.8155036658281,"[77, 0, 177]",177,a,0.08873939362820238,0,colour,0.5,3.8
84,19,0,1,10,22,472,781.3284210243728,783.0475482303882,"[24, 0, 230]",230,a,1.2082877785433084,1,colour,0.5,3.8
84,19,0,1,10,23,473,783.5661562685855,784.5915628750809,"[13, 0, 241]",241,a,0.5020676910644397,1,colour,0.5,3.8
84,19,0,1,10,24,474,785.0975355484989,786.1995731497882,"[17, 0, 237]",237,a,0.578691202797927,1,colour,0.5,3.8
84,19,0,1,10,25,475,786.7070018715458,787.9435264333151,"[70, 0, 184]",184,l,0.7131029387237504,1,colour,0.5,3.8
84,19,0,1,10,26,476,788.4571842221776,789.5755148353055,"[93, 0, 161]",161,l,0.5949794884072617,1,colour,0.5,3.8
84,19,0,1,10,27,477,790.082279926748,791.3915698855417,"[78, 0, 176]",176,l,0.7863799416227266,1,colour,0.5,3.8
84,19,0,1,10,28,478,791.9104902435793,793.0075504201232,"[5, 0, 249]",249,a,0.5736507626716048,1,colour,0.5,3.8
84,19,0,1,10,29,479,793.5198399882065,794.543527851114,"[90, 0, 164]",164,l,0.49996573536191136,1,colour,0.5,3.8
84,19,0,1,10,30,480,795.0514520311262,796.0075480570085,"[9, 0, 245]",245,a,0.43263619975186884,1,colour,0.5,3.8
84,19,0,1,10,31,481,796.5202822772553,797.3355425463524,"[88, 0, 166]",166,l,0.29186463984660804,1,colour,0.5,3.8
84,19,0,1,10,32,482,797.8485107109882,798.8075365567347,"[57, 0, 197]",197,a,0.43565384729299694,0,colour,0.5,3.8
84,19,0,1,10,33,483,799.3173618309665,800.1115505555645,"[33, 0, 221]",221,a,0.2708301169332117,1,colour,0.5,3.8
84,19,0,1,10,34,484,800.6300022370415,801.2795341117308,"[23, 0, 231]",231,a,0.1263914576265961,1,colour,0.5,3.8
84,19,0,1,10,35,485,801.7862511539133,802.5915431828471,"[42, 0, 212]",212,a,0.2817711567040533,1,colour,0.5,3.8
84,19,0,1,10,36,486,803.101458647754,804.1915579914348,"[81, 0, 173]",173,l,0.5666024960810319,1,colour,0.5,3.8
84,19,0,1,10,37,487,804.7110218568705,805.479527495103,"[40, 0, 214]",214,a,0.24518365820404142,1,colour,0.5,3.8
84,19,0,1,10,38,488,805.9829606499989,806.8075527044712,"[41, 0, 213]",213,a,0.30114561901427805,1,colour,0.5,3.8
84,19,0,1,10,39,489,807.3268239791505,808.7035324828466,"[3, 0, 251]",251,l,0.8532660066848621,0,colour,0.5,3.8
84,19,0,1,10,40,490,809.2176305913599,809.847561148461,"[95, 0, 159]",159,l,0.10653295856900513,1,colour,0.5,3.8
84,19,0,1,10,41,491,810.3490723352879,811.3035591067746,"[37, 0, 217]",217,a,0.4311911790864542,1,colour,0.5,3.8
84,19,0,1,10,42,492,811.8178513813764,812.8394861255074,"[56, 0, 198]",198,a,0.4981434103101492,0,colour,0.5,3.8
84,19,0,1,10,43,493,813.34925035364,814.3595431229332,"[10, 0, 244]",244,a,0.48681915854103863,1,colour,0.5,3.8
84,19,0,1,10,44,494,814.8670277708443,815.6955003890907,"[49, 0, 205]",205,a,0.30513842892833054,1,colour,0.5,3.8
84,19,0,1,10,45,495,816.2108261154499,817.1355558583746,"[69, 0, 185]",185,l,0.40161965205334127,1,colour,0.5,3.8
84,19,0,1,10,46,496,817.6484661276918,818.3994814624311,"[35, 0, 219]",219,a,0.22766657324973494,1,colour,0.5,3.8
84,19,0,1,10,47,497,818.9161423264304,819.7115594565403,"[66, 0, 188]",188,l,0.2724283436546102,1,colour,0.5,3.8
84,19,0,1,10,48,498,820.2286949048284,821.2555280212546,"[50, 0, 204]",204,a,0.50378604081925,1,colour,0.5,3.8
84,19,0,1,10,49,499,821.768182684551,822.4875489550177,"[52, 0, 202]",202,a,0.19390688848216087,0,colour,0.5,3.8
84,19,0,1,10,50,500,823.0047206372255,823.8155304474058,"[58, 0, 196]",196,a,0.2874449009541422,0,colour,0.5,3.8
84,19,0,1,11,1,501,828.4574827573961,830.1835282607935,"[49, 0, 205]",205,a,1.2018456407822669,1,colour,0.5,3.8
84,19,0,1,11,2,502,830.692844685982,831.4795416735578,"[41, 0, 213]",213,a,0.2632702444680035,1,colour,0.5,3.8
84,19,0,1,11,3,503,831.9898131751688,832.7835139248054,"[43, 0, 211]",211,a,0.27031063416507095,1,colour,0.5,3.8
84,19,0,1,11,4,504,833.3024031689856,834.4155184745323,"[65, 0, 189]",189,a,0.5896806855453178,0,colour,0.5,3.8
84,19,0,1,11,5,505,834.927538651973,835.719547833316,"[26, 0, 228]",228,a,0.26865136122796685,1,colour,0.5,3.8
84,19,0,1,11,6,506,836.2408040915616,837.0075449062278,"[77, 0, 177]",177,l,0.24337236082646996,1,colour,0.5,3.8
84,19,0,1,11,7,507,837.5094936558744,838.2635061581386,"[89, 0, 165]",165,l,0.23047902691178024,1,colour,0.5,3.8
84,19,0,1,11,8,508,838.7752648219466,839.5195060068509,"[37, 0, 217]",217,a,0.22082153102383018,1,colour,0.5,3.8
84,19,0,1,11,9,509,840.0409887265414,841.151532218093,"[71, 0, 183]",183,a,0.5871143854456022,0,colour,0.5,3.8
84,19,0,1,11,10,510,841.6660415019142,842.2555004521273,"[82, 0, 172]",172,a,0.06604599172715098,0,colour,0.5,3.8
84,19,0,1,11,11,511,842.7639500225196,843.9755086913938,"[12, 0, 242]",242,a,0.6883205779595301,1,colour,0.5,3.8
84,19,0,1,11,12,512,844.48286691471,845.4715095799183,"[79, 0, 175]",175,l,0.4736249264096841,1,colour,0.5,3.8
84,19,0,1,11,13,513,845.9901711811544,846.9515297763282,"[59, 0, 195]",195,a,0.43886605463922024,0,colour,0.5,3.8
84,19,0,1,11,14,514,847.4590565656545,848.3595057076309,"[0, 0, 254]",254,a,0.377062177285552,1,colour,0.5,3.8
84,19,0,1,11,15,515,848.8810455348575,849.6155055563431,"[14, 0, 240]",240,a,0.21133378287777305,1,colour,0.5,3.8
84,19,0,1,11,16,516,850.131182199344,850.9115040029865,"[19, 0, 235]",235,a,0.2569789496483281,1,colour,0.5,3.8
84,19,0,1,11,17,517,851.4280660116347,852.1754808070837,"[21, 0, 233]",233,a,0.22397111693862826,1,colour,0.5,3.8
84,19,0,1,11,18,518,852.6939001930878,853.5116814699722,"[13, 0, 241]",241,a,0.29457902594003826,1,colour,0.5,3.8
84,19,0,1,11,19,519,854.0239225950791,854.8475067977561,"[28, 0, 226]",226,a,0.300255527254194,1,colour,0.5,3.8
84,19,0,1,11,20,520,855.3676713150926,856.1834884823766,"[47, 0, 207]",207,a,0.2923990888521075,1,colour,0.5,3.8
84,19,0,1,11,21,521,856.6959418903571,857.4874552197289,"[70, 0, 184]",184,l,0.26821813080459833,1,colour,0.5,3.8
84,19,0,1,11,22,522,857.9960851714713,859.0074799216818,"[46, 0, 208]",208,a,0.48804677627049387,1,colour,0.5,3.8
84,19,0,1,11,23,523,859.5273939530598,860.4316657633753,"[61, 0, 193]",193,a,0.38072691345587373,0,colour,0.5,3.8
84,19,0,1,11,24,524,860.9494104913902,861.8475205823779,"[10, 0, 244]",244,a,0.37471682485193014,1,colour,0.5,3.8
84,19,0,1,11,25,525,862.3557618082268,863.2475112875691,"[94, 0, 160]",160,l,0.368365271599032,1,colour,0.5,3.8
84,19,0,1,11,26,526,863.7622056788532,864.5835993106011,"[58, 0, 196]",196,a,0.29821579926647246,0,colour,0.5,3.8
84,19,0,1,11,27,527,865.0903864572756,866.0235244168434,"[78, 0, 176]",176,l,0.409723425633274,1,colour,0.5,3.8
84,19,0,1,11,28,528,866.5312571875984,867.367451155209,"[6, 0, 248]",248,a,0.3127428060397506,1,colour,0.5,3.8
84,19,0,1,11,29,529,867.8750779815018,868.6394557206659,"[54, 0, 200]",200,a,0.24092106381431222,0,colour,0.5,3.8
84,19,0,1,11,30,530,869.1564505660208,870.0235066937748,"[63, 0, 191]",191,a,0.34426465816795826,0,colour,0.5,3.8
84,19,0,1,11,31,531,870.5315037352266,871.6634665372549,"[27, 0, 227]",227,a,0.6085955296875909,1,colour,0.5,3.8
84,19,0,1,11,32,532,872.172310741269,873.5514599080198,"[38, 0, 216]",216,a,0.855673193000257,1,colour,0.5,3.8
84,19,0,1,11,33,533,874.0525803996716,875.2155164264841,"[22, 0, 232]",232,a,0.6396195605630055,1,colour,0.5,3.8
84,19,0,1,11,34,534,875.7264393492369,876.7434723976767,"[83, 0, 171]",171,l,0.4936338745756075,1,colour,0.5,3.8
84,19,0,1,11,35,535,877.25783083844,878.0714621607913,"[30, 0, 224]",224,a,0.29029043775517493,1,colour,0.5,3.8
84,19,0,1,11,36,536,878.5860348537099,879.3034645837033,"[75, 0, 179]",179,l,0.19401322689373046,1,colour,0.5,3.8
84,19,0,1,11,37,537,879.8205110229319,880.5195245177019,"[81, 0, 173]",173,l,0.17826096550561488,1,colour,0.5,3.8
84,19,0,1,11,38,538,881.0364614676218,881.7515190637205,"[86, 0, 168]",168,l,0.1915339669212699,1,colour,0.5,3.8
84,19,0,1,11,39,539,882.2709994706092,883.0474982118467,"[25, 0, 229]",229,a,0.25313461967743933,1,colour,0.5,3.8
84,19,0,1,11,40,540,883.5679569321219,884.599493356538,"[73, 0, 181]",181,a,0.508050998323597,0,colour,0.5,3.8
84,19,0,1,11,41,541,885.1026661793003,885.7355206485372,"[64, 0, 190]",190,a,0.10959865525364876,0,colour,0.5,3.8
84,19,0,1,11,42,542,886.245207682834,886.9995498340577,"[84, 0, 170]",170,l,0.23107373423408717,1,colour,0.5,3.8
84,19,0,1,11,43,543,887.509892227943,888.4234674667241,"[98, 0, 156]",156,l,0.3905651846434921,1,colour,0.5,3.8
84,19,0,1,11,44,544,888.9318780463655,889.735510014696,"[85, 0, 169]",169,l,0.2801406345097348,1,colour,0.5,3.8
84,19,0,1,11,45,545,890.2445401139557,890.847481197794,"[9, 0, 245]",245,a,0.0795501807006076,1,colour,0.5,3.8
84,19,0,1,11,46,546,891.3539339692798,891.8954642340541,"[32, 0, 222]",222,a,0.018152752425521612,1,colour,0.5,3.8
84,19,0,1,11,47,547,892.4165629538475,893.1754941978725,"[87, 0, 167]",167,l,0.2354080086806789,1,colour,0.5,3.8
84,19,0,1,11,48,548,893.6822592891986,894.3194838727359,"[4, 0, 250]",250,a,0.1138195019448176,1,colour,0.5,3.8
84,19,0,1,11,49,549,894.8386149384314,895.5914518105565,"[95, 0, 159]",159,l,0.2294073721859604,1,colour,0.5,3.8
84,19,0,1,11,50,550,896.1062745956006,897.9434571164893,"[5, 0, 249]",249,a,1.3137349039316177,1,colour,0.5,3.8
84,19,0,1,12,1,551,904.6843061064137,905.8314682103228,"[94, 0, 160]",160,l,0.622936247382313,1,colour,0.5,3.8
84,19,0,1,12,2,552,906.3415171889355,907.4554741431493,"[79, 0, 175]",175,l,0.5905581741826609,1,colour,0.5,3.8
84,19,0,1,12,3,553,907.9666089550592,909.2554583105957,"[80, 0, 174]",174,l,0.765403707860969,1,colour,0.5,3.8
84,19,0,1,12,4,554,909.7636526688002,910.9674848683644,"[16, 0, 238]",238,a,0.6806539732497185,1,colour,0.5,3.8
84,19,0,1,12,5,555,911.4825329333544,912.5834906090749,"[53, 0, 201]",201,a,0.5776195479556918,0,colour,0.5,3.8
84,19,0,1,12,6,556,913.0920035886811,914.111518654041,"[81, 0, 173]",173,l,0.49615882069338113,1,colour,0.5,3.8
84,19,0,1,12,7,557,914.6234332808526,915.3194854481844,"[95, 0, 159]",159,l,0.1727758733322844,1,colour,0.5,3.8
84,19,0,1,12,8,558,915.8265900347615,916.6554659511894,"[13, 0, 241]",241,a,0.3056212840601802,1,colour,0.5,3.8
84,19,0,1,12,9,559,917.1706431976054,917.9435055594658,"[86, 0, 168]",168,l,0.24943168030586094,1,colour,0.5,3.8
84,19,0,1,12,10,560,918.4520157821244,919.3514688877622,"[65, 0, 189]",189,a,0.37610198091715574,0,colour,0.5,3.8
84,19,0,1,12,11,561,919.8583611913491,920.5754541830393,"[41, 0, 213]",213,a,0.19370130088645965,1,colour,0.5,3.8
84,19,0,1,12,12,562,921.0929586649872,921.9114906121977,"[57, 0, 197]",197,a,0.2951107178814709,0,colour,0.5,3.8
84,19,0,1,12,13,563,922.4212158495793,923.1754926224239,"[48, 0, 206]",206,a,0.22993709496222436,1,colour,0.5,3.8
84,19,0,1,12,14,564,923.6879121597158,924.4314944404177,"[47, 0, 207]",207,a,0.2200925222132355,1,colour,0.5,3.8
84,19,0,1,12,15,565,924.9380578827113,925.6954610045068,"[46, 0, 208]",208,a,0.23398031713441014,1,colour,0.5,3.8
84,19,0,1,12,16,566,926.2037400396075,926.8554723315174,"[99, 0, 155]",155,l,0.12718742026481777,1,colour,0.5,3.8
84,19,0,1,12,17,567,927.3767927866429,928.1434686167631,"[78, 0, 176]",176,l,0.24330343783367425,1,colour,0.5,3.8
84,19,0,1,12,18,568,928.6576864544768,929.9514636101667,"[22, 0, 232]",232,a,0.7702751880278811,1,colour,0.5,3.8
84,19,0,1,12,19,569,930.4703441897873,931.1834329500562,"[69, 0, 185]",185,a,0.18967974022962153,0,colour,0.5,3.8
84,19,0,1,12,20,570,931.7048049989389,932.4474329910008,"[43, 0, 211]",211,a,0.21930325508583337,1,colour,0.5,3.8
84,19,0,1,12,21,571,932.954838475911,933.6636177740293,"[18, 0, 236]",236,a,0.1853041120339185,1,colour,0.5,3.8
84,19,0,1,12,22,572,934.1757084500277,934.9275985165732,"[77, 0, 177]",177,l,0.2284377234755084,1,colour,0.5,3.8
84,19,0,1,12,23,573,935.4414394437335,936.1914997021668,"[44, 0, 210]",210,a,0.22659019229467958,1,colour,0.5,3.8
84,19,0,1,12,24,574,936.7071751636686,937.3674314628588,"[37, 0, 217]",217,a,0.1367889898829162,1,colour,0.5,3.8
84,19,0,1,12,25,575,937.8815429622773,938.5914301490411,"[33, 0, 221]",221,a,0.18653172976337373,1,colour,0.5,3.8
84,19,0,1,12,26,576,939.100415743771,939.9114350799937,"[76, 0, 178]",178,l,0.2855993389384821,1,colour,0.5,3.8
84,19,0,1,12,27,577,940.4305815056432,943.9914444850292,"[36, 0, 218]",218,a,3.0374905870994553,1,colour,0.5,3.8
84,19,0,1,12,28,578,944.5091691268608,946.2874819224235,"[23, 0, 231]",231,a,1.2550148400478065,1,colour,0.5,3.8
84,19,0,1,12,29,579,946.8061246190919,947.5434502635617,"[26, 0, 228]",228,a,0.21394773828797042,1,colour,0.5,3.8
84,19,0,1,12,30,580,948.0469082307536,948.8235609657131,"[34, 0, 220]",220,a,0.2535213764058426,1,colour,0.5,3.8
84,19,0,1,12,31,581,949.3438715998782,949.9834620158654,"[19, 0, 235]",235,a,0.11612980219069868,1,colour,0.5,3.8
84,19,0,1,12,32,582,950.5002370951697,951.2955187422922,"[20, 0, 234]",234,a,0.2719143747817725,1,colour,0.5,3.8
84,19,0,1,12,33,583,951.8128507197835,952.8794910249999,"[62, 0, 192]",192,a,0.5434096974786371,0,colour,0.5,3.8
84,19,0,1,12,34,584,953.3910704889568,954.1914504715241,"[97, 0, 157]",157,l,0.2769646610831842,1,colour,0.5,3.8
84,19,0,1,12,35,585,954.7036577258259,956.2954939299962,"[70, 0, 184]",184,a,1.06846302410122,0,colour,0.5,3.8
84,19,0,1,12,36,586,956.8131756426301,957.5754608784337,"[12, 0, 242]",242,a,0.23903611721470952,1,colour,0.5,3.8
84,19,0,1,12,37,587,958.0945647687186,958.887430171133,"[35, 0, 219]",219,a,0.26955681305844337,1,colour,0.5,3.8
84,19,0,1,12,38,588,959.4071547625354,960.1834581561852,"[7, 0, 247]",247,a,0.2528774383245036,1,colour,0.5,3.8
84,19,0,1,12,39,589,960.7041086794343,961.5035796655575,"[5, 0, 249]",249,a,0.2760666923131794,1,colour,0.5,3.8
84,19,0,1,12,40,590,962.0166967039695,963.0954012974398,"[64, 0, 190]",190,a,0.5552932104328647,0,colour,0.5,3.8
84,19,0,1,12,41,591,963.6106407715706,964.3674495797604,"[83, 0, 171]",171,l,0.2334076651604846,1,colour,0.5,3.8
84,19,0,1,12,42,592,964.8763119006762,965.5994476703927,"[98, 0, 156]",156,l,0.20036320469807833,1,colour,0.5,3.8
84,19,0,1,12,43,593,966.1107809806708,966.8553915930679,"[38, 0, 216]",216,a,0.2211665400536731,1,colour,0.5,3.8
84,19,0,1,12,44,594,967.37659192516,968.0954895189498,"[56, 0, 198]",198,a,0.1955452875699848,0,colour,0.5,3.8
84,19,0,1,12,45,595,968.6110389496898,969.3513960262062,"[52, 0, 202]",202,a,0.2169141856720671,0,colour,0.5,3.8
84,19,0,1,12,46,596,969.8611169311916,970.655444289674,"[4, 0, 250]",250,a,0.2709805660415441,1,colour,0.5,3.8
84,19,0,1,12,47,597,971.1737667896086,971.9834092404926,"[85, 0, 169]",169,l,0.2862417015712708,1,colour,0.5,3.8
84,19,0,1,12,48,598,972.5020137341926,973.6474035313586,"[67, 0, 187]",187,a,0.6220367032801732,0,colour,0.5,3.8
84,19,0,1,12,49,599,974.1527870112332,974.9193891922478,"[2, 0, 252]",252,a,0.24327311175875366,1,colour,0.5,3.8
84,19,0,1,12,50,600,975.4339374667034,976.175461902516,"[89, 0, 165]",165,l,0.21796496666502208,1,colour,0.5,3.8
84,19,0,1,13,1,601,981.0430611437187,982.1354475506814,"[18, 0, 236]",236,a,0.5682054489152506,1,colour,0.5,3.7
84,19,0,1,13,2,602,982.6532801063731,983.5753891984932,"[54, 0, 200]",200,a,0.39858625072520226,0,colour,0.5,3.7
84,19,0,1,13,3,603,984.0909547769697,984.8954465109855,"[51, 0, 203]",203,a,0.29127032635733485,0,colour,0.5,3.7
84,19,0,1,13,4,604,985.4095528903417,986.2074709420558,"[25, 0, 229]",229,a,0.2750411175657064,1,colour,0.5,3.7
84,19,0,1,13,5,605,986.7215548721142,987.4794164305786,"[79, 0, 175]",175,l,0.2344521445920691,1,colour,0.5,3.7
84,19,0,1,13,6,606,987.9873291889671,988.7754081818275,"[42, 0, 212]",212,a,0.26473180658649653,1,colour,0.5,3.7
84,19,0,1,13,7,607,989.2844083488453,989.9914645712124,"[61, 0, 193]",193,a,0.18374763301108032,0,colour,0.5,3.7
84,19,0,1,13,8,608,990.5051956153475,991.2314612786286,"[90, 0, 164]",164,l,0.202902723220177,1,colour,0.5,3.7
84,19,0,1,13,9,609,991.7395429968601,992.3994546808535,"[74, 0, 180]",180,a,0.1364156239433214,0,colour,0.5,3.7
84,19,0,1,13,10,610,992.9115792275406,993.6154200917808,"[14, 0, 240]",240,a,0.18057008413597941,1,colour,0.5,3.7
84,19,0,1,13,11,611,994.1303216459928,994.8953913724981,"[19, 0, 235]",235,a,0.2417438079137355,1,colour,0.5,3.7
84,19,0,1,13,12,612,995.4023978915066,996.1837334544398,"[85, 0, 169]",169,l,0.2578804630320519,1,colour,0.5,3.7
84,19,0,1,13,13,613,996.6993884360418,997.3594505691435,"[93, 0, 161]",161,l,0.13663617777638137,1,colour,0.5,3.7
84,19,0,1,13,14,614,997.8713368390454,998.6074269887758,"[34, 0, 220]",220,a,0.2126039358554408,1,colour,0.5,3.7
84,19,0,1,13,15,615,999.1214632636402,999.8313898349879,"[16, 0, 238]",238,a,0.18651518831029534,1,colour,0.5,3.7
84,19,0,1,13,16,616,1000.340263577411,1001.3034220484551,"[83, 0, 171]",171,l,0.4396269649732858,1,colour,0.5,3.7
84,19,0,1,13,17,617,1001.8249024049146,1003.079433996114,"[71, 0, 183]",183,l,0.7320158137008548,1,colour,0.5,3.7
84,19,0,1,13,18,618,1003.590668451041,1005.0313847936923,"[69, 0, 185]",185,a,0.9174235071986914,0,colour,0.5,3.7
84,19,0,1,13,19,619,1005.5438752232585,1006.4474416556768,"[73, 0, 181]",181,a,0.3802101877517998,0,colour,0.5,3.7
84,19,0,1,13,20,620,1006.965813386254,1007.6154626271455,"[75, 0, 179]",179,a,0.12626148853451014,0,colour,0.5,3.7
84,19,0,1,13,21,621,1008.1221906970022,1008.8314004688291,"[68, 0, 186]",186,a,0.18583816720638424,0,colour,0.5,3.7
84,19,0,1,13,22,622,1009.341049300041,1010.0954300481826,"[44, 0, 210]",210,a,0.2309803927782923,1,colour,0.5,3.7
84,19,0,1,13,23,623,1010.6067696599057,1011.415399926831,"[76, 0, 178]",178,l,0.2852050991496071,1,colour,0.5,3.7
84,19,0,1,13,24,624,1011.9365321235964,1012.6393990068464,"[45, 0, 209]",209,a,0.17941099556628615,1,colour,0.5,3.7
84,19,0,1,13,25,625,1013.1554202650441,1014.0473816335434,"[3, 0, 251]",251,a,0.3686252098996192,1,colour,0.5,3.7
84,19,0,1,13,26,626,1014.5617345604114,1015.2953828654718,"[53, 0, 201]",201,a,0.21021210972685367,0,colour,0.5,3.7
84,19,0,1,13,27,627,1015.8118535018293,1017.8074124952545,"[43, 0, 211]",211,a,1.4721523363841698,1,colour,0.5,3.7
84,19,0,1,13,28,628,1018.3277034371858,1019.9994230156299,"[27, 0, 227]",227,a,1.148308195406571,1,colour,0.5,3.7
84,19,0,1,13,29,629,1020.5153753508348,1021.3514617985347,"[23, 0, 231]",231,a,0.31294524285476655,1,colour,0.5,3.7
84,19,0,1,13,30,630,1021.8467982689617,1022.68738992,"[38, 0, 216]",216,a,0.31745280930772424,1,colour,0.5,3.7
84,19,0,1,13,31,631,1023.2062913734699,1024.0474099904532,"[48, 0, 206]",206,a,0.31769738777074963,1,colour,0.5,3.7
84,19,0,1,13,32,632,1024.5657510011224,1025.3594304829603,"[20, 0, 234]",234,a,0.2702810956398025,1,colour,0.5,3.7
84,19,0,1,13,33,633,1025.8783476903336,1026.6713950494304,"[4, 0, 250]",250,a,0.2696682714158669,1,colour,0.5,3.7
84,19,0,1,13,34,634,1027.191001880914,1027.943427577964,"[12, 0, 242]",242,a,0.22907024004962295,1,colour,0.5,3.7
84,19,0,1,13,35,635,1028.4567297239555,1029.3274206557544,"[62, 0, 192]",192,a,0.34734295785892755,0,colour,0.5,3.7
84,19,0,1,13,36,636,1029.8474366931478,1030.6073836657451,"[13, 0, 241]",241,a,0.23672424163669348,1,colour,0.5,3.7
84,19,0,1,13,37,637,1031.12882936385,1031.9034187401412,"[99, 0, 155]",155,l,0.25124888541176915,1,colour,0.5,3.7
84,19,0,1,13,38,638,1032.4102468468482,1033.2874204824911,"[88, 0, 166]",166,l,0.35376028332393616,1,colour,0.5,3.7
84,19,0,1,13,39,639,1033.8009739021072,1034.6473720236681,"[92, 0, 162]",162,l,0.3223329541506246,1,colour,0.5,3.7
84,19,0,1,13,40,640,1035.1604402251542,1035.983416723553,"[49, 0, 205]",205,a,0.29961749678477645,1,colour,0.5,3.7
84,19,0,1,13,41,641,1036.5042759851785,1037.3274273511488,"[15, 0, 239]",239,a,0.29988964437507093,1,colour,0.5,3.7
84,19,0,1,13,42,642,1037.848169246572,1038.7594054343645,"[40, 0, 214]",214,a,0.3879480784526095,1,colour,0.5,3.7
84,19,0,1,13,43,643,1039.2701456126524,1040.1435292690294,"[60, 0, 194]",194,a,0.3500482855597511,0,colour,0.5,3.7
84,19,0,1,13,44,644,1040.6608466741163,1041.5593974787043,"[66, 0, 188]",188,a,0.3751386337680742,0,colour,0.5,3.7
84,19,0,1,13,45,645,1042.0672172894701,1043.031388338306,"[30, 0, 224]",224,a,0.4500784541014582,1,colour,0.5,3.7
84,19,0,1,13,46,646,1043.5438882202143,1044.5675177939702,"[55, 0, 199]",199,a,0.5002418213989586,0,colour,0.5,3.7
84,19,0,1,13,47,647,1045.0752336293226,1045.9113807292888,"[77, 0, 177]",177,l,0.3126916061155498,1,colour,0.5,3.7
84,19,0,1,13,48,648,1046.419109561597,1047.3114029421704,"[78, 0, 176]",176,l,0.3688607298536226,1,colour,0.5,3.7
84,19,0,1,13,49,649,1047.8254309461918,1048.9197046627523,"[24, 0, 230]",230,a,0.570817435043864,1,colour,0.5,3.7
84,19,0,1,13,50,650,1049.4349996690871,1050.2233803479467,"[29, 0, 225]",225,a,0.2649590556975454,1,colour,0.5,3.7
84,19,0,1,14,1,651,1054.9502505647251,1056.97541692527,"[70, 0, 184]",184,l,1.5010287255281582,1,colour,0.5,3.7
84,19,0,1,14,2,652,1057.484313904657,1058.367392472108,"[8, 0, 246]",246,a,0.3597557997563854,1,colour,0.5,3.7
84,19,0,1,14,3,653,1058.875000787666,1059.71166815795,"[83, 0, 171]",171,l,0.3131961226463318,1,colour,0.5,3.7
84,19,0,1,14,4,654,1060.2188952306751,1061.0234247738263,"[93, 0, 161]",161,l,0.2811339139007032,1,colour,0.5,3.7
84,19,0,1,14,5,655,1061.5344792411197,1062.3113757667597,"[11, 0, 243]",243,a,0.25358517945278436,1,colour,0.5,3.7
84,19,0,1,14,6,656,1062.8319227085449,1063.567354741739,"[75, 0, 179]",179,l,0.212315640761517,1,colour,0.5,3.7
84,19,0,1,14,7,657,1064.0820589791983,1064.7913695755415,"[1, 0, 253]",253,a,0.18593741627410054,1,colour,0.5,3.7
84,19,0,1,14,8,658,1065.3009672068292,1066.1193904525135,"[39, 0, 215]",215,a,0.29508590570185333,1,colour,0.5,3.7
84,19,0,1,14,9,659,1066.6291243544547,1067.3433895325288,"[74, 0, 180]",180,a,0.19095107493922114,0,colour,0.5,3.7
84,19,0,1,14,10,660,1067.863622185192,1068.5033768349094,"[63, 0, 191]",191,a,0.11662722961045802,0,colour,0.5,3.7
84,19,0,1,14,11,661,1069.022409439087,1069.7597212988185,"[23, 0, 231]",231,a,0.21401154121849686,1,colour,0.5,3.7
84,19,0,1,14,12,662,1070.2724610328441,1070.9754531590734,"[91, 0, 163]",163,l,0.17951812164392322,1,colour,0.5,3.7
84,19,0,1,14,13,663,1071.4913176666014,1072.231355727883,"[69, 0, 185]",185,l,0.2166030474472791,1,colour,0.5,3.7
84,19,0,1,14,14,664,1072.741498835734,1073.671411984833,"[49, 0, 205]",205,a,0.4065569044323638,1,colour,0.5,3.7
84,19,0,1,14,15,665,1074.1790856787702,1074.9274271936156,"[24, 0, 230]",230,a,0.22501283942256123,1,colour,0.5,3.7
84,19,0,1,14,16,666,1075.4398097093217,1076.1354369168403,"[94, 0, 160]",160,l,0.1721772274468094,1,colour,0.5,3.7
84,19,0,1,14,17,667,1076.6430976139382,1077.3433568432229,"[6, 0, 248]",248,a,0.1768478462472558,1,colour,0.5,3.7
84,19,0,1,14,18,668,1077.8618605122901,1078.5994256150443,"[72, 0, 182]",182,a,0.21467162703629583,0,colour,0.5,3.7
84,19,0,1,14,19,669,1079.1120298660826,1079.8393148025498,"[58, 0, 196]",196,a,0.21268546197097749,0,colour,0.5,3.7
84,19,0,1,14,20,670,1080.3532896373654,1081.01538086473,"[64, 0, 190]",190,a,0.13866251497529447,0,colour,0.5,3.7
84,19,0,1,14,21,671,1081.5252392219845,1082.2473769860808,"[54, 0, 200]",200,a,0.19872401794418693,0,colour,0.5,3.7
84,19,0,1,14,22,672,1082.7596078711795,1083.543486103532,"[35, 0, 219]",219,a,0.2607933474937454,1,colour,0.5,3.7
84,19,0,1,14,23,673,1084.0597428815672,1084.7833756848704,"[41, 0, 213]",213,a,0.20331350446213037,1,colour,0.5,3.7
84,19,0,1,14,24,674,1085.2911576863844,1086.0713570039952,"[81, 0, 173]",173,l,0.2567253130255267,1,colour,0.5,3.7
84,19,0,1,14,25,675,1086.5880564649124,1087.2233551418176,"[29, 0, 225]",225,a,0.1118144323118031,1,colour,0.5,3.7
84,19,0,1,14,26,676,1087.7444853694178,1088.5193689485313,"[60, 0, 194]",194,a,0.2518215373856947,0,colour,0.5,3.7
84,19,0,1,14,27,677,1089.0258567723213,1089.7594152805395,"[17, 0, 237]",237,a,0.2101372788893059,1,colour,0.5,3.7
84,19,0,1,14,28,678,1090.2758898554603,1090.991488989559,"[59, 0, 195]",195,a,0.19217002799268812,0,colour,0.5,3.7
84,19,0,1,14,29,679,1091.5104030461516,1092.3273371604737,"[19, 0, 235]",235,a,0.2935160358902067,1,colour,0.5,3.7
84,19,0,1,14,30,680,1092.8392183103133,1093.663338143495,"[22, 0, 232]",232,a,0.30130591429769993,1,colour,0.5,3.7
84,19,0,1,14,31,681,1094.1824321876047,1094.9913247558288,"[38, 0, 216]",216,a,0.2855339605594054,1,colour,0.5,3.7
84,19,0,1,14,32,682,1095.5107508121291,1096.2554228644585,"[88, 0, 166]",166,l,0.22028156835585833,1,colour,0.5,3.7
84,19,0,1,14,33,683,1096.7617299130652,1097.727378671756,"[27, 0, 227]",227,a,0.4424697447102517,1,colour,0.5,3.7
84,19,0,1,14,34,684,1098.2463041498559,1099.0313458029414,"[33, 0, 221]",221,a,0.261726368451491,1,colour,0.5,3.7
84,19,0,1,14,35,685,1099.5431852051988,1100.2793316749157,"[10, 0, 244]",244,a,0.21273981279227883,1,colour,0.5,3.7
84,19,0,1,14,36,686,1100.7933305343613,1101.583356701536,"[43, 0, 211]",211,a,0.2666234486969188,1,colour,0.5,3.7
84,19,0,1,14,37,687,1102.090302961995,1102.93541281356,"[65, 0, 189]",189,a,0.32182804378680885,0,colour,0.5,3.7
84,19,0,1,14,38,688,1103.4497874019435,1104.1673502518097,"[30, 0, 224]",224,a,0.19411680835764855,1,colour,0.5,3.7
84,19,0,1,14,39,689,1104.6842025249498,1105.4073678331915,"[95, 0, 159]",159,l,0.19964837445877492,1,colour,0.5,3.7
84,19,0,1,14,40,690,1105.9187677033478,1106.6313554915832,"[21, 0, 233]",233,a,0.18913229438476264,1,colour,0.5,3.7
84,19,0,1,14,41,691,1107.137534540263,1107.9113409507554,"[37, 0, 217]",217,a,0.25079123640898615,1,colour,0.5,3.7
84,19,0,1,14,42,692,1108.4189346940257,1109.1673537964234,"[53, 0, 201]",201,a,0.23739102273248136,0,colour,0.5,3.7
84,19,0,1,14,43,693,1109.6890460421564,1110.4393772665644,"[84, 0, 170]",170,l,0.2270580813055858,1,colour,0.5,3.7
84,19,0,1,14,44,694,1110.954701811308,1112.3274171111407,"[80, 0, 174]",174,l,0.8492609874811023,1,colour,0.5,3.7
84,19,0,1,14,45,695,1112.8454591927584,1113.607323013479,"[61, 0, 193]",193,a,0.23849851754494011,0,colour,0.5,3.7
84,19,0,1,14,46,696,1114.1267868789146,1114.7993162046187,"[55, 0, 199]",199,a,0.14910376421175897,0,colour,0.5,3.7
84,19,0,1,14,47,697,1115.3143930203514,1116.0233460046584,"[87, 0, 167]",167,l,0.18556720111519098,1,colour,0.5,3.7
84,19,0,1,14,48,698,1116.5331748233875,1117.1593398196856,"[26, 0, 228]",228,a,0.10266145318746567,1,colour,0.5,3.7
84,19,0,1,14,49,699,1117.6737285865238,1118.2553834798746,"[4, 0, 250]",250,a,0.05849832855165005,1,colour,0.5,3.7
84,19,0,1,14,50,700,1118.7677742664237,1119.5033721087966,"[13, 0, 241]",241,a,0.2122305700322613,1,colour,0.5,3.7
84,19,0,1,15,1,701,1124.0175139341736,1125.9993273111759,"[91, 0, 163]",163,l,1.457554831285961,1,colour,0.5,3.7
84,19,0,1,15,2,702,1126.518473342876,1127.3033822699217,"[86, 0, 168]",168,l,0.2613825409207493,1,colour,0.5,3.7
84,19,0,1,15,3,703,1127.8154823981458,1128.5993846551282,"[89, 0, 165]",165,l,0.2604759077075869,1,colour,0.5,3.7
84,19,0,1,15,4,704,1129.1125288688345,1129.8713518051663,"[53, 0, 201]",201,a,0.23556200240273029,0,colour,0.5,3.7
84,19,0,1,15,5,705,1130.3782283549663,1131.0793418361573,"[44, 0, 210]",210,a,0.17771982110571116,1,colour,0.5,3.7
84,19,0,1,15,6,706,1131.5969983426621,1132.127312269411,"[31, 0, 223]",223,a,0.01928545325063169,1,colour,0.5,3.7
84,19,0,1,15,7,707,1132.6471660422394,1134.1753319333075,"[50, 0, 204]",204,a,1.004966790904291,1,colour,0.5,3.7
84,19,0,1,15,8,708,1134.6961380256107,1135.4713685830357,"[25, 0, 229]",229,a,0.252065721899271,1,colour,0.5,3.7
84,19,0,1,15,9,709,1135.9930789455539,1136.7273400748381,"[54, 0, 200]",200,a,0.2108501399634406,0,colour,0.5,3.7
84,19,0,1,15,10,710,1137.2432089147624,1137.9113157446263,"[39, 0, 215]",215,a,0.1447312867967412,1,colour,0.5,3.7
84,19,0,1,15,11,711,1138.4307591300458,1139.2392964493483,"[29, 0, 225]",225,a,0.28528229298535734,1,colour,0.5,3.7
84,19,0,1,15,12,712,1139.7590958714718,1140.5433864605147,"[49, 0, 205]",205,a,0.2612722641788423,1,colour,0.5,3.7
84,19,0,1,15,13,713,1141.0560009514447,1141.7913065601606,"[82, 0, 172]",172,l,0.2119690562831238,1,colour,0.5,3.7
84,19,0,1,15,14,714,1142.296802680008,1143.0392959767487,"[23, 0, 231]",231,a,0.21933948888909072,1,colour,0.5,3.7
84,19,0,1,15,15,715,1143.5468526984332,1144.2153691281565,"[66, 0, 188]",188,a,0.14532244962174445,0,colour,0.5,3.7
84,19,0,1,15,16,716,1144.7344722306589,1145.695343638421,"[45, 0, 209]",209,a,0.43776643683668226,1,colour,0.5,3.7
84,19,0,1,15,17,717,1146.2032678183168,1146.9673675022786,"[75, 0, 179]",179,l,0.2405925962375477,1,colour,0.5,3.7
84,19,0,1,15,18,718,1147.4865084140329,1148.2553401568439,"[80, 0, 174]",174,l,0.24540342425461859,1,colour,0.5,3.7
84,19,0,1,15,19,719,1148.7679184139706,1149.5273348761257,"[11, 0, 243]",243,a,0.2360042913351208,1,colour,0.5,3.7
84,19,0,1,15,20,720,1150.033665949246,1150.7833481156267,"[84, 0, 170]",170,l,0.22629283857531846,1,colour,0.5,3.7
84,19,0,1,15,21,721,1151.2994028507965,1152.0713046224555,"[28, 0, 226]",226,a,0.2486085423734039,1,colour,0.5,3.7
84,19,0,1,15,22,722,1152.5807214784436,1153.3753036551643,"[60, 0, 194]",194,a,0.27132518123835325,0,colour,0.5,3.7
84,19,0,1,15,23,723,1153.8932776014553,1154.6952983461088,"[92, 0, 162]",162,l,0.2786105431150645,1,colour,0.5,3.7
84,19,0,1,15,24,724,1155.205847902922,1156.015345812426,"[81, 0, 173]",173,l,0.2860266617499292,1,colour,0.5,3.7
84,19,0,1,15,25,725,1156.5340767306043,1157.2554583105957,"[64, 0, 190]",190,a,0.1978973353980109,0,colour,0.5,3.7
84,19,0,1,15,26,726,1157.7686419090023,1158.767326463596,"[19, 0, 235]",235,a,0.4752802607836202,1,colour,0.5,3.7
84,19,0,1,15,27,727,1159.2843839303823,1160.1353837476345,"[8, 0, 246]",246,a,0.32769319717772305,1,colour,0.5,3.7
84,19,0,1,15,28,728,1160.6438278042478,1161.4713138384977,"[36, 0, 218]",218,a,0.3040943434461951,1,colour,0.5,3.7
84,19,0,1,15,29,729,1161.9876875887858,1162.8634036006406,"[59, 0, 195]",195,a,0.352377490256913,0,colour,0.5,3.7
84,19,0,1,15,30,730,1163.3790014744736,1164.2473399646115,"[27, 0, 227]",227,a,0.34548715595155954,1,colour,0.5,3.7
84,19,0,1,15,31,731,1164.7534823855385,1165.615292485687,"[69, 0, 185]",185,l,0.3386019414756447,1,colour,0.5,3.7
84,19,0,1,15,32,732,1166.1286202316405,1166.9593720362755,"[77, 0, 177]",177,a,0.307340421481058,0,colour,0.5,3.7
84,19,0,1,15,33,733,1167.4725583915133,1168.487333521247,"[38, 0, 216]",216,a,0.49142518651206046,1,colour,0.5,3.7
84,19,0,1,15,34,734,1169.0038498438662,1169.9993119511055,"[32, 0, 222]",222,a,0.47039735899306834,1,colour,0.5,3.7
84,19,0,1,15,35,735,1170.4932384531712,1171.5353709083283,"[79, 0, 175]",175,l,0.5187852688832209,1,colour,0.5,3.7
84,19,0,1,15,36,736,1172.0558564100647,1173.2713306950172,"[0, 0, 254]",254,a,0.6921018926659599,1,colour,0.5,3.7
84,19,0,1,15,37,737,1173.7905460436596,1174.7353686239803,"[2, 0, 252]",252,a,0.42151438479777426,1,colour,0.5,3.7
84,19,0,1,15,38,738,1175.2437228836352,1176.0713388870936,"[52, 0, 202]",202,a,0.3043022941565141,0,colour,0.5,3.7
84,19,0,1,15,39,739,1176.5875247728545,1177.3512778724544,"[14, 0, 240]",240,a,0.24037440575193614,1,colour,0.5,3.7
84,19,0,1,15,40,740,1177.86893752974,1178.7753132650396,"[33, 0, 221]",221,a,0.38299625378567725,1,colour,0.5,3.7
84,19,0,1,15,41,741,1179.2909005050315,1180.087427099119,"[95, 0, 159]",159,l,0.2732499062549323,1,colour,0.5,3.7
84,19,0,1,15,42,742,1180.5965509336675,1181.3513251339318,"[15, 0, 239]",239,a,0.23151917394716293,1,colour,0.5,3.7
84,19,0,1,15,43,743,1181.8499033502303,1182.6712942249142,"[17, 0, 237]",237,a,0.29800312244333327,1,colour,0.5,3.7
84,19,0,1,15,44,744,1183.1781270578504,1184.2232858249918,"[21, 0, 233]",233,a,0.5217300548683852,1,colour,0.5,3.7
84,19,0,1,15,45,745,1184.740787156159,1185.7193713904126,"[63, 0, 191]",191,a,0.4552205065265298,0,colour,0.5,3.7
84,19,0,1,15,46,746,1186.2408592299325,1187.1033345358446,"[24, 0, 230]",230,a,0.33898554742336273,1,colour,0.5,3.7
84,19,0,1,15,47,747,1187.615949420724,1188.567305117147,"[6, 0, 248]",248,a,0.4279254087014124,1,colour,0.5,3.7
84,19,0,1,15,48,748,1189.0847812421853,1189.9353230166016,"[71, 0, 183]",183,l,0.3269452837994322,1,colour,0.5,3.7
84,19,0,1,15,49,749,1190.4443495712476,1191.2713369965786,"[93, 0, 161]",161,l,0.3036201528739184,1,colour,0.5,3.7
84,19,0,1,15,50,750,1191.7884196696104,1192.6473653282737,"[99, 0, 155]",155,l,0.3357737339101732,1,colour,0.5,3.7
84,19,0,1,16,1,751,1197.5721580865793,1199.2072779574664,"[41, 0, 213]",213,a,1.1108581745065749,1,colour,0.5,3.6
84,19,0,1,16,2,752,1199.713825645973,1201.3593013015343,"[61, 0, 193]",193,a,1.122315152315423,0,colour,0.5,3.6
84,19,0,1,16,3,753,1201.8701852335362,1202.7032800276065,"[51, 0, 203]",203,a,0.3096818355843425,0,colour,0.5,3.6
84,19,0,1,16,4,754,1203.2164876505267,1204.047310347436,"[19, 0, 235]",235,a,0.30752710450906307,1,colour,0.5,3.6
84,19,0,1,16,5,755,1204.5602631520014,1205.471277604578,"[16, 0, 238]",238,a,0.3875857401872054,1,colour,0.5,3.6
84,19,0,1,16,6,756,1205.9823293150403,1206.8152921706205,"[48, 0, 206]",206,a,0.3096601739525795,1,colour,0.5,3.6
84,19,0,1,16,7,757,1207.3261099365773,1208.119413689361,"[59, 0, 195]",195,a,0.2698844928527251,0,colour,0.5,3.6
84,19,0,1,16,8,758,1208.6386845703237,1209.503290582681,"[17, 0, 237]",237,a,0.34118360152933747,1,colour,0.5,3.6
84,19,0,1,16,9,759,1210.015647498425,1211.1913063238608,"[73, 0, 181]",181,l,0.6529933864949271,1,colour,0.5,3.6
84,19,0,1,16,10,760,1211.7031575414585,1212.5833035323303,"[91, 0, 163]",163,l,0.35647348791826516,1,colour,0.5,3.6
84,19,0,1,16,11,761,1213.0939511567121,1214.119299867889,"[0, 0, 254]",254,a,0.5018479250138626,1,colour,0.5,3.6
84,19,0,1,16,12,762,1214.6409854182275,1215.479399495176,"[85, 0, 169]",169,l,0.31490186927840114,1,colour,0.5,3.6
84,19,0,1,16,13,763,1216.0006191257853,1217.0552884842036,"[63, 0, 191]",191,a,0.5312000800622627,0,colour,0.5,3.6
84,19,0,1,16,14,764,1217.563229599502,1219.88729350653,"[74, 0, 180]",180,a,1.80085377919022,0,colour,0.5,3.6
84,19,0,1,16,15,765,1220.4088861091295,1221.1832746240543,"[76, 0, 178]",178,l,0.2510299071436748,1,colour,0.5,3.6
84,19,0,1,16,16,766,1221.677878541057,1223.391269381158,"[23, 0, 231]",231,a,1.1899774877820164,1,colour,0.5,3.6
84,19,0,1,16,17,767,1223.912465380854,1224.6872552246787,"[95, 0, 159]",159,l,0.2514989775372669,1,colour,0.5,3.6
84,19,0,1,16,18,768,1225.193855688558,1226.1912756038364,"[53, 0, 201]",201,a,0.47410502447746694,0,colour,0.5,3.6
84,19,0,1,16,19,769,1226.709558325354,1227.5272887961473,"[57, 0, 197]",197,a,0.29433681070804596,0,colour,0.5,3.6
84,19,0,1,16,20,770,1228.0377308330499,1228.8472669455223,"[52, 0, 202]",202,a,0.28635631082579494,0,colour,0.5,3.6
84,19,0,1,16,21,771,1229.3660183437169,1230.1753035763977,"[11, 0, 243]",243,a,0.2858293449971825,1,colour,0.5,3.6
84,19,0,1,16,22,772,1230.694261743687,1231.5354240775341,"[83, 0, 171]",171,l,0.3178182984702289,1,colour,0.5,3.6
84,19,0,1,16,23,773,1232.0556145886658,1232.8633197115269,"[42, 0, 212]",212,a,0.28432564134709537,1,colour,0.5,3.6
84,19,0,1,16,24,774,1233.3838465670124,1234.191262213164,"[79, 0, 175]",175,l,0.2839959922712296,1,colour,0.5,3.6
84,19,0,1,16,25,775,1234.711998594692,1237.863271268434,"[4, 0, 250]",250,a,2.627908158232458,1,colour,0.5,3.6
84,19,0,1,16,26,776,1238.3842033914989,1239.1832773808856,"[18, 0, 236]",236,a,0.27604188001714647,1,colour,0.5,3.6
84,19,0,1,16,27,777,1239.696830406785,1240.5435057957657,"[80, 0, 174]",174,l,0.323514491901733,1,colour,0.5,3.6
84,19,0,1,16,28,778,1241.0507876130287,1241.8712836698396,"[62, 0, 192]",192,a,0.29707915987819433,0,colour,0.5,3.6
84,19,0,1,16,29,779,1242.381014027167,1243.1912700900575,"[88, 0, 166]",166,l,0.2869888273999095,1,colour,0.5,3.6
84,19,0,1,16,30,780,1243.709227888612,1244.4632565386128,"[45, 0, 209]",209,a,0.2306657099397853,1,colour,0.5,3.6
84,19,0,1,16,31,781,1244.9749155594036,1245.7752380404854,"[3, 0, 251]",251,a,0.27691031026188284,1,colour,0.5,3.6
84,19,0,1,16,32,782,1246.2875764454948,1247.0872727114474,"[10, 0, 244]",244,a,0.2764183966210112,1,colour,0.5,3.6
84,19,0,1,16,33,783,1247.600163288531,1248.351271570893,"[34, 0, 220]",220,a,0.22777330537792295,1,colour,0.5,3.6
84,19,0,1,16,34,784,1248.8658482022583,1249.6633015157422,"[38, 0, 216]",216,a,0.2709045537048951,1,colour,0.5,3.6
84,19,0,1,16,35,785,1250.1816122003365,1250.9832662744448,"[39, 0, 215]",215,a,0.2781887340825051,1,colour,0.5,3.6
84,19,0,1,16,36,786,1251.4941884095315,1252.2632840290898,"[35, 0, 219]",219,a,0.24559128878172487,1,colour,0.5,3.6
84,19,0,1,16,37,787,1252.7755503602093,1253.5513059142977,"[46, 0, 208]",208,a,0.2523831616854295,1,colour,0.5,3.6
84,19,0,1,16,38,788,1254.0724964002147,1254.8632551206974,"[70, 0, 184]",184,l,0.2658286675577983,1,colour,0.5,3.6
84,19,0,1,16,39,789,1255.3710702053504,1256.1592716843588,"[81, 0, 173]",173,l,0.2648605942958966,1,colour,0.5,3.6
84,19,0,1,16,40,790,1256.6680201838026,1257.439232725068,"[6, 0, 248]",248,a,0.24776689358986914,1,colour,0.5,3.6
84,19,0,1,16,41,791,1257.9494325467385,1258.6952183954418,"[8, 0, 246]",246,a,0.22243984404485673,1,colour,0.5,3.6
84,19,0,1,16,42,792,1259.2151131283026,1259.8872560912278,"[14, 0, 240]",240,a,0.14879695826675743,1,colour,0.5,3.6
84,19,0,1,16,43,793,1260.4026822482701,1261.1752437117975,"[7, 0, 247]",247,a,0.24975542165338993,1,colour,0.5,3.6
84,19,0,1,16,44,794,1261.684020961984,1262.6072954442352,"[54, 0, 200]",200,l,0.399807566893287,1,colour,0.5,3.6
84,19,0,1,16,45,795,1263.121635768097,1264.6712871356867,"[26, 0, 228]",228,a,1.0261978430207819,1,colour,0.5,3.6
84,19,0,1,16,46,796,1265.1843167402549,1266.0232703862712,"[50, 0, 204]",204,a,0.32796652626711875,1,colour,0.5,3.6
84,19,0,1,16,47,797,1266.531516732066,1267.591341139865,"[66, 0, 188]",188,a,0.5365043969359249,0,colour,0.5,3.6
84,19,0,1,16,48,798,1268.110598236206,1268.8552498085191,"[77, 0, 177]",177,l,0.22124767233617604,1,colour,0.5,3.6
84,19,0,1,16,49,799,1269.3762776361546,1270.1352506277617,"[44, 0, 210]",210,a,0.2356171407736838,1,colour,0.5,3.6
84,19,0,1,16,50,800,1270.641970820725,1271.3832372874022,"[56, 0, 198]",198,a,0.21783342212438583,0,colour,0.5,3.6
