id,age,condition,counterbalance,block,trialinblock,trial,tstart,tend,trialstim,trialintensity,response,RT,accuracy,trialtype,colourfreq,credits
65,24,0,2,Practice,1,NA,5.120178684592247e-06,1.9798086932860315,"[55, 0, 199]",199,a,1.4095865285489708,0,colour,0.5,4
65,24,0,2,Practice,2,NA,2.4862384274601936,5.179819484706968,"[6, 0, 248]",248,a,2.1722044707275927,1,colour,0.5,4
65,24,0,2,Practice,3,NA,5.688801735173911,7.411853506695479,"[94, 0, 160]",160,l,1.2008004528470337,1,colour,0.5,4
65,24,0,2,Practice,4,NA,7.92330556595698,8.995839803945273,"[28, 0, 226]",226,a,0.550299460766837,1,colour,0.5,4
65,24,0,2,Practice,5,NA,9.502009599702433,10.531796966213733,"[64, 0, 190]",190,a,0.5081665953621268,0,colour,0.5,4
65,24,0,2,Practice,6,NA,11.048593516694382,14.379820429952815,"[13, 0, 241]",241,a,2.8090145853348076,1,colour,0.5,4
65,24,0,2,Practice,7,NA,14.892699393443763,16.35581275471486,"[73, 0, 181]",181,l,0.9413496239576489,1,colour,0.5,4
65,24,0,2,Practice,8,NA,16.86151623656042,19.507831432390958,"[92, 0, 162]",162,l,2.1241300432011485,1,colour,0.5,4
65,24,0,2,Practice,9,NA,20.018022396601737,21.155855526216328,"[7, 0, 247]",247,a,0.6158224509563297,1,colour,0.5,4
65,24,0,2,Practice,10,NA,21.674429898150265,23.307818671688437,"[2, 0, 252]",252,a,1.1119279039558023,1,colour,0.5,4
65,24,0,2,1,1,1,4.560846264939755,5.976045493967831,"[55, 0, 199]",199,a,0.8921940890140831,0,colour,0.5,4.0
65,24,0,2,1,2,2,6.483729233965278,7.847987623885274,"[94, 0, 160]",160,l,0.8421334957238287,1,colour,0.5,4.0
65,24,0,2,1,3,3,8.35879732016474,10.04002775833942,"[44, 0, 210]",210,a,1.1591449286788702,1,colour,0.5,4.0
65,24,0,2,1,4,4,10.546503572491929,14.263987147947773,"[35, 0, 219]",219,a,3.195282669039443,1,colour,0.5,4.0
65,24,0,2,1,5,5,14.781110984738916,16.552054438972846,"[58, 0, 196]",196,a,1.2495739569421858,0,colour,0.5,4.0
65,24,0,2,1,6,6,17.062573476927355,19.007995862979442,"[59, 0, 195]",195,a,1.423389651812613,0,colour,0.5,4.0
65,24,0,2,1,7,7,19.515996255446225,22.367986536817625,"[53, 0, 201]",201,a,2.329853178234771,0,colour,0.5,4.0
65,24,0,2,1,8,8,22.8756360122934,24.06399526121095,"[77, 0, 177]",177,l,0.666452151723206,1,colour,0.5,4.0
65,24,0,2,1,9,9,24.578999418299645,26.031985027482733,"[42, 0, 212]",212,a,0.9309193980880082,1,colour,0.5,4.0
65,24,0,2,1,10,10,26.54771661828272,28.056000185897574,"[80, 0, 174]",174,l,0.9859400889836252,1,colour,0.5,4.0
65,24,0,2,1,11,11,28.563550412189215,29.623993575572968,"[96, 0, 158]",158,l,0.5382891246117651,1,colour,0.5,4.0
65,24,0,2,1,12,12,30.14178419369273,30.76799197192304,"[85, 0, 169]",169,l,0.10414077946916223,1,colour,0.5,4.0
65,24,0,2,1,13,13,31.28249200596474,31.911982491146773,"[39, 0, 215]",215,a,0.1072876094840467,1,colour,0.5,4.0
65,24,0,2,1,14,14,32.42321084602736,33.312026917003095,"[20, 0, 234]",234,a,0.3666513985954225,1,colour,0.5,4.0
65,24,0,2,1,15,15,33.82961076591164,35.51200856384821,"[62, 0, 192]",192,l,1.160183894680813,1,colour,0.5,4.0
65,24,0,2,1,16,16,36.01731268595904,37.09601731039584,"[22, 0, 232]",232,a,0.5568030411377549,1,colour,0.5,4.0
65,24,0,2,1,17,17,37.61113253189251,38.80000614398159,"[50, 0, 204]",204,a,0.6665982687845826,1,colour,0.5,4.0
65,24,0,2,1,18,18,39.31430807360448,40.40000307210721,"[54, 0, 200]",200,a,0.5633617599960417,0,colour,0.5,4.0
65,24,0,2,1,19,19,40.90816612285562,42.080012193415314,"[5, 0, 249]",249,a,0.6496305919717997,1,colour,0.5,4.0
65,24,0,2,1,20,20,42.595878085820004,43.800017959438264,"[72, 0, 182]",182,l,0.6817963949870318,1,colour,0.5,4.0
65,24,0,2,1,21,21,44.31472673197277,45.43200227804482,"[4, 0, 250]",250,a,0.5949592427350581,1,colour,0.5,4.0
65,24,0,2,1,22,22,45.93987703346647,47.207997989840806,"[93, 0, 161]",161,a,0.7460913730319589,0,colour,0.5,4.0
65,24,0,2,1,23,23,47.72112901485525,51.61599062336609,"[16, 0, 238]",238,a,3.3734598157461733,1,colour,0.5,4.0
65,24,0,2,1,24,24,52.12788615329191,56.255980651127174,"[41, 0, 213]",213,a,3.6058085206896067,1,colour,0.5,4.0
65,24,0,2,1,25,25,56.7689312947914,59.7920098870527,"[47, 0, 207]",207,a,2.5008245166391134,1,colour,0.5,4.0
65,24,0,2,1,26,26,60.300402156310156,61.311997772427276,"[14, 0, 240]",240,a,0.489285220624879,1,colour,0.5,4.0
65,24,0,2,1,27,27,61.83173792855814,62.87999746366404,"[17, 0, 237]",237,a,0.5260231825523078,1,colour,0.5,4.0
65,24,0,2,1,28,28,63.39439627924003,64.43201763811521,"[21, 0, 233]",233,a,0.5154354185797274,1,colour,0.5,4.0
65,24,0,2,1,29,29,64.94140515616164,66.1279913103208,"[26, 0, 228]",228,a,0.6645199430640787,1,colour,0.5,4.0
65,24,0,2,1,30,30,66.64470239612274,67.63200676790439,"[69, 0, 185]",185,l,0.4650089421775192,1,colour,0.5,4.0
65,24,0,2,1,31,31,68.1447864822112,69.13598362868652,"[46, 0, 208]",208,a,0.46889659692533314,1,colour,0.5,4.0
65,24,0,2,1,32,32,69.64489656221122,70.56800717441365,"[71, 0, 183]",183,l,0.40087268431670964,1,colour,0.5,4.0
65,24,0,2,1,33,33,71.0824989376124,72.15201789001003,"[52, 0, 202]",202,a,0.5472963843494654,0,colour,0.5,4.0
65,24,0,2,1,34,34,72.66079494683072,73.5919805848971,"[81, 0, 173]",173,l,0.4089465285651386,1,colour,0.5,4.0
65,24,0,2,1,35,35,74.09838471910916,75.04797990433872,"[25, 0, 229]",229,a,0.42745886952616274,1,colour,0.5,4.0
65,24,0,2,1,36,36,75.56723562977277,76.50399694684893,"[12, 0, 242]",242,a,0.4145340227987617,1,colour,0.5,4.0
65,24,0,2,1,37,37,77.02049102378078,77.95202088332735,"[13, 0, 241]",241,a,0.4094711316283792,1,colour,0.5,4.0
65,24,0,2,1,38,38,78.45815090066753,79.34399461536668,"[90, 0, 164]",164,l,0.36378026055172086,1,colour,0.5,4.0
65,24,0,2,1,39,39,79.86437989142723,80.8160077163484,"[48, 0, 206]",206,a,0.42930206935852766,1,colour,0.5,4.0
65,24,0,2,1,40,40,81.33338085748255,83.01603150460869,"[73, 0, 181]",181,l,1.1604816422332078,1,colour,0.5,4.0
65,24,0,2,1,41,41,83.52097762050107,86.11201730719768,"[57, 0, 197]",197,l,2.0688474448397756,1,colour,0.5,4.0
65,24,0,2,1,42,42,86.63068817113526,87.87200317601673,"[64, 0, 190]",190,l,0.7191144921816885,1,colour,0.5,4.0
65,24,0,2,1,43,43,88.38068728498183,89.35204010293819,"[43, 0, 211]",211,a,0.44900264381431043,1,colour,0.5,4.0
65,24,0,2,1,44,44,89.8652782542631,90.91999332047999,"[67, 0, 187]",187,l,0.5325830827932805,1,colour,0.5,4.0
65,24,0,2,1,45,45,91.42789722047746,92.4719965592958,"[23, 0, 231]",231,a,0.521828327793628,1,colour,0.5,4.0
65,24,0,2,1,46,46,92.9904807403218,94.0479940827936,"[10, 0, 244]",244,a,0.5352356359362602,1,colour,0.5,4.0
65,24,0,2,1,47,47,94.55311900493689,95.76798606407829,"[8, 0, 246]",246,a,0.6926653650589287,1,colour,0.5,4.0
65,24,0,2,1,48,48,96.287617912516,97.28801569715142,"[65, 0, 189]",189,l,0.4781397704500705,1,colour,0.5,4.0
65,24,0,2,1,49,49,97.80334162642248,99.04000018909574,"[27, 0, 227]",227,a,0.714450960746035,1,colour,0.5,4.0
65,24,0,2,1,50,50,99.5535100940615,101.74398823501542,"[70, 0, 184]",184,l,1.668248483678326,1,colour,0.5,4.0
65,24,0,2,2,1,51,106.86583554651588,111.16000430076383,"[44, 0, 210]",210,l,3.7710722419433296,0,colour,0.5,4.0
65,24,0,2,2,2,52,111.67964126938023,112.61598550342023,"[19, 0, 235]",235,a,0.4141630199737847,1,colour,0.5,4.0
65,24,0,2,2,3,53,113.13273636763915,114.21598952054046,"[91, 0, 163]",163,l,0.5610038032755256,1,colour,0.5,4.0
65,24,0,2,2,4,54,114.72660583839752,115.68797820294276,"[92, 0, 162]",162,l,0.439375470392406,1,colour,0.5,4.0
65,24,0,2,2,5,55,116.19544257083908,117.79200082877651,"[63, 0, 191]",191,l,1.0745014993008226,1,colour,0.5,4.0
65,24,0,2,2,6,56,118.30503339227289,119.4320010964293,"[76, 0, 178]",178,l,0.6048132716678083,1,colour,0.5,4.0
65,24,0,2,2,7,57,119.94582056463696,120.83200259320438,"[49, 0, 205]",205,a,0.36397127620875835,1,colour,0.5,4.0
65,24,0,2,2,8,58,121.35208736453205,122.4079816059675,"[26, 0, 228]",228,a,0.5336366211995482,1,colour,0.5,4.0
65,24,0,2,2,9,59,122.91473271837458,123.90399804967456,"[28, 0, 226]",226,a,0.4669376064557582,1,colour,0.5,4.0
65,24,0,2,2,10,60,124.41488809068687,125.49601486860774,"[53, 0, 201]",201,a,0.558862068457529,0,colour,0.5,4.0
65,24,0,2,2,11,61,126.00876858900301,127.20800074678846,"[60, 0, 194]",194,a,0.6771974542643875,0,colour,0.5,4.0
65,24,0,2,2,12,62,127.72761959838681,128.72001482429914,"[81, 0, 173]",173,l,0.4701651749201119,1,colour,0.5,4.0
65,24,0,2,2,13,63,129.2276784782298,130.23999562044628,"[99, 0, 155]",155,l,0.49005203880369663,1,colour,0.5,4.0
65,24,0,2,2,14,64,130.75910010910593,131.93593581579626,"[7, 0, 247]",247,a,0.6547809173353016,1,colour,0.5,4.0
65,24,0,2,2,15,65,132.44675890286453,133.59197861584835,"[32, 0, 222]",222,a,0.6230550403706729,1,colour,0.5,4.0
65,24,0,2,2,16,66,134.1031148105394,135.15199544094503,"[15, 0, 239]",239,a,0.5266308870632201,1,colour,0.5,4.0
65,24,0,2,2,17,67,135.6657889150083,136.775962628657,"[12, 0, 242]",242,a,0.5879991948604584,1,colour,0.5,4.0
65,24,0,2,2,18,68,137.29089392418973,138.50400049146265,"[5, 0, 249]",249,a,0.6908477654214948,1,colour,0.5,4.0
65,24,0,2,2,19,69,139.009776835097,140.10395291494206,"[68, 0, 186]",186,l,0.5722752842120826,1,colour,0.5,4.0
65,24,0,2,2,20,70,140.61927372426726,141.96797913243063,"[65, 0, 189]",189,l,0.8264048588462174,1,colour,0.5,4.0
65,24,0,2,2,21,71,142.4788333333563,143.77600398263894,"[24, 0, 230]",230,a,0.7748968813102692,1,colour,0.5,4.0
65,24,0,2,2,22,72,144.29141104430892,147.69597445987165,"[16, 0, 238]",238,a,2.882431432371959,1,colour,0.5,4.0
65,24,0,2,2,23,73,148.21364101651125,149.27197986026295,"[9, 0, 245]",245,a,0.5361615682486445,1,colour,0.5,4.0
65,24,0,2,2,24,74,149.7918511671014,150.78399433172308,"[3, 0, 251]",251,a,0.4700021226890385,1,colour,0.5,4.0
65,24,0,2,2,25,75,151.29198212106712,152.41597431804985,"[27, 0, 227]",227,a,0.601994515163824,1,colour,0.5,4.0
65,24,0,2,2,26,76,152.93274920713156,154.0079497830011,"[41, 0, 213]",213,a,0.5535821677185595,1,colour,0.5,4.0
65,24,0,2,2,27,77,154.52668523788452,155.66395910619758,"[59, 0, 195]",195,l,0.6152454665862024,1,colour,0.5,4.0
65,24,0,2,2,28,78,156.18296631472185,157.40796663961373,"[95, 0, 159]",159,l,0.702772636897862,1,colour,0.5,4.0
65,24,0,2,2,29,79,157.9174853086006,159.16795841627754,"[77, 0, 177]",177,l,0.728222576668486,1,colour,0.5,4.0
65,24,0,2,2,30,80,159.6832634715829,160.69600518001243,"[96, 0, 158]",158,l,0.4904923588037491,1,colour,0.5,4.0
65,24,0,2,2,31,81,161.21459373016842,162.31999166635796,"[43, 0, 211]",211,a,0.5830446113832295,1,colour,0.5,4.0
65,24,0,2,2,32,82,162.83971567475237,164.05598876439035,"[45, 0, 209]",209,a,0.6939654510933906,1,colour,0.5,4.0
65,24,0,2,2,33,83,164.57430122839287,166.2399936511647,"[29, 0, 225]",225,a,1.1434765502344817,1,colour,0.5,4.0
65,24,0,2,2,34,84,166.74630208080634,168.4239733319264,"[40, 0, 214]",214,a,1.1554282032884657,1,colour,0.5,4.0
65,24,0,2,2,35,85,168.93403196381405,169.91996220662259,"[21, 0, 233]",233,a,0.4644130531232804,1,colour,0.5,4.0
65,24,0,2,2,36,86,170.43413771153428,171.43197155813687,"[70, 0, 184]",184,l,0.4756014326121658,1,colour,0.5,4.0
65,24,0,2,2,37,87,171.94993901299313,173.49596760701388,"[83, 0, 171]",171,l,1.023804844589904,1,colour,0.5,4.0
65,24,0,2,2,38,88,174.012551874388,175.3919721567072,"[94, 0, 160]",160,l,0.857133517274633,1,colour,0.5,4.0
65,24,0,2,2,39,89,175.90330566838384,177.46401605638675,"[56, 0, 198]",198,l,1.0385610754601657,1,colour,0.5,4.0
65,24,0,2,2,40,90,177.9816046312917,179.64799652481452,"[66, 0, 188]",188,a,1.1441386055666953,0,colour,0.5,4.0
65,24,0,2,2,41,91,180.153699218994,182.1519962286111,"[58, 0, 196]",196,a,1.476631733821705,0,colour,0.5,4.0
65,24,0,2,2,42,92,182.6694831913337,183.67201837850735,"[67, 0, 187]",187,l,0.4802401515189558,1,colour,0.5,4.0
65,24,0,2,2,43,93,184.18527858518064,185.55196464201435,"[87, 0, 167]",167,l,0.8444434029515833,1,colour,0.5,4.0
65,24,0,2,2,44,94,186.06035297270864,187.05596395209432,"[37, 0, 217]",217,a,0.47367710061371326,1,colour,0.5,4.0
65,24,0,2,2,45,95,187.57608732045628,188.7039502367843,"[69, 0, 185]",185,l,0.6059310068376362,1,colour,0.5,4.0
65,24,0,2,2,46,96,189.2168729172554,190.25599561724812,"[0, 0, 254]",254,a,0.5169080088380724,1,colour,0.5,4.0
65,24,0,2,2,47,97,190.7640350004658,193.28799797408283,"[35, 0, 219]",219,a,2.001901882700622,1,colour,0.5,4.0
65,24,0,2,2,48,98,193.79537018178962,194.91197303892113,"[75, 0, 179]",179,l,0.5943826520815492,1,colour,0.5,4.0
65,24,0,2,2,49,99,195.42050945572555,196.81597148254514,"[73, 0, 181]",181,l,0.873292628210038,1,colour,0.5,4.0
65,24,0,2,2,50,100,197.32691626786254,198.28000368643552,"[31, 0, 223]",223,a,0.43093928741291165,1,colour,0.5,4.0
65,24,0,2,3,1,101,203.85789442807436,204.7119524013251,"[95, 0, 159]",159,l,0.3312367594335228,1,colour,0.5,4.0
65,24,0,2,3,2,102,205.2181281046942,206.1999647114426,"[21, 0, 233]",233,a,0.4596400326117873,1,colour,0.5,4.0
65,24,0,2,3,3,103,206.71821455401368,207.78396164253354,"[82, 0, 172]",172,l,0.543560360558331,1,colour,0.5,4.0
65,24,0,2,3,4,104,208.29644518485293,209.23199739446864,"[22, 0, 232]",232,a,0.4132079433184117,1,colour,0.5,4.0
65,24,0,2,3,5,105,209.74977895384654,210.66396855842322,"[71, 0, 183]",183,l,0.39203477813862264,1,colour,0.5,4.0
65,24,0,2,3,6,106,211.17171610170044,212.46401014877483,"[56, 0, 198]",198,a,0.7700915653258562,0,colour,0.5,4.0
65,24,0,2,3,7,107,212.98438400309533,213.99998818454333,"[94, 0, 160]",160,l,0.49338594591245055,1,colour,0.5,4.0
65,24,0,2,3,8,108,214.5157453753054,215.50400049146265,"[98, 0, 156]",156,l,0.46618260350078344,1,colour,0.5,4.0
65,24,0,2,3,9,109,216.01582788606174,217.0159862122964,"[28, 0, 226]",226,a,0.4778703798074275,1,colour,0.5,4.0
65,24,0,2,3,10,110,217.53160752612166,218.6399699416943,"[96, 0, 158]",158,l,0.5860138169955462,1,colour,0.5,4.0
65,24,0,2,3,11,111,219.15680311992764,220.32799383089878,"[14, 0, 240]",240,a,0.6490343092009425,1,colour,0.5,4.0
65,24,0,2,3,12,112,220.84433785220608,222.33598102931865,"[6, 0, 248]",248,a,0.9693812245968729,1,colour,0.5,4.0
65,24,0,2,3,13,113,222.84462732914835,223.9679964617826,"[90, 0, 164]",164,l,0.6012462077196687,1,colour,0.5,4.0
65,24,0,2,3,14,114,224.48529359069653,225.51196996681392,"[87, 0, 167]",167,l,0.5044620789121836,1,colour,0.5,4.0
65,24,0,2,3,15,115,226.03230601223186,226.95996160781942,"[36, 0, 218]",218,a,0.4055322769563645,1,colour,0.5,4.0
65,24,0,2,3,16,116,227.46992965508252,228.94398327264935,"[39, 0, 215]",215,a,0.9523442310746759,1,colour,0.5,4.0
65,24,0,2,3,17,117,229.45441330131143,230.61599574331194,"[58, 0, 196]",196,a,0.6393622371833771,0,colour,0.5,4.0
65,24,0,2,3,18,118,231.12652029516175,232.35194833693095,"[80, 0, 174]",174,l,0.7034669877029955,1,colour,0.5,4.0
65,24,0,2,3,19,119,232.86092152888887,234.10398166580126,"[61, 0, 193]",193,a,0.7208355995826423,0,colour,0.5,4.0
65,24,0,2,3,20,120,234.61111087049358,235.29598241555505,"[93, 0, 161]",161,l,0.16275925398804247,1,colour,0.5,4.0
65,24,0,2,3,21,121,235.81420232588425,237.7839577042032,"[66, 0, 188]",188,l,1.447405992075801,1,colour,0.5,4.0
65,24,0,2,3,22,122,238.29885276569985,241.93598268344067,"[11, 0, 243]",243,a,3.1149041990283877,1,colour,0.5,4.0
65,24,0,2,3,23,123,242.45541800255887,243.37595128593966,"[68, 0, 186]",186,l,0.3982347031123936,1,colour,0.5,4.0
65,24,0,2,3,24,124,243.8939305562526,244.87998998048715,"[30, 0, 224]",224,a,0.4650778651703149,1,colour,0.5,4.0
65,24,0,2,3,25,125,245.39318717177957,246.5201946545858,"[27, 0, 227]",227,a,0.6050842378754169,1,colour,0.5,4.0
65,24,0,2,3,26,126,247.03393574710935,248.13595566549338,"[4, 0, 250]",250,a,0.5797717503737658,1,colour,0.5,4.0
65,24,0,2,3,27,127,248.64342948561534,250.07196591817774,"[44, 0, 210]",210,a,0.9065084245521575,1,colour,0.5,4.0
65,24,0,2,3,28,128,250.58108325791545,252.13596945023164,"[13, 0, 241]",241,a,1.0325639813672751,1,colour,0.5,4.0
65,24,0,2,3,29,129,252.64374810713343,253.9759572725743,"[47, 0, 207]",207,a,0.8100807266309857,1,colour,0.5,4.0
65,24,0,2,3,30,130,254.48778033466078,255.58398314658552,"[81, 0, 173]",173,l,0.5740731914993376,1,colour,0.5,4.0
65,24,0,2,3,31,131,256.09715710091405,257.5039445653092,"[83, 0, 171]",171,l,0.8845920718740672,1,colour,0.5,4.0
65,24,0,2,3,32,132,258.0192216578871,259.00797892780975,"[31, 0, 223]",223,a,0.46657448052428663,1,colour,0.5,4.0
65,24,0,2,3,33,133,259.5192915655207,262.63194966013543,"[17, 0, 237]",237,a,2.5903756620828062,1,colour,0.5,4.0
65,24,0,2,3,34,134,263.14460885780863,264.49597272695974,"[62, 0, 192]",192,l,0.8291783228050917,1,colour,0.5,4.0
65,24,0,2,3,35,135,265.00417043617927,266.1999737699516,"[72, 0, 182]",182,l,0.6736792274750769,1,colour,0.5,4.0
65,24,0,2,3,36,136,266.70739993453026,267.9039515759796,"[92, 0, 162]",162,l,0.6743247411213815,1,colour,0.5,4.0
65,24,0,2,3,37,137,268.4106566084083,269.3439402645454,"[43, 0, 211]",211,a,0.4110894452314824,1,colour,0.5,4.0
65,24,0,2,3,38,138,269.8638162976131,272.01594603993,"[18, 0, 236]",236,a,1.63001902657561,1,colour,0.5,4.0
65,24,0,2,3,39,139,272.53593707596883,273.59996857121587,"[79, 0, 175]",175,l,0.5417301580309868,1,colour,0.5,4.0
65,24,0,2,3,40,140,274.11413974361494,275.19196136528626,"[12, 0, 242]",242,a,0.5554797183722258,1,colour,0.5,4.0
65,24,0,2,3,41,141,275.7081179160159,277.1199450348504,"[75, 0, 179]",179,l,0.8897136463783681,1,colour,0.5,4.0
65,24,0,2,3,42,142,277.6301497835666,278.59997172188014,"[24, 0, 230]",230,a,0.44770807190798223,1,colour,0.5,4.0
65,24,0,2,3,43,143,279.1145977866836,280.1359568471089,"[88, 0, 166]",166,l,0.4992069909349084,1,colour,0.5,4.0
65,24,0,2,3,44,144,280.64591780514456,281.62398648634553,"[25, 0, 229]",229,a,0.455730322515592,1,colour,0.5,4.0
65,24,0,2,3,45,145,282.1305320111569,283.1999635298271,"[49, 0, 205]",205,a,0.5471624766942114,1,colour,0.5,4.0
65,24,0,2,3,46,146,283.70876697427593,284.81594312540255,"[85, 0, 169]",169,l,0.5851229368709028,1,colour,0.5,4.0
65,24,0,2,3,47,147,285.33381054364145,286.43997490406036,"[8, 0, 246]",246,a,0.5839417926035821,1,colour,0.5,4.0
65,24,0,2,3,48,148,286.95894784806296,288.8479379992932,"[35, 0, 219]",219,a,1.366916850907728,1,colour,0.5,4.0
65,24,0,2,3,49,149,289.36536549124867,290.50397843611427,"[51, 0, 203]",203,a,0.616412038449198,0,colour,0.5,4.0
65,24,0,2,3,50,150,291.02174148499034,292.5039386576973,"[42, 0, 212]",212,a,0.9598501494619995,1,colour,0.5,4.0
65,24,0,2,4,1,151,301.4593548879493,304.1599637346808,"[27, 0, 227]",227,l,2.1779829803854227,0,colour,0.5,4.0
65,24,0,2,4,2,152,304.67912060488015,306.087997028837,"[69, 0, 185]",185,l,0.8865183731541038,1,colour,0.5,4.0
65,24,0,2,4,3,153,306.6011930385139,308.0159216215834,"[80, 0, 174]",174,l,0.8925576088950038,1,colour,0.5,4.0
65,24,0,2,4,4,154,308.5232847707812,310.26393004041165,"[94, 0, 160]",160,l,1.2184333354234695,1,colour,0.5,4.0
65,24,0,2,4,5,155,310.77342744148336,312.05598128121346,"[11, 0, 243]",243,a,0.7602926748804748,1,colour,0.5,4.0
65,24,0,2,4,6,156,312.57037340151146,313.7519770087674,"[54, 0, 200]",200,a,0.6593704053666443,0,colour,0.5,4.0
65,24,0,2,4,7,157,314.25801407848485,315.6319346940145,"[93, 0, 161]",161,l,0.8517342815175653,1,colour,0.5,4.0
65,24,0,2,4,8,158,316.1487647215836,317.3839459675364,"[15, 0, 239]",239,a,0.7129760072566569,1,colour,0.5,4.0
65,24,0,2,4,9,159,317.8989453983959,318.98397322162054,"[99, 0, 155]",155,l,0.5628470028750598,1,colour,0.5,4.0
65,24,0,2,4,10,160,319.4928002967499,320.5039607130457,"[32, 0, 222]",222,a,0.48912059282884,1,colour,0.5,4.0
65,24,0,2,4,11,161,321.02419514604844,322.06393067049794,"[76, 0, 178]",178,l,0.5175125626847148,1,colour,0.5,4.0
65,24,0,2,4,12,162,322.571225684369,323.495986511698,"[4, 0, 250]",250,a,0.40258079464547336,1,colour,0.5,4.0
65,24,0,2,4,13,163,324.00878552440554,325.25591369741596,"[82, 0, 172]",172,l,0.7250237588305026,1,colour,0.5,4.0
65,24,0,2,4,14,164,325.7745684136171,326.92793365125544,"[72, 0, 182]",182,l,0.6310843804385513,1,colour,0.5,4.0
65,24,0,2,4,15,165,327.4465162935667,328.5519374667201,"[50, 0, 204]",204,a,0.5831277128309011,1,colour,0.5,4.0
65,24,0,2,4,16,166,329.07172527816147,331.39996683830395,"[48, 0, 206]",206,a,1.806027656653896,1,colour,0.5,4.0
65,24,0,2,4,17,167,331.9156102074776,332.7999541563913,"[52, 0, 202]",202,a,0.36213004565797746,0,colour,0.5,4.0
65,24,0,2,4,18,168,333.3063838905655,334.5679378574714,"[20, 0, 234]",234,a,0.7392668083775789,1,colour,0.5,4.0
65,24,0,2,4,19,169,335.08775087515824,336.44795343792066,"[45, 0, 209]",209,a,0.837901619495824,1,colour,0.5,4.0
65,24,0,2,4,20,170,336.96296507818624,338.5599317543674,"[42, 0, 212]",212,a,1.0747358375228941,1,colour,0.5,4.0
65,24,0,2,4,21,171,339.0724531058222,339.7839387995191,"[65, 0, 189]",189,l,0.1892127136234194,1,colour,0.5,4.0
65,24,0,2,4,22,172,340.2913255796302,341.34397334768437,"[40, 0, 214]",214,a,0.5307091632857919,1,colour,0.5,4.0
65,24,0,2,4,23,173,341.85391461336985,342.8959730421193,"[26, 0, 228]",228,a,0.5197763899341226,1,colour,0.5,4.0
65,24,0,2,4,24,174,343.40105976117775,344.5919805848971,"[68, 0, 186]",186,l,0.6687852959148586,1,colour,0.5,4.0
65,24,0,2,4,25,175,345.1042341210414,348.0959893472027,"[6, 0, 248]",248,a,2.4694731873460114,1,colour,0.5,4.0
65,24,0,2,4,26,176,348.60444817645475,349.60797585570253,"[92, 0, 162]",162,l,0.48125115456059575,1,colour,0.5,4.0
65,24,0,2,4,27,177,350.1202372687403,351.13595999777317,"[30, 0, 224]",224,a,0.4935324564576149,1,colour,0.5,4.0
65,24,0,2,4,28,178,351.65162817947567,352.67994492454454,"[79, 0, 175]",175,l,0.5061091433744878,1,colour,0.5,4.0
65,24,0,2,4,29,179,353.1986216963269,354.51992132538,"[95, 0, 159]",159,l,0.7990853318478912,1,colour,0.5,4.0
65,24,0,2,4,30,180,355.0269052009098,355.89593129442073,"[29, 0, 225]",225,a,0.34699178393930197,1,colour,0.5,4.0
65,24,0,2,4,31,181,356.40195969934575,357.3839534504805,"[3, 0, 251]",251,a,0.45967705408111215,1,colour,0.5,4.0
65,24,0,2,4,32,182,357.902081200853,358.8799813159276,"[0, 0, 254]",254,a,0.45561374397948384,1,colour,0.5,4.0
65,24,0,2,4,33,183,359.38657331466675,360.63993528322317,"[46, 0, 208]",208,a,0.7311520036309958,1,colour,0.5,4.0
65,24,0,2,4,34,184,361.152415280696,362.45594851323403,"[7, 0, 247]",247,a,0.7813772244844586,1,colour,0.5,4.0
65,24,0,2,4,35,185,362.96495124395005,363.9359318772331,"[63, 0, 191]",191,l,0.448721831664443,1,colour,0.5,4.0
65,24,0,2,4,36,186,364.44948786241,365.655919526238,"[62, 0, 192]",192,l,0.684218154521659,1,colour,0.5,4.0
65,24,0,2,4,37,187,366.1683648652397,367.3999235150404,"[84, 0, 170]",170,l,0.7093089064583182,1,colour,0.5,4.0
65,24,0,2,4,38,188,367.9185195483733,368.55995617294684,"[37, 0, 217]",217,a,0.11912741046398878,1,colour,0.5,4.0
65,24,0,2,4,39,189,369.0748134253081,370.35194951831363,"[51, 0, 203]",203,a,0.7549954450223595,0,colour,0.5,4.0
65,24,0,2,4,40,190,370.87185666523874,372.111901122611,"[38, 0, 216]",216,a,0.7178116494324058,1,colour,0.5,4.0
65,24,0,2,4,41,191,372.6220574283507,373.95193738793023,"[9, 0, 245]",245,a,0.8076215516775846,1,colour,0.5,4.0
65,24,0,2,4,42,192,374.46596756367944,375.78394943336025,"[31, 0, 223]",223,a,0.7963674000930041,1,colour,0.5,4.0
65,24,0,2,4,43,193,376.2941348836757,377.6959602814168,"[24, 0, 230]",230,a,0.8795835312921554,1,colour,0.5,4.0
65,24,0,2,4,44,194,378.2161742344033,379.51993432221934,"[61, 0, 193]",193,l,0.7815276738256216,1,colour,0.5,4.0
65,24,0,2,4,45,195,380.0288275636267,381.0719355919864,"[14, 0, 240]",240,a,0.5207602174486965,1,colour,0.5,4.0
65,24,0,2,4,46,196,381.59152214811184,382.7359415658284,"[90, 0, 164]",164,l,0.6222401726990938,1,colour,0.5,4.0
65,24,0,2,4,47,197,383.2478276435286,384.61595005728304,"[47, 0, 207]",207,a,0.8458860612008721,1,colour,0.5,4.0
65,24,0,2,4,48,198,385.123024123488,386.43994694110006,"[78, 0, 176]",176,l,0.7946687419898808,1,colour,0.5,4.0
65,24,0,2,4,49,199,386.9512658803724,388.3039192017168,"[89, 0, 165]",165,l,0.8303866425994784,1,colour,0.5,4.0
65,24,0,2,4,50,200,388.8107408126816,390.5279148253612,"[67, 0, 187]",187,l,1.1948888232000172,1,colour,0.5,4.0
65,24,0,2,5,1,201,396.37312307744287,398.2479245297145,"[99, 0, 155]",155,l,1.35179237392731,1,colour,0.5,3.9
65,24,0,2,5,2,202,398.7645792956464,400.01592555991374,"[7, 0, 247]",247,a,0.7289476471487433,1,colour,0.5,3.9
65,24,0,2,5,3,203,400.53048782167025,401.5839559712913,"[77, 0, 177]",177,l,0.5312975693959743,1,colour,0.5,3.9
65,24,0,2,5,4,204,402.0930579509586,403.31995149399154,"[60, 0, 194]",194,l,0.7047875535208732,1,colour,0.5,3.9
65,24,0,2,5,5,205,403.82763011404313,406.1839450222906,"[84, 0, 170]",170,l,1.8342364879790694,1,colour,0.5,3.9
65,24,0,2,5,6,206,406.7028506186325,407.6319677771535,"[18, 0, 236]",236,a,0.40688080596737564,1,colour,0.5,3.9
65,24,0,2,5,7,207,408.14046165859327,412.3679463644512,"[52, 0, 202]",202,l,3.705181793309748,1,colour,0.5,3.9
65,24,0,2,5,8,208,412.8751582768746,414.03993953671306,"[6, 0, 248]",248,a,0.6425827164202929,1,colour,0.5,3.9
65,24,0,2,5,9,209,414.54728693235666,415.97594663873315,"[19, 0, 235]",235,a,0.9064836122561246,1,colour,0.5,3.9
65,24,0,2,5,10,210,416.48481073533185,418.26395012647845,"[9, 0, 245]",245,a,1.2568447494413704,1,colour,0.5,3.9
65,24,0,2,5,11,211,418.7818896183744,419.83195099933073,"[1, 0, 253]",253,a,0.5277060868684202,1,colour,0.5,3.9
65,24,0,2,5,12,212,420.3445215814281,423.1519040686544,"[21, 0, 233]",233,a,2.285159131512046,1,colour,0.5,3.9
65,24,0,2,5,13,213,423.65730980294757,426.0399210259784,"[87, 0, 167]",167,l,1.8603776274248958,1,colour,0.5,3.9
65,24,0,2,5,14,214,426.5480604460463,427.815912011778,"[4, 0, 250]",250,a,0.7454230163712054,1,colour,0.5,3.9
65,24,0,2,5,15,215,428.329580636695,429.74391064746305,"[55, 0, 199]",199,l,0.8921208335086703,1,colour,0.5,3.9
65,24,0,2,5,16,216,430.25155067048036,431.41594753670506,"[15, 0, 239]",239,a,0.6420959229581058,1,colour,0.5,3.9
65,24,0,2,5,17,217,431.92366869188845,435.5359240791295,"[5, 0, 249]",249,a,3.090102923801169,1,colour,0.5,3.9
65,24,0,2,5,18,218,436.04886999656446,437.07995232893154,"[65, 0, 189]",189,l,0.5088050197809935,1,colour,0.5,3.9
65,24,0,2,5,19,219,437.59594385814853,438.5679126512259,"[17, 0, 237]",237,a,0.4497954559046775,1,colour,0.5,3.9
65,24,0,2,5,20,220,439.0803638980724,440.5759262375068,"[83, 0, 171]",171,l,0.9732799069024622,1,colour,0.5,3.9
65,24,0,2,5,21,221,441.0961945410818,443.18390248692594,"[75, 0, 179]",179,l,1.5655287010595202,1,colour,0.5,3.9
65,24,0,2,5,22,222,443.6901967378799,444.6559439448174,"[8, 0, 246]",246,a,0.44359041121788323,1,colour,0.5,3.9
65,24,0,2,5,23,223,445.1746006303001,446.37590678129345,"[11, 0, 243]",243,a,0.6790532569866627,1,colour,0.5,3.9
65,24,0,2,5,24,224,446.89357136865146,448.047944852151,"[20, 0, 234]",234,a,0.6324348784983158,1,colour,0.5,3.9
65,24,0,2,5,25,225,448.5655598149169,449.58395912195556,"[42, 0, 212]",212,a,0.4964484930969775,1,colour,0.5,3.9
65,24,0,2,5,26,226,450.09695623931475,451.1199521240778,"[51, 0, 203]",203,a,0.5008213659748435,0,colour,0.5,3.9
65,24,0,2,5,27,227,451.62829516245984,452.70393723994493,"[14, 0, 240]",240,a,0.5533943034242839,1,colour,0.5,3.9
65,24,0,2,5,28,228,453.2221725101117,455.0319070459809,"[54, 0, 200]",200,l,1.2875745894853026,1,colour,0.5,3.9
65,24,0,2,5,29,229,455.5504786609672,456.5199091162067,"[12, 0, 242]",242,a,0.4472598750144243,1,colour,0.5,3.9
65,24,0,2,5,30,230,457.034946750151,458.663934687851,"[10, 0, 244]",244,a,1.10669447761029,1,colour,0.5,3.9
65,24,0,2,5,31,231,459.1757565685548,460.1999682560563,"[91, 0, 163]",163,l,0.5021104242186993,1,colour,0.5,3.9
65,24,0,2,5,32,232,460.70709903608076,462.8879401574377,"[64, 0, 190]",190,l,1.6586689655669034,1,colour,0.5,3.9
65,24,0,2,5,33,233,463.39489764533937,464.4959553978406,"[28, 0, 226]",226,a,0.5789304953068495,1,colour,0.5,3.9
65,24,0,2,5,34,234,465.0042897714302,466.6319327247329,"[61, 0, 193]",193,l,1.105440471554175,1,colour,0.5,3.9
65,24,0,2,5,35,235,467.1450854113791,469.0639479998499,"[82, 0, 172]",172,l,1.3965541620273143,1,colour,0.5,3.9
65,24,0,2,5,36,236,469.58289140532725,470.99233260471374,"[33, 0, 221]",221,a,0.8873139421921223,1,colour,0.5,3.9
65,24,0,2,5,37,237,471.50486222677864,472.9359106095508,"[46, 0, 208]",208,a,0.9087663441896439,1,colour,0.5,3.9
65,24,0,2,5,38,238,473.4424762206618,474.58392564509995,"[35, 0, 219]",219,a,0.6193690348882228,1,colour,0.5,3.9
65,24,0,2,5,39,239,475.0988829343114,477.1119487779215,"[41, 0, 213]",213,a,1.4908818725962192,1,colour,0.5,3.9
65,24,0,2,5,40,240,477.6304006637074,478.66395989386365,"[98, 0, 156]",156,l,0.5114453637506813,1,colour,0.5,3.9
65,24,0,2,5,41,241,479.17735676513985,480.35990402754396,"[62, 0, 192]",192,l,0.6603853467386216,1,colour,0.5,3.9
65,24,0,2,5,42,242,480.86496435897425,481.83994686231017,"[53, 0, 201]",201,a,0.4527843538671732,0,colour,0.5,3.9
65,24,0,2,5,43,243,482.3494686819613,484.28791959863156,"[90, 0, 164]",164,a,1.4162058995570987,0,colour,0.5,3.9
65,24,0,2,5,44,244,484.8028217495885,488.271906998707,"[48, 0, 206]",206,a,2.947033610427752,1,colour,0.5,3.9
65,24,0,2,5,45,245,488.78742985101417,489.9038928928785,"[95, 0, 159]",159,l,0.594307821476832,1,colour,0.5,3.9
65,24,0,2,5,46,246,490.4125569157768,491.6479476878885,"[29, 0, 225]",225,a,0.7130638349335641,1,colour,0.5,3.9
65,24,0,2,5,47,247,492.1626966325566,497.0239237861242,"[79, 0, 175]",175,l,4.338904942618683,1,colour,0.5,3.9
65,24,0,2,5,48,248,497.53815876180306,498.53592053451575,"[63, 0, 191]",191,l,0.4755675618071109,1,colour,0.5,3.9
65,24,0,2,5,49,249,499.05386160174385,500.2319115358405,"[73, 0, 181]",181,l,0.6556658893823624,1,colour,0.5,3.9
65,24,0,2,5,50,250,500.74152000178583,501.90390549600124,"[59, 0, 195]",195,l,0.6402007355354726,1,colour,0.5,3.9
65,24,0,2,6,1,251,508.21007001399994,510.3039373187348,"[76, 0, 178]",178,l,1.5709129706956446,1,colour,0.5,3.9
65,24,0,2,6,2,252,510.82050937693566,512.4718890395015,"[77, 0, 177]",177,l,1.1291748178191483,1,colour,0.5,3.9
65,24,0,2,6,3,253,512.9769060476683,514.1759247407317,"[85, 0, 169]",169,l,0.6773770481813699,1,colour,0.5,3.9
65,24,0,2,6,4,254,514.6957271245774,518.7999017748516,"[57, 0, 197]",197,l,3.5818752823397517,1,colour,0.5,3.9
65,24,0,2,6,5,255,519.3054630784318,520.2559377220459,"[48, 0, 206]",206,a,0.4282288388349116,1,colour,0.5,3.9
65,24,0,2,6,6,256,520.7743829120882,522.8478860114701,"[31, 0, 223]",223,a,1.5513210974168032,1,colour,0.5,3.9
65,24,0,2,6,7,257,523.3683094906155,524.3679061923176,"[65, 0, 189]",189,l,0.47738555539399385,1,colour,0.5,3.9
65,24,0,2,6,8,258,524.8840651060455,525.9759021340869,"[19, 0, 235]",235,a,0.5695679862983525,1,colour,0.5,3.9
65,24,0,2,6,9,259,526.4936242229305,529.0958877350204,"[59, 0, 195]",195,a,2.080396193312481,0,colour,0.5,3.9
65,24,0,2,6,10,260,529.6032422196586,530.5438884345349,"[30, 0, 224]",224,a,0.4184685454238206,1,colour,0.5,3.9
65,24,0,2,6,11,261,531.0564408996142,532.5439427851234,"[27, 0, 227]",227,a,0.965223785256967,1,colour,0.5,3.9
65,24,0,2,6,12,262,533.056502339663,534.0078930691816,"[62, 0, 192]",192,l,0.4298124937340617,1,colour,0.5,3.9
65,24,0,2,6,13,263,534.5255359949078,536.5278900130652,"[54, 0, 200]",200,a,1.4805674378294498,0,colour,0.5,3.9
65,24,0,2,6,14,264,537.0414330011699,538.6159232757054,"[96, 0, 158]",158,l,1.0528403588104993,1,colour,0.5,3.9
65,24,0,2,6,15,265,539.1351604904048,541.4399114949629,"[7, 0, 247]",247,a,1.7825985413510352,1,colour,0.5,3.9
65,24,0,2,6,16,266,541.9478287857492,543.0479097997304,"[24, 0, 230]",230,a,0.5776694000232965,1,colour,0.5,3.9
65,24,0,2,6,17,267,543.5574355579447,544.7439327028114,"[60, 0, 194]",194,a,0.6642497645225376,0,colour,0.5,3.9
65,24,0,2,6,18,268,545.2606749024708,546.4719173964113,"[64, 0, 190]",190,l,0.6890435568057001,1,colour,0.5,3.9
65,24,0,2,6,19,269,546.9794865271542,548.1679296654183,"[68, 0, 186]",186,l,0.6666577395517379,1,colour,0.5,3.9
65,24,0,2,6,20,270,548.682795582572,549.9998700309079,"[52, 0, 202]",202,a,0.7948652713093907,0,colour,0.5,3.9
65,24,0,2,6,21,271,550.5110586071387,551.5679039866664,"[47, 0, 207]",207,a,0.5346334455534816,1,colour,0.5,3.9
65,24,0,2,6,22,272,552.0737071116455,554.903885015985,"[75, 0, 179]",179,a,2.307952185627073,0,colour,0.5,3.9
65,24,0,2,6,23,273,555.4177044839598,556.4479120841715,"[11, 0, 243]",243,a,0.507966915378347,1,colour,0.5,3.9
65,24,0,2,6,24,274,556.9646255332045,558.1358969826251,"[66, 0, 188]",188,l,0.6488862230908126,1,colour,0.5,3.9
65,24,0,2,6,25,275,558.6524521054234,559.6079305633903,"[29, 0, 225]",225,a,0.4332680993247777,1,colour,0.5,3.9
65,24,0,2,6,26,276,560.1212069178,561.6879021907225,"[46, 0, 208]",208,a,1.044382908148691,1,colour,0.5,3.9
65,24,0,2,6,27,277,562.1995283300057,563.6239065355621,"[73, 0, 181]",181,l,0.9022548869252205,1,colour,0.5,3.9
65,24,0,2,6,28,278,564.1371411422733,565.175880630035,"[10, 0, 244]",244,a,0.5164247597567737,1,colour,0.5,3.9
65,24,0,2,6,29,279,565.684092911426,566.5838748388924,"[36, 0, 218]",218,a,0.377519974950701,1,colour,0.5,3.9
65,24,0,2,6,30,280,567.0904770775232,568.5279223083053,"[4, 0, 250]",250,a,0.9152029703836888,1,colour,0.5,3.9
65,24,0,2,6,31,281,569.043861849932,570.1678796468768,"[28, 0, 226]",226,a,0.6019771860446781,1,colour,0.5,3.9
65,24,0,2,6,32,282,570.6845438652672,571.8079275700729,"[55, 0, 199]",199,l,0.6010973339434713,1,colour,0.5,3.9
65,24,0,2,6,33,283,572.3253078006674,573.1999036653433,"[43, 0, 211]",211,a,0.35240874299779534,1,colour,0.5,3.9
65,24,0,2,6,34,284,573.7160621851217,574.6159185494762,"[86, 0, 168]",168,l,0.3777255625464022,1,colour,0.5,3.9
65,24,0,2,6,35,285,575.1223884560168,575.8878905328456,"[12, 0, 242]",242,a,0.24325705971568823,1,colour,0.5,3.9
65,24,0,2,6,36,286,576.403798172716,577.5199429867789,"[0, 0, 254]",254,a,0.593994713621214,1,colour,0.5,3.9
65,24,0,2,6,37,287,578.028889397392,579.1839198160451,"[35, 0, 219]",219,a,0.6327657091896981,1,colour,0.5,3.9
65,24,0,2,6,38,288,579.7008963543922,580.7999068947975,"[94, 0, 160]",160,l,0.5767497695051134,1,colour,0.5,3.9
65,24,0,2,6,39,289,581.310393637279,582.3199058077298,"[82, 0, 172]",172,l,0.48750306689180434,1,colour,0.5,3.9
65,24,0,2,6,40,290,582.8262059665285,583.7198943074327,"[50, 0, 204]",204,a,0.3717186220455915,1,colour,0.5,3.9
65,24,0,2,6,41,291,584.232496397337,587.4319168133661,"[33, 0, 221]",221,a,2.677134438883513,1,colour,0.5,3.9
65,24,0,2,6,42,292,587.9515069141053,589.2878873033915,"[5, 0, 249]",249,a,0.814147581346333,1,colour,0.5,3.9
65,24,0,2,6,43,293,589.7955040894449,590.8558850253467,"[8, 0, 246]",246,a,0.5381969648879021,1,colour,0.5,3.9
65,24,0,2,6,44,294,591.3736937602516,592.5839157989249,"[45, 0, 209]",209,a,0.6879687507171184,1,colour,0.5,3.9
65,24,0,2,6,45,295,593.0926503201481,596.0718938442878,"[38, 0, 216]",216,a,2.457249780651182,1,colour,0.5,3.9
65,24,0,2,6,46,296,596.5772676770575,597.6238947203383,"[51, 0, 203]",203,l,0.5246785921044648,1,colour,0.5,3.9
65,24,0,2,6,47,297,598.1398062987719,599.2319028712809,"[88, 0, 166]",166,l,0.5697826324030757,1,colour,0.5,3.9
65,24,0,2,6,48,298,599.7494296124205,600.9679247818422,"[81, 0, 173]",173,l,0.6964037520810962,1,colour,0.5,3.9
65,24,0,2,6,49,299,601.4838229694869,602.9679023325443,"[69, 0, 185]",185,l,0.961799293756485,1,colour,0.5,3.9
65,24,0,2,6,50,300,603.484010046348,604.4319239025936,"[3, 0, 251]",251,a,0.42569522676058114,1,colour,0.5,3.9
65,24,0,2,7,1,301,611.108879535459,613.0318865659647,"[74, 0, 180]",180,l,1.400165730388835,1,colour,0.5,3.9
65,24,0,2,7,2,302,613.5473700338043,615.6399104709271,"[71, 0, 183]",183,l,1.5703659183345735,1,colour,0.5,3.9
65,24,0,2,7,3,303,616.1569173352327,617.2878880910575,"[64, 0, 190]",190,l,0.6087036831304431,1,colour,0.5,3.9
65,24,0,2,7,4,304,617.7976789076347,618.7838856303133,"[70, 0, 184]",184,l,0.4639617055654526,1,colour,0.5,3.9
65,24,0,2,7,5,305,619.2977744152304,620.8879031359684,"[72, 0, 182]",182,l,1.0677391621284187,1,colour,0.5,3.9
65,24,0,2,7,6,306,621.4072911937255,623.7358647659421,"[49, 0, 205]",205,a,1.806267115054652,1,colour,0.5,3.9
65,24,0,2,7,7,307,624.2513561104424,625.2318839665968,"[39, 0, 215]",215,a,0.4583257681224495,1,colour,0.5,3.9
65,24,0,2,7,8,308,625.7514260183088,626.9278816634323,"[13, 0, 241]",241,a,0.6542055080644786,1,colour,0.5,3.9
65,24,0,2,7,9,309,627.4391131689772,628.7518978458829,"[6, 0, 248]",248,a,0.7905420227907598,1,colour,0.5,3.9
65,24,0,2,7,10,310,629.2673352335114,630.1759515223093,"[91, 0, 163]",163,l,0.38642128999345005,1,colour,0.5,3.9
65,24,0,2,7,11,311,630.6892979813274,631.7518679134082,"[28, 0, 226]",226,a,0.540389111964032,1,colour,0.5,3.9
65,24,0,2,7,12,312,632.2675451536197,633.7679096581414,"[20, 0, 234]",234,a,0.9784038444049656,1,colour,0.5,3.9
65,24,0,2,7,13,313,634.2835014334414,635.3759028429631,"[60, 0, 194]",194,l,0.5703084168490022,1,colour,0.5,3.9
65,24,0,2,7,14,314,635.8928738671821,636.9678684617393,"[27, 0, 227]",227,a,0.5529602849856019,1,colour,0.5,3.9
65,24,0,2,7,15,315,637.486762636574,638.447903419612,"[67, 0, 187]",187,l,0.4389323936775327,1,colour,0.5,3.9
65,24,0,2,7,16,316,638.95558676566,639.9919840509538,"[61, 0, 193]",193,l,0.5141195787582546,1,colour,0.5,3.9
65,24,0,2,7,17,317,640.502546411939,641.8958505559713,"[3, 0, 251]",251,a,0.8713781423866749,1,colour,0.5,3.9
65,24,0,2,7,18,318,642.4090217533521,644.06392397522,"[7, 0, 247]",247,a,1.1327840231824666,1,colour,0.5,3.9
65,24,0,2,7,19,319,644.5810915287584,645.8159001963213,"[19, 0, 235]",235,a,0.7126408442854881,1,colour,0.5,3.9
65,24,0,2,7,20,320,646.3312950485852,649.3999140628148,"[17, 0, 237]",237,a,2.5463932955171913,1,colour,0.5,3.9
65,24,0,2,7,21,321,649.9096178393811,650.8878645389341,"[95, 0, 159]",159,l,0.45629391609691083,1,colour,0.5,3.9
65,24,0,2,7,22,322,651.3941580024548,652.2319131114054,"[76, 0, 178]",178,l,0.3156959870830178,1,colour,0.5,3.9
65,24,0,2,7,23,323,652.7379399407655,653.6798760015517,"[0, 0, 254]",254,a,0.4196941943373531,1,colour,0.5,3.9
65,24,0,2,7,24,324,654.1912043930497,655.3918910243083,"[87, 0, 167]",167,l,0.6785129001364112,1,colour,0.5,3.9
65,24,0,2,7,25,325,655.9101227500942,657.0078765277285,"[21, 0, 233]",233,a,0.5757659419905394,1,colour,0.5,3.9
65,24,0,2,7,26,326,657.5195444147103,659.0318708121777,"[29, 0, 225]",225,a,0.9900124573614448,1,colour,0.5,3.9
65,24,0,2,7,27,327,659.5509382791352,660.5759026065934,"[66, 0, 188]",188,l,0.5027287625707686,1,colour,0.5,3.9
65,24,0,2,7,28,328,661.0822894114535,662.07205925975,"[18, 0, 236]",236,a,0.4674744186922908,1,colour,0.5,3.9
65,24,0,2,7,29,329,662.5824786545709,663.7358982427977,"[62, 0, 192]",192,l,0.6312576725613326,1,colour,0.5,3.9
65,24,0,2,7,30,330,664.2543891191017,665.4158695549704,"[84, 0, 170]",170,l,0.6391905201599002,1,colour,0.5,3.9
65,24,0,2,7,31,331,665.9265354976524,667.2958638679702,"[85, 0, 169]",169,l,0.8473905532155186,1,colour,0.5,3.9
65,24,0,2,7,32,332,667.8015701067634,669.2718790357467,"[59, 0, 195]",195,l,0.9480268901679665,1,colour,0.5,3.9
65,24,0,2,7,33,333,669.7862101099454,671.0639279135503,"[69, 0, 185]",185,l,0.7555720356758684,1,colour,0.5,3.9
65,24,0,2,7,34,334,671.5832005743869,672.8799218451604,"[82, 0, 172]",172,l,0.7745979519095272,1,colour,0.5,3.9
65,24,0,2,7,35,335,673.3958117621951,674.799874993274,"[80, 0, 174]",174,l,0.8817477156408131,1,colour,0.5,3.9
65,24,0,2,7,36,336,675.3178101528902,676.6238785726018,"[73, 0, 181]",181,l,0.7837225780822337,1,colour,0.5,3.9
65,24,0,2,7,37,337,677.1304855374619,678.5278774099424,"[92, 0, 162]",162,l,0.8751058953348547,1,colour,0.5,3.9
65,24,0,2,7,38,338,679.0369132235646,680.0239103953354,"[30, 0, 224]",224,a,0.4647316746413708,1,colour,0.5,3.9
65,24,0,2,7,39,339,680.5370359066874,681.5678709035274,"[22, 0, 232]",232,a,0.508630545809865,1,colour,0.5,3.9
65,24,0,2,7,40,340,682.0840357251,683.0639775381424,"[2, 0, 252]",252,a,0.4577223958913237,1,colour,0.5,3.9
65,24,0,2,7,41,341,683.5841733743437,684.543920729775,"[90, 0, 164]",164,l,0.4376122213434428,1,colour,0.5,3.9
65,24,0,2,7,42,342,685.0530112881679,687.0878765119705,"[48, 0, 206]",206,a,1.512668649898842,1,colour,0.5,3.9
65,24,0,2,7,43,343,687.6000473403838,688.6238994463347,"[35, 0, 219]",219,a,0.5018587564118207,1,colour,0.5,3.9
65,24,0,2,7,44,344,689.1314146202058,690.1598920547403,"[24, 0, 230]",230,a,0.5062521095387638,1,colour,0.5,3.9
65,24,0,2,7,45,345,690.678418771131,691.6639275986236,"[16, 0, 238]",238,a,0.4631909488234669,1,colour,0.5,3.9
65,24,0,2,7,46,346,692.1785241249017,693.2639450065326,"[23, 0, 231]",231,a,0.5630380182992667,1,colour,0.5,3.9
65,24,0,2,7,47,347,693.7725444387179,696.1278613409959,"[33, 0, 221]",221,a,1.8332565990276635,1,colour,0.5,3.9
65,24,0,2,7,48,348,696.6476542726159,697.687903372338,"[98, 0, 156]",156,l,0.5180162920150906,1,colour,0.5,3.9
65,24,0,2,7,49,349,698.1946666939184,699.1438739409205,"[77, 0, 177]",177,l,0.4269638052210212,1,colour,0.5,3.9
65,24,0,2,7,50,350,699.6635648661759,700.6478858538903,"[26, 0, 228]",228,a,0.46200310881249607,1,colour,0.5,3.9
65,24,0,2,8,1,351,705.2413031894248,706.1358611425385,"[10, 0, 244]",244,a,0.37160007446072996,1,colour,0.5,3.9
65,24,0,2,8,2,352,706.6483698908705,707.671881319955,"[61, 0, 193]",193,l,0.501216393429786,1,colour,0.5,3.9
65,24,0,2,8,3,353,708.1798632014543,710.0078781030606,"[30, 0, 224]",224,a,1.3059219089336693,1,colour,0.5,3.9
65,24,0,2,8,4,354,710.5236931892578,711.3758886645082,"[35, 0, 219]",219,a,0.32992052589543164,1,colour,0.5,3.9
65,24,0,2,8,5,355,711.8832719000056,712.9278891466092,"[59, 0, 195]",195,l,0.5224324879236519,1,colour,0.5,3.9
65,24,0,2,8,6,356,713.4458656599745,714.4238725074101,"[95, 0, 159]",159,l,0.4557074795011431,1,colour,0.5,3.9
65,24,0,2,8,7,357,714.9303400507197,715.8798548914492,"[76, 0, 178]",178,l,0.4271721497643739,1,colour,0.5,3.9
65,24,0,2,8,8,358,716.3991980506107,717.5758923667017,"[97, 0, 157]",157,l,0.6544969542883337,1,colour,0.5,3.9
65,24,0,2,8,9,359,718.0868001305498,720.6158811340574,"[98, 0, 156]",156,l,2.0067166509106755,1,colour,0.5,3.9
65,24,0,2,8,10,360,721.1340549644083,722.0558548567351,"[47, 0, 207]",207,a,0.399638764327392,1,colour,0.5,3.9
65,24,0,2,8,11,361,722.5715600599069,723.5918781850487,"[16, 0, 238]",238,a,0.49807665264233947,1,colour,0.5,3.9
65,24,0,2,8,12,362,724.1029127675574,725.2638906557113,"[3, 0, 251]",251,a,0.6386501633096486,1,colour,0.5,3.9
65,24,0,2,8,13,363,725.7749984934926,726.5918915758375,"[15, 0, 239]",239,a,0.29468744969926775,1,colour,0.5,3.9
65,24,0,2,8,14,364,727.1032416289672,728.0238580137957,"[13, 0, 241]",241,a,0.39848322002217174,1,colour,0.5,3.9
65,24,0,2,8,15,365,728.5408432167023,729.6878663506359,"[46, 0, 208]",208,a,0.6250313599593937,1,colour,0.5,3.9
65,24,0,2,8,16,366,730.1972058196552,731.1118534673005,"[78, 0, 176]",176,l,0.3924900642596185,1,colour,0.5,3.9
65,24,0,2,8,17,367,731.6191693551373,732.5439104898833,"[27, 0, 227]",227,a,0.40255952696315944,1,colour,0.5,3.9
65,24,0,2,8,18,368,733.0567512502894,734.0158582122531,"[88, 0, 166]",166,l,0.4368253170978278,1,colour,0.5,3.9
65,24,0,2,8,19,369,734.5256553303916,735.4718839193229,"[4, 0, 250]",250,a,0.4242159409914166,1,colour,0.5,3.9
65,24,0,2,8,20,370,735.9790521149989,737.1438585808501,"[32, 0, 222]",222,a,0.6427040209528059,1,colour,0.5,3.9
65,24,0,2,8,21,371,737.6509078349918,738.6878828923218,"[25, 0, 229]",229,a,0.5147843910381198,1,colour,0.5,3.9
65,24,0,2,8,22,372,739.1979978440795,741.3118567755446,"[48, 0, 206]",206,a,1.5916662958916277,1,colour,0.5,3.9
65,24,0,2,8,23,373,741.8231587794144,743.1518473548349,"[52, 0, 202]",202,a,0.8064526165835559,0,colour,0.5,3.9
65,24,0,2,8,24,374,743.6669826626312,745.0398816415109,"[45, 0, 209]",209,a,0.8506051248405129,1,colour,0.5,3.9
65,24,0,2,8,25,375,745.5577691455837,746.6958736353554,"[70, 0, 184]",184,l,0.6160666355863214,1,colour,0.5,3.9
65,24,0,2,8,26,376,747.2141494716052,748.2558664358221,"[33, 0, 221]",221,a,0.519377029966563,1,colour,0.5,3.9
65,24,0,2,8,27,377,748.7610949394293,750.5838283649646,"[38, 0, 216]",216,a,1.3004852577578276,1,colour,0.5,3.9
65,24,0,2,8,28,378,751.0894983701874,752.3598536152858,"[69, 0, 185]",185,l,0.7481929357163608,1,colour,0.5,3.9
65,24,0,2,8,29,379,752.8708732316736,753.951853104867,"[5, 0, 249]",249,a,0.5587478529196233,1,colour,0.5,3.9
65,24,0,2,8,30,380,754.4648195023183,755.7518765782006,"[75, 0, 179]",179,l,0.7653150002006441,1,colour,0.5,3.9
65,24,0,2,8,31,381,756.2617493146099,757.311854806263,"[99, 0, 155]",155,l,0.527775009861216,1,colour,0.5,3.9
65,24,0,2,8,32,382,757.8243667054921,758.7678616088815,"[26, 0, 228]",228,a,0.421231375541538,1,colour,0.5,3.9
65,24,0,2,8,33,383,759.2775933484081,760.2318575789686,"[74, 0, 180]",180,l,0.43204481340944767,1,colour,0.5,3.9
65,24,0,2,8,34,384,760.7464832500555,761.7758799211588,"[41, 0, 213]",213,a,0.5071307802572846,1,colour,0.5,3.9
65,24,0,2,8,35,385,762.2934653453995,763.3358853247482,"[23, 0, 231]",231,a,0.5204006361309439,1,colour,0.5,3.9
65,24,0,2,8,36,386,763.8561638684478,764.8398503700737,"[86, 0, 168]",168,l,0.4614978046156466,1,colour,0.5,3.9
65,24,0,2,8,37,387,765.3561939976644,768.4878787961788,"[50, 0, 204]",204,l,2.6093992153182626,0,colour,0.5,3.9
65,24,0,2,8,38,388,768.9971840006765,770.1918727499433,"[90, 0, 164]",164,l,0.6725315598305315,1,colour,0.5,3.9
65,24,0,2,8,39,389,770.7003827791195,771.9438363679219,"[87, 0, 167]",167,l,0.7212270824238658,1,colour,0.5,3.9
65,24,0,2,8,40,390,772.4504756282549,773.8318875900004,"[77, 0, 177]",177,l,0.8590893568471074,1,colour,0.5,3.9
65,24,0,2,8,41,391,774.3413546651136,776.999853489222,"[67, 0, 187]",187,l,2.136256957659498,1,colour,0.5,3.9
65,24,0,2,8,42,392,777.513465794269,778.6958716660738,"[28, 0, 226]",226,a,0.6601348607800901,1,colour,0.5,3.9
65,24,0,2,8,43,393,779.2010922927875,780.3678585367743,"[93, 0, 161]",161,l,0.644584635971114,1,colour,0.5,3.9
65,24,0,2,8,44,394,780.8730712865945,781.927859608084,"[94, 0, 160]",160,l,0.532433815067634,1,colour,0.5,3.9
65,24,0,2,8,45,395,782.4356957664713,783.4240694304463,"[81, 0, 173]",173,l,0.4661270712967962,1,colour,0.5,3.9
65,24,0,2,8,46,396,783.9358605912421,784.7838521534577,"[1, 0, 253]",253,a,0.3265495973173529,1,colour,0.5,3.9
65,24,0,2,8,47,397,785.2953136649448,786.319845943246,"[36, 0, 218]",218,a,0.5022715071681887,1,colour,0.5,3.9
65,24,0,2,8,48,398,786.8267006373499,788.3358502723277,"[55, 0, 199]",199,l,0.9872456886805594,1,colour,0.5,3.9
65,24,0,2,8,49,399,788.8424848064315,789.9038724128623,"[82, 0, 172]",172,l,0.5395328907761723,1,colour,0.5,3.9
65,24,0,2,8,50,400,790.4207410372328,791.3998486844357,"[40, 0, 214]",214,a,0.45700402092188597,1,colour,0.5,3.9
65,24,0,2,9,1,401,796.3422640557401,797.1358406625222,"[79, 0, 175]",175,l,0.27077862969599664,1,colour,0.5,3.9
65,24,0,2,9,2,402,797.6556761292741,798.9198472034186,"[25, 0, 229]",229,a,0.7419299953617156,1,colour,0.5,3.9
65,24,0,2,9,3,403,799.4370104246773,800.5198614606634,"[69, 0, 185]",185,l,0.5606075942050666,1,colour,0.5,3.9
65,24,0,2,9,4,404,801.0309362155385,802.1678386870772,"[89, 0, 165]",165,l,0.6146704512648284,1,colour,0.5,3.9
65,24,0,2,9,5,405,802.6872684923001,803.8478608054575,"[66, 0, 188]",188,l,0.6383020034991205,1,colour,0.5,3.9
65,24,0,2,9,6,406,804.3592565446161,805.2318197698332,"[52, 0, 202]",202,a,0.3504781094379723,0,colour,0.5,3.9
65,24,0,2,9,7,407,805.750047557056,807.2878353155684,"[15, 0, 239]",239,a,1.0155514059588313,1,colour,0.5,3.9
65,24,0,2,9,8,408,807.7970861692447,808.7438389675226,"[4, 0, 250]",250,a,0.4244806058704853,1,colour,0.5,3.9
65,24,0,2,9,9,409,809.2502950893249,810.1838378962129,"[62, 0, 192]",192,l,0.41131708840839565,1,colour,0.5,3.9
65,24,0,2,9,10,410,810.7035926245153,811.4958600869868,"[14, 0, 240]",240,a,0.2700567098800093,1,colour,0.5,3.9
65,24,0,2,9,11,411,812.0162402431015,813.2638674187474,"[46, 0, 208]",208,a,0.7254853462800384,1,colour,0.5,3.9
65,24,0,2,9,12,412,813.7818612614647,814.7838722395245,"[13, 0, 241]",241,a,0.47967498237267137,1,colour,0.5,3.9
65,24,0,2,9,13,413,815.2976995843928,816.4958352746908,"[54, 0, 200]",200,a,0.6758831900078803,0,colour,0.5,3.9
65,24,0,2,9,14,414,817.0009672860615,817.9438694510609,"[71, 0, 183]",183,l,0.42067802185192704,1,colour,0.5,3.9
65,24,0,2,9,15,415,818.4542214982212,819.3998230844736,"[29, 0, 225]",225,a,0.4233809874858707,1,colour,0.5,3.9
65,24,0,2,9,16,416,819.9073784304783,821.1198686286807,"[74, 0, 180]",180,a,0.6902538456488401,0,colour,0.5,3.9
65,24,0,2,9,17,417,821.6263286890462,822.6398399726022,"[9, 0, 245]",245,l,0.4915502294898033,0,colour,0.5,3.9
65,24,0,2,9,18,418,823.1576900612563,826.2639068034478,"[64, 0, 190]",190,l,2.5840497065801173,1,colour,0.5,3.9
65,24,0,2,9,19,419,826.7829699381255,827.9678483756725,"[84, 0, 170]",170,l,0.6627641771920025,1,colour,0.5,3.9
65,24,0,2,9,20,420,828.486217947444,829.4158321397845,"[38, 0, 216]",216,a,0.40745267062447965,1,colour,0.5,3.9
65,24,0,2,9,21,421,829.9238376519643,830.7758484133519,"[49, 0, 205]",205,a,0.32980827963910997,1,colour,0.5,3.9
65,24,0,2,9,22,422,831.2833324733656,832.5758431358263,"[50, 0, 204]",204,a,0.7702888820786029,1,colour,0.5,3.9
65,24,0,2,9,23,423,833.0959472057875,835.7838517595083,"[35, 0, 219]",219,a,2.165667807450518,1,colour,0.5,3.9
65,24,0,2,9,24,424,836.2994021810591,837.5038295623381,"[53, 0, 201]",201,a,0.6822989424690604,0,colour,0.5,3.9
65,24,0,2,9,25,425,838.0182323164772,839.0638676551171,"[76, 0, 178]",178,l,0.5234446723479778,1,colour,0.5,3.9
65,24,0,2,9,26,426,839.5808556149714,840.6398699048441,"[47, 0, 207]",207,a,0.5367688790429384,1,colour,0.5,3.9
65,24,0,2,9,27,427,841.1590945164207,842.5038244423922,"[96, 0, 158]",158,l,0.8225778564810753,1,colour,0.5,3.9
65,24,0,2,9,28,428,843.0186285255477,844.3598221077118,"[88, 0, 166]",166,l,0.8189351742621511,1,colour,0.5,3.9
65,24,0,2,9,29,429,844.8782070393208,845.7918243857566,"[5, 0, 249]",249,a,0.3914676399435848,1,colour,0.5,3.9
65,24,0,2,9,30,430,846.3001272517722,850.9358204188757,"[11, 0, 243]",243,a,4.113450512988493,1,colour,0.5,3.9
65,24,0,2,9,31,431,851.4412316670641,852.9998479755595,"[98, 0, 156]",156,l,1.0364536051638424,1,colour,0.5,3.9
65,24,0,2,9,32,432,853.5194053868763,854.5598573174793,"[42, 0, 212]",212,a,0.5182183347642422,1,colour,0.5,3.9
65,24,0,2,9,33,433,855.06648791302,856.1278475564905,"[34, 0, 220]",220,a,0.5392871308140457,1,colour,0.5,3.9
65,24,0,2,9,34,434,856.6446571038105,857.8718350038398,"[77, 0, 177]",177,l,0.7049230367410928,1,colour,0.5,3.9
65,24,0,2,9,35,435,858.3792166637722,859.5758592835627,"[19, 0, 235]",235,a,0.6743735780473799,1,colour,0.5,3.9
65,24,0,2,9,36,436,860.0824666423723,861.1358745333273,"[82, 0, 172]",172,l,0.5318186276126653,1,colour,0.5,3.9
65,24,0,2,9,37,437,861.6451001807582,862.7518273473252,"[32, 0, 222]",222,a,0.5845002664718777,1,colour,0.5,3.9
65,24,0,2,9,38,438,863.2701870729215,864.2638359111734,"[70, 0, 184]",184,l,0.4713675871025771,1,colour,0.5,3.9
65,24,0,2,9,39,439,864.7703995530028,865.6798366168514,"[80, 0, 174]",174,l,0.38731965282931924,1,colour,0.5,3.9
65,24,0,2,9,40,440,866.1923055867665,868.7998316702433,"[61, 0, 193]",193,a,2.0853866171091795,0,colour,0.5,3.9
65,24,0,2,9,41,441,869.3176092912909,870.2478028312325,"[1, 0, 253]",253,a,0.40798357501626015,1,colour,0.5,3.9
65,24,0,2,9,42,442,870.7552274204791,872.471847291803,"[16, 0, 238]",238,a,1.1944374756421894,1,colour,0.5,3.9
65,24,0,2,9,43,443,872.9897493682802,873.7198226274922,"[27, 0, 227]",227,a,0.20789007586427033,1,colour,0.5,3.9
65,24,0,2,9,44,444,874.239860925125,875.6638452846091,"[23, 0, 231]",231,a,0.9017696685623378,1,colour,0.5,3.9
65,24,0,2,9,45,445,876.1774394728709,877.3198274325114,"[22, 0, 232]",232,a,0.6202713362872601,1,colour,0.5,3.9
65,24,0,2,9,46,446,877.8338745434303,878.3838289952837,"[73, 0, 181]",181,l,0.02775905909948051,1,colour,0.5,3.9
65,24,0,2,9,47,447,878.8964417187963,880.1038536657579,"[78, 0, 176]",176,l,0.6852453050669283,1,colour,0.5,3.9
65,24,0,2,9,48,448,880.6153395958245,881.6158484448679,"[83, 0, 171]",171,l,0.4782488658092916,1,colour,0.5,3.9
65,24,0,2,9,49,449,882.1310975742526,884.3838211183902,"[36, 0, 218]",218,a,1.7304946747608483,1,colour,0.5,3.9
65,24,0,2,9,50,450,884.8970167341176,885.8558511545416,"[26, 0, 228]",228,a,0.4365768001880497,1,colour,0.5,3.9
65,24,0,2,10,1,451,901.2725946540013,902.6558687200304,"[28, 0, 226]",226,a,0.8602811351884156,1,colour,0.5,3.9
65,24,0,2,10,2,452,903.1641960046254,904.1037949826568,"[83, 0, 171]",171,l,0.41734332707710564,1,colour,0.5,3.9
65,24,0,2,10,3,453,904.6173631770071,905.5998161525931,"[33, 0, 221]",221,a,0.4602122907526791,1,colour,0.5,3.9
65,24,0,2,10,4,454,906.1174894045107,907.1597916239407,"[90, 0, 164]",164,l,0.5200347530189902,1,colour,0.5,3.9
65,24,0,2,10,5,455,907.6801910784561,908.5438281761017,"[29, 0, 225]",225,a,0.34145312663167715,1,colour,0.5,3.9
65,24,0,2,10,6,456,909.0551542046014,910.1998229268938,"[47, 0, 207]",207,a,0.6223252436611801,1,colour,0.5,3.9
65,24,0,2,10,7,457,910.7115908507258,911.9278174666688,"[54, 0, 200]",200,a,0.6940209835302085,0,colour,0.5,3.9
65,24,0,2,10,8,458,912.4462067305576,913.3438331384677,"[98, 0, 156]",156,l,0.37539635691791773,1,colour,0.5,3.9
65,24,0,2,10,9,459,913.852423512144,914.9278379464522,"[46, 0, 208]",208,a,0.5532036817166954,1,colour,0.5,3.9
65,24,0,2,10,10,460,915.4463028290775,916.5758021757938,"[74, 0, 180]",180,l,0.6071653203107417,1,colour,0.5,3.9
65,24,0,2,10,11,461,917.0870923644397,918.0158306430094,"[0, 0, 254]",254,a,0.4072254211641848,1,colour,0.5,3.9
65,24,0,2,10,12,462,918.5247124629095,919.8398212254979,"[96, 0, 158]",158,l,0.7928381455130875,1,colour,0.5,3.9
65,24,0,2,10,13,463,920.3529620966874,921.5037976608146,"[72, 0, 182]",182,l,0.6285456484183669,1,colour,0.5,3.9
65,24,0,2,10,14,464,922.0093778688461,923.3358081309125,"[59, 0, 195]",195,a,0.8043179709929973,0,colour,0.5,3.9
65,24,0,2,10,15,465,923.8532643734943,924.9838365570176,"[84, 0, 170]",170,l,0.6082708463072777,1,colour,0.5,3.9
65,24,0,2,10,16,466,925.4939778966364,926.463850247208,"[38, 0, 216]",216,a,0.4477974749170244,1,colour,0.5,3.9
65,24,0,2,10,17,467,926.9784893088508,929.2878116848879,"[61, 0, 193]",193,l,1.787163611035794,1,colour,0.5,3.9
65,24,0,2,10,18,468,929.8068539458327,930.6718246061355,"[41, 0, 213]",213,a,0.3427551817148924,1,colour,0.5,3.9
65,24,0,2,10,19,469,931.1819135642145,932.4478116533719,"[21, 0, 233]",233,a,0.7436117180623114,1,colour,0.5,3.9
65,24,0,2,10,20,470,932.9633092996664,934.19183651614,"[52, 0, 202]",202,a,0.706087639555335,0,colour,0.5,3.9
65,24,0,2,10,21,471,934.697839321103,935.6958291307092,"[88, 0, 166]",166,l,0.4757113156374544,1,colour,0.5,3.9
65,24,0,2,10,22,472,936.2136414102279,937.3918421873823,"[14, 0, 240]",240,a,0.6559333107434213,1,colour,0.5,3.9
65,24,0,2,10,23,473,937.9011525118258,938.9758399063721,"[1, 0, 253]",253,a,0.5523750297725201,1,colour,0.5,3.9
65,24,0,2,10,24,474,939.4951172932051,940.8557987730019,"[79, 0, 175]",175,l,0.8384404010139406,1,colour,0.5,3.9
65,24,0,2,10,25,475,941.3701235456392,942.3518223061692,"[76, 0, 178]",178,l,0.459312746534124,1,colour,0.5,3.9
65,24,0,2,10,26,476,942.8703907702584,945.4478254381102,"[71, 0, 183]",183,l,2.0552191892638803,1,colour,0.5,3.9
65,24,0,2,10,27,477,945.9645172255114,946.8798403190449,"[92, 0, 162]",162,l,0.3931426671333611,1,colour,0.5,3.9
65,24,0,2,10,28,478,947.3863216470927,948.2478311881423,"[18, 0, 236]",236,a,0.3402585913427174,1,colour,0.5,3.9
65,24,0,2,10,29,479,948.7615482562687,949.7758247826714,"[43, 0, 211]",211,a,0.49211382307112217,1,colour,0.5,3.9
65,24,0,2,10,30,480,950.2927863546647,951.2237888544332,"[69, 0, 185]",185,l,0.4088768179062754,1,colour,0.5,3.9
65,24,0,2,10,31,481,951.730445049936,952.887814126676,"[8, 0, 246]",246,a,0.6351071239914745,1,colour,0.5,3.9
65,24,0,2,10,32,482,953.4024500376545,954.3518242754508,"[16, 0, 238]",238,a,0.42701106681488454,1,colour,0.5,3.9
65,24,0,2,10,33,483,954.8713458469138,956.9038527205121,"[53, 0, 201]",201,a,1.510211444227025,0,colour,0.5,3.9
65,24,0,2,10,34,484,957.4184457021765,958.815797008574,"[63, 0, 191]",191,l,0.875177969224751,1,colour,0.5,3.9
65,24,0,2,10,35,485,959.3247686251998,960.7118082537781,"[87, 0, 167]",167,l,0.8647603467106819,1,colour,0.5,3.9
65,24,0,2,10,36,486,961.2313176160678,962.1038087673951,"[11, 0, 243]",243,a,0.35035995580255985,1,colour,0.5,3.9
65,24,0,2,10,37,487,962.6219762959518,963.6957980168518,"[73, 0, 181]",181,l,0.5516582299023867,1,colour,0.5,3.9
65,24,0,2,10,38,488,964.2157630589791,965.3038258601446,"[66, 0, 188]",188,l,0.5657996670342982,1,colour,0.5,3.9
65,24,0,2,10,39,489,965.8096872745082,966.7198175075464,"[36, 0, 218]",218,a,0.3880774127319455,1,colour,0.5,3.9
65,24,0,2,10,40,490,967.2316807419993,969.8799671374727,"[22, 0, 232]",232,a,2.1259279504884034,1,colour,0.5,3.9
65,24,0,2,10,41,491,970.3881991112139,971.311839840142,"[82, 0, 172]",172,l,0.4014366716146469,1,colour,0.5,3.9
65,24,0,2,10,42,492,971.825784157496,972.8478419007733,"[27, 0, 227]",227,a,0.4999505723826587,1,colour,0.5,3.9
65,24,0,2,10,43,493,973.3571983051952,974.3198006509338,"[3, 0, 251]",251,a,0.4403498456813395,1,colour,0.5,3.9
65,24,0,2,10,44,494,974.8261516157072,976.0238513185177,"[17, 0, 237]",237,a,0.6756661809049547,1,colour,0.5,3.9
65,24,0,2,10,45,495,976.5293184926268,977.7518143504858,"[24, 0, 230]",230,a,0.7002894375473261,1,colour,0.5,3.9
65,24,0,2,10,46,496,978.263804797316,979.7678324643057,"[39, 0, 215]",215,a,0.9816621330101043,1,colour,0.5,3.9
65,24,0,2,10,47,497,980.279524769634,981.5838622357696,"[51, 0, 203]",203,l,0.7818687444087118,1,colour,0.5,3.9
65,24,0,2,10,48,498,982.0922915264964,983.0878150719218,"[30, 0, 224]",224,a,0.4733037343248725,1,colour,0.5,3.9
65,24,0,2,10,49,499,983.6080242986791,984.5118183360901,"[94, 0, 160]",160,l,0.38153405394405127,1,colour,0.5,3.9
65,24,0,2,10,50,500,985.0299901971593,985.9438273096457,"[31, 0, 223]",223,a,0.39161218143999577,1,colour,0.5,3.9
65,24,0,2,11,1,501,999.1866133294534,1000.6878474461846,"[91, 0, 163]",163,l,0.9782384289428592,1,colour,0.5,3.9
65,24,0,2,11,2,502,1001.2032155168708,1002.8318241809029,"[37, 0, 217]",217,a,1.1063388343900442,1,colour,0.5,3.9
65,24,0,2,11,3,503,1003.3439764983486,1003.9358397172764,"[33, 0, 221]",221,a,0.06981394323520362,1,colour,0.5,3.9
65,24,0,2,11,4,504,1004.4534861876164,1005.4157836965751,"[84, 0, 170]",170,l,0.43999735335819423,1,colour,0.5,3.9
65,24,0,2,11,5,505,1005.9223670307547,1006.8558082254604,"[93, 0, 161]",161,l,0.41119342064484954,1,colour,0.5,3.9
65,24,0,2,11,6,506,1007.3756153353024,1008.3998376566451,"[46, 0, 208]",208,a,0.5020607996266335,1,colour,0.5,3.9
65,24,0,2,11,7,507,1008.9069751321804,1009.9998085908592,"[24, 0, 230]",230,a,0.5705793830566108,1,colour,0.5,3.9
65,24,0,2,11,8,508,1010.516478322912,1011.4558437503874,"[86, 0, 168]",168,l,0.4172117826528847,1,colour,0.5,3.9
65,24,0,2,11,9,509,1011.9696718829218,1013.1038071918301,"[96, 0, 158]",158,l,0.6118721747770905,1,colour,0.5,3.9
65,24,0,2,11,10,510,1013.610517738387,1015.0478227599524,"[70, 0, 184]",184,l,0.915317973587662,1,colour,0.5,3.9
65,24,0,2,11,11,511,1015.563814682886,1016.8558227976318,"[67, 0, 187]",187,l,0.7697642792481929,1,colour,0.5,3.9
65,24,0,2,11,12,512,1017.3763691566419,1018.2477890467271,"[48, 0, 206]",206,a,0.34916660212911665,1,colour,0.5,3.9
65,24,0,2,11,13,513,1018.767220427515,1019.8318470239174,"[41, 0, 213]",213,a,0.5425233638379723,1,colour,0.5,3.9
65,24,0,2,11,14,514,1020.3453474766575,1021.3438252615742,"[5, 0, 249]",249,a,0.4762540354859084,1,colour,0.5,3.9
65,24,0,2,11,15,515,1021.861207067268,1023.031803464517,"[52, 0, 202]",202,a,0.6487558598164469,0,colour,0.5,3.9
65,24,0,2,11,16,516,1023.5488063904922,1024.9038322404958,"[74, 0, 180]",180,l,0.8327579898759723,1,colour,0.5,3.9
65,24,0,2,11,17,517,1025.4239304026123,1026.4718409902416,"[14, 0, 240]",240,a,0.5257404011208564,1,colour,0.5,3.9
65,24,0,2,11,18,518,1026.9865088027436,1028.063818030525,"[19, 0, 235]",235,a,0.5552264752332121,1,colour,0.5,3.9
65,24,0,2,11,19,519,1028.5804085996933,1029.7598397519905,"[34, 0, 220]",220,a,0.6571833782363683,1,colour,0.5,3.9
65,24,0,2,11,20,520,1030.2680784210097,1031.45582523942,"[82, 0, 172]",172,l,0.6655262196436524,1,colour,0.5,3.9
65,24,0,2,11,21,521,1031.971322491765,1032.9998263139278,"[10, 0, 244]",244,a,0.5062631373293698,1,colour,0.5,3.9
65,24,0,2,11,22,522,1033.518269928638,1035.119808764197,"[6, 0, 248]",248,a,1.0792264705523849,1,colour,0.5,3.9
65,24,0,2,11,23,523,1035.627828061115,1036.6717797077727,"[28, 0, 226]",226,a,0.5218102110084146,1,colour,0.5,3.9
65,24,0,2,11,24,524,1037.190456479555,1038.047816458391,"[73, 0, 181]",181,l,0.3350645494647324,1,colour,0.5,3.9
65,24,0,2,11,25,525,1038.565510977991,1039.6638251985423,"[16, 0, 238]",238,a,0.5759569574147463,1,colour,0.5,3.9
65,24,0,2,11,26,526,1040.1750795471016,1041.5598214773927,"[22, 0, 232]",232,a,0.8624106608331203,1,colour,0.5,3.9
65,24,0,2,11,27,527,1042.0657837162726,1043.0638231504709,"[77, 0, 177]",177,l,0.47561127855442464,1,colour,0.5,3.9
65,24,0,2,11,28,528,1043.5817571284715,1044.639836034039,"[57, 0, 197]",197,l,0.5359748853370547,1,colour,0.5,3.9
65,24,0,2,11,29,529,1045.1598802392837,1046.3278059663717,"[83, 0, 171]",171,l,0.6463703343179077,1,colour,0.5,3.9
65,24,0,2,11,30,530,1046.8475575440098,1048.015825129347,"[55, 0, 199]",199,a,0.6459512822329998,0,colour,0.5,3.9
65,24,0,2,11,31,531,1048.5350765222684,1049.6238265847787,"[44, 0, 210]",210,a,0.5664199744351208,1,colour,0.5,3.9
65,24,0,2,11,32,532,1050.1290346083697,1051.6718186985236,"[45, 0, 209]",209,a,1.0205855467356741,1,colour,0.5,3.9
65,24,0,2,11,33,533,1052.1917392362375,1053.3918276152108,"[63, 0, 191]",191,l,0.6779449742753059,1,colour,0.5,3.9
65,24,0,2,11,34,534,1053.9105571622495,1054.8158363932744,"[9, 0, 245]",245,a,0.38332762918435037,1,colour,0.5,3.9
65,24,0,2,11,35,535,1055.332553386921,1056.2157941728365,"[89, 0, 165]",165,l,0.3609563841018826,1,colour,0.5,3.9
65,24,0,2,11,36,536,1056.72324593761,1057.6318173278123,"[42, 0, 212]",212,a,0.3863043177407235,1,colour,0.5,3.9
65,24,0,2,11,37,537,1058.1452059284784,1059.3438008429948,"[7, 0, 247]",247,a,0.6762778237462044,1,colour,0.5,3.9
65,24,0,2,11,38,538,1059.8642247160897,1060.9998322215397,"[23, 0, 231]",231,a,0.6134377128910273,1,colour,0.5,3.9
65,24,0,2,11,39,539,1061.5049441468436,1062.9517837879248,"[60, 0, 194]",194,l,0.9246655162423849,1,colour,0.5,3.9
65,24,0,2,11,40,540,1063.4582186420448,1064.4877834855579,"[97, 0, 157]",157,l,0.5080783737357706,1,colour,0.5,3.9
65,24,0,2,11,41,541,1065.0051731681451,1066.0478046429344,"[87, 0, 167]",167,l,0.5204270237591118,1,colour,0.5,3.9
65,24,0,2,11,42,542,1066.5678508174606,1068.4958207022864,"[62, 0, 192]",192,l,1.4057930030394346,1,colour,0.5,3.9
65,24,0,2,11,43,543,1069.0055189651903,1070.0877965611871,"[49, 0, 205]",205,a,0.5600109174847603,1,colour,0.5,3.9
65,24,0,2,11,44,544,1070.599417974241,1071.6878167260438,"[95, 0, 159]",159,l,0.5660871746949852,1,colour,0.5,3.9
65,24,0,2,11,45,545,1072.1932980788406,1073.4558240580373,"[68, 0, 186]",186,l,0.7405984019860625,1,colour,0.5,3.9
65,24,0,2,11,46,546,1073.974657974206,1074.839803896146,"[13, 0, 241]",241,a,0.3428985415957868,1,colour,0.5,3.9
65,24,0,2,11,47,547,1075.3496994758025,1076.7997977994382,"[51, 0, 203]",203,l,0.9278147094883025,1,colour,0.5,3.9
65,24,0,2,11,48,548,1077.318658103468,1078.4798088902608,"[98, 0, 156]",156,l,0.6389423974324018,1,colour,0.5,3.9
65,24,0,2,11,49,549,1078.990662697237,1079.847810786916,"[36, 0, 218]",218,a,0.3348684140946716,1,colour,0.5,3.9
65,24,0,2,11,50,550,1080.3656652080826,1081.9358200249262,"[38, 0, 216]",216,a,1.0477912521455437,1,colour,0.5,3.9
65,24,0,2,12,1,551,1093.3347478972282,1094.8957635159604,"[68, 0, 186]",186,l,1.037949432618916,1,colour,0.5,3.9
65,24,0,2,12,2,552,1095.4138314016163,1096.3918197383173,"[40, 0, 214]",214,a,0.4557614363729954,1,colour,0.5,3.9
65,24,0,2,12,3,553,1096.8983676261269,1097.9917627093382,"[89, 0, 165]",165,l,0.5712142628617585,1,colour,0.5,3.9
65,24,0,2,12,4,554,1098.507847186178,1099.447856158018,"[26, 0, 228]",228,a,0.4179084962233901,1,colour,0.5,3.9
65,24,0,2,12,5,555,1099.9610525616445,1100.9517873325385,"[16, 0, 238]",238,a,0.46869691694155335,1,colour,0.5,3.9
65,24,0,2,12,6,556,1101.4611799707636,1103.4238177626394,"[53, 0, 201]",201,l,1.4407657468691468,1,colour,0.5,3.9
65,24,0,2,12,7,557,1103.930126979947,1104.967823169427,"[10, 0, 244]",244,a,0.5154141508974135,1,colour,0.5,3.9
65,24,0,2,12,8,558,1105.477139007533,1106.4077827136498,"[97, 0, 157]",157,l,0.4086814704351127,1,colour,0.5,3.9
65,24,0,2,12,9,559,1106.9147161769215,1107.7837745656725,"[34, 0, 220]",220,a,0.3468035254627466,1,colour,0.5,3.9
65,24,0,2,12,10,560,1108.2898143921047,1109.3198041955475,"[5, 0, 249]",249,a,0.507702250732109,1,colour,0.5,3.9
65,24,0,2,12,11,561,1109.8368059399072,1110.7517706335057,"[82, 0, 172]",172,l,0.3926290918607265,1,colour,0.5,3.9
65,24,0,2,12,12,562,1111.2588147674687,1112.2717801802792,"[88, 0, 166]",166,l,0.4907137001864612,1,colour,0.5,3.9
65,24,0,2,12,13,563,1112.790171019733,1113.6637988109142,"[8, 0, 246]",246,a,0.3513906509615481,1,colour,0.5,3.9
65,24,0,2,12,14,564,1114.181003385922,1115.2797965235077,"[63, 0, 191]",191,l,0.5765583603642881,1,colour,0.5,3.9
65,24,0,2,12,15,565,1115.7904451366048,1116.7438074597158,"[85, 0, 169]",169,l,0.4311373920645565,1,colour,0.5,3.9
65,24,0,2,12,16,566,1117.2593039243948,1118.079805424437,"[41, 0, 213]",213,a,0.2983545504976064,1,colour,0.5,3.9
65,24,0,2,12,17,567,1118.5875895950012,1119.5278238467872,"[83, 0, 171]",171,l,0.41807784978300333,1,colour,0.5,3.9
65,24,0,2,12,18,568,1120.0408272659406,1121.0238103584852,"[0, 0, 254]",254,a,0.46085741091519594,1,colour,0.5,3.9
65,24,0,2,12,19,569,1121.5408656657673,1122.7437909182627,"[33, 0, 221]",221,a,0.6806491215247661,1,colour,0.5,3.9
65,24,0,2,12,20,570,1123.2598879979923,1124.191778620705,"[24, 0, 230]",230,a,0.4098771868739277,1,colour,0.5,3.9
65,24,0,2,12,21,571,1124.6974123918917,1125.7198001781944,"[79, 0, 175]",175,l,0.5000923566985875,1,colour,0.5,3.9
65,24,0,2,12,22,572,1126.2287166565657,1127.2238266635686,"[12, 0, 242]",242,a,0.47279606689698994,1,colour,0.5,3.9
65,24,0,2,12,23,573,1127.7288881766144,1129.0637817967217,"[54, 0, 200]",200,a,0.8126836554147303,0,colour,0.5,3.9
65,24,0,2,12,24,574,1129.5727990996093,1130.69581180159,"[67, 0, 187]",187,l,0.600781075656414,1,colour,0.5,3.9
65,24,0,2,12,25,575,1131.213572487235,1132.4558177564759,"[4, 0, 250]",250,a,0.7199947382323444,1,colour,0.5,3.9
65,24,0,2,12,26,576,1132.963673213264,1134.2637937695254,"[69, 0, 185]",185,l,0.7778365481644869,1,colour,0.5,3.9
65,24,0,2,12,27,577,1134.7763478101697,1136.1678103301674,"[71, 0, 183]",183,l,0.8694089120253921,1,colour,0.5,3.9
65,24,0,2,12,28,578,1136.682664825581,1137.3517632291187,"[35, 0, 219]",219,a,0.14672341709956527,1,colour,0.5,3.9
65,24,0,2,12,29,579,1137.8702828562818,1139.5118041576352,"[1, 0, 253]",253,a,1.119409403996542,1,colour,0.5,3.9
65,24,0,2,12,30,580,1140.0267263948917,1141.4958025855012,"[36, 0, 218]",218,a,0.9469883181154728,1,colour,0.5,3.9
65,24,0,2,12,31,581,1142.0112923546694,1143.0478243352845,"[32, 0, 222]",222,a,0.5143464340362698,1,colour,0.5,3.9
65,24,0,2,12,32,582,1143.5582909916993,1144.6877915200312,"[60, 0, 194]",194,l,0.607266539009288,1,colour,0.5,3.9
65,24,0,2,12,33,583,1145.1989533146843,1146.4718295687344,"[98, 0, 156]",156,l,0.750509538454935,1,colour,0.5,3.9
65,24,0,2,12,34,584,1146.980342748575,1148.103805616498,"[86, 0, 168]",168,l,0.6010398324579,1,colour,0.5,3.9
65,24,0,2,12,35,585,1148.6212299577892,1149.9197991543915,"[42, 0, 212]",212,a,0.776308819418773,1,colour,0.5,3.9
65,24,0,2,12,36,586,1150.433793490054,1151.719795452198,"[11, 0, 243]",243,a,0.7637474928051233,1,colour,0.5,3.9
65,24,0,2,12,37,587,1152.2308032531291,1154.2638079479802,"[13, 0, 241]",241,a,1.5107541638426483,1,colour,0.5,3.9
65,24,0,2,12,38,588,1154.7778826283757,1155.7598216349725,"[37, 0, 217]",217,a,0.4598901248537004,1,colour,0.5,3.9
65,24,0,2,12,39,589,1156.2780234282836,1157.3119087631349,"[50, 0, 204]",204,a,0.5116816714871675,1,colour,0.5,3.9
65,24,0,2,12,40,590,1157.8250874436926,1158.74379800749,"[72, 0, 182]",182,l,0.3965588880237192,1,colour,0.5,3.9
65,24,0,2,12,41,591,1159.2626181391533,1160.1437817809638,"[38, 0, 216]",216,a,0.35878865560516715,1,colour,0.5,3.9
65,24,0,2,12,42,592,1160.653363859048,1161.6317999986932,"[66, 0, 188]",188,l,0.45615725172683597,1,colour,0.5,3.9
65,24,0,2,12,43,593,1162.137880785158,1163.1278105347883,"[99, 0, 155]",155,l,0.46765558794140816,1,colour,0.5,3.9
65,24,0,2,12,44,594,1163.6379632959142,1164.7197596121114,"[70, 0, 184]",184,l,0.5595891082193702,1,colour,0.5,3.9
65,24,0,2,12,45,595,1165.2318756959867,1166.191763654584,"[49, 0, 205]",205,a,0.4376319139264524,1,colour,0.5,3.9
65,24,0,2,12,46,596,1166.7007904096972,1167.815771408612,"[43, 0, 211]",211,a,0.5927682770416141,1,colour,0.5,3.9
65,24,0,2,12,47,597,1168.325818225043,1169.1677579486277,"[75, 0, 179]",179,l,0.3197297586593777,1,colour,0.5,3.9
65,24,0,2,12,48,598,1169.6853146220092,1170.6077608156484,"[27, 0, 227]",227,a,0.4001621857751161,1,colour,0.5,3.9
65,24,0,2,12,49,599,1171.1230024618562,1172.0398001153953,"[61, 0, 193]",193,l,0.3946337685920298,1,colour,0.5,3.9
65,24,0,2,12,50,600,1172.5449183420278,1173.7278058875818,"[78, 0, 176]",176,l,0.6607914022170007,1,colour,0.5,3.9
65,24,0,2,13,1,601,1183.4668915264774,1185.8877822251525,"[45, 0, 209]",209,a,1.8984542721882463,1,colour,0.5,3.9
65,24,0,2,13,2,602,1186.4055460616946,1187.3277969078626,"[78, 0, 176]",176,l,0.4002188998274505,1,colour,0.5,3.9
65,24,0,2,13,3,603,1187.8430452493485,1189.2157839329448,"[81, 0, 173]",173,l,0.8506634139921516,1,colour,0.5,3.9
65,24,0,2,13,4,604,1189.733858120162,1190.327769338619,"[10, 0, 244]",244,a,0.0717103120405227,1,colour,0.5,3.9
65,24,0,2,13,5,605,1190.8432799817529,1191.5597399512772,"[1, 0, 253]",253,a,0.19435791857540607,1,colour,0.5,3.9
65,24,0,2,13,6,606,1192.0777318247128,1193.479803770082,"[11, 0, 243]",243,a,0.8801502757705748,1,colour,0.5,3.9
65,24,0,2,13,7,607,1193.9997440001462,1194.9519074556883,"[41, 0, 213]",213,a,0.4299192260950804,1,colour,0.5,3.9
65,24,0,2,13,8,608,1195.468493692344,1196.4557996394578,"[36, 0, 218]",218,a,0.46547683142125607,1,colour,0.5,3.9
65,24,0,2,13,9,609,1196.968732166104,1197.8237688471563,"[87, 0, 167]",167,l,0.33274755300953984,1,colour,0.5,3.9
65,24,0,2,13,10,610,1198.3438358954154,1199.311772098532,"[29, 0, 225]",225,a,0.445940884295851,1,colour,0.5,3.9
65,24,0,2,13,11,611,1199.828285867814,1200.767797411885,"[85, 0, 169]",169,l,0.4172298994380981,1,colour,0.5,3.9
65,24,0,2,13,12,612,1201.281543230638,1202.4797746255063,"[61, 0, 193]",193,l,0.6758347467985004,1,colour,0.5,3.9
65,24,0,2,13,13,613,1202.9849184523337,1204.1197591396049,"[60, 0, 194]",194,l,0.6126299349125475,1,colour,0.5,3.9
65,24,0,2,13,14,614,1204.6256071629468,1205.5357626022305,"[62, 0, 192]",192,a,0.38795295753516257,0,colour,0.5,3.9
65,24,0,2,13,15,615,1206.0476514368784,1207.3597642122768,"[32, 0, 222]",222,a,0.7898417643737048,1,colour,0.5,3.9
65,24,0,2,13,16,616,1207.875911310548,1209.9517656711396,"[54, 0, 200]",200,a,1.5537011094857007,0,colour,0.5,3.9
65,24,0,2,13,17,617,1210.4697780243587,1211.3117551633622,"[94, 0, 160]",160,l,0.3202925648074597,1,colour,0.5,3.9
65,24,0,2,13,18,618,1211.829243701417,1212.7677757504862,"[77, 0, 177]",177,l,0.4162366196978837,1,colour,0.5,3.9
65,24,0,2,13,19,619,1213.2824321412481,1214.1518004869577,"[50, 0, 204]",204,a,0.3469476730097085,1,colour,0.5,3.9
65,24,0,2,13,20,620,1214.6576934088953,1215.791807450354,"[14, 0, 240]",240,a,0.6120092333294451,1,colour,0.5,3.9
65,24,0,2,13,21,621,1216.2983962981962,1217.447837253334,"[59, 0, 195]",195,l,0.627288491697982,1,colour,0.5,3.9
65,24,0,2,13,22,622,1217.9547868643422,1218.8717408746015,"[26, 0, 228]",228,a,0.3946530669927597,1,colour,0.5,3.9
65,24,0,2,13,23,623,1219.3767417350318,1220.2717679711059,"[99, 0, 155]",155,l,0.37293284968473017,1,colour,0.5,3.9
65,24,0,2,13,24,624,1220.783164104214,1221.8078031148762,"[2, 0, 252]",252,a,0.5025113595183939,1,colour,0.5,3.9
65,24,0,2,13,25,625,1222.314576676581,1223.695762964664,"[93, 0, 161]",161,l,0.8590633631683886,1,colour,0.5,3.9
65,24,0,2,13,26,626,1224.2052300395444,1225.6877927014139,"[53, 0, 201]",201,a,0.9603113431949168,0,colour,0.5,3.9
65,24,0,2,13,27,627,1226.2054309011437,1227.1757526299916,"[79, 0, 175]",175,l,0.4481078255921602,1,colour,0.5,3.9
65,24,0,2,13,28,628,1227.6898796919268,1228.7677454242948,"[40, 0, 214]",214,l,0.5556344997603446,0,colour,0.5,3.9
65,24,0,2,13,29,629,1229.2837814579252,1230.2797760434914,"[38, 0, 216]",216,l,0.47372475592419505,0,colour,0.5,3.9
65,24,0,2,13,30,630,1230.799605208682,1232.2957669817843,"[19, 0, 235]",235,l,0.9739541711751372,0,colour,0.5,3.9
65,24,0,2,13,31,631,1232.8153165164404,1235.9677392803133,"[3, 0, 251]",251,l,2.630108429817483,0,colour,0.5,3.9
65,24,0,2,13,32,632,1236.4873187472112,1237.9357652803883,"[66, 0, 188]",188,l,0.9260750915855169,1,colour,0.5,3.9
65,24,0,2,13,33,633,1238.4564412147738,1239.3757807507645,"[6, 0, 248]",248,a,0.3971161802764982,1,colour,0.5,3.9
65,24,0,2,13,34,634,1239.8941452023573,1241.1437585439999,"[43, 0, 211]",211,a,0.727640078170225,1,colour,0.5,3.9
65,24,0,2,13,35,635,1241.6596189225093,1243.5917541235685,"[24, 0, 230]",230,a,1.40981535310857,1,colour,0.5,3.9
65,24,0,2,13,36,636,1244.0975265286397,1245.191802645335,"[35, 0, 219]",219,a,0.5720626073889434,1,colour,0.5,3.9
65,24,0,2,13,37,637,1245.706972217653,1246.8877869513817,"[7, 0, 247]",247,a,0.658545691985637,1,colour,0.5,3.9
65,24,0,2,13,38,638,1247.3946227408014,1248.4077653842978,"[91, 0, 163]",163,l,0.49125563236884773,1,colour,0.5,3.9
65,24,0,2,13,39,639,1248.9259171593003,1249.8557782929856,"[12, 0, 242]",242,a,0.40763344592414796,1,colour,0.5,3.9
65,24,0,2,13,40,640,1250.3635801868513,1251.5197610300966,"[65, 0, 189]",189,l,0.6338834445923567,1,colour,0.5,3.9
65,24,0,2,13,41,641,1252.0355308237486,1252.9997904738411,"[58, 0, 196]",196,l,0.4418618206400424,1,colour,0.5,3.9
65,24,0,2,13,42,642,1253.5200729561038,1254.6237836556975,"[75, 0, 179]",179,l,0.5813404393848032,1,colour,0.5,3.9
65,24,0,2,13,43,643,1255.1295737838373,1256.0397879059892,"[31, 0, 223]",223,a,0.38787064352072775,1,colour,0.5,3.9
65,24,0,2,13,44,644,1256.5515609499998,1257.5517523591407,"[95, 0, 159]",159,l,0.4779270936269313,1,colour,0.5,3.9
65,24,0,2,13,45,645,1258.0672425222583,1259.4957553239074,"[89, 0, 165]",165,l,0.9061563261784613,1,colour,0.5,3.9
65,24,0,2,13,46,646,1260.0049660052173,1260.8877849821001,"[5, 0, 249]",249,a,0.3605511167552322,1,colour,0.5,3.9
65,24,0,2,13,47,647,1261.395704242168,1262.6237797171343,"[74, 0, 180]",180,l,0.7058288825210184,1,colour,0.5,3.9
65,24,0,2,13,48,648,1263.1302350512706,1264.1517461363692,"[4, 0, 250]",250,a,0.4992160494439304,1,colour,0.5,3.9
65,24,0,2,13,49,649,1264.6615436482243,1265.695769659942,"[21, 0, 233]",233,a,0.5120254992507398,1,colour,0.5,3.9
65,24,0,2,13,50,650,1266.2086387774907,1267.1117530365009,"[63, 0, 191]",191,l,0.38099172804504633,1,colour,0.5,3.9
65,24,0,2,14,1,651,1299.0697737708688,1299.9437544480897,"[6, 0, 248]",248,a,0.35091646015644073,1,colour,0.5,3.9
65,24,0,2,14,2,652,1300.461314666085,1301.1917762577068,"[9, 0, 245]",245,a,0.20868722046725452,1,colour,0.5,3.9
65,24,0,2,14,3,653,1301.7113793552853,1302.5517409376334,"[93, 0, 161]",161,l,0.3183280604425818,1,colour,0.5,3.9
65,24,0,2,14,4,654,1303.0708410937805,1304.0317451753654,"[73, 0, 181]",181,l,0.4385909291449934,1,colour,0.5,3.9
65,24,0,2,14,5,655,1304.539792041527,1305.4557807350066,"[2, 0, 252]",252,a,0.3938023594673723,1,colour,0.5,3.9
65,24,0,2,14,6,656,1305.9618008690886,1306.887751111295,"[83, 0, 171]",171,l,0.40379187115468085,1,colour,0.5,3.9
65,24,0,2,14,7,657,1307.3992724874988,1308.3197770202532,"[63, 0, 191]",191,l,0.39816420478746295,1,colour,0.5,3.9
65,24,0,2,14,8,658,1308.8369886844885,1309.79178854567,"[69, 0, 185]",185,l,0.43253751494921744,1,colour,0.5,3.9
65,24,0,2,14,9,659,1310.3058163581882,1311.1837587330956,"[32, 0, 222]",222,a,0.35565994237549603,1,colour,0.5,3.9
65,24,0,2,14,10,660,1311.6965309644584,1312.6637389461976,"[92, 0, 162]",162,l,0.44487907551229,1,colour,0.5,3.9
65,24,0,2,14,11,661,1313.181111693615,1314.1277640610933,"[18, 0, 236]",236,a,0.4243482733145356,1,colour,0.5,3.9
65,24,0,2,14,12,662,1314.634330853587,1315.463760844199,"[82, 0, 172]",172,l,0.3071621304843575,1,colour,0.5,3.9
65,24,0,2,14,13,663,1315.9781450873706,1316.8797784852795,"[28, 0, 226]",226,a,0.3797298453282565,1,colour,0.5,3.9
65,24,0,2,14,14,664,1317.4000593919773,1318.5757549144328,"[3, 0, 251]",251,a,0.653303206898272,1,colour,0.5,3.9
65,24,0,2,14,15,665,1319.08768904116,1320.4557752211113,"[38, 0, 216]",216,a,0.8456060367170721,1,colour,0.5,3.9
65,24,0,2,14,16,666,1320.9630202164408,1321.879769033054,"[66, 0, 188]",188,l,0.3946172269061208,1,colour,0.5,3.9
65,24,0,2,14,17,667,1322.3849089210853,1323.4797702932265,"[7, 0, 247]",247,a,0.5726206873077899,1,colour,0.5,3.9
65,24,0,2,14,18,668,1323.9943845425732,1325.111768790288,"[27, 0, 227]",227,a,0.5953507258091122,1,colour,0.5,3.9
65,24,0,2,14,19,669,1325.6195947087836,1326.5997783434577,"[81, 0, 173]",173,l,0.45797406369820237,1,colour,0.5,3.9
65,24,0,2,14,20,670,1327.119656345807,1328.0637416243553,"[4, 0, 250]",250,a,0.42179457540623844,1,colour,0.5,3.9
65,24,0,2,14,21,671,1328.5728991364595,1329.6077442741953,"[67, 0, 187]",187,l,0.5124945698771626,1,colour,0.5,3.9
65,24,0,2,14,22,672,1330.1199324317276,1331.7998812948354,"[89, 0, 165]",165,l,1.1576364981010556,1,colour,0.5,3.9
65,24,0,2,14,23,673,1332.3075473117642,1333.2237727066968,"[1, 0, 253]",253,a,0.39393587317317724,1,colour,0.5,3.9
65,24,0,2,14,24,674,1333.7295841025189,1334.903768437449,"[36, 0, 218]",218,a,0.6519322285894305,1,colour,0.5,3.9
65,24,0,2,14,25,675,1335.4190183544997,1337.4637403641827,"[55, 0, 199]",199,a,1.5224951095879078,0,colour,0.5,3.9
65,24,0,2,14,26,676,1337.981749172788,1339.0717540290207,"[94, 0, 160]",160,l,0.5677342389244586,1,colour,0.5,3.9
65,24,0,2,14,27,677,1339.5912062835414,1340.607723794179,"[46, 0, 208]",208,a,0.49426894867792726,1,colour,0.5,3.9
65,24,0,2,14,28,678,1341.1225968005601,1342.4077413596679,"[35, 0, 219]",219,a,0.7628802435938269,1,colour,0.5,3.9
65,24,0,2,14,29,679,1342.9195880529005,1343.9437067927793,"[88, 0, 166]",166,l,0.5019158644136041,1,colour,0.5,3.9
65,24,0,2,14,30,680,1344.4509919604752,1345.6477720325347,"[54, 0, 200]",200,a,0.6745677441358566,0,colour,0.5,3.9
65,24,0,2,14,31,681,1346.1542309112847,1347.2477508436423,"[43, 0, 211]",211,a,0.5712764905765653,1,colour,0.5,3.9
65,24,0,2,14,32,682,1347.7637234681752,1348.767778507201,"[99, 0, 155]",155,l,0.4818498003296554,1,colour,0.5,3.9
65,24,0,2,14,33,683,1349.2795354034752,1350.5437328652479,"[47, 0, 207]",207,a,0.7419512630440295,1,colour,0.5,3.9
65,24,0,2,14,34,684,1351.0609571326058,1352.0957278334536,"[70, 0, 184]",184,l,0.5128431236371398,1,colour,0.5,3.9
65,24,0,2,14,35,685,1352.6078726679552,1353.5517342421226,"[21, 0, 233]",233,a,0.4216303415596485,1,colour,0.5,3.9
65,24,0,2,14,36,686,1354.0610764680896,1355.0957900611684,"[34, 0, 220]",220,a,0.512784440536052,1,colour,0.5,3.9
65,24,0,2,14,37,687,1355.6081471787766,1356.5437604344916,"[96, 0, 158]",158,l,0.41340447240509093,1,colour,0.5,3.9
65,24,0,2,14,38,688,1357.0613568865228,1358.0317337538581,"[17, 0, 237]",237,a,0.44838745635934174,1,colour,0.5,3.9
65,24,0,2,14,39,689,1358.545832064934,1359.5357496053912,"[74, 0, 180]",180,l,0.46773672034032643,1,colour,0.5,3.9
65,24,0,2,14,40,690,1360.0460075233132,1361.7037489814684,"[58, 0, 196]",196,l,1.1355043179355562,1,colour,0.5,3.9
65,24,0,2,14,41,691,1362.2180268862285,1363.4557161440607,"[98, 0, 156]",156,l,0.7154651144519448,1,colour,0.5,3.9
65,24,0,2,14,42,692,1363.9681721171364,1364.9037593789399,"[0, 0, 254]",254,a,0.4133446076884866,1,colour,0.5,3.9
65,24,0,2,14,43,693,1365.4214019109495,1366.4398461165838,"[77, 0, 177]",177,l,0.4961196316871792,1,colour,0.5,3.9
65,24,0,2,14,44,694,1366.952787701739,1367.8477686455008,"[42, 0, 212]",212,a,0.3726953605655581,1,colour,0.5,3.9
65,24,0,2,14,45,695,1368.3591435109265,1369.631758644944,"[44, 0, 210]",210,a,0.7503736615180969,1,colour,0.5,3.9
65,24,0,2,14,46,696,1370.14055381855,1371.0877300011925,"[79, 0, 175]",175,l,0.4249406177550554,1,colour,0.5,3.9
65,24,0,2,14,47,697,1371.59375564917,1372.6637515493203,"[85, 0, 169]",169,l,0.5481455167755485,1,colour,0.5,3.9
65,24,0,2,14,48,698,1373.1719882492907,1374.1757297869772,"[22, 0, 232]",232,a,0.4815122743602842,1,colour,0.5,3.9
65,24,0,2,14,49,699,1374.6877214154229,1375.6637417031452,"[41, 0, 213]",213,a,0.453687836881727,1,colour,0.5,3.9
65,24,0,2,14,50,700,1376.1722324339207,1377.0477235105354,"[95, 0, 159]",159,l,0.35322991176508367,1,colour,0.5,3.9
65,24,0,2,15,1,701,1386.3645293558948,1387.7757487704512,"[12, 0, 242]",242,a,0.8881272345315665,1,colour,0.5,3.9
65,24,0,2,15,2,702,1388.287433986552,1389.271723860409,"[29, 0, 225]",225,a,0.46210708445869386,1,colour,0.5,3.9
65,24,0,2,15,3,703,1389.7874396971893,1391.0237367092632,"[57, 0, 197]",197,l,0.7140153672080487,1,colour,0.5,3.9
65,24,0,2,15,4,704,1391.5376235248987,1392.6557190585881,"[36, 0, 218]",218,a,0.5957540241070092,1,colour,0.5,3.9
65,24,0,2,15,5,705,1393.1627844602335,1394.2957283849828,"[99, 0, 155]",155,l,0.6107749198563397,1,colour,0.5,3.9
65,24,0,2,15,6,706,1394.8035586357582,1395.8317076023668,"[13, 0, 241]",241,a,0.5059894141741097,1,colour,0.5,3.9
65,24,0,2,15,7,707,1396.3504792910535,1397.8957276758738,"[48, 0, 206]",206,l,1.0229884015861899,0,colour,0.5,3.9
65,24,0,2,15,8,708,1398.4131622570567,1400.1597396363504,"[82, 0, 172]",172,l,1.2244091620668769,1,colour,0.5,3.9
65,24,0,2,15,9,709,1400.6789744878188,1401.6157255650032,"[7, 0, 247]",247,a,0.4149495307356119,1,colour,0.5,3.9
65,24,0,2,15,10,710,1402.1321767123882,1402.991711509414,"[98, 0, 156]",156,l,0.33725787815637887,1,colour,0.5,3.9
65,24,0,2,15,11,711,1403.5073623617645,1404.2157347020693,"[46, 0, 208]",208,a,0.1861753724515438,1,colour,0.5,3.9
65,24,0,2,15,12,712,1404.7261477955617,1405.7677021012641,"[33, 0, 221]",221,a,0.5193246486596763,1,colour,0.5,3.9
65,24,0,2,15,13,713,1406.2732137800194,1407.3517655923497,"[97, 0, 157]",157,l,0.5563292442820966,1,colour,0.5,3.9
65,24,0,2,15,14,714,1407.8670686786063,1409.031705790665,"[67, 0, 187]",187,l,0.6425031595863402,1,colour,0.5,3.9
65,24,0,2,15,15,715,1409.5391996968538,1410.4237421443686,"[75, 0, 179]",179,l,0.3623624148312956,1,colour,0.5,3.9
65,24,0,2,15,16,716,1410.9300155215897,1411.7757294718176,"[14, 0, 240]",240,a,0.3234831115696579,1,colour,0.5,3.9
65,24,0,2,15,17,717,1412.2893965214025,1413.2077274175826,"[26, 0, 228]",228,a,0.3960417681373656,1,colour,0.5,3.9
65,24,0,2,15,18,718,1413.726964632282,1415.5997362020425,"[55, 0, 199]",199,a,1.3506718818098307,0,colour,0.5,3.9
65,24,0,2,15,19,719,1416.1177816384006,1416.9517392832786,"[78, 0, 176]",176,l,0.31163464626297355,1,colour,0.5,3.9
65,24,0,2,15,20,720,1417.4616545552853,1418.2637512341607,"[16, 0, 238]",238,a,0.2802923754788935,1,colour,0.5,3.9
65,24,0,2,15,21,721,1418.7743230476044,1420.1757085192949,"[24, 0, 230]",230,a,0.8820316786877811,1,colour,0.5,3.9
65,24,0,2,15,22,722,1420.6934900789056,1422.3437496430706,"[83, 0, 171]",171,l,1.1282158023677766,1,colour,0.5,3.9
65,24,0,2,15,23,723,1422.8499710327014,1424.9677251018584,"[52, 0, 202]",202,a,1.5956260242965072,0,colour,0.5,3.9
65,24,0,2,15,24,724,1425.475120546529,1428.4397346579935,"[6, 0, 248]",248,a,2.4428929097484797,1,colour,0.5,3.9
65,24,0,2,15,25,725,1428.959768229397,1430.2797055449337,"[54, 0, 200]",200,l,0.7977753998711705,1,colour,0.5,3.9
65,24,0,2,15,26,726,1430.7880139248446,1431.6317031125072,"[37, 0, 217]",217,a,0.32141817663796246,1,colour,0.5,3.9
65,24,0,2,15,27,727,1432.147511897143,1433.2877455188427,"[22, 0, 232]",232,a,0.6180472876876593,1,colour,0.5,3.9
65,24,0,2,15,28,728,1433.8039178233594,1434.7117452383973,"[81, 0, 173]",173,l,0.3855985456611961,1,colour,0.5,3.9
65,24,0,2,15,29,729,1435.2258498510346,1436.351720693754,"[65, 0, 189]",189,l,0.6036289765033871,1,colour,0.5,3.9
65,24,0,2,15,30,730,1436.8666945246514,1438.9117154635023,"[10, 0, 244]",244,a,1.5229472445789725,1,colour,0.5,3.9
65,24,0,2,15,31,731,1439.4293087646365,1440.8797198021784,"[18, 0, 236]",236,a,0.9281770479865372,1,colour,0.5,3.9
65,24,0,2,15,32,732,1441.398275663145,1442.4397244181018,"[43, 0, 211]",211,a,0.5192907778546214,1,colour,0.5,3.9
65,24,0,2,15,33,733,1442.945260121487,1443.8157028793357,"[91, 0, 163]",163,l,0.34831904526799917,1,colour,0.5,3.9
65,24,0,2,15,34,734,1444.3359786660876,1445.567718879087,"[63, 0, 191]",191,l,0.7094581741839647,1,colour,0.5,3.9
65,24,0,2,15,35,735,1446.0861282292753,1447.023726075422,"[8, 0, 246]",246,a,0.4153677951544523,1,colour,0.5,3.9
65,24,0,2,15,36,736,1447.53933596774,1448.6477011402603,"[53, 0, 201]",201,l,0.5861410293728113,1,colour,0.5,3.9
65,24,0,2,15,37,737,1449.1644311307464,1451.3997718843166,"[80, 0, 174]",174,l,1.7131701733451337,1,colour,0.5,3.9
65,24,0,2,15,38,738,1451.9147161769215,1452.6157121742144,"[94, 0, 160]",160,l,0.17866394016891718,1,colour,0.5,3.9
65,24,0,2,15,39,739,1453.133541783085,1454.1037299979944,"[38, 0, 216]",216,a,0.46041039540432394,1,colour,0.5,3.9
65,24,0,2,15,40,740,1454.6212027822621,1455.5837192696054,"[27, 0, 227]",227,a,0.4402494146488607,1,colour,0.5,3.9
65,24,0,2,15,41,741,1456.090017853072,1457.0717229151633,"[79, 0, 175]",175,l,0.45944507885724306,1,colour,0.5,3.9
65,24,0,2,15,42,742,1457.5901495947037,1458.6957361830864,"[68, 0, 186]",186,l,0.5834108882118016,1,colour,0.5,3.9
65,24,0,2,15,43,743,1459.215217582183,1460.887711332878,"[85, 0, 169]",169,l,1.1501770534086972,1,colour,0.5,3.9
65,24,0,2,15,44,744,1461.4029624315444,1462.43170728744,"[2, 0, 252]",252,a,0.5070858818944544,1,colour,0.5,3.9
65,24,0,2,15,45,745,1462.9498724529985,1464.0157345447224,"[71, 0, 183]",183,l,0.5436824529897422,1,colour,0.5,3.9
65,24,0,2,15,46,746,1464.5282342345454,1465.823721191613,"[5, 0, 249]",249,a,0.7734467398840934,1,colour,0.5,3.9
65,24,0,2,15,47,747,1466.340898985276,1467.4077382090036,"[4, 0, 250]",250,a,0.544682034291327,1,colour,0.5,3.9
65,24,0,2,15,48,748,1467.9190618745051,1469.4797175179701,"[11, 0, 243]",243,a,1.038388571003452,1,colour,0.5,3.9
65,24,0,2,15,49,749,1469.9974080990069,1470.9517030494753,"[64, 0, 190]",190,l,0.43204835802316666,1,colour,0.5,3.9
65,24,0,2,15,50,750,1471.4661841790657,1474.367709662998,"[89, 0, 165]",165,l,2.3796530452091247,1,colour,0.5,3.9
65,24,0,2,16,1,751,1479.3099832497537,1480.6716970000416,"[25, 0, 229]",229,a,0.8389291639905423,1,colour,0.5,3.9
65,24,0,2,16,2,752,1481.1861080250237,1482.5677460543811,"[52, 0, 202]",202,a,0.8595426739193499,0,colour,0.5,3.9
65,24,0,2,16,3,753,1483.0767491788138,1484.367708087666,"[48, 0, 206]",206,a,0.7689868269953877,1,colour,0.5,3.9
65,24,0,2,16,4,754,1484.8737384618726,1486.5837133619934,"[22, 0, 232]",232,a,1.1878177106846124,1,colour,0.5,3.9
65,24,0,2,16,5,755,1487.0933533355128,1489.7917302565183,"[30, 0, 224]",224,a,2.1763934176415205,1,colour,0.5,3.9
65,24,0,2,16,6,756,1490.3122029663064,1493.0637313844636,"[32, 0, 222]",222,a,2.229393284069374,1,colour,0.5,3.9
65,24,0,2,16,7,757,1493.578047098592,1494.5517421190161,"[77, 0, 177]",177,l,0.45174735714681447,1,colour,0.5,3.9
65,24,0,2,16,8,758,1495.0626136492938,1496.191706546815,"[37, 0, 217]",217,a,0.607776963384822,1,colour,0.5,3.9
65,24,0,2,16,9,759,1496.7033366246615,1497.7277160906233,"[53, 0, 201]",201,l,0.503160024061799,1,colour,0.5,3.9
65,24,0,2,16,10,760,1498.2336133448407,1499.087697312003,"[68, 0, 186]",186,l,0.33190275309607387,1,colour,0.5,3.9
65,24,0,2,16,11,761,1499.5931117108557,1500.5036928977352,"[88, 0, 166]",166,l,0.38851064350456,1,colour,0.5,3.9
65,24,0,2,16,12,762,1501.01519261254,1501.8877223606687,"[17, 0, 237]",237,a,0.35047968477010727,1,colour,0.5,3.9
65,24,0,2,16,13,763,1502.405787489377,1503.3997537675314,"[41, 0, 213]",213,a,0.4715905040502548,1,colour,0.5,3.9
65,24,0,2,16,14,764,1503.8967071711086,1505.079715233529,"[21, 0, 233]",233,a,0.6607910082675517,1,colour,0.5,3.9
65,24,0,2,16,15,765,1505.5999587250408,1507.0237052014563,"[58, 0, 196]",196,l,0.9015266655478626,1,colour,0.5,3.9
65,24,0,2,16,16,766,1507.5376136787236,1508.5117001824547,"[35, 0, 219]",219,a,0.4519261633977294,1,colour,0.5,3.9
65,24,0,2,16,17,767,1509.0220821618568,1509.9676888680551,"[1, 0, 253]",253,a,0.4233266366645694,1,colour,0.5,3.9
65,24,0,2,16,18,768,1510.4753450388089,1511.5757411296945,"[72, 0, 182]",182,l,0.5787008828483522,1,colour,0.5,3.9
65,24,0,2,16,19,769,1512.084816328017,1513.2876884110738,"[44, 0, 210]",210,a,0.680257638450712,1,colour,0.5,3.9
65,24,0,2,16,20,770,1513.8037465002853,1514.9837172217667,"[56, 0, 198]",198,l,0.6577568182256073,1,colour,0.5,3.9
65,24,0,2,16,21,771,1515.49137378647,1516.5516779222526,"[65, 0, 189]",189,l,0.5380748726893216,1,colour,0.5,3.9
65,24,0,2,16,22,772,1517.0695977217983,1518.1037433887832,"[80, 0, 174]",174,l,0.511950274463743,1,colour,0.5,3.9
65,24,0,2,16,23,773,1518.6166554354131,1519.2637031851336,"[79, 0, 175]",175,l,0.12481691082939506,1,colour,0.5,3.9
65,24,0,2,16,24,774,1519.7729473432992,1520.6397174864542,"[15, 0, 239]",239,a,0.3445396984461695,1,colour,0.5,3.9
65,24,0,2,16,25,775,1521.1481282662135,1522.2797063325997,"[11, 0, 243]",243,a,0.6095177629031241,1,colour,0.5,3.9
65,24,0,2,16,26,776,1522.7888063432183,1523.9116981343832,"[60, 0, 194]",194,l,0.6007475985679775,1,colour,0.5,3.9
65,24,0,2,16,27,777,1524.4295403461438,1525.3836734259967,"[40, 0, 214]",214,a,0.43189003178849816,1,colour,0.5,3.9
65,24,0,2,16,28,778,1525.8984672692604,1527.0797203534748,"[54, 0, 200]",200,l,0.6590958947781473,1,colour,0.5,3.9
65,24,0,2,16,29,779,1527.586142604705,1528.8316863346845,"[24, 0, 230]",230,a,0.7261938753072172,1,colour,0.5,3.9
65,24,0,2,16,30,780,1529.3490413590334,1530.3837017829064,"[46, 0, 208]",208,a,0.5132472096011043,1,colour,0.5,3.9
65,24,0,2,16,31,781,1530.8960250297096,1531.7756837857887,"[99, 0, 155]",155,l,0.3574263418558985,1,colour,0.5,3.9
65,24,0,2,16,32,782,1532.2866762266494,1533.2716805373784,"[47, 0, 207]",207,a,0.46277071512304246,1,colour,0.5,3.9
65,24,0,2,16,33,783,1533.7868233281188,1534.7677265196107,"[81, 0, 173]",173,l,0.45864517730660737,1,colour,0.5,3.9
65,24,0,2,16,34,784,1535.286929863505,1536.367708087666,"[23, 0, 231]",231,a,0.5585261178202927,1,colour,0.5,3.9
65,24,0,2,16,35,785,1536.880762312794,1538.0477191782556,"[87, 0, 167]",167,l,0.6446905806660652,1,colour,0.5,3.9
65,24,0,2,16,36,786,1538.5528645804152,1540.6957286999095,"[91, 0, 163]",163,l,1.6206860560923815,1,colour,0.5,3.9
65,24,0,2,16,37,787,1541.2092082789168,1542.1277313719038,"[10, 0, 244]",244,a,0.3965443158522248,1,colour,0.5,3.9
65,24,0,2,16,38,788,1542.6468622479588,1543.9356995080598,"[61, 0, 193]",193,l,0.7664449443109334,1,colour,0.5,3.9
65,24,0,2,16,39,789,1544.4439196665771,1545.7283375796396,"[78, 0, 176]",176,l,0.7624631605576724,1,colour,0.5,3.9
65,24,0,2,16,40,790,1546.240934549598,1547.3757110398728,"[0, 0, 254]",254,a,0.6125614054035395,1,colour,0.5,3.9
65,24,0,2,16,41,791,1547.8817540172022,1549.031729815295,"[16, 0, 238]",238,a,0.6277973409742117,1,colour,0.5,3.9
65,24,0,2,16,42,792,1549.538052817108,1552.031713273842,"[5, 0, 249]",249,a,1.9714020488318056,1,colour,0.5,3.9
65,24,0,2,16,43,793,1552.5383355985396,1553.551684223814,"[13, 0, 241]",241,a,0.49112802650779486,1,colour,0.5,3.9
65,24,0,2,16,44,794,1554.0710388044827,1554.99169260473,"[59, 0, 195]",195,l,0.3984198106918484,1,colour,0.5,3.9
65,24,0,2,16,45,795,1555.5086025828496,1556.4237216643523,"[93, 0, 161]",161,l,0.3929331412073225,1,colour,0.5,3.9
65,24,0,2,16,46,796,1556.9306240137666,1558.1596872548107,"[57, 0, 197]",197,l,0.7068107409868389,1,colour,0.5,3.9
65,24,0,2,16,47,797,1558.6651851490606,1559.8237141023856,"[62, 0, 192]",192,l,0.6363229269627482,1,colour,0.5,3.9
65,24,0,2,16,48,798,1560.3373291643802,1561.5357283377089,"[63, 0, 191]",191,l,0.6763672269880772,1,colour,0.5,3.9
65,24,0,2,16,49,799,1562.056056112051,1562.9437201833352,"[20, 0, 234]",234,a,0.3654395341873169,1,colour,0.5,3.9
65,24,0,2,16,50,800,1563.4623689921573,1564.6796932569705,"[89, 0, 165]",165,l,0.695521536981687,1,colour,0.5,3.9
