id,age,condition,counterbalance,block,trialinblock,trial,tstart,tend,trialstim,trialintensity,response,RT,accuracy,trialtype,colourfreq,credits
41,20,1,1,Practice,1,NA,5.907728336751461e-06,2.1012969714356586,"[82, 0, 172]",172,a,1.5673874951899052,0,colour,0.5,4
41,20,1,1,Practice,2,NA,2.621807048213668,3.933334226021543,"[48, 0, 206]",206,a,0.7930615512887016,1,colour,0.5,4
41,20,1,1,Practice,3,NA,4.449288302101195,5.445323856896721,"[60, 0, 194]",194,a,0.4785179134923965,0,colour,0.5,4
41,20,1,1,Practice,4,NA,5.966556639410555,6.653249675408006,"[21, 0, 233]",233,a,0.167473983601667,1,colour,0.5,4
41,20,1,1,Practice,5,NA,7.1706164740026,7.813311099424027,"[16, 0, 238]",238,a,0.12415771291125566,1,colour,0.5,4
41,20,1,1,Practice,6,NA,8.33164045563899,8.885291025973856,"[22, 0, 232]",232,a,0.03121104626916349,1,colour,0.5,4
41,20,1,1,Practice,7,NA,9.400349498144351,10.14926140254829,"[93, 0, 161]",161,l,0.23365296493284404,1,colour,0.5,4
41,20,1,1,Practice,8,NA,10.6654714778997,13.27726343786344,"[37, 0, 217]",217,a,2.091376799857244,1,colour,0.5,4
41,20,1,1,Practice,9,NA,13.798382399254479,14.381393731338903,"[66, 0, 188]",188,a,0.06583948689512908,0,colour,0.5,4
41,20,1,1,Practice,10,NA,14.897350170416757,16.229356902069412,"[94, 0, 160]",160,l,0.8138108889106661,1,colour,0.5,4
41,20,1,1,1,1,1,4.150941545842215,5.3999946436379105,"[58, 0, 196]",196,a,0.7249015287961811,0,colour,0.5,4.0
41,20,1,1,1,2,2,5.907532248995267,6.768009061575867,"[6, 0, 248]",248,a,0.3370790632907301,1,colour,0.5,4.0
41,20,1,1,1,3,3,7.283332591527142,8.383948210859671,"[0, 0, 254]",254,a,0.5764238781994209,1,colour,0.5,4.0
41,20,1,1,1,4,4,8.893050562939607,9.479956235853024,"[52, 0, 202]",202,a,0.06884846370667219,0,colour,0.5,4.0
41,20,1,1,1,5,5,9.990504393470474,10.687919075833634,"[91, 0, 163]",163,l,0.1655992807354778,1,colour,0.5,4.0
41,20,1,1,1,6,6,11.209515771246515,11.8159746741876,"[11, 0, 243]",243,a,0.0759353133616969,1,colour,0.5,4.0
41,20,1,1,1,7,7,12.33546981192194,13.271958343801089,"[92, 0, 162]",162,l,0.4192422499181703,1,colour,0.5,4.0
41,20,1,1,1,8,8,13.789907639380544,15.39197831961792,"[1, 0, 253]",253,a,1.0841032677562907,1,colour,0.5,4.0
41,20,1,1,1,9,9,15.914240219513886,16.871966850827448,"[4, 0, 250]",250,a,0.4399317230563611,1,colour,0.5,4.0
41,20,1,1,1,10,10,17.394854176789522,18.551971214590594,"[68, 0, 186]",186,l,0.6382847413187847,1,colour,0.5,4.0
41,20,1,1,1,11,11,19.076439041178674,19.95997745625209,"[69, 0, 185]",185,l,0.352057387935929,1,colour,0.5,4.0
41,20,1,1,1,12,12,20.472946973866783,21.17592274956405,"[76, 0, 178]",178,l,0.1707692858763039,1,colour,0.5,4.0
41,20,1,1,1,13,13,21.693626285763457,22.24003955780063,"[49, 0, 205]",205,a,0.02955413970630616,1,colour,0.5,4.0
41,20,1,1,1,14,14,22.75910540437326,23.43996401829645,"[45, 0, 209]",209,a,0.16374820854980499,1,colour,0.5,4.0
41,20,1,1,1,15,15,23.949815463856794,24.71195386967156,"[50, 0, 204]",204,a,0.24133294529747218,1,colour,0.5,4.0
41,20,1,1,1,16,16,25.222160169738345,25.895912635605782,"[81, 0, 173]",173,l,0.15588509012013674,1,colour,0.5,4.0
41,20,1,1,1,17,17,26.416978427907452,27.327991086407565,"[79, 0, 175]",175,l,0.3932642239378765,1,colour,0.5,4.0
41,20,1,1,1,18,18,27.848975352710113,29.479890857590362,"[41, 0, 213]",213,a,1.106853732606396,1,colour,0.5,4.0
41,20,1,1,1,19,19,29.99361970857717,31.095919409766793,"[18, 0, 236]",236,a,0.5904683960834518,1,colour,0.5,4.0
41,20,1,1,1,20,20,31.60562985879369,32.159905855194665,"[88, 0, 166]",166,l,0.031153938733041286,1,colour,0.5,4.0
41,20,1,1,1,21,21,32.66793340386357,33.2798545450205,"[14, 0, 240]",240,a,0.09742507978808135,1,colour,0.5,4.0
41,20,1,1,1,22,22,33.79969508503564,34.38397538627032,"[27, 0, 227]",227,a,0.06088806572370231,1,colour,0.5,4.0
41,20,1,1,1,23,23,34.89356413704809,36.8878785885172,"[98, 0, 156]",156,l,1.4771875045262277,1,colour,0.5,4.0
41,20,1,1,1,24,24,37.40301819285378,37.99187536840327,"[94, 0, 160]",160,l,0.06518412847071886,1,colour,0.5,4.0
41,20,1,1,1,25,25,38.50173390319105,40.18389693228528,"[24, 0, 230]",230,a,1.152760322787799,1,colour,0.5,4.0
41,20,1,1,1,26,26,40.69538519822527,43.67987439490389,"[95, 0, 159]",159,a,2.4534870852949098,0,colour,0.5,4.0
41,20,1,1,1,27,27,44.19947587081697,45.49587033665739,"[65, 0, 189]",189,l,0.7777173443464562,1,colour,0.5,4.0
41,20,1,1,1,28,28,46.01155187189579,46.767863338813186,"[64, 0, 190]",190,l,0.2358458946691826,1,colour,0.5,4.0
41,20,1,1,1,29,29,47.28153390076477,48.27990338183008,"[99, 0, 155]",155,l,0.47817999427206814,1,colour,0.5,4.0
41,20,1,1,1,30,30,48.79105294100009,49.64787053829059,"[59, 0, 195]",195,a,0.335430427454412,0,colour,0.5,4.0
41,20,1,1,1,31,31,50.15627499681432,52.03993038390763,"[72, 0, 182]",182,l,1.3657088484615088,1,colour,0.5,4.0
41,20,1,1,1,32,32,52.561978032113984,53.58388133603148,"[36, 0, 218]",218,a,0.48968854336999357,1,colour,0.5,4.0
41,20,1,1,1,33,33,54.09919817058835,55.223849765374325,"[60, 0, 194]",194,l,0.606711751432158,1,colour,0.5,4.0
41,20,1,1,1,34,34,55.74250128690619,56.5198090323247,"[32, 0, 222]",222,a,0.258289554156363,1,colour,0.5,4.0
41,20,1,1,1,35,35,57.03462607751135,57.95185715705156,"[39, 0, 215]",215,a,0.3994117529364303,1,colour,0.5,4.0
41,20,1,1,1,36,36,58.462365142419,59.34388825192582,"[31, 0, 223]",223,a,0.3382164880167693,1,colour,0.5,4.0
41,20,1,1,1,37,37,59.85516147839371,60.63984200509731,"[8, 0, 246]",246,a,0.26131428498774767,1,colour,0.5,4.0
41,20,1,1,1,38,38,61.152144742780365,62.5838135946542,"[23, 0, 231]",231,a,0.9097720463760197,1,colour,0.5,4.0
41,20,1,1,1,39,39,63.105117663159035,64.58383880066685,"[2, 0, 252]",252,a,0.964386158855632,1,colour,0.5,4.0
41,20,1,1,1,40,40,65.09636012255214,65.71184359304607,"[77, 0, 177]",177,l,0.09978657530155033,1,colour,0.5,4.0
41,20,1,1,1,41,41,66.2294793878682,66.8238161309855,"[40, 0, 214]",214,a,0.07158686907496303,1,colour,0.5,4.0
41,20,1,1,1,42,42,67.3555090468144,68.00781073688995,"[35, 0, 219]",219,a,0.12925170606467873,1,colour,0.5,4.0
41,20,1,1,1,43,43,68.51954791299067,70.81583800993394,"[13, 0, 241]",241,a,1.778236038517207,1,colour,0.5,4.0
41,20,1,1,1,44,44,71.33083898073528,72.37579640408512,"[71, 0, 183]",183,l,0.5175393028184772,1,colour,0.5,4.0
41,20,1,1,1,45,45,72.88759502000175,73.74379546195269,"[90, 0, 164]",164,l,0.3395669829333201,1,colour,0.5,4.0
41,20,1,1,1,46,46,74.26493844785728,75.13579307997134,"[89, 0, 165]",165,l,0.35272416775114834,1,colour,0.5,4.0
41,20,1,1,1,47,47,75.65658160531893,76.59981473523658,"[12, 0, 242]",242,a,0.4254157724790275,1,colour,0.5,4.0
41,20,1,1,1,48,48,77.11314934724942,78.21578263526317,"[7, 0, 247]",247,a,0.5727146446006373,1,colour,0.5,4.0
41,20,1,1,1,49,49,78.7317241083365,79.51178798207548,"[26, 0, 228]",228,a,0.26219216571189463,1,colour,0.5,4.0
41,20,1,1,1,50,50,80.02057092578616,81.06381866731681,"[61, 0, 193]",193,l,0.5203749877400696,1,colour,0.5,4.0
41,20,1,1,2,1,51,87.1515165597666,88.71179396857042,"[67, 0, 187]",187,l,1.0367410259786993,1,colour,0.5,4.0
41,20,1,1,2,2,52,89.22397855273448,90.15973256330471,"[81, 0, 173]",173,l,0.37174767593387514,1,colour,0.5,4.0
41,20,1,1,2,3,53,90.67087936564349,91.27978640981019,"[88, 0, 166]",166,l,0.08589447545818985,1,colour,0.5,4.0
41,20,1,1,2,4,54,91.79602366057225,93.20781632955186,"[48, 0, 206]",206,a,0.8886174421058968,1,colour,0.5,4.0
41,20,1,1,2,5,55,93.72236280306242,94.54375166643877,"[2, 0, 252]",252,a,0.29812029527965933,1,colour,0.5,4.0
41,20,1,1,2,6,56,95.050536633702,95.91172669979278,"[47, 0, 207]",207,a,0.337737966212444,1,colour,0.5,4.0
41,20,1,1,2,7,57,96.41993423574604,97.22372176568024,"[39, 0, 215]",215,a,0.27826695528347045,1,colour,0.5,4.0
41,20,1,1,2,8,58,97.73451292573009,98.3277283917414,"[7, 0, 247]",247,a,0.0696621477836743,1,colour,0.5,4.0
41,20,1,1,2,9,59,98.83212508202996,100.0637773135677,"[91, 0, 163]",163,l,0.6997178887249902,1,colour,0.5,4.0
41,20,1,1,2,10,60,100.57416123780422,101.41575593256857,"[77, 0, 177]",177,l,0.31850138772279024,1,colour,0.5,4.0
41,20,1,1,2,11,61,101.92993888701312,103.07977215270512,"[20, 0, 234]",234,a,0.6385431038215756,1,colour,0.5,4.0
41,20,1,1,2,12,62,103.59245140640996,105.8077165291179,"[55, 0, 199]",199,l,1.6917893920326605,1,colour,0.5,4.0
41,20,1,1,2,13,63,106.32479897153098,107.27185515628662,"[14, 0, 240]",240,a,0.434680585633032,1,colour,0.5,4.0
41,20,1,1,2,14,64,107.78264749795198,108.61575049743988,"[32, 0, 222]",222,a,0.31020976579748094,1,colour,0.5,4.0
41,20,1,1,2,15,65,109.13752836175263,109.99980189581402,"[93, 0, 161]",161,l,0.3329850429436192,1,colour,0.5,4.0
41,20,1,1,2,16,66,110.51544562191702,111.79176028689835,"[58, 0, 196]",196,l,0.7582649388350546,1,colour,0.5,4.0
41,20,1,1,2,17,67,112.31119792326353,113.25570592994336,"[65, 0, 189]",189,l,0.41112549521494657,1,colour,0.5,4.0
41,20,1,1,2,18,68,113.76698900258634,114.51983975223266,"[25, 0, 229]",229,a,0.23404799157287925,1,colour,0.5,4.0
41,20,1,1,2,19,69,115.03834791411646,116.07175385940354,"[34, 0, 220]",220,a,0.515070287627168,1,colour,0.5,4.0
41,20,1,1,2,20,70,116.5866335259052,117.51966882345732,"[75, 0, 179]",179,l,0.41502298682462424,1,colour,0.5,4.0
41,20,1,1,2,21,71,118.0396157016512,118.86378235486336,"[42, 0, 212]",212,a,0.31339794234372675,1,colour,0.5,4.0
41,20,1,1,2,22,72,119.38667834550142,120.56767185137141,"[6, 0, 248]",248,a,0.6503237998113036,1,colour,0.5,4.0
41,20,1,1,2,23,73,121.0859893921297,121.93571501993574,"[95, 0, 159]",159,l,0.3182993452064693,1,colour,0.5,4.0
41,20,1,1,2,24,74,122.46024152939208,123.73567752586678,"[28, 0, 226]",226,a,0.7580644716508687,1,colour,0.5,4.0
41,20,1,1,2,25,75,124.25404154043645,125.0557475987589,"[46, 0, 208]",208,a,0.2834290836472064,1,colour,0.5,4.0
41,20,1,1,2,26,76,125.57256813417189,126.36768240644597,"[21, 0, 233]",233,a,0.2768270574742928,1,colour,0.5,4.0
41,20,1,1,2,27,77,126.88996478624176,127.7357011565473,"[70, 0, 184]",184,l,0.32738574652466923,1,colour,0.5,4.0
41,20,1,1,2,28,78,128.27789004554506,129.0476812563138,"[27, 0, 227]",227,a,0.24958242569118738,1,colour,0.5,4.0
41,20,1,1,2,29,79,129.56600667408202,130.47171502618585,"[69, 0, 185]",185,l,0.33192638715263456,1,colour,0.5,4.0
41,20,1,1,2,30,80,130.98133449698798,132.3276492288569,"[23, 0, 231]",231,a,0.8254096284508705,1,colour,0.5,4.0
41,20,1,1,2,31,81,132.83946399251,133.75968041829765,"[11, 0, 243]",243,a,0.38838527037296444,1,colour,0.5,4.0
41,20,1,1,2,32,82,134.27615633921232,135.15170206082985,"[72, 0, 182]",182,l,0.35763147834222764,1,colour,0.5,4.0
41,20,1,1,2,33,83,135.67088251630776,138.61568236222956,"[94, 0, 160]",160,l,2.425923832692206,1,colour,0.5,4.0
41,20,1,1,2,34,84,139.1176478464622,140.12768656539265,"[56, 0, 198]",198,l,0.49190589145291597,1,colour,0.5,4.0
41,20,1,1,2,35,85,140.6485849734163,141.47179300757125,"[87, 0, 167]",167,l,0.2919578002765775,1,colour,0.5,4.0
41,20,1,1,2,36,86,141.99431799608283,142.60770069656428,"[80, 0, 174]",174,l,0.08779202145524323,1,colour,0.5,4.0
41,20,1,1,2,37,87,143.12161268561613,143.6557387766661,"[41, 0, 213]",213,a,0.011177719105035067,1,colour,0.5,4.0
41,20,1,1,2,38,88,144.16779496730305,145.2316573514836,"[64, 0, 190]",190,l,0.540771046304144,1,colour,0.5,4.0
41,20,1,1,2,39,89,145.73433096928056,146.58366353961173,"[84, 0, 170]",170,l,0.3263010969385505,1,colour,0.5,4.0
41,20,1,1,2,40,90,147.10422087775078,148.15959156677127,"[53, 0, 201]",201,a,0.5303786544827744,0,colour,0.5,4.0
41,20,1,1,2,41,91,148.6684241349576,149.55163447698578,"[36, 0, 218]",218,a,0.37145111057907343,1,colour,0.5,4.0
41,20,1,1,2,42,92,150.06771812809166,150.91165856458247,"[62, 0, 192]",192,l,0.3206344529753551,1,colour,0.5,4.0
41,20,1,1,2,43,93,151.42713293724228,152.36761112045497,"[40, 0, 214]",214,a,0.42599669413175434,1,colour,0.5,4.0
41,20,1,1,2,44,94,152.88707356899977,153.81559658283368,"[8, 0, 246]",246,a,0.40514456282835454,1,colour,0.5,4.0
41,20,1,1,2,45,95,154.33623662847094,155.20767651451752,"[61, 0, 193]",193,l,0.34452982572838664,1,colour,0.5,4.0
41,20,1,1,2,46,96,155.71641298441682,156.65555957716424,"[16, 0, 238]",238,a,0.41572363732848316,1,colour,0.5,4.0
41,20,1,1,2,47,97,157.1696023227414,158.67953844496515,"[51, 0, 203]",203,l,0.9865104099735618,1,colour,0.5,4.0
41,20,1,1,2,48,98,159.18661406997126,160.0876411786303,"[13, 0, 241]",241,a,0.38363825471606106,1,colour,0.5,4.0
41,20,1,1,2,49,99,160.59626264579128,162.51159263495356,"[49, 0, 205]",205,l,1.3920767809031531,0,colour,0.5,4.0
41,20,1,1,2,50,100,163.03115630173124,164.19960150739644,"[86, 0, 168]",168,l,0.6456638239324093,1,colour,0.5,4.0
41,20,1,1,3,1,101,169.1301370698493,172.0235495766392,"[84, 0, 170]",170,l,2.3673799333628267,1,colour,0.5,4.0
41,20,1,1,3,2,102,172.5387352608377,175.87954836990684,"[40, 0, 214]",214,a,2.8175732917152345,1,colour,0.5,4.0
41,20,1,1,3,3,103,176.38340076617897,178.55951807531528,"[48, 0, 206]",206,l,1.6529184515820816,0,colour,0.5,4.0
41,20,1,1,3,4,104,179.07422838837374,179.935584263294,"[24, 0, 230]",230,a,0.3449071292998269,1,colour,0.5,4.0
41,20,1,1,3,5,105,180.45935931627173,181.34355308965314,"[75, 0, 179]",179,l,0.36656664311885834,1,colour,0.5,4.0
41,20,1,1,3,6,106,181.86703590955585,184.1356824095128,"[34, 0, 220]",220,l,1.7436174439499155,0,colour,0.5,4.0
41,20,1,1,3,7,107,184.64622702251654,192.2955394280143,"[30, 0, 224]",224,l,7.130646311677992,0,colour,0.5,4.0
41,20,1,1,3,8,108,192.81354228651617,193.7355251078261,"[4, 0, 250]",250,a,0.40376137872226536,1,colour,0.5,4.0
41,20,1,1,3,9,109,194.25098412053194,195.07149746618234,"[9, 0, 245]",245,a,0.289304465521127,1,colour,0.5,4.0
41,20,1,1,3,10,110,195.59562146593817,198.00747557461727,"[45, 0, 209]",209,l,1.8934188081184402,0,colour,0.5,4.0
41,20,1,1,3,11,111,198.52888558758423,199.49550445459317,"[90, 0, 164]",164,l,0.44685552071314305,1,colour,0.5,4.0
41,20,1,1,3,12,112,200.00765280495398,200.90345555788372,"[25, 0, 229]",229,l,0.3680727069731802,0,colour,0.5,4.0
41,20,1,1,3,13,113,201.42526689893566,204.83149099140428,"[12, 0, 242]",242,l,2.8889207028551027,0,colour,0.5,4.0
41,20,1,1,3,14,114,205.347896020161,206.00745155010372,"[86, 0, 168]",168,l,0.14114819245878607,1,colour,0.5,4.0
41,20,1,1,3,15,115,206.52638703398407,207.17547376616858,"[59, 0, 195]",195,l,0.1307940036058426,1,colour,0.5,4.0
41,20,1,1,3,16,116,207.68688917078543,208.20746265654452,"[93, 0, 161]",161,l,0.0027781836688518524,1,colour,0.5,4.0
41,20,1,1,3,17,117,208.7379594646627,210.9994683089899,"[87, 0, 167]",167,l,1.7411799364490435,1,colour,0.5,4.0
41,20,1,1,3,18,118,211.5107761939289,212.59146285499446,"[23, 0, 231]",231,a,0.557260554865934,1,colour,0.5,4.0
41,20,1,1,3,19,119,213.10600420855917,213.94341705553234,"[10, 0, 244]",244,a,0.3140438483096659,1,colour,0.5,4.0
41,20,1,1,3,20,120,214.44980738998856,215.0554632425774,"[16, 0, 238]",238,a,0.07974734040908515,1,colour,0.5,4.0
41,20,1,1,3,21,121,215.5590391595615,217.39948776492383,"[97, 0, 157]",157,l,1.317056763684377,1,colour,0.5,4.0
41,20,1,1,3,22,122,217.91836377815343,218.54341138422024,"[98, 0, 156]",156,l,0.10171562887262553,1,colour,0.5,4.0
41,20,1,1,3,23,123,219.05907716567162,220.1354693393223,"[96, 0, 158]",158,l,0.5539191727293655,1,colour,0.5,4.0
41,20,1,1,3,24,124,220.65494242182467,221.53547304146923,"[61, 0, 193]",193,l,0.36316697183065116,1,colour,0.5,4.0
41,20,1,1,3,25,125,222.05331481737085,222.83144176076166,"[66, 0, 188]",188,l,0.2612390605499968,1,colour,0.5,4.0
41,20,1,1,3,26,126,223.3508120495826,225.36738544714171,"[37, 0, 217]",217,l,1.4981061955913901,0,colour,0.5,4.0
41,20,1,1,3,27,127,225.87641848251224,226.75145732541569,"[85, 0, 169]",169,l,0.35651729034725577,1,colour,0.5,4.0
41,20,1,1,3,28,128,227.27050111675635,229.48748104122933,"[50, 0, 204]",204,l,1.6877639008453116,0,colour,0.5,4.0
41,20,1,1,3,29,129,229.99774169188458,231.0233680140227,"[73, 0, 181]",181,l,0.49712237052153796,1,colour,0.5,4.0
41,20,1,1,3,30,130,231.54364572209306,232.37546360492706,"[74, 0, 180]",180,l,0.310403537703678,1,colour,0.5,4.0
41,20,1,1,3,31,131,232.8867037484888,233.71939478605054,"[54, 0, 200]",200,l,0.3092732022050768,1,colour,0.5,4.0
41,20,1,1,3,32,132,234.23059160658158,235.39143363176845,"[41, 0, 213]",213,a,0.6417419140925631,1,colour,0.5,4.0
41,20,1,1,3,33,133,235.89830327569507,236.77543304255232,"[99, 0, 155]",155,l,0.36343281727749854,1,colour,0.5,4.0
41,20,1,1,3,34,134,237.2926891706884,237.86342198657803,"[82, 0, 172]",172,l,0.04792740964330733,1,colour,0.5,4.0
41,20,1,1,3,35,135,238.37077566620428,239.34336010552943,"[29, 0, 225]",225,a,0.44921544077806175,1,colour,0.5,4.0
41,20,1,1,3,36,136,239.85771438269876,240.65539022372104,"[27, 0, 227]",227,a,0.2766620364272967,1,colour,0.5,4.0
41,20,1,1,3,37,137,241.1721768884454,241.88742094044574,"[76, 0, 178]",178,l,0.19202432071324438,1,colour,0.5,4.0
41,20,1,1,3,38,138,242.4028212702833,243.5194234579103,"[60, 0, 194]",194,l,0.5935632311739028,1,colour,0.5,4.0
41,20,1,1,3,39,139,244.02798939298373,244.87937586568296,"[26, 0, 228]",228,a,0.3284136822912842,1,colour,0.5,4.0
41,20,1,1,3,40,140,245.3954725137446,246.21541005780455,"[22, 0, 232]",232,a,0.2966520406771451,1,colour,0.5,4.0
41,20,1,1,3,41,141,246.7237345656613,248.4313675602898,"[91, 0, 163]",163,l,1.1843427650164813,1,colour,0.5,4.0
41,20,1,1,3,42,142,248.94392511586193,249.48739754606504,"[65, 0, 189]",189,l,0.020118003827519715,1,colour,0.5,4.0
41,20,1,1,3,43,143,249.9947067211615,251.4473411317449,"[44, 0, 210]",210,a,0.9189892043359578,1,colour,0.5,4.0
41,20,1,1,3,44,144,251.95952177746221,252.9193609941285,"[8, 0, 246]",246,a,0.43646903650369495,1,colour,0.5,4.0
41,20,1,1,3,45,145,253.42854565975722,255.4713455995079,"[46, 0, 208]",208,a,1.5196550389518961,1,colour,0.5,4.0
41,20,1,1,3,46,146,255.98622723517474,256.83132045634557,"[19, 0, 235]",235,a,0.3217399762943387,1,colour,0.5,4.0
41,20,1,1,3,47,147,257.35087506484706,258.1433639652096,"[11, 0, 243]",243,a,0.2689588190987706,1,colour,0.5,4.0
41,20,1,1,3,48,148,258.6635109167546,259.6153905229876,"[56, 0, 198]",198,l,0.42847004148643464,1,colour,0.5,4.0
41,20,1,1,3,49,149,260.13054903189186,261.02340109692886,"[71, 0, 183]",183,l,0.369477552594617,1,colour,0.5,4.0
41,20,1,1,3,50,150,261.5439659181284,262.79976676485967,"[35, 0, 219]",219,a,0.7323948265984654,1,colour,0.5,4.0
41,20,1,1,4,1,151,272.08003760431893,273.6313172269147,"[30, 0, 224]",224,a,1.018868727143854,1,colour,0.5,4.0
41,20,1,1,4,2,152,274.1536854649894,278.1032980985474,"[47, 0, 207]",207,l,3.4323163331719115,0,colour,0.5,4.0
41,20,1,1,4,3,153,278.6187488405267,279.4953150150832,"[90, 0, 164]",164,l,0.35881695221178234,1,colour,0.5,4.0
41,20,1,1,4,4,154,280.01007337728515,280.5912679017056,"[89, 0, 165]",165,l,0.05763963086064905,1,colour,0.5,4.0
41,20,1,1,4,5,155,281.1126590099884,282.10329219093546,"[73, 0, 181]",181,l,0.45957711269147694,1,colour,0.5,4.0
41,20,1,1,4,6,156,282.6264701746404,284.8073522223858,"[76, 0, 178]",178,l,1.6622884215321392,1,colour,0.5,4.0
41,20,1,1,4,7,157,285.3263018846046,286.4953008366283,"[64, 0, 190]",190,l,0.6512402774533257,1,colour,0.5,4.0
41,20,1,1,4,8,158,287.01457069499884,288.63924848043825,"[3, 0, 251]",251,a,1.1063247986603528,1,colour,0.5,4.0
41,20,1,1,4,9,159,289.15040119027253,292.37524738395587,"[52, 0, 202]",202,l,2.690022208960727,1,colour,0.5,4.0
41,20,1,1,4,10,160,292.8920596486423,293.95126954012085,"[50, 0, 204]",204,l,0.5448820020537823,0,colour,0.5,4.0
41,20,1,1,4,11,161,294.44959550129715,295.35123425151687,"[72, 0, 182]",182,l,0.37842492654453963,1,colour,0.5,4.0
41,20,1,1,4,12,162,295.8580393049633,296.6232032291591,"[79, 0, 175]",175,l,0.25173321401234716,1,colour,0.5,4.0
41,20,1,1,4,13,163,297.1295084930025,297.94324533909094,"[98, 0, 156]",156,l,0.2904450410278514,1,colour,0.5,4.0
41,20,1,1,4,14,164,298.45770201599225,299.9992264880566,"[23, 0, 231]",231,a,1.018228334840387,1,colour,0.5,4.0
41,20,1,1,4,15,165,300.51931908901315,302.5592707404867,"[41, 0, 213]",213,a,1.5216794029111043,1,colour,0.5,4.0
41,20,1,1,4,16,166,303.0700370883569,305.6791871350724,"[43, 0, 211]",211,l,2.0961214523995295,0,colour,0.5,4.0
41,20,1,1,4,17,167,306.1987949125469,307.1112624350935,"[77, 0, 177]",177,l,0.3891461790772155,1,colour,0.5,4.0
41,20,1,1,4,18,168,307.6207566631492,308.4312037207419,"[6, 0, 248]",248,a,0.2872005448443815,1,colour,0.5,4.0
41,20,1,1,4,19,169,308.94973472552374,310.87920651223976,"[57, 0, 197]",197,l,1.4061047572176903,1,colour,0.5,4.0
41,20,1,1,4,20,170,311.4069830318913,312.1352074323222,"[55, 0, 199]",199,l,0.21143222181126475,1,colour,0.5,4.0
41,20,1,1,4,21,171,312.6587190028513,314.0231817252934,"[27, 0, 227]",227,a,0.8472999355290085,1,colour,0.5,4.0
41,20,1,1,4,22,172,314.5357589729829,315.50316828722134,"[60, 0, 194]",194,l,0.44974279939197004,1,colour,0.5,4.0
41,20,1,1,4,23,173,316.0223069951171,316.72719843371306,"[78, 0, 176]",176,l,0.1862324340036139,1,colour,0.5,4.0
41,20,1,1,4,24,174,317.2457609461853,317.9671757640317,"[71, 0, 183]",183,l,0.2019976613810286,1,colour,0.5,4.0
41,20,1,1,4,25,175,318.48509788431693,320.41521045705304,"[81, 0, 173]",173,l,1.4120053453370929,1,colour,0.5,4.0
41,20,1,1,4,26,176,320.9268735902151,323.6791993442457,"[56, 0, 198]",198,l,2.2341330620693043,1,colour,0.5,4.0
41,20,1,1,4,27,177,324.1894422719488,325.1911165076308,"[34, 0, 220]",220,a,0.4842550556641072,1,colour,0.5,4.0
41,20,1,1,4,28,178,325.70499068754725,326.6231650261907,"[45, 0, 209]",209,a,0.40003954200074077,1,colour,0.5,4.0
41,20,1,1,4,29,179,327.1453792708926,328.0551556495484,"[35, 0, 219]",219,a,0.391756190918386,1,colour,0.5,4.0
41,20,1,1,4,30,180,328.5704748472199,329.5351894729538,"[92, 0, 162]",162,l,0.4463175281416625,1,colour,0.5,4.0
41,20,1,1,4,31,181,330.04773166857194,330.84711994824465,"[9, 0, 245]",245,a,0.2730745009612292,1,colour,0.5,4.0
41,20,1,1,4,32,182,331.3582187014399,332.3591572343139,"[37, 0, 217]",217,l,0.43691920139826834,0,colour,0.5,4.0
41,20,1,1,4,33,183,332.8723008314846,333.7351737979334,"[61, 0, 193]",193,l,0.340043535688892,1,colour,0.5,4.0
41,20,1,1,4,34,184,334.2514594915556,335.0631822135765,"[15, 0, 239]",239,a,0.2939794074045494,1,colour,0.5,4.0
41,20,1,1,4,35,185,335.5793694460299,336.39116030326113,"[12, 0, 242]",242,a,0.29421059461310506,1,colour,0.5,4.0
41,20,1,1,4,36,186,336.9005092023872,337.83914576563984,"[83, 0, 171]",171,l,0.4205864433897659,1,colour,0.5,4.0
41,20,1,1,4,37,187,338.3546394367004,339.1990891149035,"[40, 0, 214]",214,a,0.32588125800248235,1,colour,0.5,4.0
41,20,1,1,4,38,188,339.7167761096498,340.55116343824193,"[8, 0, 246]",246,a,0.30761156941298395,1,colour,0.5,4.0
41,20,1,1,4,39,189,341.05894955981057,341.91121942724567,"[95, 0, 159]",159,l,0.33247028733603656,1,colour,0.5,4.0
41,20,1,1,4,40,190,342.418480159482,343.1671333074337,"[17, 0, 237]",237,a,0.22519947262480855,1,colour,0.5,4.0
41,20,1,1,4,41,191,343.67531957570463,344.9991504759528,"[96, 0, 158]",158,l,0.8008443252183497,1,colour,0.5,4.0
41,20,1,1,4,42,192,345.5122574454872,346.34311710309703,"[29, 0, 225]",225,a,0.3136220402084291,1,colour,0.5,4.0
41,20,1,1,4,43,193,346.85000880237203,347.7431515251519,"[70, 0, 184]",184,l,0.36972725042141974,1,colour,0.5,4.0
41,20,1,1,4,44,194,348.25632426689845,348.97505345463287,"[5, 0, 249]",249,a,0.1953542814590037,1,colour,0.5,4.0
41,20,1,1,4,45,195,349.4908488111105,350.4070956716314,"[36, 0, 218]",218,a,0.39325989165809005,1,colour,0.5,4.0
41,20,1,1,4,46,196,350.9027486058185,353.5671043205075,"[33, 0, 221]",221,a,2.146148056606762,1,colour,0.5,4.0
41,20,1,1,4,47,197,354.08586730016395,355.1030531269498,"[38, 0, 216]",216,l,0.49408897513058037,0,colour,0.5,4.0
41,20,1,1,4,48,198,355.61713328782935,356.64712892798707,"[65, 0, 189]",189,l,0.5107565016951412,1,colour,0.5,4.0
41,20,1,1,4,49,199,357.16462057549506,357.9910750751151,"[11, 0, 243]",243,a,0.29993631527759135,1,colour,0.5,4.0
41,20,1,1,4,50,200,358.51169424690306,359.99907013156917,"[49, 0, 205]",205,l,0.9641285841353238,0,colour,0.5,4.0
41,20,1,1,5,1,201,365.988648989005,367.8950922562508,"[35, 0, 219]",219,l,1.3878386133583263,0,colour,0.4,3.9
41,20,1,1,5,2,202,368.40452701365575,369.02307538699824,"[70, 0, 184]",184,l,0.10006738686934114,1,colour,0.4,3.9
41,20,1,1,5,3,203,369.5341497217305,371.5110617316095,"[98, 0, 156]",156,l,1.4454794257180765,1,colour,0.4,3.9
41,20,1,1,5,4,204,372.02023655117955,372.82302056381013,"[12, 0, 242]",242,a,0.2710993675282225,1,colour,0.4,3.9
41,20,1,1,5,5,205,373.3474868150661,373.9110528307501,"[76, 0, 178]",178,l,0.046295709209516644,1,colour,0.4,3.9
41,20,1,1,5,6,206,374.43301343917847,375.14306267374195,"[5, 0, 249]",249,a,0.1777474342379719,1,colour,0.4,3.9
41,20,1,1,5,7,207,375.6525832893094,376.6310198737774,"[64, 0, 190]",190,l,0.46028052014298737,1,colour,0.4,3.9
41,20,1,1,5,8,208,377.1537705354858,378.0230423040921,"[47, 0, 207]",207,l,0.350846708053723,0,colour,0.4,3.9
41,20,1,1,5,9,209,378.54720135603566,379.1990792687284,"[87, 0, 167]",167,l,0.1336426854832098,1,colour,0.4,3.9
41,20,1,1,5,10,210,379.71093617379665,380.4070066626882,"[48, 0, 206]",206,l,0.17698179930448532,0,colour,0.4,3.9
41,20,1,1,5,11,211,380.914896759321,381.6390338347992,"[52, 0, 202]",202,l,0.1981478250818327,1,colour,0.4,3.9
41,20,1,1,5,12,212,382.15461021335796,382.8550779832294,"[85, 0, 169]",169,l,0.16918208997230977,1,colour,0.4,3.9
41,20,1,1,5,13,213,383.37843949883245,384.1030007455265,"[7, 0, 247]",247,a,0.19056157988961786,1,colour,0.4,3.9
41,20,1,1,5,14,214,384.61807418381795,385.327082091826,"[99, 0, 155]",155,l,0.19162929395679384,1,colour,0.4,3.9
41,20,1,1,5,15,215,385.8380386668723,386.4150911219185,"[71, 0, 183]",183,l,0.058573831571266055,1,colour,0.4,3.9
41,20,1,1,5,16,216,386.9307100358419,388.1750539272325,"[72, 0, 182]",182,l,0.7267147919628769,1,colour,0.4,3.9
41,20,1,1,5,17,217,388.6958881384926,389.90301681437995,"[34, 0, 220]",220,l,0.6886492647463456,0,colour,0.4,3.9
41,20,1,1,5,18,218,390.42064788308926,392.4549706998514,"[74, 0, 180]",180,l,1.5090708445059136,1,colour,0.4,3.9
41,20,1,1,5,19,219,392.9655649373308,393.7350044444902,"[22, 0, 232]",232,a,0.24871990480460227,1,colour,0.4,3.9
41,20,1,1,5,20,220,394.2531526319217,395.0309897052357,"[21, 0, 233]",233,a,0.2598779316758737,1,colour,0.4,3.9
41,20,1,1,5,21,221,395.5514304651879,396.2390041388571,"[67, 0, 187]",187,l,0.15587721322663128,1,colour,0.4,3.9
41,20,1,1,5,22,222,396.75729489827063,397.43893844552804,"[62, 0, 192]",192,l,0.1635256860172376,1,colour,0.4,3.9
41,20,1,1,5,23,223,397.94909945339896,398.5509625772247,"[93, 0, 161]",161,l,0.08352707233279943,1,colour,0.4,3.9
41,20,1,1,5,24,224,399.0641447711969,399.6072296578204,"[63, 0, 191]",191,l,0.02547941787634045,1,colour,0.4,3.9
41,20,1,1,5,25,225,400.13145842030644,400.9029640391236,"[1, 0, 253]",253,a,0.2482480782782659,1,colour,0.4,3.9
41,20,1,1,5,26,226,401.4156149360351,402.11093042371795,"[19, 0, 235]",235,a,0.17484597710426897,1,colour,0.4,3.9
41,20,1,1,5,27,227,402.62513307039626,403.58294831681997,"[9, 0, 245]",245,a,0.4349625788163394,1,colour,0.4,3.9
41,20,1,1,5,28,228,404.093955304008,404.8149613105925,"[84, 0, 170]",170,l,0.2087367456406355,1,colour,0.4,3.9
41,20,1,1,5,29,229,405.3331150118029,406.0391356043983,"[91, 0, 163]",163,l,0.182781956740655,1,colour,0.4,3.9
41,20,1,1,5,30,230,406.5435590761481,407.2709642786067,"[59, 0, 195]",195,l,0.20417286804877222,1,colour,0.4,3.9
41,20,1,1,5,31,231,407.77806392812636,408.59914677380584,"[57, 0, 197]",197,l,0.29773038858547807,1,colour,0.4,3.9
41,20,1,1,5,32,232,409.10662805929314,409.9029159900965,"[38, 0, 216]",216,l,0.27327930042520165,0,colour,0.4,3.9
41,20,1,1,5,33,233,410.4188480108278,411.5429974530125,"[78, 0, 176]",176,l,0.6007690221304074,1,colour,0.4,3.9
41,20,1,1,5,34,234,412.0514586251229,413.2228872078704,"[46, 0, 208]",208,l,0.6540460302494466,0,colour,0.4,3.9
41,20,1,1,5,35,235,413.73308563092723,414.63095252623316,"[92, 0, 162]",162,l,0.3747294775675982,1,colour,0.4,3.9
41,20,1,1,5,36,236,415.13944559986703,416.51899259130005,"[44, 0, 210]",210,l,0.8570763535099104,0,colour,0.4,3.9
41,20,1,1,5,37,237,417.0230549070984,417.98293272056617,"[51, 0, 203]",203,l,0.4368195586139336,1,colour,0.4,3.9
41,20,1,1,5,38,238,418.49192755296826,419.46288186730817,"[39, 0, 215]",215,l,0.4475731065031141,0,colour,0.4,3.9
41,20,1,1,5,39,239,419.97639882960357,420.82305522216484,"[69, 0, 185]",185,l,0.32334725838154554,1,colour,0.4,3.9
41,20,1,1,5,40,240,421.3359184016008,421.8629292862024,"[10, 0, 244]",244,a,0.008520839619450271,1,colour,0.4,3.9
41,20,1,1,5,41,241,422.4158228862798,424.4949743390316,"[88, 0, 166]",166,l,1.5485057712066919,1,colour,0.4,3.9
41,20,1,1,5,42,242,425.0147735251812,425.8628934463486,"[60, 0, 194]",194,l,0.32938017835840583,1,colour,0.4,3.9
41,20,1,1,5,43,243,426.37649429764133,427.03891977726016,"[11, 0, 243]",243,a,0.14438284269999713,1,colour,0.4,3.9
41,20,1,1,5,44,244,427.5497908878606,428.3108907240676,"[50, 0, 204]",204,l,0.24416232877410948,0,colour,0.4,3.9
41,20,1,1,5,45,245,428.83417937834747,430.13499278668314,"[43, 0, 211]",211,l,0.7823367541423067,0,colour,0.4,3.9
41,20,1,1,5,46,246,430.6475562498672,433.3189050789224,"[96, 0, 158]",158,l,2.1455009690253064,1,colour,0.4,3.9
41,20,1,1,5,47,247,433.83347794006113,434.8868857049383,"[90, 0, 164]",164,l,0.5300931168021634,1,colour,0.4,3.9
41,20,1,1,5,48,248,435.4020599676296,436.54286315175705,"[66, 0, 188]",188,l,0.6179079812718555,1,colour,0.4,3.9
41,20,1,1,5,49,249,437.055726331193,437.71089600166306,"[55, 0, 199]",199,l,0.12881926412228495,1,colour,0.4,3.9
41,20,1,1,5,50,250,438.2305975141935,439.0628218452912,"[40, 0, 214]",214,l,0.3087974371155724,0,colour,0.4,3.9
41,20,1,1,6,1,251,445.8646566910902,449.8868628619239,"[79, 0, 175]",175,l,3.498019943595864,1,colour,0.28,3.9
41,20,1,1,6,2,252,450.39768119726796,451.4389104824513,"[48, 0, 206]",206,a,0.5181856026174501,1,colour,0.28,3.9
41,20,1,1,6,3,253,451.9587978901109,452.66282917081844,"[69, 0, 185]",185,l,0.17697667924221605,1,colour,0.28,3.9
41,20,1,1,6,4,254,453.1821435337188,453.8148679692531,"[96, 0, 158]",158,l,0.10810143395792693,1,colour,0.28,3.9
41,20,1,1,6,5,255,454.3520215479657,456.27088590338826,"[89, 0, 165]",165,l,1.3922500726766884,1,colour,0.28,3.9
41,20,1,1,6,6,256,456.77973580081016,457.44682243769057,"[6, 0, 248]",248,a,0.15101598273031414,1,colour,0.28,3.9
41,20,1,1,6,7,257,457.96005622530356,458.67887402814813,"[92, 0, 162]",162,l,0.20517756696790457,1,colour,0.28,3.9
41,20,1,1,6,8,258,459.18481262226123,460.2227918973658,"[70, 0, 184]",184,l,0.5146918024402112,1,colour,0.28,3.9
41,20,1,1,6,9,259,460.731794606545,461.43086658930406,"[30, 0, 224]",224,a,0.17586446064524353,1,colour,0.28,3.9
41,20,1,1,6,10,260,461.940165076172,462.65477503754664,"[71, 0, 183]",183,l,0.1911779474467039,1,colour,0.28,3.9
41,20,1,1,6,11,261,463.16242449497804,464.49488769308664,"[98, 0, 156]",156,l,0.8091906915651634,1,colour,0.28,3.9
41,20,1,1,6,12,262,465.01368611876387,466.31885545444675,"[58, 0, 196]",196,l,0.7821095054969192,1,colour,0.28,3.9
41,20,1,1,6,13,263,466.82336281519383,468.7189241410233,"[73, 0, 181]",181,l,1.3721706656506285,1,colour,0.28,3.9
41,20,1,1,6,14,264,469.229871657677,470.0947658374207,"[64, 0, 190]",190,l,0.3417662143474445,1,colour,0.28,3.9
41,20,1,1,6,15,265,470.60491187905427,471.6147863646038,"[90, 0, 164]",164,l,0.48646058852318674,1,colour,0.28,3.9
41,20,1,1,6,16,266,472.1195327893365,472.8627595390426,"[43, 0, 211]",211,a,0.19803872995544225,1,colour,0.28,3.9
41,20,1,1,6,17,267,473.37078433076385,474.50286542030517,"[88, 0, 166]",166,l,0.6089172841748223,1,colour,0.28,3.9
41,20,1,1,6,18,268,475.0114282045979,476.1988004264422,"[60, 0, 194]",194,a,0.6640752969542518,0,colour,0.28,3.9
41,20,1,1,6,19,269,476.7160069301026,477.5427690227516,"[83, 0, 171]",171,l,0.31091750552877784,1,colour,0.28,3.9
41,20,1,1,6,20,270,478.0523467459716,478.8948102630675,"[74, 0, 180]",180,l,0.31919297971762717,1,colour,0.28,3.9
41,20,1,1,6,21,271,479.4025054065278,480.4067368786782,"[50, 0, 204]",204,a,0.480623803450726,1,colour,0.28,3.9
41,20,1,1,6,22,272,480.91850004857406,481.74278288614005,"[46, 0, 208]",208,a,0.3011859859107062,1,colour,0.28,3.9
41,20,1,1,6,23,273,482.25638373743277,483.0627663130872,"[85, 0, 169]",169,l,0.2875936022028327,1,colour,0.28,3.9
41,20,1,1,6,24,274,483.57476697163656,484.1747372756945,"[57, 0, 197]",197,a,0.07653513946570456,0,colour,0.28,3.9
41,20,1,1,6,25,275,484.68423307908233,485.470762314857,"[19, 0, 235]",235,a,0.2635347838513553,1,colour,0.28,3.9
41,20,1,1,6,26,276,485.9812454879284,487.73480909736827,"[99, 0, 155]",155,l,1.2303344258107245,1,colour,0.28,3.9
41,20,1,1,6,27,277,488.24618039128836,489.0628533528652,"[53, 0, 201]",201,a,0.29199836624320596,0,colour,0.28,3.9
41,20,1,1,6,28,278,489.57575788605027,491.6307508775499,"[62, 0, 192]",192,l,1.5317366325762123,1,colour,0.28,3.9
41,20,1,1,6,29,279,492.1360998854507,493.05471454293,"[65, 0, 189]",189,l,0.39881428971420974,1,colour,0.28,3.9
41,20,1,1,6,30,280,493.57428411743604,494.5187456504209,"[82, 0, 172]",172,l,0.42103503295220435,1,colour,0.28,3.9
41,20,1,1,6,31,281,495.02986921579577,495.7027099302504,"[22, 0, 232]",232,a,0.15002152358647436,1,colour,0.28,3.9
41,20,1,1,6,32,282,496.2174816832412,496.9027509689331,"[77, 0, 177]",177,l,0.16184475494083017,1,colour,0.28,3.9
41,20,1,1,6,33,283,497.4193489818135,498.046776200179,"[80, 0, 174]",174,l,0.10412674874532968,1,colour,0.28,3.9
41,20,1,1,6,34,284,498.559972178773,500.0946988837095,"[91, 0, 163]",163,l,1.0112958726240322,1,colour,0.28,3.9
41,20,1,1,6,35,285,500.60708708583843,501.75077361031435,"[86, 0, 168]",168,l,0.6205313837854192,1,colour,0.28,3.9
41,20,1,1,6,36,286,502.25252917502075,503.07083108020015,"[14, 0, 240]",240,a,0.300142296240665,1,colour,0.28,3.9
41,20,1,1,6,37,287,503.57705954427365,504.3507096498506,"[4, 0, 250]",250,a,0.2507147304713726,1,colour,0.28,3.9
41,20,1,1,6,38,288,504.8584079439752,505.39874339767266,"[9, 0, 245]",245,a,0.01709839317481965,1,colour,0.28,3.9
41,20,1,1,6,39,289,505.9053097808501,507.7586958054453,"[29, 0, 225]",225,a,1.3382141250185668,1,colour,0.28,3.9
41,20,1,1,6,40,290,508.27766279678326,509.17476917721797,"[10, 0, 244]",244,a,0.3737984277540818,1,colour,0.28,3.9
41,20,1,1,6,41,291,509.68405387958046,510.54271152138244,"[72, 0, 182]",182,l,0.3353374799480662,1,colour,0.28,3.9
41,20,1,1,6,42,292,511.05916459928267,511.6706903199665,"[76, 0, 178]",178,l,0.088132303673774,1,colour,0.28,3.9
41,20,1,1,6,43,293,512.1872761235572,513.0210490537575,"[68, 0, 186]",186,l,0.31596226803958416,1,colour,0.28,3.9
41,20,1,1,6,44,294,513.5364627742674,514.2226824084064,"[81, 0, 173]",173,l,0.15396863978821784,1,colour,0.28,3.9
41,20,1,1,6,45,295,514.7412004163489,516.2626419368898,"[67, 0, 187]",187,l,1.0038915839977562,1,colour,0.28,3.9
41,20,1,1,6,46,296,516.7717935196124,519.2466636393219,"[55, 0, 199]",199,a,1.9585072323679924,0,colour,0.28,3.9
41,20,1,1,6,47,297,519.7972879034933,520.8626480808016,"[13, 0, 241]",241,a,0.5357105301227421,1,colour,0.28,3.9
41,20,1,1,6,48,298,521.3824870453682,521.9746379479766,"[75, 0, 179]",179,l,0.06984922429546714,1,colour,0.28,3.9
41,20,1,1,6,49,299,522.4810235562036,523.9186816111906,"[15, 0, 239]",239,a,0.9189068906707689,1,colour,0.28,3.9
41,20,1,1,6,50,300,524.4271490849787,525.1026258049533,"[63, 0, 191]",191,l,0.1523219731170684,1,colour,0.28,3.9
41,20,1,1,7,1,301,529.8169151763432,531.2946765132947,"[14, 0, 240]",240,a,0.9531710245646536,1,colour,0.14,3.9
41,20,1,1,7,2,302,531.8033747802256,534.6387073372025,"[52, 0, 202]",202,l,2.310572103364393,1,colour,0.14,3.9
41,20,1,1,7,3,303,535.1527500827797,536.0706648775376,"[92, 0, 162]",162,l,0.3946139313047752,1,colour,0.14,3.9
41,20,1,1,7,4,304,536.5903596947901,537.3186081197346,"[70, 0, 184]",184,l,0.20866703509818763,1,colour,0.14,3.9
41,20,1,1,7,5,305,537.8284839836415,539.37482321274,"[37, 0, 217]",217,a,1.0236346472520381,1,colour,0.14,3.9
41,20,1,1,7,6,306,539.8886934540933,540.7426576433936,"[80, 0, 174]",174,l,0.3308830914320424,1,colour,0.14,3.9
41,20,1,1,7,7,307,541.2637876323424,541.9746769386111,"[77, 0, 177]",177,l,0.18782120535615832,1,colour,0.14,3.9
41,20,1,1,7,8,308,542.4907964296872,543.0788241673727,"[95, 0, 159]",159,l,0.06918205053079873,1,colour,0.14,3.9
41,20,1,1,7,9,309,543.6027154047042,544.4626479232684,"[83, 0, 171]",171,l,0.34722215111833066,1,colour,0.14,3.9
41,20,1,1,7,10,310,544.9830760802142,545.9506575047271,"[65, 0, 189]",189,l,0.446313195861876,1,colour,0.14,3.9
41,20,1,1,7,11,311,546.4654355591629,547.2226008824073,"[21, 0, 233]",233,a,0.23444892594125122,1,colour,0.14,3.9
41,20,1,1,7,12,312,547.7321967224125,549.6545879611513,"[50, 0, 204]",204,a,1.3990297231357545,1,colour,0.14,3.9
41,20,1,1,7,13,313,550.1698492636206,551.0465721883811,"[61, 0, 193]",193,l,0.3532779139932245,1,colour,0.14,3.9
41,20,1,1,7,14,314,551.5604388852371,552.5185743278125,"[96, 0, 158]",158,l,0.43519967363681644,1,colour,0.14,3.9
41,20,1,1,7,15,315,553.0303052023519,553.7825632151216,"[87, 0, 167]",167,l,0.2206584382802248,1,colour,0.14,3.9
41,20,1,1,7,16,316,554.2941574254073,555.0946165700443,"[74, 0, 180]",180,l,0.2800924276234582,1,colour,0.14,3.9
41,20,1,1,7,17,317,555.6106549289543,556.3745565795107,"[88, 0, 166]",166,l,0.23091298423241824,1,colour,0.14,3.9
41,20,1,1,7,18,318,556.8952167113312,558.1347371812444,"[73, 0, 181]",181,l,0.7082446361891925,1,colour,0.14,3.9
41,20,1,1,7,19,319,558.6587678396609,559.422587176552,"[99, 0, 155]",155,l,0.24496892362367362,1,colour,0.14,3.9
41,20,1,1,7,20,320,559.9444804374361,560.4945781307761,"[86, 0, 168]",168,l,0.026930737192742527,1,colour,0.14,3.9
41,20,1,1,7,21,321,561.0179077448556,561.9265372464433,"[85, 0, 169]",169,l,0.3893761846702546,1,colour,0.14,3.9
41,20,1,1,7,22,322,562.4340898179216,563.2065410589566,"[90, 0, 164]",164,l,0.2515410176711157,1,colour,0.14,3.9
41,20,1,1,7,23,323,563.7167489343556,564.6305917641148,"[64, 0, 190]",190,l,0.38123383023776114,1,colour,0.14,3.9
41,20,1,1,7,24,324,565.139438904589,567.3906136461301,"[58, 0, 196]",196,a,1.7340158931910992,0,colour,0.14,3.9
41,20,1,1,7,25,325,567.9141819304787,569.3345730265137,"[81, 0, 173]",173,l,0.9032862044405192,1,colour,0.14,3.9
41,20,1,1,7,26,326,569.8513376358896,571.6705276619177,"[60, 0, 194]",194,a,1.301324225612916,0,colour,0.14,3.9
41,20,1,1,7,27,327,572.1856389093446,574.05454912805,"[63, 0, 191]",191,a,1.3456979704787955,0,colour,0.14,3.9
41,20,1,1,7,28,328,574.5750556600979,576.0865521968808,"[62, 0, 192]",192,l,0.9881767687620595,1,colour,0.14,3.9
41,20,1,1,7,29,329,576.5940838945098,577.2305104745319,"[67, 0, 187]",187,l,0.1130756982602179,1,colour,0.14,3.9
41,20,1,1,7,30,330,577.7405096119037,578.9505298988661,"[59, 0, 195]",195,a,0.6921446403721347,0,colour,0.14,3.9
41,20,1,1,7,31,331,579.466582436231,580.4865389636252,"[48, 0, 206]",206,a,0.49680217425338924,1,colour,0.14,3.9
41,20,1,1,7,32,332,580.9978436977835,581.7664963023271,"[54, 0, 200]",200,a,0.24538718722760677,0,colour,0.14,3.9
41,20,1,1,7,33,333,582.2729236582527,583.0864639754873,"[68, 0, 186]",186,l,0.29015753406565636,1,colour,0.14,3.9
41,20,1,1,7,34,334,583.6090173209086,586.2064851329196,"[56, 0, 198]",198,a,2.030459195841104,0,colour,0.14,3.9
41,20,1,1,7,35,335,586.7176567473216,587.6304889705498,"[19, 0, 235]",235,a,0.39654534799046814,1,colour,0.14,3.9
41,20,1,1,7,36,336,588.1356768957339,589.2624879434006,"[69, 0, 185]",185,l,0.6008032865356654,1,colour,0.14,3.9
41,20,1,1,7,37,337,589.7788988798857,590.3264456380857,"[93, 0, 161]",161,l,0.02402731077745557,1,colour,0.14,3.9
41,20,1,1,7,38,338,590.8416868544882,591.7424422100885,"[72, 0, 182]",182,l,0.37738241849001497,1,colour,0.14,3.9
41,20,1,1,7,39,339,592.2577039063908,594.0225169146433,"[84, 0, 170]",170,l,1.241814224049449,1,colour,0.14,3.9
41,20,1,1,7,40,340,594.5335467448458,595.3504768873099,"[89, 0, 165]",165,l,0.29357020230963826,1,colour,0.14,3.9
41,20,1,1,7,41,341,595.8616969448049,597.1105027078884,"[94, 0, 160]",160,l,0.7307461908785626,1,colour,0.14,3.9
41,20,1,1,7,42,342,597.6058799504535,598.694426185335,"[42, 0, 212]",212,a,0.5712798667373136,1,colour,0.14,3.9
41,20,1,1,7,43,343,599.2092479566345,600.1105168862268,"[75, 0, 179]",179,l,0.37784991262014955,1,colour,0.14,3.9
41,20,1,1,7,44,344,600.631282962393,602.3824681408005,"[57, 0, 197]",197,a,1.2277838845038787,0,colour,0.14,3.9
41,20,1,1,7,45,345,602.9021645335015,603.990481550456,"[24, 0, 230]",230,a,0.5717579947086051,1,colour,0.14,3.9
41,20,1,1,7,46,346,604.5118041296955,606.3345001651905,"[55, 0, 199]",199,a,1.2994384949561208,0,colour,0.14,3.9
41,20,1,1,7,47,347,606.8558408613317,607.8704139194451,"[51, 0, 203]",203,a,0.4919216453563422,0,colour,0.14,3.9
41,20,1,1,7,48,348,608.3879032038385,609.4304987378418,"[91, 0, 163]",163,l,0.51943369791843,1,colour,0.14,3.9
41,20,1,1,7,49,349,609.9503503055312,610.6864618487889,"[76, 0, 178]",178,l,0.2126015480607748,1,colour,0.14,3.9
41,20,1,1,7,50,350,611.2005321634933,612.1184548351448,"[98, 0, 156]",156,l,0.3870686460286379,1,colour,0.14,3.9
41,20,1,1,8,1,351,617.1041192656849,618.5984756617108,"[64, 0, 190]",190,l,0.9728798232972622,1,colour,0.06,3.9
41,20,1,1,8,2,352,619.1202133537736,620.4624167361762,"[46, 0, 208]",208,a,0.8216354104224592,1,colour,0.06,3.9
41,20,1,1,8,3,353,620.973160241032,622.214405358769,"[93, 0, 161]",161,l,0.7233781358227134,1,colour,0.06,3.9
41,20,1,1,8,4,354,622.7298765807645,624.518597170827,"[59, 0, 195]",195,a,1.2747227428480983,0,colour,0.06,3.9
41,20,1,1,8,5,355,625.0376007899176,625.7744444912532,"[70, 0, 184]",184,l,0.21975377586204559,1,colour,0.06,3.9
41,20,1,1,8,6,356,626.2913040173007,627.52646462142,"[52, 0, 202]",202,a,0.716378326062113,0,colour,0.06,3.9
41,20,1,1,8,7,357,628.0365563125815,629.0943932598457,"[65, 0, 189]",189,l,0.5389770817710087,1,colour,0.06,3.9
41,20,1,1,8,8,358,629.6035846209852,630.4944166542264,"[79, 0, 175]",175,l,0.37277482415083796,1,colour,0.06,3.9
41,20,1,1,8,9,359,631.0132312276401,632.4703700450482,"[85, 0, 169]",169,l,0.9365212209522724,1,colour,0.06,3.9
41,20,1,1,8,10,360,632.9798705745488,634.0980166351655,"[55, 0, 199]",199,a,0.5922938683070242,0,colour,0.06,3.9
41,20,1,1,8,11,361,634.6113599118544,635.5184861065354,"[97, 0, 157]",157,l,0.38376113458070904,1,colour,0.06,3.9
41,20,1,1,8,12,362,636.0250572158257,638.5583790751407,"[54, 0, 200]",200,a,2.0074338271515444,0,colour,0.06,3.9
41,20,1,1,8,13,363,639.0680028782226,639.6383544519776,"[75, 0, 179]",179,l,0.047083399491384625,1,colour,0.06,3.9
41,20,1,1,8,14,364,640.1461579027819,640.6783403679729,"[83, 0, 171]",171,l,0.009049773681908846,1,colour,0.06,3.9
41,20,1,1,8,15,365,641.1930928225629,642.3103334332118,"[94, 0, 160]",160,l,0.5939980363473296,1,colour,0.06,3.9
41,20,1,1,8,16,366,642.8182786682155,644.4865184837254,"[44, 0, 210]",210,a,1.1452721450477839,1,colour,0.06,3.9
41,20,1,1,8,17,367,644.999729822157,646.2383357837098,"[50, 0, 204]",204,a,0.7152952519245446,1,colour,0.06,3.9
41,20,1,1,8,18,368,646.7498165665893,647.7104103905149,"[69, 0, 185]",185,l,0.44592959072906524,1,colour,0.06,3.9
41,20,1,1,8,19,369,648.225173085113,649.7025878382847,"[80, 0, 174]",174,l,0.9565005913609639,1,colour,0.06,3.9
41,20,1,1,8,20,370,650.210613417672,651.0783157133264,"[91, 0, 163]",163,l,0.34440379519946873,1,colour,0.06,3.9
41,20,1,1,8,21,371,651.5856717560673,652.6223517359467,"[73, 0, 181]",181,l,0.5132881383178756,1,colour,0.06,3.9
41,20,1,1,8,22,372,653.132699820213,653.9503597577568,"[78, 0, 176]",176,l,0.29231580544728786,1,colour,0.06,3.9
41,20,1,1,8,23,373,654.4657912013354,655.2783122474793,"[74, 0, 180]",180,l,0.2954976804321632,1,colour,0.06,3.9
41,20,1,1,8,24,374,655.7959346516291,657.6063490200322,"[68, 0, 186]",186,a,1.2782882229657844,0,colour,0.06,3.9
41,20,1,1,8,25,375,658.117217373685,659.9583040082362,"[63, 0, 191]",191,l,1.3226418817648664,1,colour,0.06,3.9
41,20,1,1,8,26,376,660.4736113905674,661.0703714628471,"[89, 0, 165]",165,l,0.07867568777874112,1,colour,0.06,3.9
41,20,1,1,8,27,377,661.5864673232427,662.8623282785993,"[30, 0, 224]",224,a,0.7580357210244983,1,colour,0.06,3.9
41,20,1,1,8,28,378,663.3743832877371,664.062328751199,"[96, 0, 158]",158,l,0.16204600979108363,1,colour,0.06,3.9
41,20,1,1,8,29,379,664.583146814839,665.8382915154798,"[66, 0, 188]",188,l,0.7379425293765962,1,colour,0.06,3.9
41,20,1,1,8,30,380,666.3472958001075,667.7662820506375,"[56, 0, 198]",198,a,0.9019006573362276,0,colour,0.06,3.9
41,20,1,1,8,31,381,668.2839729837142,669.1502991843736,"[81, 0, 173]",173,l,0.33708772773388773,1,colour,0.06,3.9
41,20,1,1,8,32,382,669.6737729458837,671.1342881977325,"[98, 0, 156]",156,l,0.9412280643591657,1,colour,0.06,3.9
41,20,1,1,8,33,383,671.6565764852567,672.574252216029,"[99, 0, 155]",155,l,0.3997232844121754,1,colour,0.06,3.9
41,20,1,1,8,34,384,673.0889381107409,673.9822789375903,"[92, 0, 162]",162,l,0.3689868215005845,1,colour,0.06,3.9
41,20,1,1,8,35,385,674.4963342862902,675.310304288636,"[76, 0, 178]",178,l,0.2868047304218635,1,colour,0.06,3.9
41,20,1,1,8,36,386,675.8191809675191,676.774290497764,"[82, 0, 172]",172,l,0.4370062412926927,1,colour,0.06,3.9
41,20,1,1,8,37,387,677.2907144310884,678.0942290264647,"[86, 0, 168]",168,l,0.2813350090291351,1,colour,0.06,3.9
41,20,1,1,8,38,388,678.6099129247013,681.1662357343594,"[62, 0, 192]",192,l,2.037199461599812,1,colour,0.06,3.9
41,20,1,1,8,39,389,681.6854213098995,682.3183048589854,"[72, 0, 182]",182,l,0.11385590548161417,1,colour,0.06,3.9
41,20,1,1,8,40,390,682.8344475869089,688.622245397768,"[57, 0, 197]",197,a,5.270444796886295,0,colour,0.06,3.9
41,20,1,1,8,41,391,689.1455442919396,690.5902880149661,"[87, 0, 167]",167,l,0.9211195126408711,1,colour,0.06,3.9
41,20,1,1,8,42,392,691.1027242662385,691.8222423257539,"[67, 0, 187]",187,l,0.20148093649186194,1,colour,0.06,3.9
41,20,1,1,8,43,393,692.3411463020602,693.6622179230908,"[51, 0, 203]",203,a,0.8034401584882289,0,colour,0.06,3.9
41,20,1,1,8,44,394,694.1760141216218,695.1982139910106,"[71, 0, 183]",183,l,0.5049417719710618,1,colour,0.06,3.9
41,20,1,1,8,45,395,695.7169450691435,696.2462201695889,"[95, 0, 159]",159,l,0.005829695845022798,1,colour,0.06,3.9
41,20,1,1,8,46,396,696.7640237425221,699.4302517969627,"[53, 0, 201]",201,l,2.1428464527707547,1,colour,0.06,3.9
41,20,1,1,8,47,397,699.9376893655863,700.7502127748448,"[61, 0, 193]",193,l,0.2892981640761718,1,colour,0.06,3.9
41,20,1,1,8,48,398,701.2658403532114,702.5661638182355,"[60, 0, 194]",194,a,0.778357736649923,0,colour,0.06,3.9
41,20,1,1,8,49,399,703.0771814392647,704.4462470299331,"[77, 0, 177]",177,l,0.8458289239788428,1,colour,0.06,3.9
41,20,1,1,8,50,400,704.969589247019,706.1742378800409,"[90, 0, 164]",164,l,0.6885582865215838,1,colour,0.06,3.9
41,20,1,1,9,1,401,711.1239139226964,717.2702077020658,"[64, 0, 190]",190,l,5.62784114968963,1,colour,0.06,3.9
41,20,1,1,9,2,402,717.7823509324808,719.2301918537123,"[55, 0, 199]",199,l,0.9245341500500217,1,colour,0.06,3.9
41,20,1,1,9,3,403,719.7387770871865,720.4782209541881,"[65, 0, 189]",189,l,0.21602603164501488,1,colour,0.06,3.9
41,20,1,1,9,4,404,720.9888888407731,722.3341551568592,"[51, 0, 203]",203,a,0.8218571452889591,0,colour,0.06,3.9
41,20,1,1,9,5,405,722.8484487817623,724.0461291125976,"[73, 0, 181]",181,l,0.6743251167936251,1,colour,0.06,3.9
41,20,1,1,9,6,406,724.5674394826638,725.1901830945862,"[90, 0, 164]",164,l,0.07945431966800243,1,colour,0.06,3.9
41,20,1,1,9,7,407,725.7044845964992,737.5741553300759,"[58, 0, 196]",196,l,11.352732438477688,1,colour,0.06,3.9
41,20,1,1,9,8,408,738.0944105890812,739.0860606781207,"[84, 0, 170]",170,l,0.4584160572849214,1,colour,0.06,3.9
41,20,1,1,9,9,409,739.5979632692179,740.830118834856,"[78, 0, 176]",176,l,0.7130156762432307,1,colour,0.06,3.9
41,20,1,1,9,10,410,741.3496218496002,743.1500951726921,"[72, 0, 182]",182,l,1.281992336618714,1,colour,0.06,3.9
41,20,1,1,9,11,411,743.6686096360208,745.5340768604074,"[50, 0, 204]",204,l,1.3419280846137553,0,colour,0.06,3.9
41,20,1,1,9,12,412,746.0501061609248,747.0861248748843,"[94, 0, 160]",160,l,0.5126375061227009,1,colour,0.06,3.9
41,20,1,1,9,13,413,747.597079874482,748.4300635389518,"[68, 0, 186]",186,l,0.30954534909687936,1,colour,0.06,3.9
41,20,1,1,9,14,414,748.9409401634475,749.9580645504175,"[77, 0, 177]",177,l,0.4914825080195442,1,colour,0.06,3.9
41,20,1,1,9,15,415,750.4746369633358,751.8061104286462,"[8, 0, 246]",246,a,0.808093438972719,1,colour,0.06,3.9
41,20,1,1,9,16,416,752.3186006366741,753.286048547714,"[92, 0, 162]",162,l,0.4427595312008634,1,colour,0.06,3.9
41,20,1,1,9,17,417,753.8043952330481,754.6781257224502,"[98, 0, 156]",156,l,0.3505682594841346,1,colour,0.06,3.9
41,20,1,1,9,18,418,755.1906911549158,755.9740507248789,"[76, 0, 178]",178,l,0.2650376969249919,1,colour,0.06,3.9
41,20,1,1,9,19,419,756.4826052383287,757.3580131141935,"[80, 0, 174]",174,l,0.35194632364436984,1,colour,0.06,3.9
41,20,1,1,9,20,420,757.8735122991493,759.678074128693,"[59, 0, 195]",195,l,1.2796718009049073,1,colour,0.06,3.9
41,20,1,1,9,21,421,760.1904516969807,760.7660063590156,"[83, 0, 171]",171,l,0.052149429568089545,1,colour,0.06,3.9
41,20,1,1,9,22,422,761.2843951857649,763.5820527130272,"[91, 0, 163]",163,l,1.7779965806985274,1,colour,0.06,3.9
41,20,1,1,9,23,423,764.0938749596244,764.7100252100499,"[88, 0, 166]",166,l,0.1000126424478367,1,colour,0.06,3.9
41,20,1,1,9,24,424,765.2219384348718,766.422042882652,"[56, 0, 198]",198,l,0.6369058896088973,1,colour,0.06,3.9
41,20,1,1,9,25,425,766.9338296832284,768.733990687062,"[53, 0, 201]",201,a,1.287321061361581,0,colour,0.06,3.9
41,20,1,1,9,26,426,769.2516481433995,770.1419945657253,"[67, 0, 187]",187,l,0.36815895908512175,1,colour,0.06,3.9
41,20,1,1,9,27,427,770.6589710637927,771.5100223743357,"[69, 0, 185]",185,l,0.32772090879734606,1,colour,0.06,3.9
41,20,1,1,9,28,428,772.0186438414967,772.7580731362104,"[71, 0, 183]",183,l,0.21651912573724985,1,colour,0.06,3.9
41,20,1,1,9,29,429,773.2687268443406,774.5740466288989,"[19, 0, 235]",235,a,0.7818877707468346,1,colour,0.06,3.9
41,20,1,1,9,30,430,775.0931317738723,775.7260157167912,"[82, 0, 172]",172,l,0.10352928575593978,1,colour,0.06,3.9
41,20,1,1,9,31,431,776.2487317201449,777.2941117393784,"[96, 0, 158]",158,l,0.5131384771084413,1,colour,0.06,3.9
41,20,1,1,9,32,432,777.8112583785551,778.5179796216544,"[89, 0, 165]",165,l,0.17348012211732566,1,colour,0.06,3.9
41,20,1,1,9,33,433,779.036840668763,779.8300542442594,"[66, 0, 188]",188,l,0.2648462881334126,1,colour,0.06,3.9
41,20,1,1,9,34,434,780.3480996380094,781.4383000225062,"[95, 0, 159]",159,l,0.5722601473098621,1,colour,0.06,3.9
41,20,1,1,9,35,435,781.95828707295,785.4428997399518,"[60, 0, 194]",194,l,2.9638658893527463,1,colour,0.06,3.9
41,20,1,1,9,36,436,785.9670304351021,787.1419760549907,"[99, 0, 155]",155,l,0.6562460492132232,1,colour,0.06,3.9
41,20,1,1,9,37,437,787.6535753852222,789.3499680394307,"[62, 0, 192]",192,l,1.1788691051770002,1,colour,0.06,3.9
41,20,1,1,9,38,438,789.8712000342784,790.4859832481015,"[74, 0, 180]",180,l,0.09168675600085407,1,colour,0.06,3.9
41,20,1,1,9,39,439,791.0046320126858,792.02997673559,"[86, 0, 168]",168,l,0.5024826029548422,1,colour,0.06,3.9
41,20,1,1,9,40,440,792.5454105421668,793.3899189033546,"[52, 0, 202]",202,l,0.32670281908940524,1,colour,0.06,3.9
41,20,1,1,9,41,441,793.907504286035,798.7339682378806,"[54, 0, 200]",200,l,4.301178896683268,1,colour,0.06,3.9
41,20,1,1,9,42,442,799.2560363661032,800.3980021810858,"[79, 0, 175]",175,l,0.6223304683808237,1,colour,0.06,3.9
41,20,1,1,9,43,443,800.915427268832,801.5340012421366,"[87, 0, 167]",167,l,0.10099764913320541,1,colour,0.06,3.9
41,20,1,1,9,44,444,802.0443075788207,803.3099557356909,"[2, 0, 252]",252,a,0.7452101537492126,1,colour,0.06,3.9
41,20,1,1,9,45,445,803.8217433240497,804.8859924641438,"[81, 0, 173]",173,l,0.5422160642920062,1,colour,0.06,3.9
41,20,1,1,9,46,446,805.4048818680458,806.1979922561441,"[93, 0, 161]",161,l,0.2625497770495713,1,colour,0.06,3.9
41,20,1,1,9,47,447,806.7194113275036,807.5499649674166,"[85, 0, 169]",169,l,0.29858266946393996,1,colour,0.06,3.9
41,20,1,1,9,48,448,808.065559462877,810.149911640794,"[61, 0, 193]",193,l,1.5658219606848434,1,colour,0.06,3.9
41,20,1,1,9,49,449,810.6669290987775,811.1979087609798,"[63, 0, 191]",191,l,0.012739708879962564,1,colour,0.06,3.9
41,20,1,1,9,50,450,811.718619698775,812.4219349690247,"[75, 0, 179]",179,l,0.18603708676528186,1,colour,0.06,3.9
41,20,1,1,10,1,451,817.5990601278609,819.0059584832052,"[89, 0, 165]",165,l,0.8741664759581909,1,colour,0.06,3.9
41,20,1,1,10,2,452,819.5184994972078,820.6379109822446,"[93, 0, 161]",161,l,0.6020210556453094,1,colour,0.06,3.9
41,20,1,1,10,3,453,821.1620188343804,821.9418448257493,"[58, 0, 196]",196,l,0.25462206813972443,1,colour,0.06,3.9
41,20,1,1,10,4,454,822.4629956885474,823.2458334136754,"[70, 0, 184]",184,l,0.2641724190907553,1,colour,0.06,3.9
41,20,1,1,10,5,455,823.7630485818954,824.5339134146925,"[90, 0, 164]",164,l,0.25359413237310946,1,colour,0.06,3.9
41,20,1,1,10,6,456,825.0451027521631,825.717963946634,"[74, 0, 180]",180,l,0.1546779548516497,1,colour,0.06,3.9
41,20,1,1,10,7,457,826.239555915934,827.4058936563088,"[97, 0, 157]",157,l,0.6479012583149597,1,colour,0.06,3.9
41,20,1,1,10,8,458,827.9275222532451,828.9818732771091,"[98, 0, 156]",156,l,0.5207282669143751,1,colour,0.06,3.9
41,20,1,1,10,9,459,829.4936714991927,832.0939521533437,"[64, 0, 190]",190,a,2.0672277910634875,0,colour,0.06,3.9
41,20,1,1,10,10,460,832.611021598801,833.6138324716594,"[87, 0, 167]",167,l,0.469032940804027,1,colour,0.06,3.9
41,20,1,1,10,11,461,834.1291024386883,837.949873359059,"[54, 0, 200]",200,l,3.2994605503045022,1,colour,0.06,3.9
41,20,1,1,10,12,462,838.4653296148172,839.9979236483341,"[52, 0, 202]",202,a,1.0092510286485776,0,colour,0.06,3.9
41,20,1,1,10,13,463,840.5157642427366,841.2778916208772,"[81, 0, 173]",173,l,0.2390947233652696,1,colour,0.06,3.9
41,20,1,1,10,14,464,841.7971866853768,842.829802577151,"[80, 0, 174]",174,l,0.509210659423843,1,colour,0.06,3.9
41,20,1,1,10,15,465,843.3408072013408,844.7178257069318,"[23, 0, 231]",231,a,0.8536065778462216,1,colour,0.06,3.9
41,20,1,1,10,16,466,845.2246520279441,847.6219626169186,"[53, 0, 201]",201,a,1.879087571054697,0,colour,0.06,3.9
41,20,1,1,10,17,467,848.1418787752045,849.1417964615393,"[68, 0, 186]",186,l,0.4706736996304244,1,colour,0.06,3.9
41,20,1,1,10,18,468,849.6479906610912,850.637860963936,"[82, 0, 172]",172,l,0.4668155926046893,1,colour,0.06,3.9
41,20,1,1,10,19,469,851.1541312977206,851.949858392938,"[62, 0, 192]",192,l,0.27245577017311007,1,colour,0.06,3.9
41,20,1,1,10,20,470,852.4555059353588,853.1018412654521,"[69, 0, 185]",185,l,0.12307424494065344,1,colour,0.06,3.9
41,20,1,1,10,21,471,853.611834889045,855.6457937929081,"[25, 0, 229]",229,a,1.5106273205019534,1,colour,0.06,3.9
41,20,1,1,10,22,472,856.1650478974916,857.3578500623116,"[31, 0, 223]",223,a,0.674387738108635,1,colour,0.06,3.9
41,20,1,1,10,23,473,857.8790745740989,858.9018010144355,"[95, 0, 159]",159,l,0.4995933548780158,1,colour,0.06,3.9
41,20,1,1,10,24,474,859.4133456002455,860.3258044582326,"[86, 0, 168]",168,l,0.3892470035934821,1,colour,0.06,3.9
41,20,1,1,10,25,475,860.8358161987271,862.8698448131327,"[60, 0, 194]",194,a,1.5106336219469085,0,colour,0.06,3.9
41,20,1,1,10,26,476,863.3710568716051,864.6778118278598,"[71, 0, 183]",183,l,0.7837415997637436,1,colour,0.06,3.9
41,20,1,1,10,27,477,865.1993998587132,866.0777643300826,"[99, 0, 155]",155,l,0.3590056039392948,1,colour,0.06,3.9
41,20,1,1,10,28,478,866.5923935110914,867.4617672854802,"[78, 0, 176]",176,l,0.3461898829555139,1,colour,0.06,3.9
41,20,1,1,10,29,479,867.9830886832206,869.0377953493735,"[96, 0, 158]",158,l,0.5317598694236949,1,colour,0.06,3.9
41,20,1,1,10,30,480,869.5410561902681,870.5178571357392,"[76, 0, 178]",178,l,0.45343352225609124,1,colour,0.06,3.9
41,20,1,1,10,31,481,871.0337611935101,872.0298377082217,"[84, 0, 170]",170,l,0.47299187222961336,1,colour,0.06,3.9
41,20,1,1,10,32,482,872.5495065316791,873.125820133253,"[83, 0, 171]",171,l,0.05351528455503285,1,colour,0.06,3.9
41,20,1,1,10,33,483,873.6433547098422,874.3498506735777,"[72, 0, 182]",182,l,0.1832080971216783,1,colour,0.06,3.9
41,20,1,1,10,34,484,874.8621463221498,876.82975531579,"[66, 0, 188]",188,l,1.4450009039137512,1,colour,0.06,3.9
41,20,1,1,10,35,485,877.3393846326508,878.1577420700341,"[94, 0, 160]",160,l,0.2950754784978926,1,colour,0.06,3.9
41,20,1,1,10,36,486,878.6675509802299,879.4617377471877,"[75, 0, 179]",179,l,0.2709099280182272,1,colour,0.06,3.9
41,20,1,1,10,37,487,879.9802088876022,881.8777043868322,"[56, 0, 198]",198,l,1.3850352234439924,1,colour,0.06,3.9
41,20,1,1,10,38,488,882.386963883182,883.2697201217525,"[61, 0, 193]",193,l,0.35935021843761206,1,colour,0.06,3.9
41,20,1,1,10,39,489,883.7778126549674,886.1977409829851,"[55, 0, 199]",199,l,1.896617618505843,1,colour,0.06,3.9
41,20,1,1,10,40,490,886.7182203397388,887.3257449875819,"[77, 0, 177]",177,l,0.088517090305686,1,colour,0.06,3.9
41,20,1,1,10,41,491,887.8367677285569,888.6937787039205,"[57, 0, 197]",197,l,0.33857055485714227,1,colour,0.06,3.9
41,20,1,1,10,42,492,889.2144325340632,890.0136971464381,"[85, 0, 169]",169,l,0.27983997284900397,1,colour,0.06,3.9
41,20,1,1,10,43,493,890.523131116177,891.3177404789021,"[65, 0, 189]",189,l,0.27701689093373716,1,colour,0.06,3.9
41,20,1,1,10,44,494,891.8409318532795,893.6297123079421,"[59, 0, 195]",195,a,1.2704522799467668,0,colour,0.06,3.9
41,20,1,1,10,45,495,894.1517233285122,895.253702439717,"[50, 0, 204]",204,a,0.5838703083572909,1,colour,0.06,3.9
41,20,1,1,10,46,496,895.7656294491608,896.6616945029236,"[51, 0, 203]",203,a,0.37789205415174365,0,colour,0.06,3.9
41,20,1,1,10,47,497,897.1755820735125,899.2616971023381,"[88, 0, 166]",166,l,1.5628074699779972,1,colour,0.06,3.9
41,20,1,1,10,48,498,899.7758119215723,900.7097294322448,"[73, 0, 181]",181,l,0.4109088802943006,1,colour,0.06,3.9
41,20,1,1,10,49,499,901.22611988883,903.7176807719516,"[91, 0, 163]",163,l,1.9681741615058854,1,colour,0.06,3.9
41,20,1,1,10,50,500,904.2264046388445,904.9016954639228,"[67, 0, 187]",187,l,0.15192734031006694,1,colour,0.06,3.9
41,20,1,1,11,1,501,910.5094004927669,912.1576692085946,"[66, 0, 188]",188,l,1.1290421803714707,1,colour,0.06,3.8
41,20,1,1,11,2,502,912.678548712167,913.741667910479,"[90, 0, 164]",164,l,0.5459371131146327,1,colour,0.06,3.8
41,20,1,1,11,3,503,914.2568346901098,915.9737317103427,"[52, 0, 202]",202,a,1.1981304959626868,0,colour,0.06,3.8
41,20,1,1,11,4,504,916.4860565033741,918.437642695033,"[63, 0, 191]",191,l,1.4199208450736478,1,colour,0.06,3.8
41,20,1,1,11,5,505,918.9491577424342,919.493621087051,"[88, 0, 166]",166,l,0.021086075226776302,1,colour,0.06,3.8
41,20,1,1,11,6,506,920.0117338283453,921.11768289865,"[85, 0, 169]",169,l,0.582780932658352,1,colour,0.06,3.8
41,20,1,1,11,7,507,921.6391315084184,923.5576516431756,"[51, 0, 203]",203,a,1.3950770932715386,0,colour,0.06,3.8
41,20,1,1,11,8,508,924.0768919631373,925.1655890407274,"[41, 0, 213]",213,a,0.5654123618733138,1,colour,0.06,3.8
41,20,1,1,11,9,509,925.6864575165091,926.8216165058548,"[83, 0, 171]",171,l,0.6119164150441065,1,colour,0.06,3.8
41,20,1,1,11,10,510,927.3426641812548,928.6616027370328,"[91, 0, 163]",163,l,0.8022798907477409,1,colour,0.06,3.8
41,20,1,1,11,11,511,929.1835412901128,930.677649169811,"[80, 0, 174]",174,l,0.9735513292253017,1,colour,0.06,3.8
41,20,1,1,11,12,512,931.1989209430758,932.4296590600861,"[87, 0, 167]",167,l,0.710798328043893,1,colour,0.06,3.8
41,20,1,1,11,13,513,932.9429527121829,934.1415916620754,"[29, 0, 225]",225,a,0.6800650159129873,1,colour,0.06,3.8
41,20,1,1,11,14,514,934.6631245546741,936.1736132416409,"[60, 0, 194]",194,l,0.9782164249336347,1,colour,0.06,3.8
41,20,1,1,11,15,515,936.6949669347377,937.773609933327,"[74, 0, 180]",180,l,0.5471214054850861,1,colour,0.06,3.8
41,20,1,1,11,16,516,938.2813775442773,939.6776298714103,"[64, 0, 190]",190,l,0.8728849039180204,1,colour,0.06,3.8
41,20,1,1,11,17,517,940.1877999376738,941.2456250695977,"[75, 0, 179]",179,l,0.5345124531304464,1,colour,0.06,3.8
41,20,1,1,11,18,518,941.7543012812966,942.6135579615366,"[72, 0, 182]",182,l,0.3361649486469105,1,colour,0.06,3.8
41,20,1,1,11,19,519,943.1294108194998,944.1095925316913,"[86, 0, 168]",168,l,0.4571167620597407,1,colour,0.06,3.8
41,20,1,1,11,20,520,944.6295520128915,945.2935745345894,"[98, 0, 156]",156,l,0.14091739931609482,1,colour,0.06,3.8
41,20,1,1,11,21,521,945.8015150434803,947.0535530936904,"[53, 0, 201]",201,l,0.7262425716035068,1,colour,0.06,3.8
41,20,1,1,11,22,522,947.5737662111642,948.3815307894256,"[94, 0, 160]",160,l,0.2844680472044274,1,colour,0.06,3.8
41,20,1,1,11,23,523,948.9019065649481,949.7655400463846,"[77, 0, 177]",177,l,0.3403085934696719,1,colour,0.06,3.8
41,20,1,1,11,24,524,950.277011376922,950.8055555007886,"[82, 0, 172]",172,l,0.003909306833520532,1,colour,0.06,3.8
41,20,1,1,11,25,525,951.3283353070728,952.181562218233,"[65, 0, 189]",189,l,0.33022812695708126,1,colour,0.06,3.8
41,20,1,1,11,26,526,952.7005028220592,953.5575543633895,"[79, 0, 175]",175,l,0.3338841913500801,1,colour,0.06,3.8
41,20,1,1,11,27,527,954.0757557199104,954.8215208015172,"[93, 0, 161]",161,l,0.2224819412222132,1,colour,0.06,3.8
41,20,1,1,11,28,528,955.3414562580874,958.6215266303625,"[55, 0, 199]",199,a,2.7568116502370685,0,colour,0.06,3.8
41,20,1,1,11,29,529,959.1364980628714,960.1495402448345,"[81, 0, 173]",173,l,0.49018990818876773,1,colour,0.06,3.8
41,20,1,1,11,30,530,960.6678164318437,961.733580694301,"[95, 0, 159]",159,l,0.5436539928195998,1,colour,0.06,3.8
41,20,1,1,11,31,531,962.2461543974932,964.8215483706445,"[56, 0, 198]",198,a,2.055269864620641,0,colour,0.06,3.8
41,20,1,1,11,32,532,965.3401211231248,966.5335546217393,"[76, 0, 178]",178,l,0.6701306659961119,1,colour,0.06,3.8
41,20,1,1,11,33,533,967.0457502335776,967.7735736996401,"[69, 0, 185]",185,l,0.20255495223682374,1,colour,0.06,3.8
41,20,1,1,11,34,534,968.2822022560285,971.8614759977208,"[59, 0, 195]",195,a,3.05951394001022,0,colour,0.06,3.8
41,20,1,1,11,35,535,972.3799711626489,973.4776077372953,"[68, 0, 186]",186,l,0.5744849785696715,1,colour,0.06,3.8
41,20,1,1,11,36,536,973.9893547595711,974.7815084977774,"[99, 0, 155]",155,l,0.26885602553375065,1,colour,0.06,3.8
41,20,1,1,11,37,537,975.3019039655337,976.2055024892325,"[67, 0, 187]",187,l,0.3801223991904408,1,colour,0.06,3.8
41,20,1,1,11,38,538,976.7108660694212,978.517941418686,"[58, 0, 196]",196,a,1.2743548915022984,0,colour,0.06,3.8
41,20,1,1,11,39,539,979.0376114236424,980.4695087056607,"[61, 0, 193]",193,a,0.9139003311283886,0,colour,0.06,3.8
41,20,1,1,11,40,540,980.9871535589918,982.0694352929713,"[97, 0, 157]",157,l,0.5644084505038336,1,colour,0.06,3.8
41,20,1,1,11,41,541,982.5833421619609,983.4294515036745,"[71, 0, 183]",183,l,0.32846724533010274,1,colour,0.06,3.8
41,20,1,1,11,42,542,983.945497345645,985.1814495784929,"[62, 0, 192]",192,a,0.7170368351507932,0,colour,0.06,3.8
41,20,1,1,11,43,543,985.6959385506343,986.9255396367516,"[92, 0, 162]",162,l,0.7041525851236656,1,colour,0.06,3.8
41,20,1,1,11,44,544,987.4434948400594,988.6295019945828,"[25, 0, 229]",229,a,0.6523741575656459,1,colour,0.06,3.8
41,20,1,1,11,45,545,989.1461760195671,990.9894890607102,"[50, 0, 204]",204,a,1.3179098323453218,1,colour,0.06,3.8
41,20,1,1,11,46,546,991.5101397401886,992.4054371897364,"[73, 0, 181]",181,l,0.36188933812081814,1,colour,0.06,3.8
41,20,1,1,11,47,547,992.9232911748113,993.9254683507606,"[89, 0, 165]",165,l,0.48340435011778027,1,colour,0.06,3.8
41,20,1,1,11,48,548,994.4411943905288,995.6454566614702,"[57, 0, 197]",197,a,0.6861554372590035,0,colour,0.06,3.8
41,20,1,1,11,49,549,996.168101378833,997.3189948756481,"[54, 0, 200]",200,a,0.6396336610196158,0,colour,0.06,3.8
41,20,1,1,11,50,550,997.8344050515443,998.733462146949,"[84, 0, 170]",170,l,0.37568494596052915,1,colour,0.06,3.8
41,20,1,1,12,1,551,1004.3182548405603,1007.5894093464594,"[56, 0, 198]",198,l,2.7550759747391567,1,colour,0.06,3.8
41,20,1,1,12,2,552,1008.1086862940574,1008.7813974334858,"[96, 0, 158]",158,l,0.14940948830917478,1,colour,0.06,3.8
41,20,1,1,12,3,553,1009.2962841892149,1010.5654324478237,"[2, 0, 252]",252,a,0.745987210306339,1,colour,0.06,3.8
41,20,1,1,12,4,554,1011.0859267708147,1012.3093941125553,"[93, 0, 161]",161,l,0.699695439543575,1,colour,0.06,3.8
41,20,1,1,12,5,555,1012.8157690869411,1013.7493986969348,"[74, 0, 180]",180,l,0.41025824821554124,1,colour,0.06,3.8
41,20,1,1,12,6,556,1014.2689225854119,1017.7334011009661,"[57, 0, 197]",197,l,2.9410016033798456,1,colour,0.06,3.8
41,20,1,1,12,7,557,1018.2446282475721,1018.8373671609443,"[73, 0, 181]",181,l,0.06832464970648289,1,colour,0.06,3.8
41,20,1,1,12,8,558,1019.3553227580851,1022.5333510037744,"[52, 0, 202]",202,l,2.6549069756874815,1,colour,0.06,3.8
41,20,1,1,12,9,559,1023.0491479357006,1023.9973368190695,"[63, 0, 191]",191,l,0.42512353940401226,1,colour,0.06,3.8
41,20,1,1,12,10,560,1024.5181836334523,1025.413378683268,"[55, 0, 199]",199,l,0.3718926110304892,1,colour,0.06,3.8
41,20,1,1,12,11,561,1025.9201443521306,1027.1413715026574,"[98, 0, 156]",156,l,0.6978628780925646,1,colour,0.06,3.8
41,20,1,1,12,12,562,1027.6504187164828,1028.7013527399395,"[66, 0, 188]",188,l,0.5334597051842138,1,colour,0.06,3.8
41,20,1,1,12,13,563,1029.2229340753984,1029.821361688082,"[71, 0, 183]",183,l,0.07514289685059339,1,colour,0.06,3.8
41,20,1,1,12,14,564,1030.3324368104804,1031.4773895470425,"[78, 0, 176]",176,l,0.6216077625285834,1,colour,0.06,3.8
41,20,1,1,12,15,565,1031.97730585502,1033.4054056821624,"[65, 0, 189]",189,l,0.9165154630318284,1,colour,0.06,3.8
41,20,1,1,12,16,566,1033.9185945714125,1034.8454031773144,"[92, 0, 162]",162,l,0.4033604443538934,1,colour,0.06,3.8
41,20,1,1,12,17,567,1035.3562187557109,1036.1653889673762,"[76, 0, 178]",178,l,0.2857665546471253,1,colour,0.06,3.8
41,20,1,1,12,18,568,1036.684522555326,1037.3653799876338,"[89, 0, 165]",165,l,0.1609357602428645,1,colour,0.06,3.8
41,20,1,1,12,19,569,1037.8894015876576,1038.4933552416041,"[82, 0, 172]",172,l,0.08046610781457275,1,colour,0.06,3.8
41,20,1,1,12,20,570,1039.0145793595584,1039.5733629136812,"[94, 0, 160]",160,l,0.03548662911634892,1,colour,0.06,3.8
41,20,1,1,12,21,571,1040.0870157525642,1041.6613085346762,"[7, 0, 247]",247,a,1.0482822640333325,1,colour,0.06,3.8
41,20,1,1,12,22,572,1042.1594639609102,1043.9413458239287,"[68, 0, 186]",186,l,1.2588373926701024,1,colour,0.06,3.8
41,20,1,1,12,23,573,1044.448519516387,1045.2533357698703,"[67, 0, 187]",187,l,0.2815272053703666,1,colour,0.06,3.8
41,20,1,1,12,24,574,1045.7611990851583,1046.8052746892208,"[58, 0, 196]",196,l,0.5208184574730694,1,colour,0.06,3.8
41,20,1,1,12,25,575,1047.3159264280694,1047.9813699430088,"[79, 0, 175]",175,l,0.14711022027768195,1,colour,0.06,3.8
41,20,1,1,12,26,576,1048.5007937948685,1049.3252786749508,"[69, 0, 185]",185,l,0.3074248868506402,1,colour,0.06,3.8
41,20,1,1,12,27,577,1049.8492920042481,1050.4773029010976,"[91, 0, 163]",163,l,0.11026167462114245,1,colour,0.06,3.8
41,20,1,1,12,28,578,1050.9928733720444,1052.557331840857,"[50, 0, 204]",204,a,1.0462452969513834,1,colour,0.06,3.8
41,20,1,1,12,29,579,1053.0685908889864,1054.5173679800937,"[54, 0, 200]",200,a,0.9307167312363163,0,colour,0.06,3.8
41,20,1,1,12,30,580,1055.0376468697796,1056.805300683016,"[70, 0, 184]",184,l,1.2385819369228557,1,colour,0.06,3.8
41,20,1,1,12,31,581,1057.3121258224128,1058.157352951006,"[77, 0, 177]",177,l,0.299023776082322,1,colour,0.06,3.8
41,20,1,1,12,32,582,1058.6764672405552,1059.4772867534775,"[90, 0, 164]",164,l,0.27739419450517744,1,colour,0.06,3.8
41,20,1,1,12,33,583,1059.9889790312154,1060.525255123037,"[85, 0, 169]",169,l,0.012833050219342113,1,colour,0.06,3.8
41,20,1,1,12,34,584,1061.0360384061933,1064.6212292773416,"[88, 0, 166]",166,l,3.0619250599993393,1,colour,0.06,3.8
41,20,1,1,12,35,585,1065.1390308809932,1066.069232856622,"[95, 0, 159]",159,l,0.40678295865654945,1,colour,0.06,3.8
41,20,1,1,12,36,586,1066.5766550652916,1067.3653272123775,"[86, 0, 168]",168,l,0.2658679224550724,1,colour,0.06,3.8
41,20,1,1,12,37,587,1067.8850102142897,1068.5892179376679,"[97, 0, 157]",157,l,0.1308337819064036,1,colour,0.06,3.8
41,20,1,1,12,38,588,1069.1000370607944,1073.9172310795402,"[59, 0, 195]",195,l,4.296532311593182,1,colour,0.06,3.8
41,20,1,1,12,39,589,1074.4267780828523,1075.421285518445,"[61, 0, 193]",193,l,0.4607720389030874,1,colour,0.06,3.8
41,20,1,1,12,40,590,1075.9435485998401,1076.5412802881328,"[99, 0, 155]",155,l,0.07342061202507466,1,colour,0.06,3.8
41,20,1,1,12,41,591,1077.0518709809985,1077.733232535189,"[87, 0, 167]",167,l,0.1540155071998015,1,colour,0.06,3.8
41,20,1,1,12,42,592,1078.2459409334697,1078.957213057205,"[81, 0, 173]",173,l,0.19263162999413908,1,colour,0.06,3.8
41,20,1,1,12,43,593,1079.4706547950627,1080.7492179219844,"[72, 0, 182]",182,l,0.7618891019374132,1,colour,0.06,3.8
41,20,1,1,12,44,594,1081.2612296080915,1083.3572455099784,"[13, 0, 241]",241,a,1.5780083171557635,1,colour,0.06,3.8
41,20,1,1,12,45,595,1083.874850191176,1086.2292115731398,"[51, 0, 203]",203,a,1.8352018003351986,0,colour,0.06,3.8
41,20,1,1,12,46,596,1086.7411779671675,1087.6292160630692,"[64, 0, 190]",190,l,0.36498377949465066,1,colour,0.06,3.8
41,20,1,1,12,47,597,1088.1457573622465,1091.8132185458671,"[53, 0, 201]",201,l,3.1371691750828177,1,colour,0.06,3.8
41,20,1,1,12,48,598,1092.3250411862973,1092.853324978496,"[83, 0, 171]",171,l,0.002020425512455404,1,colour,0.06,3.8
41,20,1,1,12,49,599,1093.3930665137013,1098.8931825010804,"[60, 0, 194]",194,l,4.979171893326566,1,colour,0.06,3.8
41,20,1,1,12,50,600,1099.402620409266,1100.125220700982,"[84, 0, 170]",170,l,0.20502042293082923,1,colour,0.06,3.8
41,20,1,1,13,1,601,1106.9100430117687,1108.5491284403251,"[79, 0, 175]",175,l,1.1147353616543114,1,colour,0.06,3.8
41,20,1,1,13,2,602,1109.064178247936,1110.1011796055827,"[77, 0, 177]",177,l,0.5254737071227282,1,colour,0.06,3.8
41,20,1,1,13,3,603,1110.614829293685,1111.3331933870213,"[89, 0, 165]",165,l,0.19496752554550767,1,colour,0.06,3.8
41,20,1,1,13,4,604,1111.849408188602,1116.5571892689914,"[63, 0, 191]",191,l,4.1844124756753445,1,colour,0.06,3.8
41,20,1,1,13,5,605,1117.0686034919927,1117.8051545664202,"[99, 0, 155]",155,l,0.22453702508937567,1,colour,0.06,3.8
41,20,1,1,13,6,606,1118.3174632118316,1119.0371703171404,"[82, 0, 172]",172,l,0.20262584439478815,1,colour,0.06,3.8
41,20,1,1,13,7,607,1119.545739402878,1120.7811859386275,"[61, 0, 193]",193,l,0.712311087292619,1,colour,0.06,3.8
41,20,1,1,13,8,608,1121.2958986148005,1122.077106214827,"[68, 0, 186]",186,l,0.2667182340519503,1,colour,0.06,3.8
41,20,1,1,13,9,609,1122.5841129169567,1123.309064858011,"[93, 0, 161]",161,l,0.1963428327580914,1,colour,0.06,3.8
41,20,1,1,13,10,610,1123.824519144604,1125.6931434316793,"[56, 0, 198]",198,l,1.345256076194346,1,colour,0.06,3.8
41,20,1,1,13,11,611,1126.199619624298,1128.0050947808195,"[43, 0, 211]",211,a,1.2821416038786992,1,colour,0.06,3.8
41,20,1,1,13,12,612,1128.5154078127816,1129.213151355856,"[98, 0, 156]",156,l,0.18070599890779704,1,colour,0.06,3.8
41,20,1,1,13,13,613,1129.730182992178,1130.5011214739643,"[81, 0, 173]",173,l,0.24785305163823068,1,colour,0.06,3.8
41,20,1,1,13,14,614,1131.0128566808999,1132.0531076547923,"[94, 0, 160]",160,l,0.517556631937623,1,colour,0.06,3.8
41,20,1,1,13,15,615,1132.5596941240365,1133.3730962018017,"[55, 0, 199]",199,l,0.29571823379956186,1,colour,0.06,3.8
41,20,1,1,13,16,616,1133.8876355860848,1134.7010644451948,"[92, 0, 162]",162,l,0.29007167578674853,1,colour,0.06,3.8
41,20,1,1,13,17,617,1135.2159988562344,1137.7810445481446,"[53, 0, 201]",201,a,2.041949627920985,0,colour,0.06,3.8
41,20,1,1,13,18,618,1138.291638785624,1139.101072873571,"[90, 0, 164]",164,l,0.27750762191135436,1,colour,0.06,3.8
41,20,1,1,13,19,619,1139.6080311326077,1140.9570901774568,"[88, 0, 166]",166,l,0.8255470803705975,1,colour,0.06,3.8
41,20,1,1,13,20,620,1141.467580439872,1142.1171212755144,"[83, 0, 171]",171,l,0.1262462737504393,1,colour,0.06,3.8
41,20,1,1,13,21,621,1142.6138777638553,1144.053117107018,"[86, 0, 168]",168,l,0.9129897612147033,1,colour,0.06,3.8
41,20,1,1,13,22,622,1144.5700368913822,1149.0291823499138,"[50, 0, 204]",204,l,3.935906822560355,0,colour,0.06,3.8
41,20,1,1,13,23,623,1149.5421534428606,1150.34107816685,"[60, 0, 194]",194,l,0.2756486728321761,1,colour,0.06,3.8
41,20,1,1,13,24,624,1150.8559184487676,1151.5730336591369,"[75, 0, 179]",179,l,0.19372297485824674,1,colour,0.06,3.8
41,20,1,1,13,25,625,1152.0903634363785,1152.8610010204138,"[67, 0, 187]",187,l,0.24716185336001217,1,colour,0.06,3.8
41,20,1,1,13,26,626,1153.3779117463855,1154.1090553269023,"[80, 0, 174]",174,l,0.20784271706361324,1,colour,0.06,3.8
41,20,1,1,13,27,627,1154.6234875853406,1155.613083378179,"[84, 0, 170]",170,l,0.4662724802037701,1,colour,0.06,3.8
41,20,1,1,13,28,628,1156.1235232283361,1157.4130521856714,"[66, 0, 188]",188,l,0.7663304936140776,1,colour,0.06,3.8
41,20,1,1,13,29,629,1157.9145139418542,1159.837022940279,"[51, 0, 203]",203,a,1.4039023752557114,0,colour,0.06,3.8
41,20,1,1,13,30,630,1160.3572506300407,1161.701027817675,"[58, 0, 196]",196,a,0.812169736251235,0,colour,0.06,3.8
41,20,1,1,13,31,631,1162.2121982505778,1162.9890597695485,"[87, 0, 167]",167,l,0.2586743409046903,1,colour,0.06,3.8
41,20,1,1,13,32,632,1163.4987587969517,1164.3010516846552,"[69, 0, 185]",185,l,0.2837142274947837,1,colour,0.06,3.8
41,20,1,1,13,33,633,1164.815097581013,1166.0610263053095,"[91, 0, 163]",163,l,0.7270570433465764,1,colour,0.06,3.8
41,20,1,1,13,34,634,1166.5743660372682,1167.1170354172355,"[71, 0, 183]",183,l,0.010551111423410475,1,colour,0.06,3.8
41,20,1,1,13,35,635,1167.6299848487834,1168.8317540799035,"[70, 0, 184]",184,l,0.677737785037607,1,colour,0.06,3.8
41,20,1,1,13,36,636,1169.3534787750104,1169.89298557851,"[62, 0, 192]",192,l,0.013833416858687997,1,colour,0.06,3.8
41,20,1,1,13,37,637,1170.402580237016,1171.4289918863215,"[95, 0, 159]",159,l,0.5031190565787256,1,colour,0.06,3.8
41,20,1,1,13,38,638,1171.9495673413621,1172.8129853894934,"[76, 0, 178]",178,l,0.33994664973579347,1,colour,0.06,3.8
41,20,1,1,13,39,639,1173.3262790415902,1174.1169850050937,"[72, 0, 182]",182,l,0.2680171354440972,1,colour,0.06,3.8
41,20,1,1,13,40,640,1174.6233394995797,1177.1570426010294,"[54, 0, 200]",200,a,2.0112478234805167,0,colour,0.06,3.8
41,20,1,1,13,41,641,1177.6703307393473,1178.460950844572,"[78, 0, 176]",176,l,0.27749541273806244,1,colour,0.06,3.8
41,20,1,1,13,42,642,1178.9780356499832,1179.7889872232918,"[74, 0, 180]",180,l,0.30003635201137513,1,colour,0.06,3.8
41,20,1,1,13,43,643,1180.3092988020508,1180.9409689141903,"[97, 0, 157]",157,l,0.10827708896249533,1,colour,0.06,3.8
41,20,1,1,13,44,644,1181.4499924972188,1182.6369484247407,"[26, 0, 228]",228,a,0.6634790153475478,1,colour,0.06,3.8
41,20,1,1,13,45,645,1183.1517063931096,1184.6449734134367,"[64, 0, 190]",190,l,0.9697794743115082,1,colour,0.06,3.8
41,20,1,1,13,46,646,1185.154231728171,1186.4209940730361,"[52, 0, 202]",202,a,0.7434055553749204,0,colour,0.06,3.8
41,20,1,1,13,47,647,1186.9355169158662,1187.981001303997,"[96, 0, 158]",158,l,0.5210425553377718,1,colour,0.06,3.8
41,20,1,1,13,48,648,1188.4982298630057,1189.0849807547638,"[65, 0, 189]",189,l,0.06023743352852762,1,colour,0.06,3.8
41,20,1,1,13,49,649,1189.5966675186064,1190.8049915145384,"[21, 0, 233]",233,a,0.6893727582646534,1,colour,0.06,3.8
41,20,1,1,13,50,650,1191.3177329958417,1194.1890681190416,"[57, 0, 197]",197,a,2.3408544628182426,0,colour,0.06,3.8
41,20,1,1,14,1,651,1198.8805341642583,1199.9409133819863,"[96, 0, 158]",158,l,0.5388494759099558,1,colour,0.06,3.8
41,20,1,1,14,2,652,1200.4624576960923,1202.612950652372,"[59, 0, 195]",195,l,1.632113975705579,1,colour,0.06,3.8
41,20,1,1,14,3,653,1203.1241789804772,1204.0209190848982,"[92, 0, 162]",162,l,0.37816538265906274,1,colour,0.06,3.8
41,20,1,1,14,4,654,1204.5325609504944,1209.908902436262,"[51, 0, 203]",203,l,4.858600534265861,1,colour,0.06,3.8
41,20,1,1,14,5,655,1210.4181453910423,1211.9569964424009,"[80, 0, 174]",174,l,1.0214665296953171,1,colour,0.06,3.8
41,20,1,1,14,6,656,1212.479852654622,1213.036918256199,"[54, 0, 200]",200,l,0.038801623741164804,1,colour,0.06,3.8
41,20,1,1,14,7,657,1213.5608201273717,1214.5409144059522,"[72, 0, 182]",182,l,0.44623560830950737,1,colour,0.06,3.8
41,20,1,1,14,8,658,1215.0635445511434,1216.020898211049,"[58, 0, 196]",196,l,0.43829135794658214,1,colour,0.06,3.8
41,20,1,1,14,9,659,1216.5351433930919,1217.4528986805817,"[56, 0, 198]",198,l,0.39975321665406227,1,colour,0.06,3.8
41,20,1,1,14,10,660,1217.9707396687008,1218.644882435212,"[89, 0, 165]",165,l,0.1503854364855215,1,colour,0.06,3.8
41,20,1,1,14,11,661,1219.1682506462093,1220.7328670469578,"[75, 0, 179]",179,l,1.0391442690743133,1,colour,0.06,3.8
41,20,1,1,14,12,662,1221.2486218373524,1222.404887381941,"[94, 0, 160]",160,l,0.6334715598495677,1,colour,0.06,3.8
41,20,1,1,14,13,663,1222.9156257667346,1223.5089203956304,"[87, 0, 167]",167,l,0.07815384306013584,1,colour,0.06,3.8
41,20,1,1,14,14,664,1224.0244353343733,1224.5568485929398,"[98, 0, 156]",156,l,0.02104511542711407,1,colour,0.06,3.8
41,20,1,1,14,15,665,1225.0752630196512,1226.2128862980753,"[64, 0, 190]",190,l,0.6142259229673073,1,colour,0.06,3.8
41,20,1,1,14,16,666,1226.7316504592309,1227.5568726174533,"[78, 0, 176]",176,l,0.3018897871952504,1,colour,0.06,3.8
41,20,1,1,14,17,667,1228.0734009197913,1228.900923133595,"[83, 0, 171]",171,l,0.3164396083448082,1,colour,0.06,3.8
41,20,1,1,14,18,668,1229.4197388885077,1230.3488573961658,"[67, 0, 187]",187,l,0.4018638328416273,1,colour,0.06,3.8
41,20,1,1,14,19,669,1230.86118691531,1231.524821893312,"[90, 0, 164]",164,l,0.14034711150452495,1,colour,0.06,3.8
41,20,1,1,14,20,670,1232.0331570351264,1232.836818534648,"[63, 0, 191]",191,l,0.29025126923806965,1,colour,0.06,3.8
41,20,1,1,14,21,671,1233.3517273457255,1234.1247839266434,"[60, 0, 194]",194,l,0.25225781567860395,1,colour,0.06,3.8
41,20,1,1,14,22,672,1234.6461100504966,1235.316830696538,"[84, 0, 170]",170,l,0.1476812957553193,1,colour,0.06,3.8
41,20,1,1,14,23,673,1235.8337201548275,1236.5888406340964,"[74, 0, 180]",180,l,0.23173572681844234,1,colour,0.06,3.8
41,20,1,1,14,24,674,1237.099460865371,1237.7328158470336,"[73, 0, 181]",181,l,0.10999070922844112,1,colour,0.06,3.8
41,20,1,1,14,25,675,1238.2433525831439,1238.8608446639264,"[82, 0, 172]",172,l,0.09031853801570833,1,colour,0.06,3.8
41,20,1,1,14,26,676,1239.3812625808641,1240.0048352368176,"[76, 0, 178]",178,l,0.10551544674672186,1,colour,0.06,3.8
41,20,1,1,14,27,677,1240.5170328179374,1241.1808080048067,"[69, 0, 185]",185,l,0.14042824355419725,1,colour,0.06,3.8
41,20,1,1,14,28,678,1241.6972488734173,1242.4447807443794,"[91, 0, 163]",163,l,0.22413333388976753,1,colour,0.06,3.8
41,20,1,1,14,29,679,1242.965191572206,1243.9008286107564,"[77, 0, 177]",177,l,0.41223653231281787,1,colour,0.06,3.8
41,20,1,1,14,30,680,1244.4106477609603,1245.0128196594305,"[97, 0, 157]",157,l,0.07981783873401582,1,colour,0.06,3.8
41,20,1,1,14,31,681,1245.5193309043534,1246.884913722286,"[19, 0, 235]",235,a,0.8423008590471,1,colour,0.06,3.8
41,20,1,1,14,32,682,1247.3945524914889,1248.2928179580485,"[93, 0, 161]",161,l,0.3750429783249274,1,colour,0.06,3.8
41,20,1,1,14,33,683,1248.791061999509,1249.6128021727782,"[81, 0, 173]",173,l,0.3027834218228236,1,colour,0.06,3.8
41,20,1,1,14,34,684,1250.1223121545045,1251.5328031652607,"[18, 0, 236]",236,a,0.8870511199347675,1,colour,0.06,3.8
41,20,1,1,14,35,685,1252.0443489325698,1252.9327690582722,"[65, 0, 189]",189,l,0.36509129928890616,1,colour,0.06,3.8
41,20,1,1,14,36,686,1253.4369763090508,1254.2848110862542,"[52, 0, 202]",202,l,0.3224937960039824,1,colour,0.06,3.8
41,20,1,1,14,37,687,1254.798288270249,1255.5168658276089,"[66, 0, 188]",188,l,0.19585013249889016,1,colour,0.06,3.8
41,20,1,1,14,38,688,1256.0328013929538,1257.1808154878672,"[71, 0, 183]",183,l,0.6355219177203253,1,colour,0.06,3.8
41,20,1,1,14,39,689,1257.6942347765435,1258.7087566347327,"[99, 0, 155]",155,l,0.4915545815601945,1,colour,0.06,3.8
41,20,1,1,14,40,690,1259.219144103583,1260.404872021987,"[57, 0, 197]",197,l,0.6641390998847783,1,colour,0.06,3.8
41,20,1,1,14,41,691,1260.9135576859117,1261.9567916429369,"[50, 0, 204]",204,l,0.5198751983698457,0,colour,0.06,3.8
41,20,1,1,14,42,692,1262.476157993311,1263.4447594768135,"[62, 0, 192]",192,l,0.4452785647008568,1,colour,0.06,3.8
41,20,1,1,14,43,693,1263.9493326096563,1265.3967773226323,"[5, 0, 249]",249,a,0.9240099422167987,1,colour,0.06,3.8
41,20,1,1,14,44,694,1265.9181983632734,1266.7407313467702,"[86, 0, 168]",168,l,0.2990891543449834,1,colour,0.06,3.8
41,20,1,1,14,45,695,1267.2620803136379,1268.2607924400363,"[53, 0, 201]",201,l,0.4755518656456843,1,colour,0.06,3.8
41,20,1,1,14,46,696,1268.7778737009503,1269.6527620950947,"[79, 0, 175]",175,l,0.3516926873708144,1,colour,0.06,3.8
41,20,1,1,14,47,697,1270.1740957020083,1270.9647299856879,"[85, 0, 169]",169,l,0.26734641718212515,1,colour,0.06,3.8
41,20,1,1,14,48,698,1271.4626439848216,1272.2127827167278,"[61, 0, 193]",193,l,0.2274235162185505,1,colour,0.06,3.8
41,20,1,1,14,49,699,1272.7306745109381,1273.5328031652607,"[88, 0, 166]",166,l,0.28117235098034143,1,colour,0.06,3.8
41,20,1,1,14,50,700,1274.0378843583167,1274.884770362638,"[70, 0, 184]",184,l,0.3236209807218984,1,colour,0.06,3.8
41,20,1,1,15,1,701,1281.5568552882178,1283.2047746634344,"[53, 0, 201]",201,l,1.1297991507453844,1,colour,0.06,3.8
41,20,1,1,15,2,702,1283.7220406377455,1284.7166989159305,"[74, 0, 180]",180,l,0.47717135690618306,1,colour,0.06,3.8
41,20,1,1,15,3,703,1285.238622896839,1286.5967045400757,"[9, 0, 245]",245,a,0.8388046957552433,1,colour,0.06,3.8
41,20,1,1,15,4,704,1287.114816493704,1287.8207173574483,"[76, 0, 178]",178,l,0.18778260855469853,1,colour,0.06,3.8
41,20,1,1,15,5,705,1288.3362181177363,1289.1567101957044,"[57, 0, 197]",197,l,0.28886769129894674,1,colour,0.06,3.8
41,20,1,1,15,6,706,1289.6775912746089,1290.4846993129468,"[88, 0, 166]",166,l,0.283412148244679,1,colour,0.06,3.8
41,20,1,1,15,7,707,1290.9975140494062,1291.7966561758658,"[54, 0, 200]",200,l,0.2789337350986898,1,colour,0.06,3.8
41,20,1,1,15,8,708,1292.3137819413096,1293.0846782816807,"[63, 0, 191]",191,l,0.24972105922643095,1,colour,0.06,3.8
41,20,1,1,15,9,709,1293.6013861773536,1294.3806659054244,"[77, 0, 177]",177,l,0.26199091086164117,1,colour,0.06,3.8
41,20,1,1,15,10,710,1294.9009455827763,1295.9407999545801,"[61, 0, 193]",193,l,0.52066249481868,1,colour,0.06,3.8
41,20,1,1,15,11,711,1296.4505950802704,1297.2846937204013,"[84, 0, 170]",170,l,0.3149252737639472,1,colour,0.06,3.8
41,20,1,1,15,12,712,1297.7976986840367,1298.7246502556372,"[98, 0, 156]",156,l,0.3940085913054645,1,colour,0.06,3.8
41,20,1,1,15,13,713,1299.221212972072,1299.8606694027549,"[62, 0, 192]",192,l,0.12009677558671683,1,colour,0.06,3.8
41,20,1,1,15,14,714,1300.370263273595,1302.5567150793504,"[40, 0, 214]",214,a,1.668864847626537,1,colour,0.06,3.8
41,20,1,1,15,15,715,1303.0734536950476,1303.9566372556146,"[69, 0, 185]",185,l,0.36153684684541076,1,colour,0.06,3.8
41,20,1,1,15,16,716,1304.4695406071842,1305.4046837639762,"[67, 0, 187]",187,l,0.4165727674262598,1,colour,0.06,3.8
41,20,1,1,15,17,717,1305.927829846274,1306.5406631327933,"[55, 0, 199]",199,l,0.09340037626679987,1,colour,0.06,3.8
41,20,1,1,15,18,718,1307.0577006768435,1308.0526582774473,"[92, 0, 162]",162,l,0.4727181497728452,1,colour,0.06,3.8
41,20,1,1,15,19,719,1308.5628574882867,1309.468690689304,"[86, 0, 168]",168,l,0.39133910892996937,1,colour,0.06,3.8
41,20,1,1,15,20,720,1309.9918584331172,1310.860607569106,"[73, 0, 181]",181,l,0.3426314920652658,1,colour,0.06,3.8
41,20,1,1,15,21,721,1311.371670876164,1312.1326135682175,"[93, 0, 161]",161,l,0.2376800315687433,1,colour,0.06,3.8
41,20,1,1,15,22,722,1312.652964531444,1313.4367624510778,"[68, 0, 186]",186,l,0.2608759352006018,1,colour,0.06,3.8
41,20,1,1,15,23,723,1313.9499489773298,1314.7805888693547,"[81, 0, 173]",173,l,0.31487998156808317,1,colour,0.06,3.8
41,20,1,1,15,24,724,1315.3016298493603,1316.036666589207,"[89, 0, 165]",165,l,0.21152871393132955,1,colour,0.06,3.8
41,20,1,1,15,25,725,1316.5452246472705,1317.3486309351865,"[78, 0, 176]",176,l,0.2802968332543969,1,colour,0.06,3.8
41,20,1,1,15,26,726,1317.8577273795381,1318.7646026948933,"[71, 0, 183]",183,l,0.3834728398360312,1,colour,0.06,3.8
41,20,1,1,15,27,727,1319.2884364308557,1320.0446120211855,"[99, 0, 155]",155,l,0.23324533528648317,1,colour,0.06,3.8
41,20,1,1,15,28,728,1320.565918452805,1321.3486206951784,"[91, 0, 163]",163,l,0.2642330712405965,1,colour,0.06,3.8
41,20,1,1,15,29,729,1321.8668283531442,1322.7486074620392,"[60, 0, 194]",194,l,0.35626562335528433,1,colour,0.06,3.8
41,20,1,1,15,30,730,1323.2658537440002,1324.0366299615707,"[96, 0, 158]",158,l,0.2528088050894439,1,colour,0.06,3.8
41,20,1,1,15,31,731,1324.5481658828212,1325.3885841621086,"[70, 0, 184]",184,l,0.3078392118914053,1,colour,0.06,3.8
41,20,1,1,15,32,732,1325.9124289256288,1326.460613319301,"[66, 0, 188]",188,l,0.015575394034385681,1,colour,0.06,3.8
41,20,1,1,15,33,733,1326.9792924098438,1328.2046612360282,"[94, 0, 160]",160,l,0.707453795010224,1,colour,0.06,3.8
41,20,1,1,15,34,734,1328.7228389617521,1329.5645856807241,"[56, 0, 198]",198,l,0.31566885334905237,1,colour,0.06,3.8
41,20,1,1,15,35,735,1330.0757013692055,1331.0205882549053,"[75, 0, 179]",179,l,0.4140269523486495,1,colour,0.06,3.8
41,20,1,1,15,36,736,1331.5328240389936,1332.3325813516276,"[50, 0, 204]",204,l,0.28259531350340694,0,colour,0.06,3.8
41,20,1,1,15,37,737,1332.8494345762301,1333.6126202163287,"[85, 0, 169]",169,l,0.24563255277462304,1,colour,0.06,3.8
41,20,1,1,15,38,738,1334.131096082856,1334.7885760489153,"[64, 0, 190]",190,l,0.13900252419989556,1,colour,0.06,3.8
41,20,1,1,15,39,739,1335.307699003024,1335.9245774730807,"[72, 0, 182]",182,l,0.09723760955967009,1,colour,0.06,3.8
41,20,1,1,15,40,740,1336.4402779128868,1337.2925595956622,"[52, 0, 202]",202,l,0.3332796391332522,1,colour,0.06,3.8
41,20,1,1,15,41,741,1337.8042042180896,1338.7245604589116,"[82, 0, 172]",172,l,0.40331869665533304,1,colour,0.06,3.8
41,20,1,1,15,42,742,1339.2363098441856,1340.7405702640535,"[25, 0, 229]",229,a,0.9869412764674053,1,colour,0.06,3.8
41,20,1,1,15,43,743,1341.2509868774796,1342.0765989422798,"[95, 0, 159]",159,l,0.3020804082043469,1,colour,0.06,3.8
41,20,1,1,15,44,744,1342.5857012943598,1343.4205045234412,"[83, 0, 171]",171,l,0.31147361488547176,1,colour,0.06,3.8
41,20,1,1,15,45,745,1343.930843549315,1344.70065090782,"[90, 0, 164]",164,l,0.2592623516684398,1,colour,0.06,3.8
41,20,1,1,15,46,746,1345.2082290792605,1345.9885654938407,"[51, 0, 203]",203,l,0.2571206217398867,1,colour,0.06,3.8
41,20,1,1,15,47,747,1346.4934745766222,1347.276559636579,"[59, 0, 195]",195,l,0.25970070133917034,1,colour,0.06,3.8
41,20,1,1,15,48,748,1347.7927236321848,1348.4685748988995,"[79, 0, 175]",175,l,0.1550462000304833,1,colour,0.06,3.8
41,20,1,1,15,49,749,1348.9814821889158,1349.7485763481818,"[58, 0, 196]",196,l,0.24376887746620923,1,colour,0.06,3.8
41,20,1,1,15,50,750,1350.268498414196,1351.036635869299,"[80, 0, 174]",174,l,0.23763119475916028,1,colour,0.06,3.8
41,20,1,1,16,1,751,1357.939446702716,1359.4124815040268,"[15, 0, 239]",239,a,0.956080358591862,1,colour,0.06,3.8
41,20,1,1,16,2,752,1359.9258897650288,1361.6045629322762,"[64, 0, 190]",190,l,1.160376106388867,1,colour,0.06,3.8
41,20,1,1,16,3,753,1362.1220037738094,1362.7084943338996,"[59, 0, 195]",195,l,0.06319796747993678,1,colour,0.06,3.8
41,20,1,1,16,4,754,1363.214809050085,1364.1885143727995,"[84, 0, 170]",170,l,0.45026385656092316,1,colour,0.06,3.8
41,20,1,1,16,5,755,1364.6993508250453,1365.5085277319886,"[91, 0, 163]",163,l,0.2855349736055359,1,colour,0.06,3.8
41,20,1,1,16,6,756,1366.0362766825128,1366.892505087424,"[99, 0, 155]",155,l,0.34120380342938006,1,colour,0.06,3.8
41,20,1,1,16,7,757,1367.4037377479253,1367.9564742037328,"[57, 0, 197]",197,l,0.0297762684058398,1,colour,0.06,3.8
41,20,1,1,16,8,758,1368.4663189538987,1369.3484781231964,"[93, 0, 161]",161,l,0.3588000168092549,1,colour,0.06,3.8
41,20,1,1,16,9,759,1369.8469706809847,1370.6337996327784,"[95, 0, 159]",159,l,0.2684901433531195,1,colour,0.06,3.8
41,20,1,1,16,10,760,1371.1469499253435,1371.8764247839572,"[69, 0, 185]",185,l,0.20615469675976783,1,colour,0.06,3.8
41,20,1,1,16,11,761,1372.3970541958697,1373.1804854456568,"[71, 0, 183]",183,l,0.26012329722288996,1,colour,0.06,3.8
41,20,1,1,16,12,762,1373.6869151645806,1374.4764683432877,"[73, 0, 181]",181,l,0.2664543578866869,1,colour,0.06,3.8
41,20,1,1,16,13,763,1374.9792612961028,1375.8524888452375,"[54, 0, 200]",200,l,0.350378819857724,1,colour,0.06,3.8
41,20,1,1,16,14,764,1376.3706453033956,1377.1565369038144,"[81, 0, 173]",173,l,0.2623871190007776,1,colour,0.06,3.8
41,20,1,1,16,15,765,1377.6676620446378,1378.49246948387,"[87, 0, 167]",167,l,0.3047424075193703,1,colour,0.06,3.8
41,20,1,1,16,16,766,1379.011650727014,1379.9005095962202,"[77, 0, 177]",177,l,0.3659735124092549,1,colour,0.06,3.8
41,20,1,1,16,17,767,1380.4174825496739,1381.2044158704812,"[65, 0, 189]",189,l,0.26016465085558593,1,colour,0.06,3.8
41,20,1,1,16,18,768,1381.7252874970436,1382.524411112885,"[74, 0, 180]",180,l,0.2817390941781923,1,colour,0.06,3.8
41,20,1,1,16,19,769,1383.0377851093654,1383.8364798277617,"[96, 0, 158]",158,l,0.2816213343758136,1,colour,0.06,3.8
41,20,1,1,16,20,770,1384.351434324868,1385.2684932941338,"[47, 0, 207]",207,l,0.3859820272773504,0,colour,0.06,3.8
41,20,1,1,16,21,771,1385.7902723399457,1386.7084722785512,"[51, 0, 203]",203,l,0.3989261417882517,1,colour,0.06,3.8
41,20,1,1,16,22,772,1387.2317727481714,1388.0364952664822,"[83, 0, 171]",171,l,0.28626516251824796,1,colour,0.06,3.8
41,20,1,1,16,23,773,1388.5583790751407,1389.3564550628653,"[92, 0, 162]",162,l,0.2803759961389005,1,colour,0.06,3.8
41,20,1,1,16,24,774,1389.8626689546509,1390.8444433766417,"[56, 0, 198]",198,l,0.45138670899905264,1,colour,0.06,3.8
41,20,1,1,16,25,775,1391.3545413692482,1392.1964117556345,"[94, 0, 160]",160,l,0.31860181828960776,1,colour,0.06,3.8
41,20,1,1,16,26,776,1392.7152401135536,1393.444496782031,"[75, 0, 179]",179,l,0.20907899702433497,1,colour,0.06,3.8
41,20,1,1,16,27,777,1393.964644127409,1394.7004705267027,"[58, 0, 196]",196,l,0.2123660285724327,1,colour,0.06,3.8
41,20,1,1,16,28,778,1395.2037364876596,1395.9164296046365,"[62, 0, 192]",192,l,0.18937768135219812,1,colour,0.06,3.8
41,20,1,1,16,29,779,1396.422539915191,1397.1404211543268,"[76, 0, 178]",178,l,0.19458864640910178,1,colour,0.06,3.8
41,20,1,1,16,30,780,1397.6545800842578,1398.7884555322817,"[66, 0, 188]",188,l,0.6138159302063286,1,colour,0.06,3.8
41,20,1,1,16,31,781,1399.308805314009,1400.4124196703779,"[50, 0, 204]",204,l,0.5801610748749226,0,colour,0.06,3.8
41,20,1,1,16,32,782,1400.935045877006,1401.7884452922735,"[61, 0, 193]",193,l,0.32496281107887626,1,colour,0.06,3.8
41,20,1,1,16,33,783,1402.306088176323,1403.060384731507,"[67, 0, 187]",187,l,0.23470138071570545,1,colour,0.06,3.8
41,20,1,1,16,34,784,1403.5792745293584,1404.3243704680353,"[85, 0, 169]",169,l,0.22799537936225533,1,colour,0.06,3.8
41,20,1,1,16,35,785,1404.8447493943386,1405.5084158799145,"[98, 0, 156]",156,l,0.14565535634756088,1,colour,0.06,3.8
41,20,1,1,16,36,786,1406.0207217684947,1406.8044365867972,"[78, 0, 176]",176,l,0.2661302234046161,1,colour,0.06,3.8
41,20,1,1,16,37,787,1407.3199842146132,1408.0365905771032,"[70, 0, 184]",184,l,0.19731641793623567,1,colour,0.06,3.8
41,20,1,1,16,38,788,1408.5457630335586,1409.220407952671,"[68, 0, 186]",186,l,0.15708119794726372,1,colour,0.06,3.8
41,20,1,1,16,39,789,1409.73912367085,1410.4924198593944,"[90, 0, 164]",164,l,0.23315711389295757,1,colour,0.06,3.8
41,20,1,1,16,40,790,1411.0102446998935,1411.9404836969916,"[80, 0, 174]",174,l,0.4134617847157642,1,colour,0.06,3.8
41,20,1,1,16,41,791,1412.4447468736907,1413.2363850686233,"[97, 0, 157]",157,l,0.2685756077989936,1,colour,0.06,3.8
41,20,1,1,16,42,792,1413.7573862703284,1414.5884471827885,"[86, 0, 168]",168,l,0.3077828921377659,1,colour,0.06,3.8
41,20,1,1,16,43,793,1415.1011520364555,1415.892418441479,"[72, 0, 182]",182,l,0.2779065869981423,1,colour,0.06,3.8
41,20,1,1,16,44,794,1416.4036471635336,1417.8283796147443,"[23, 0, 231]",231,a,0.9015229598153383,1,colour,0.06,3.8
41,20,1,1,16,45,795,1418.3363453296479,1419.1163646989735,"[89, 0, 165]",165,l,0.2527016792446375,1,colour,0.06,3.8
41,20,1,1,16,46,796,1419.637348965276,1420.6523383177118,"[82, 0, 172]",172,l,0.4917688333662227,1,colour,0.06,3.8
41,20,1,1,16,47,797,1421.1768577379407,1421.9484232212417,"[52, 0, 202]",202,l,0.24765415990259498,1,colour,0.06,3.8
41,20,1,1,16,48,798,1422.4660991883138,1423.492335970397,"[79, 0, 175]",175,l,0.5086387963965535,1,colour,0.06,3.8
41,20,1,1,16,49,799,1424.0136455526808,1424.7484192040283,"[55, 0, 199]",199,l,0.21388666483107954,1,colour,0.06,3.8
41,20,1,1,16,50,800,1425.270336095593,1426.0683049573563,"[53, 0, 201]",201,l,0.2806485368637368,1,colour,0.06,3.8
