id,age,condition,counterbalance,block,trialinblock,trial,tstart,tend,trialstim,trialintensity,response,RT,accuracy,trialtype,colourfreq,credits
85,19,0,1,Practice,1,NA,5.5138953030109406e-06,1.77385249058716,"[8, 0, 246]",246,a,1.249350941972807,1,colour,0.5,4
85,19,0,1,Practice,2,NA,2.2822406210470945,2.845883758738637,"[51, 0, 203]",203,a,0.04024672077503055,0,colour,0.5,4
85,19,0,1,Practice,3,NA,3.360419824020937,4.2698612560052425,"[30, 0, 224]",224,a,0.38601980882231146,1,colour,0.5,4
85,19,0,1,Practice,4,NA,4.78245132858865,5.64597702154424,"[33, 0, 221]",221,a,0.340215134434402,1,colour,0.5,4
85,19,0,1,Practice,5,NA,6.157907795975916,7.005839553545229,"[34, 0, 220]",220,a,0.32491303887218237,1,colour,0.5,4
85,19,0,1,Practice,6,NA,7.5169475838774815,8.261843734537251,"[80, 0, 174]",174,l,0.22149658296257257,1,colour,0.5,4
85,19,0,1,Practice,7,NA,8.782792793004774,9.621840961859562,"[50, 0, 204]",204,a,0.3156352103687823,1,colour,0.5,4
85,19,0,1,Practice,8,NA,10.14223312214017,10.829831780632958,"[88, 0, 166]",166,l,0.16423374915029854,1,colour,0.5,4
85,19,0,1,Practice,9,NA,11.34546273748856,12.133868228644133,"[5, 0, 249]",249,a,0.2651193510973826,1,colour,0.5,4
85,19,0,1,Practice,10,NA,12.642472186707892,13.485892439144664,"[68, 0, 186]",186,l,0.32015892467461526,1,colour,0.5,4
85,19,0,1,1,1,1,4.792857919353992,5.703950353432447,"[44, 0, 210]",210,a,0.38354921340942383,1,colour,0.5,4.0
85,19,0,1,1,2,2,6.2190775813069195,7.143943595001474,"[8, 0, 246]",246,a,0.4107230065856129,1,colour,0.5,4.0
85,19,0,1,1,3,3,7.663073479081504,8.631998641998507,"[90, 0, 164]",164,l,0.4455216567730531,1,colour,0.5,4.0
85,19,0,1,1,4,4,9.147531925118528,10.072022997424938,"[71, 0, 183]",183,l,0.4011108030099422,1,colour,0.5,4.0
85,19,0,1,1,5,5,10.57583069987595,11.39999976370018,"[37, 0, 217]",217,a,0.3135797285940498,1,colour,0.5,4.0
85,19,0,1,1,6,6,11.907348534790799,12.832198400632478,"[43, 0, 211]",211,a,0.40159208269324154,1,colour,0.5,4.0
85,19,0,1,1,7,7,13.344913322362117,14.1919589266181,"[99, 0, 155]",155,l,0.3236558826174587,1,colour,0.5,4.0
85,19,0,1,1,8,8,14.704469048418105,15.592029188759625,"[89, 0, 165]",165,l,0.3642495818203315,1,colour,0.5,4.0
85,19,0,1,1,9,9,16.111250051180832,16.903955552144907,"[32, 0, 222]",222,a,0.269335865508765,1,colour,0.5,4.0
85,19,0,1,1,10,10,17.423782937345095,18.383989533176646,"[31, 0, 223]",223,a,0.43691257876344025,1,colour,0.5,4.0
85,19,0,1,1,11,11,18.89265099260956,19.751940084970556,"[27, 0, 227]",227,a,0.33877208293415606,1,colour,0.5,4.0
85,19,0,1,1,12,12,20.264831449720077,21.18407137435861,"[92, 0, 162]",162,l,0.39578285545576364,1,colour,0.5,4.0
85,19,0,1,1,13,13,21.70321228611283,22.56799789215438,"[38, 0, 216]",216,a,0.34164400736335665,1,colour,0.5,4.0
85,19,0,1,1,14,14,23.079833749798127,23.93597995163873,"[94, 0, 160]",160,l,0.3327430895296857,1,colour,0.5,4.0
85,19,0,1,1,15,15,24.45676162559539,25.336018312256783,"[63, 0, 191]",191,l,0.3559232851257548,1,colour,0.5,4.0
85,19,0,1,1,16,16,25.84750679775607,26.711972994846292,"[98, 0, 156]",156,l,0.34107411245349795,1,colour,0.5,4.0
85,19,0,1,1,17,17,27.210303481901065,28.063987753004767,"[15, 0, 239]",239,a,0.33031857409514487,1,colour,0.5,4.0
85,19,0,1,1,18,18,28.58539839880541,29.43196193559561,"[86, 0, 168]",168,l,0.3239181840326637,1,colour,0.5,4.0
85,19,0,1,1,19,19,29.932516470667906,30.784105481463484,"[40, 0, 214]",214,a,0.32831586769316345,1,colour,0.5,4.0
85,19,0,1,1,20,20,31.292015876737423,32.207958523300476,"[78, 0, 176]",176,l,0.39280498633161187,1,colour,0.5,4.0
85,19,0,1,1,21,21,32.72960468893871,33.55996579839848,"[69, 0, 185]",185,l,0.30705645855050534,1,colour,0.5,4.0
85,19,0,1,1,22,22,34.07339003670495,34.92793171026278,"[34, 0, 220]",220,a,0.331116899731569,1,colour,0.5,4.0
85,19,0,1,1,23,23,35.44854127347935,36.26393663173076,"[68, 0, 186]",186,l,0.2911817110143602,1,colour,0.5,4.0
85,19,0,1,1,24,24,36.77793785429094,37.60794922860805,"[46, 0, 208]",208,a,0.306656705099158,1,colour,0.5,4.0
85,19,0,1,1,25,25,38.121857503429055,39.016082698246464,"[30, 0, 224]",224,a,0.37089533789549023,1,colour,0.5,4.0
85,19,0,1,1,26,26,39.52826986636501,40.4479827999603,"[52, 0, 202]",202,a,0.3963704735506326,0,colour,0.5,4.0
85,19,0,1,1,27,27,40.965804721810855,41.87196344800759,"[48, 0, 206]",206,a,0.38278082001488656,1,colour,0.5,4.0
85,19,0,1,1,28,28,42.38776651560329,43.279951194650494,"[59, 0, 195]",195,a,0.36879968363791704,0,colour,0.5,4.0
85,19,0,1,1,29,29,43.79418163548689,44.631983675877564,"[73, 0, 181]",181,l,0.3144839988090098,1,colour,0.5,4.0
85,19,0,1,1,30,30,45.14120794122573,46.023982459679246,"[49, 0, 205]",205,a,0.35959983675275,1,colour,0.5,4.0
85,19,0,1,1,31,31,46.53188537189271,47.41591744043399,"[50, 0, 204]",204,a,0.36065140541177243,1,colour,0.5,4.0
85,19,0,1,1,32,32,47.911958501208574,48.81598455179483,"[58, 0, 196]",196,a,0.38067728898022324,0,colour,0.5,4.0
85,19,0,1,1,33,33,49.33390651049558,50.167943777749315,"[96, 0, 158]",158,l,0.310710167279467,1,colour,0.5,4.0
85,19,0,1,1,34,34,50.67783127957955,51.575959487468936,"[70, 0, 184]",184,l,0.37479756318498403,1,colour,0.5,4.0
85,19,0,1,1,35,35,52.08412824571133,52.92795219027903,"[72, 0, 182]",182,l,0.3204799091909081,1,colour,0.5,4.0
85,19,0,1,1,36,36,53.443527614930645,54.31195511412807,"[12, 0, 242]",242,a,0.3449767315760255,1,colour,0.5,4.0
85,19,0,1,1,37,37,54.81869066716172,55.64795255265199,"[21, 0, 233]",233,a,0.3058481393381953,1,colour,0.5,4.0
85,19,0,1,1,38,38,56.165990695822984,57.007942296913825,"[55, 0, 199]",199,l,0.31850595341529697,1,colour,0.5,4.0
85,19,0,1,1,39,39,57.525477104936726,58.375921993283555,"[93, 0, 161]",161,l,0.32715559750795364,1,colour,0.5,4.0
85,19,0,1,1,40,40,58.88558224611916,59.695970247266814,"[36, 0, 218]",218,a,0.2875870793359354,1,colour,0.5,4.0
85,19,0,1,1,41,41,60.2133802062599,61.119971769163385,"[47, 0, 207]",207,a,0.3959010092075914,1,colour,0.5,4.0
85,19,0,1,1,42,42,61.63845220126677,62.391978697734885,"[24, 0, 230]",230,a,0.23048060236033052,1,colour,0.5,4.0
85,19,0,1,1,43,43,62.90411151514854,63.72791863465682,"[79, 0, 175]",175,l,0.3003717118408531,1,colour,0.5,4.0
85,19,0,1,1,44,44,64.24948918190785,65.05595408391673,"[81, 0, 173]",173,l,0.2830547004705295,1,colour,0.5,4.0
85,19,0,1,1,45,45,65.56214928021654,66.3359218200203,"[6, 0, 248]",248,a,0.25063960580155253,1,colour,0.5,4.0
85,19,0,1,1,46,46,66.84350256633479,67.76911334262695,"[0, 0, 254]",254,a,0.4021273193648085,1,colour,0.5,4.0
85,19,0,1,1,47,47,68.2810693231877,69.09596055874135,"[39, 0, 215]",215,a,0.2914455878781155,1,colour,0.5,4.0
85,19,0,1,1,48,48,69.60930563393049,70.47999026416801,"[2, 0, 252]",252,a,0.34727521636523306,1,colour,0.5,4.0
85,19,0,1,1,49,49,71.00001732923556,71.67191098770127,"[29, 0, 225]",225,a,0.14851378300227225,1,colour,0.5,4.0
85,19,0,1,1,50,50,72.1876321353484,72.92796873184852,"[84, 0, 170]",170,l,0.21612846315838397,1,colour,0.5,4.0
85,19,0,1,2,1,51,81.26644818717614,82.13589929207228,"[59, 0, 195]",195,l,0.35316754528321326,1,colour,0.5,4.0
85,19,0,1,2,2,52,82.6500356036704,83.63995708653238,"[90, 0, 164]",164,l,0.4672434407984838,1,colour,0.5,4.0
85,19,0,1,2,3,53,84.15020613896195,85.11995050148107,"[77, 0, 177]",177,l,0.4467398222768679,1,colour,0.5,4.0
85,19,0,1,2,4,54,85.63439283135813,86.56793684605509,"[22, 0, 232]",232,a,0.41026653919834644,1,colour,0.5,4.0
85,19,0,1,2,5,55,87.08805764641147,87.9599049098324,"[34, 0, 220]",220,a,0.3489837199449539,1,colour,0.5,4.0
85,19,0,1,2,6,56,88.47876185877249,89.43195445253514,"[78, 0, 176]",176,l,0.430926120840013,1,colour,0.5,4.0
85,19,0,1,2,7,57,89.94757635099813,90.95190235460177,"[65, 0, 189]",189,l,0.4855198608711362,1,colour,0.5,4.0
85,19,0,1,2,8,58,91.45866626442876,92.61601913149934,"[63, 0, 191]",191,l,0.634284523781389,1,colour,0.5,4.0
85,19,0,1,2,9,59,93.12170902348589,94.095963315689,"[98, 0, 156]",156,l,0.4518763608066365,1,colour,0.5,4.0
85,19,0,1,2,10,60,94.5976726069348,95.53595261881128,"[32, 0, 222]",222,a,0.41521048708818853,1,colour,0.5,4.0
85,19,0,1,2,11,61,96.05074547161348,96.91191320901271,"[52, 0, 202]",202,l,0.3387705076020211,1,colour,0.5,4.0
85,19,0,1,2,12,62,97.42607590835541,98.30398958048318,"[62, 0, 192]",192,l,0.35525689786300063,1,colour,0.5,4.0
85,19,0,1,2,13,63,98.81665172684006,99.68793421518058,"[92, 0, 162]",162,l,0.34923893213272095,1,colour,0.5,4.0
85,19,0,1,2,14,64,100.20731616066769,101.0800145250978,"[84, 0, 170]",170,l,0.3506154236383736,1,colour,0.5,4.0
85,19,0,1,2,15,65,101.59789631143212,102.40799995593261,"[6, 0, 248]",248,a,0.2873850363539532,1,colour,0.5,4.0
85,19,0,1,2,16,66,102.92630236968398,103.76794677099679,"[87, 0, 167]",167,l,0.3193334237439558,1,colour,0.5,4.0
85,19,0,1,2,17,67,104.28569031739607,105.17595736065414,"[72, 0, 182]",182,l,0.3756336980732158,1,colour,0.5,4.0
85,19,0,1,2,18,68,105.6840000882512,106.57590316748247,"[19, 0, 235]",235,a,0.3691844710847363,1,colour,0.5,4.0
85,19,0,1,2,19,69,107.09048058651388,107.92789862724021,"[41, 0, 213]",213,a,0.3151405400130898,1,colour,0.5,4.0
85,19,0,1,2,20,70,108.43425254349131,109.31994624796789,"[8, 0, 246]",246,a,0.37238998315297067,1,colour,0.5,4.0
85,19,0,1,2,21,71,109.83284745877609,110.67995213984977,"[80, 0, 174]",174,l,0.3346264607971534,1,colour,0.5,4.0
85,19,0,1,2,22,72,111.19763070170302,112.03190270112827,"[75, 0, 179]",179,l,0.3107885424979031,1,colour,0.5,4.0
85,19,0,1,2,23,73,112.54150702781044,113.41590326197911,"[11, 0, 243]",243,a,0.3513133185915649,1,colour,0.5,4.0
85,19,0,1,2,24,74,113.9322053323267,114.78393494617194,"[49, 0, 205]",205,a,0.3283611598890275,1,colour,0.5,4.0
85,19,0,1,2,25,75,115.29173388308845,116.11996664910112,"[94, 0, 160]",160,l,0.305139216594398,1,colour,0.5,4.0
85,19,0,1,2,26,76,116.62313868419733,117.4799189780606,"[44, 0, 210]",210,a,0.33334055391605943,1,colour,0.5,4.0
85,19,0,1,2,27,77,117.99920561281033,118.8958655630704,"[14, 0, 240]",240,a,0.3717637680238113,1,colour,0.5,4.0
85,19,0,1,2,28,78,119.40699761803262,120.3599093996454,"[26, 0, 228]",228,a,0.4296043738722801,1,colour,0.5,4.0
85,19,0,1,2,29,79,120.87645014072768,121.7599127079593,"[58, 0, 196]",196,l,0.36062147305347025,1,colour,0.5,4.0
85,19,0,1,2,30,80,122.26660572562832,123.17595263454132,"[96, 0, 158]",158,l,0.3860686457483098,1,colour,0.5,4.0
85,19,0,1,2,31,81,123.67614955746103,124.56796559679788,"[40, 0, 214]",214,a,0.3683633024338633,1,colour,0.5,4.0
85,19,0,1,2,32,82,125.0825296251569,125.89593133539893,"[25, 0, 229]",229,a,0.29013289941940457,1,colour,0.5,4.0
85,19,0,1,2,33,83,126.41395411849953,127.25596440269146,"[31, 0, 223]",223,a,0.31862962106242776,1,colour,0.5,4.0
85,19,0,1,2,34,84,127.7734629769111,128.59990965179168,"[88, 0, 166]",166,l,0.30309121788013726,1,colour,0.5,4.0
85,19,0,1,2,35,85,129.1173278815113,129.95187911763787,"[91, 0, 163]",163,l,0.311204049969092,1,colour,0.5,4.0
85,19,0,1,2,36,86,130.46115221991204,131.2239451231435,"[18, 0, 236]",236,a,0.23937009857036173,1,colour,0.5,4.0
85,19,0,1,2,37,87,131.74253110599238,132.6159143684199,"[57, 0, 197]",197,l,0.350704432814382,1,colour,0.5,4.0
85,19,0,1,2,38,88,133.13323295512237,133.9919009525329,"[5, 0, 249]",249,a,0.3329443448456004,1,colour,0.5,4.0
85,19,0,1,2,39,89,134.51068307063542,135.33588086010423,"[47, 0, 207]",207,a,0.30179231404326856,1,colour,0.5,4.0
85,19,0,1,2,40,90,135.85447156906594,136.72791784687433,"[21, 0, 233]",233,a,0.3499769993359223,1,colour,0.5,4.0
85,19,0,1,2,41,91,137.24841240711976,138.0639538821997,"[4, 0, 250]",250,a,0.2920851935632527,1,colour,0.5,4.0
85,19,0,1,2,42,92,138.5766703793779,139.40792354976293,"[12, 0, 242]",242,a,0.30603639758192,1,colour,0.5,4.0
85,19,0,1,2,43,93,139.92235957819503,140.7279320253292,"[86, 0, 168]",168,l,0.28520982526242733,1,colour,0.5,4.0
85,19,0,1,2,44,94,141.24762904760428,142.22392149234656,"[42, 0, 212]",212,a,0.45287200319580734,1,colour,0.5,4.0
85,19,0,1,2,45,95,142.73221313057002,143.54392681713216,"[82, 0, 172]",172,l,0.28845787269528955,1,colour,0.5,4.0
85,19,0,1,2,46,96,144.06037461047526,144.88789530319627,"[97, 0, 157]",157,l,0.30414396803826094,1,colour,0.5,4.0
85,19,0,1,2,47,97,145.40426038892474,146.16023109306116,"[29, 0, 225]",225,a,0.23264675482641906,1,colour,0.5,4.0
85,19,0,1,2,48,98,146.67000910569914,147.5118996606907,"[0, 0, 254]",254,a,0.31844805798027664,1,colour,0.5,4.0
85,19,0,1,2,49,99,148.02946637035348,149.47991070721764,"[54, 0, 200]",200,l,0.9270392553880811,1,colour,0.5,4.0
85,19,0,1,2,50,100,149.9981796441134,151.11992687068414,"[38, 0, 216]",216,a,0.598439818713814,1,colour,0.5,4.0
85,19,0,1,3,1,101,155.2500122092897,155.99189189402387,"[82, 0, 172]",172,l,0.21804019121918827,1,colour,0.5,4.0
85,19,0,1,3,2,102,156.50092868867796,157.31186137883924,"[26, 0, 228]",228,a,0.28754415013827384,1,colour,0.5,4.0
85,19,0,1,3,3,103,157.8291055286536,159.02393125975505,"[76, 0, 178]",178,l,0.6714340402977541,1,colour,0.5,4.0
85,19,0,1,3,4,104,159.5324210023973,160.38389264710713,"[94, 0, 160]",160,l,0.32824733841698617,1,colour,0.5,4.0
85,19,0,1,3,5,105,160.89189638383687,162.0638503007358,"[72, 0, 182]",182,l,0.6486752597847953,1,colour,0.5,4.0
85,19,0,1,3,6,106,162.57952379307244,163.47988038114272,"[71, 0, 183]",183,l,0.37683610967360437,1,colour,0.5,4.0
85,19,0,1,3,7,107,164.00154899607878,164.70387237193063,"[18, 0, 236]",236,a,0.1789647681871429,1,colour,0.5,4.0
85,19,0,1,3,8,108,165.2203252852196,166.01592200913,"[21, 0, 233]",233,a,0.2720986946951598,1,colour,0.5,4.0
85,19,0,1,3,9,109,166.533037765068,167.23987303988542,"[33, 0, 221]",221,a,0.18348651321139187,1,colour,0.5,4.0
85,19,0,1,3,10,110,167.75188415893354,168.37591923645232,"[15, 0, 239]",239,a,0.10061463597230613,1,colour,0.5,4.0
85,19,0,1,3,11,111,168.89256513421424,169.68798817205243,"[75, 0, 179]",179,l,0.27190571010578424,1,colour,0.5,4.0
85,19,0,1,3,12,112,170.20520002651028,170.90389017376583,"[34, 0, 220]",220,a,0.17535871488507837,1,colour,0.5,4.0
85,19,0,1,3,13,113,171.42431699240115,172.20804950175807,"[29, 0, 225]",225,a,0.2607256060000509,1,colour,0.5,4.0
85,19,0,1,3,14,114,172.72099442943,173.7278820069041,"[53, 0, 201]",201,l,0.4835451174294576,1,colour,0.5,4.0
85,19,0,1,3,15,115,174.23675811244175,175.0719225667417,"[38, 0, 216]",216,a,0.3117833973374218,1,colour,0.5,4.0
85,19,0,1,3,16,116,175.58059781091288,176.4159442220116,"[39, 0, 215]",215,a,0.3118976126424968,1,colour,0.5,4.0
85,19,0,1,3,17,117,176.92448910314124,177.71987905784044,"[14, 0, 240]",240,a,0.27213610999751836,1,colour,0.5,4.0
85,19,0,1,3,18,118,178.2370475891512,179.32794210780412,"[54, 0, 200]",200,l,0.5674788032192737,1,colour,0.5,4.0
85,19,0,1,3,19,119,179.8465379368281,180.71986566705164,"[47, 0, 207]",207,a,0.34984151634853333,1,colour,0.5,4.0
85,19,0,1,3,20,120,181.22483718406875,182.5279295835644,"[59, 0, 195]",195,l,0.7798751824302599,1,colour,0.5,4.0
85,19,0,1,3,21,121,183.03733147331513,183.75185225741006,"[36, 0, 218]",218,a,0.1991225901292637,1,colour,0.5,4.0
85,19,0,1,3,22,122,184.26379760412965,185.1360450150678,"[41, 0, 213]",213,a,0.34890337544493377,1,colour,0.5,4.0
85,19,0,1,3,23,123,185.65456207480747,186.58386830741074,"[89, 0, 165]",165,l,0.40605002478696406,1,colour,0.5,4.0
85,19,0,1,3,24,124,187.09220760094468,187.92785766720772,"[52, 0, 202]",202,a,0.31249310763087124,0,colour,0.5,4.0
85,19,0,1,3,25,125,188.4359984624898,189.35192968754563,"[7, 0, 247]",247,a,0.39280341111589223,1,colour,0.5,4.0
85,19,0,1,3,26,126,189.87362114549614,190.7038889133837,"[99, 0, 155]",155,l,0.3069229448447004,1,colour,0.5,4.0
85,19,0,1,3,27,127,191.21844545868225,192.4639504951192,"[70, 0, 184]",184,l,0.7224516592686996,1,colour,0.5,4.0
85,19,0,1,3,28,128,192.9842225323664,193.78391761693638,"[84, 0, 170]",170,l,0.27636168291792274,1,colour,0.5,4.0
85,19,0,1,3,29,129,194.29689523379784,195.06388456537388,"[28, 0, 226]",226,a,0.24360591149888933,1,colour,0.5,4.0
85,19,0,1,3,30,130,195.57829893217422,197.27985864086077,"[80, 0, 174]",174,l,1.1782046455191448,1,colour,0.5,4.0
85,19,0,1,3,31,131,197.79731664899737,198.63985783734825,"[30, 0, 224]",224,a,0.3197623217711225,1,colour,0.5,4.0
85,19,0,1,3,32,132,199.15674595045857,200.2078600617824,"[11, 0, 243]",243,a,0.5277192697394639,1,colour,0.5,4.0
85,19,0,1,3,33,133,200.71940644271672,201.55186044937,"[12, 0, 242]",242,a,0.3091796819353476,1,colour,0.5,4.0
85,19,0,1,3,34,134,202.06325165496673,202.95992105756886,"[22, 0, 232]",232,a,0.37329779798164964,1,colour,0.5,4.0
85,19,0,1,3,35,135,203.4696195133729,204.48789041943382,"[20, 0, 234]",234,a,0.49498043372295797,1,colour,0.5,4.0
85,19,0,1,3,36,136,205.00123391929083,205.98385743726976,"[83, 0, 171]",171,l,0.4592995686689392,1,colour,0.5,4.0
85,19,0,1,3,37,137,206.50135994993616,207.49590518395416,"[91, 0, 163]",163,l,0.47591947263572365,1,colour,0.5,4.0
85,19,0,1,3,38,138,208.01235258346424,209.0399028933607,"[56, 0, 198]",198,l,0.5040475545683876,1,colour,0.5,4.0
85,19,0,1,3,39,139,209.55931989115197,210.43191349250264,"[68, 0, 186]",186,l,0.3496658611111343,1,colour,0.5,4.0
85,19,0,1,3,40,140,210.9500122880563,211.8798490309855,"[74, 0, 180]",180,l,0.4064127567689866,1,colour,0.5,4.0
85,19,0,1,3,41,141,212.37894160998985,213.42392472189385,"[73, 0, 181]",181,l,0.5218478147871792,1,colour,0.5,4.0
85,19,0,1,3,42,142,213.94144298846368,214.8319774530828,"[87, 0, 167]",167,l,0.36723375227302313,1,colour,0.5,4.0
85,19,0,1,3,43,143,215.3478628344601,216.66382887552027,"[62, 0, 192]",192,a,0.7924947933061048,0,colour,0.5,4.0
85,19,0,1,3,44,144,217.17620272666682,218.06382982071955,"[8, 0, 246]",246,a,0.3709559900453314,1,colour,0.5,4.0
85,19,0,1,3,45,145,218.57778653863352,219.4798425718909,"[2, 0, 252]",252,a,0.3787442931206897,1,colour,0.5,4.0
85,19,0,1,3,46,146,219.99975266482215,220.85585081751924,"[25, 0, 229]",229,a,0.3327486034249887,1,colour,0.5,4.0
85,19,0,1,3,47,147,221.37484797544312,222.2318440969102,"[37, 0, 217]",217,a,0.33386003656778485,1,colour,0.5,4.0
85,19,0,1,3,48,148,222.75000393844675,223.63983656966593,"[45, 0, 209]",209,a,0.3665779987350106,1,colour,0.5,4.0
85,19,0,1,3,49,149,224.15633910766337,225.2878667099867,"[69, 0, 185]",185,l,0.6081595423165709,1,colour,0.5,4.0
85,19,0,1,3,50,150,225.7971193321282,226.71984558086842,"[64, 0, 190]",190,l,0.41154259990435094,1,colour,0.5,4.0
85,19,0,1,4,1,151,232.4253945548553,233.3518150782911,"[72, 0, 182]",182,l,0.40270469745155424,1,colour,0.5,4.0
85,19,0,1,4,2,152,233.86195621697698,234.77580990479328,"[41, 0, 213]",213,a,0.3904044955270365,1,colour,0.5,4.0
85,19,0,1,4,3,153,235.27894609980285,236.13617971038911,"[10, 0, 244]",244,a,0.3337836305145174,1,colour,0.5,4.0
85,19,0,1,4,4,154,236.654029989033,237.6078487978084,"[47, 0, 207]",207,a,0.43972306326031685,1,colour,0.5,4.0
85,19,0,1,4,5,155,238.1292421144899,238.9678460251307,"[28, 0, 226]",226,a,0.315187013708055,1,colour,0.5,4.0
85,19,0,1,4,6,156,239.48867850517854,240.43181384948548,"[64, 0, 190]",190,l,0.4197117519797757,1,colour,0.5,4.0
85,19,0,1,4,7,157,240.94193923426792,241.79984907829203,"[3, 0, 251]",251,a,0.33500179601833224,1,colour,0.5,4.0
85,19,0,1,4,8,158,242.31706368958112,243.20780925569125,"[18, 0, 236]",236,a,0.3673436352983117,1,colour,0.5,4.0
85,19,0,1,4,9,159,243.72545197757427,244.66393994004466,"[57, 0, 197]",197,l,0.41553580365143716,1,colour,0.5,4.0
85,19,0,1,4,10,160,245.17864142067265,246.0558158439817,"[32, 0, 222]",222,a,0.35377367411274463,1,colour,0.5,4.0
85,19,0,1,4,11,161,246.56944370048586,247.44784534780774,"[29, 0, 225]",225,a,0.35534787632059306,1,colour,0.5,4.0
85,19,0,1,4,12,162,247.96008883591276,248.80781343043782,"[65, 0, 189]",189,l,0.3243128175381571,1,colour,0.5,4.0
85,19,0,1,4,13,163,249.31956776196603,250.27188089780975,"[95, 0, 159]",159,l,0.42892302037216723,1,colour,0.5,4.0
85,19,0,1,4,14,164,250.78852718952112,251.6398373574484,"[24, 0, 230]",230,a,0.3280669569503516,1,colour,0.5,4.0
85,19,0,1,4,15,165,252.14774972200394,253.02383476751857,"[38, 0, 216]",216,a,0.3534172435756773,1,colour,0.5,4.0
85,19,0,1,4,16,166,253.53861107875127,254.43984200479463,"[48, 0, 206]",206,a,0.37878801010083407,1,colour,0.5,4.0
85,19,0,1,4,17,167,254.96076861396432,255.93585431482643,"[59, 0, 195]",195,l,0.4516947977244854,1,colour,0.5,4.0
85,19,0,1,4,18,168,256.44523572467733,257.3118176619755,"[1, 0, 253]",253,a,0.34323711413890123,1,colour,0.5,4.0
85,19,0,1,4,19,169,257.8203700261656,258.6398338128347,"[60, 0, 194]",194,l,0.29611699434462935,1,colour,0.5,4.0
85,19,0,1,4,20,170,259.14960709935986,260.0318219627952,"[21, 0, 233]",233,a,0.3589429018320516,1,colour,0.5,4.0
85,19,0,1,4,21,171,260.53105868934654,261.37581762415357,"[2, 0, 252]",252,a,0.3214790961937979,1,colour,0.5,4.0
85,19,0,1,4,22,172,261.8904521508375,262.73584872228093,"[0, 0, 254]",254,a,0.3220722283003852,1,colour,0.5,4.0
85,19,0,1,4,23,173,263.2499330461724,264.4558380568633,"[51, 0, 203]",203,l,0.6825137137202546,1,colour,0.5,4.0
85,19,0,1,4,24,174,264.9687861354323,265.8477982437471,"[98, 0, 156]",156,l,0.36806870554573834,1,colour,0.5,4.0
85,19,0,1,4,25,175,266.3627710841829,267.23982459679246,"[99, 0, 155]",155,l,0.35360313882119954,1,colour,0.5,4.0
85,19,0,1,4,26,176,267.753467419534,268.7198377039749,"[61, 0, 193]",193,a,0.44294078450184315,0,colour,0.5,4.0
85,19,0,1,4,27,177,269.2379408318084,270.09585815877654,"[83, 0, 171]",171,l,0.3344519870588556,1,colour,0.5,4.0
85,19,0,1,4,28,178,270.61399870191235,271.47981500276364,"[50, 0, 204]",204,a,0.3424864439293742,1,colour,0.5,4.0
85,19,0,1,4,29,179,271.9890782587463,272.8317750162678,"[35, 0, 219]",219,a,0.3193806851049885,1,colour,0.5,4.0
85,19,0,1,4,30,180,273.34849220025353,274.247826364357,"[39, 0, 215]",215,a,0.3758833963656798,1,colour,0.5,4.0
85,19,0,1,4,31,181,274.754954581731,275.3758180179866,"[42, 0, 212]",212,a,0.09755090856924653,1,colour,0.5,4.0
85,19,0,1,4,32,182,275.8956276801182,276.8317876193905,"[81, 0, 173]",173,l,0.412816297612153,1,colour,0.5,4.0
85,19,0,1,4,33,183,277.3488698985893,278.28782850690186,"[13, 0, 241]",241,a,0.4156283575575799,1,colour,0.5,4.0
85,19,0,1,4,34,184,278.802102664602,279.76784752181266,"[63, 0, 191]",191,l,0.4423897940432653,1,colour,0.5,4.0
85,19,0,1,4,35,185,280.2865587476408,281.27982634550426,"[58, 0, 196]",196,a,0.4698621224379167,0,colour,0.5,4.0
85,19,0,1,4,36,186,281.78666035993956,282.71189265022986,"[14, 0, 240]",240,a,0.40178034105338156,1,colour,0.5,4.0
85,19,0,1,4,37,187,283.224244052195,284.1918191113509,"[68, 0, 186]",186,l,0.4445748511934653,1,colour,0.5,4.0
85,19,0,1,4,38,188,284.7088222274324,285.60785943164956,"[19, 0, 235]",235,a,0.37579044874291867,1,colour,0.5,4.0
85,19,0,1,4,39,189,286.1151148612844,287.07979633437935,"[12, 0, 242]",242,a,0.44125197315588593,1,colour,0.5,4.0
85,19,0,1,4,40,190,287.58599822619,288.5438303248957,"[52, 0, 202]",202,a,0.4344884571619332,0,colour,0.5,4.0
85,19,0,1,4,41,191,289.05485840456095,289.943791885511,"[75, 0, 179]",179,l,0.36548665177542716,1,colour,0.5,4.0
85,19,0,1,4,42,192,290.4612049952848,291.6398038804764,"[56, 0, 198]",198,a,0.6552170405630022,0,colour,0.5,4.0
85,19,0,1,4,43,193,292.14880365366116,293.01582354761194,"[40, 0, 214]",214,a,0.3436029970180243,1,colour,0.5,4.0
85,19,0,1,4,44,194,293.523961979663,294.39984734531026,"[6, 0, 248]",248,a,0.35258544085081667,1,colour,0.5,4.0
85,19,0,1,4,45,195,294.9147658350412,295.9837991480017,"[89, 0, 165]",165,l,0.5457077883183956,1,colour,0.5,4.0
85,19,0,1,4,46,196,296.49296669953037,297.871799214161,"[78, 0, 176]",176,l,0.855528257554397,1,colour,0.5,4.0
85,19,0,1,4,47,197,298.3790743360296,301.2559061134234,"[69, 0, 185]",185,l,2.3536133787129074,1,colour,0.5,4.0
85,19,0,1,4,48,198,301.77180843020324,302.6478568480816,"[88, 0, 166]",166,l,0.3526701178634539,1,colour,0.5,4.0
85,19,0,1,4,49,199,303.1625201255083,304.0801047157729,"[79, 0, 175]",175,l,0.39309918927028775,1,colour,0.5,4.0
85,19,0,1,4,50,200,304.60130662319716,305.3997910253238,"[22, 0, 232]",232,a,0.28479510557372123,1,colour,0.5,4.0
85,19,0,1,5,1,201,312.4509925704915,313.3758227440994,"[79, 0, 175]",175,l,0.40062085865065455,1,colour,0.5,4.0
85,19,0,1,5,2,202,313.8790121084312,314.91982005967293,"[75, 0, 179]",179,l,0.5174481619615108,1,colour,0.5,4.0
85,19,0,1,5,3,203,315.4415308161406,316.3277904771967,"[6, 0, 248]",248,a,0.36302157025784254,1,colour,0.5,4.0
85,19,0,1,5,4,204,316.8479380591307,317.7757614617003,"[13, 0, 241]",241,a,0.40437499806284904,1,colour,0.5,4.0
85,19,0,1,5,5,205,318.2855406559538,319.28779187926557,"[73, 0, 181]",181,l,0.47880242485553026,1,colour,0.5,4.0
85,19,0,1,5,6,206,319.8013157604728,320.64777886657976,"[31, 0, 223]",223,a,0.3229954030830413,1,colour,0.5,4.0
85,19,0,1,5,7,207,321.14841453393456,322.41577604971826,"[62, 0, 192]",192,l,0.7438886928139254,1,colour,0.5,4.0
85,19,0,1,5,8,208,322.92980287224054,323.7998222967144,"[18, 0, 236]",236,a,0.34657259518280625,1,colour,0.5,4.0
85,19,0,1,5,9,209,324.3205811275402,325.207822252647,"[48, 0, 206]",206,a,0.36387739737983793,1,colour,0.5,4.0
85,19,0,1,5,10,210,325.7269194475375,326.5518057048321,"[54, 0, 200]",200,a,0.30153355724178255,0,colour,0.5,4.0
85,19,0,1,5,11,211,327.07082925050054,327.9198432966368,"[74, 0, 180]",180,l,0.32645652105566114,1,colour,0.5,4.0
85,19,0,1,5,12,212,328.4303144781152,329.55176632024813,"[61, 0, 193]",193,a,0.5980392774799839,0,colour,0.5,4.0
85,19,0,1,5,13,213,330.07099033345,330.92775684269145,"[9, 0, 245]",245,a,0.334085316513665,1,colour,0.5,4.0
85,19,0,1,5,14,214,331.44719510816503,332.3600125872763,"[70, 0, 184]",184,l,0.3894064899068326,1,colour,0.5,4.0
85,19,0,1,5,15,215,332.86922464345116,333.70381723344326,"[97, 0, 157]",157,l,0.31121822842396796,1,colour,0.5,4.0
85,19,0,1,5,16,216,334.2158295341069,334.9117733936291,"[33, 0, 221]",221,a,0.17567300389055163,1,colour,0.5,4.0
85,19,0,1,5,17,217,335.4315196466632,336.32777590479236,"[81, 0, 173]",173,l,0.37188349722418934,1,colour,0.5,4.0
85,19,0,1,5,18,218,336.83889850752894,337.68783181521576,"[12, 0, 242]",242,a,0.3255648538470268,1,colour,0.5,4.0
85,19,0,1,5,19,219,338.1982592798304,339.47982169804163,"[72, 0, 182]",182,l,0.7579761676024646,1,colour,0.5,4.0
85,19,0,1,5,20,220,339.99545619962737,341.0802122356836,"[68, 0, 186]",186,l,0.5614580805413425,1,colour,0.5,4.0
85,19,0,1,5,21,221,341.5892659657402,342.43979553098325,"[36, 0, 218]",218,a,0.3271772590233013,1,colour,0.5,4.0
85,19,0,1,5,22,222,342.94878033793066,343.7837837092811,"[25, 0, 229]",229,a,0.3110689608147368,1,colour,0.5,4.0
85,19,0,1,5,23,223,344.2926137348404,345.16783310705796,"[37, 0, 217]",217,a,0.35177805682178587,1,colour,0.5,4.0
85,19,0,1,5,24,224,345.68605005624704,349.5837576367194,"[46, 0, 208]",208,a,3.3744659449439496,1,colour,0.5,4.0
85,19,0,1,5,25,225,350.0925782099366,351.07192965596914,"[58, 0, 196]",196,a,0.4560152875492349,0,colour,0.5,4.0
85,19,0,1,5,26,226,351.5927184190368,352.46384297520854,"[10, 0, 244]",244,a,0.3477293207542971,1,colour,0.5,4.0
85,19,0,1,5,27,227,352.98348367749713,353.911820655223,"[30, 0, 224]",224,a,0.4050736806821078,1,colour,0.5,4.0
85,19,0,1,5,28,228,354.41239606402814,355.3757833595155,"[15, 0, 239]",239,a,0.4399629153776914,1,colour,0.5,4.0
85,19,0,1,5,29,229,355.8969939316157,356.80777050124016,"[35, 0, 219]",219,a,0.38750657718628645,1,colour,0.5,4.0
85,19,0,1,5,30,230,357.3188462362159,358.2877481622854,"[84, 0, 170]",170,l,0.44547872757539153,1,colour,0.5,4.0
85,19,0,1,5,31,231,358.8033700607484,359.7437662067823,"[41, 0, 213]",213,a,0.417009181343019,1,colour,0.5,4.0
85,19,0,1,5,32,232,360.25658116536215,361.2397986029973,"[55, 0, 199]",199,a,0.45985410374123603,0,colour,0.5,4.0
85,19,0,1,5,33,233,361.7566697807051,362.8398862730246,"[80, 0, 174]",174,l,0.5597869923803955,1,colour,0.5,4.0
85,19,0,1,5,34,234,363.35058627906255,364.22380255092867,"[77, 0, 177]",177,l,0.3491184153826907,1,colour,0.5,4.0
85,19,0,1,5,35,235,364.7424625768326,365.89575843699276,"[83, 0, 171]",171,l,0.6301089692860842,1,colour,0.5,4.0
85,19,0,1,5,36,236,366.41454685665667,367.34376329230145,"[28, 0, 226]",226,a,0.40597046783659607,1,colour,0.5,4.0
85,19,0,1,5,37,237,367.85213448735885,368.87973954179324,"[56, 0, 198]",198,a,0.5043149759294465,0,colour,0.5,4.0
85,19,0,1,5,38,238,369.39905138278846,370.2157550972188,"[11, 0, 243]",243,a,0.29332226363476366,1,colour,0.5,4.0
85,19,0,1,5,39,239,370.7273349548923,371.7197754763765,"[69, 0, 185]",185,l,0.469087821431458,1,colour,0.5,4.0
85,19,0,1,5,40,240,372.22747555794194,373.11979571997654,"[24, 0, 230]",230,a,0.3689883358310908,1,colour,0.5,4.0
85,19,0,1,5,41,241,373.6337823702488,374.61581590701826,"[66, 0, 188]",188,l,0.4586635074811056,1,colour,0.5,4.0
85,19,0,1,5,42,242,375.1339525117073,376.0237733274698,"[8, 0, 246]",246,a,0.3671923984074965,1,colour,0.5,4.0
85,19,0,1,5,43,243,376.5415842216462,377.4081062943442,"[82, 0, 172]",172,l,0.3433887448627502,1,colour,0.5,4.0
85,19,0,1,5,44,244,377.9166842584964,378.81576596735977,"[23, 0, 231]",231,a,0.3756923811743036,1,colour,0.5,4.0
85,19,0,1,5,45,245,379.3230485722888,380.2957853761036,"[92, 0, 162]",162,l,0.4493923746049404,1,colour,0.5,4.0
85,19,0,1,5,46,246,380.807557430584,381.7117705580313,"[43, 0, 211]",211,a,0.39326775539666414,1,colour,0.5,4.0
85,19,0,1,5,47,247,382.23271685943473,383.0957742695464,"[21, 0, 233]",233,a,0.3397858423413709,1,colour,0.5,4.0
85,19,0,1,5,48,248,383.6078389517497,386.7677533925744,"[99, 0, 155]",155,l,2.6367531499126926,1,colour,0.5,4.0
85,19,0,1,5,49,249,387.2800303576514,388.2477779213805,"[65, 0, 189]",189,l,0.44424953451380134,1,colour,0.5,4.0
85,19,0,1,5,50,250,388.76446123456117,389.6237365423003,"[34, 0, 220]",220,a,0.33585959230549634,1,colour,0.5,4.0
85,19,0,1,6,1,251,396.0141658501234,397.94376116560306,"[55, 0, 199]",199,a,1.4069468119414523,0,colour,0.5,4.0
85,19,0,1,6,2,252,398.45113435504027,399.32802363391966,"[45, 0, 209]",209,a,0.3534924681298435,1,colour,0.5,4.0
85,19,0,1,6,3,253,399.84178697352763,400.73573332536034,"[20, 0, 234]",234,a,0.37075631017796695,1,colour,0.5,4.0
85,19,0,1,6,4,254,401.2481406534789,402.1597781702876,"[77, 0, 177]",177,l,0.38853530283086,1,colour,0.5,4.0
85,19,0,1,6,5,255,402.67025683482643,403.4877301241504,"[48, 0, 206]",206,a,0.29414225078653544,1,colour,0.5,4.0
85,19,0,1,6,6,256,404.00122525473125,404.76776993414387,"[14, 0, 240]",240,a,0.243175437906757,1,colour,0.5,4.0
85,19,0,1,6,7,257,405.27910363825504,406.0397607149789,"[62, 0, 192]",192,a,0.2372472690185532,0,colour,0.5,4.0
85,19,0,1,6,8,258,406.56076766876504,407.2077474219259,"[90, 0, 164]",164,l,0.12382043153047562,1,colour,0.5,4.0
85,19,0,1,6,9,259,407.71717412397265,408.2557525135344,"[13, 0, 241]",241,a,0.015161492628976703,1,colour,0.5,4.0
85,19,0,1,6,10,260,408.7641406439943,410.0237418198958,"[64, 0, 190]",190,a,0.7362173619912937,0,colour,0.5,4.0
85,19,0,1,6,11,261,410.52987281931564,411.2397863937076,"[42, 0, 212]",212,a,0.18640648678410798,1,colour,0.5,4.0
85,19,0,1,6,12,262,411.74874363152776,412.30374263902195,"[34, 0, 220]",220,a,0.031598652130924165,1,colour,0.5,4.0
85,19,0,1,6,13,263,412.81128596991766,413.4157409975305,"[24, 0, 230]",230,a,0.08102828450500965,1,colour,0.5,4.0
85,19,0,1,6,14,264,413.93639782222454,414.48774509038776,"[1, 0, 253]",253,a,0.02798157127108425,1,colour,0.5,4.0
85,19,0,1,6,15,265,414.9990075082751,415.575742478366,"[43, 0, 211]",211,a,0.053346823900938034,1,colour,0.5,4.0
85,19,0,1,6,16,266,416.09286847442854,418.63976331439335,"[30, 0, 224]",224,a,2.023574829217978,1,colour,0.5,4.0
85,19,0,1,6,17,267,419.15551715123,419.72779378539417,"[7, 0, 247]",247,a,0.04879672185052186,1,colour,0.5,4.0
85,19,0,1,6,18,268,420.2338058433961,421.03970990888774,"[82, 0, 172]",172,l,0.2825647561112419,1,colour,0.5,4.0
85,19,0,1,6,19,269,421.5478605502285,422.12774234917015,"[17, 0, 237]",237,a,0.05652673589065671,1,colour,0.5,4.0
85,19,0,1,6,20,270,422.6416711040074,423.36775087204296,"[38, 0, 216]",216,a,0.2029870062833652,1,colour,0.5,4.0
85,19,0,1,6,21,271,423.8765679006465,424.5357505758293,"[86, 0, 168]",168,l,0.13665508234407753,1,colour,0.5,4.0
85,19,0,1,6,22,272,425.0480681069894,426.03179124277085,"[59, 0, 195]",195,a,0.4602621280355379,0,colour,0.5,4.0
85,19,0,1,6,23,273,426.55001252435613,427.2316936478019,"[72, 0, 182]",182,l,0.15828470652922988,1,colour,0.5,4.0
85,19,0,1,6,24,274,427.73743946594186,428.30373358062934,"[36, 0, 218]",218,a,0.04279844858683646,1,colour,0.5,4.0
85,19,0,1,6,25,275,428.81585143192206,431.3037288544001,"[57, 0, 197]",197,a,1.9645562301157042,0,colour,0.5,4.0
85,19,0,1,6,26,276,431.81611570250243,434.13574332906865,"[51, 0, 203]",203,a,1.7963576341280714,0,colour,0.5,4.0
85,19,0,1,6,27,277,434.64446662238333,435.5437641587341,"[40, 0, 214]",214,a,0.3759787071030587,1,colour,0.5,4.0
85,19,0,1,6,28,278,436.05076870846096,436.7997699151747,"[46, 0, 208]",208,a,0.225574069772847,1,colour,0.5,4.0
85,19,0,1,6,29,279,437.31646504381206,438.1037165664602,"[63, 0, 191]",191,l,0.26391890877857804,1,colour,0.5,4.0
85,19,0,1,6,30,280,438.6133732745657,439.4157409975305,"[92, 0, 162]",162,l,0.27881928149145097,1,colour,0.5,4.0
85,19,0,1,6,31,281,439.92612080671825,440.5837765412871,"[10, 0, 244]",244,a,0.13428767456207424,1,colour,0.5,4.0
85,19,0,1,6,32,282,441.09975920256693,442.0397571703652,"[47, 0, 207]",207,a,0.4166295138420537,1,colour,0.5,4.0
85,19,0,1,6,33,283,442.5529663687339,443.4236793558812,"[50, 0, 204]",204,a,0.34737879782915115,1,colour,0.5,4.0
85,19,0,1,6,34,284,443.9442786790896,444.8396960454993,"[73, 0, 181]",181,l,0.3721993616782129,1,colour,0.5,4.0
85,19,0,1,6,35,285,445.3512436079327,446.13574569218326,"[78, 0, 176]",176,l,0.26171573472674936,1,colour,0.5,4.0
85,19,0,1,6,36,286,446.6476591373794,447.4557246292243,"[68, 0, 186]",186,l,0.28477147477678955,1,colour,0.5,4.0
85,19,0,1,6,37,287,447.97586551576387,448.8077374182176,"[79, 0, 175]",175,l,0.30867437762208283,1,colour,0.5,4.0
85,19,0,1,6,38,288,449.31968906649854,450.1357074890984,"[67, 0, 187]",187,l,0.2926283071283251,1,colour,0.5,4.0
85,19,0,1,6,39,289,450.64788441732526,451.4479146646336,"[56, 0, 198]",198,l,0.27663973812013865,1,colour,0.5,4.0
85,19,0,1,6,40,290,451.9604881956475,452.75170417129993,"[15, 0, 239]",239,a,0.2678829678334296,1,colour,0.5,4.0
85,19,0,1,6,41,291,453.27313884173054,454.03181447973475,"[11, 0, 243]",243,a,0.23605509754270315,1,colour,0.5,4.0
85,19,0,1,6,42,292,454.52747429767624,455.47977837501094,"[49, 0, 205]",205,a,0.428930897382088,1,colour,0.5,4.0
85,19,0,1,6,43,293,455.99456335091963,456.8637946897652,"[37, 0, 217]",217,a,0.3446061225840822,1,colour,0.5,4.0
85,19,0,1,6,44,294,457.3583222005982,458.1757123884745,"[69, 0, 185]",185,l,0.2942344107432291,1,colour,0.5,4.0
85,19,0,1,6,45,295,458.68663255439606,459.48773603187874,"[18, 0, 236]",236,a,0.27802843879908323,1,colour,0.5,4.0
85,19,0,1,6,46,296,459.9991674097255,460.879727726453,"[58, 0, 196]",196,l,0.3572048597270623,1,colour,0.5,4.0
85,19,0,1,6,47,297,461.3791499545332,462.1196862309007,"[26, 0, 228]",228,a,0.21718751487787813,1,colour,0.5,4.0
85,19,0,1,6,48,298,462.6292299052002,463.4077132360544,"[74, 0, 180]",180,l,0.25508218770846725,1,colour,0.5,4.0
85,19,0,1,6,49,299,463.92612513899803,465.0556902071694,"[53, 0, 201]",201,l,0.6061871619895101,1,colour,0.5,4.0
85,19,0,1,6,50,300,465.5670499050757,466.4316854557255,"[75, 0, 179]",179,l,0.34164873347617686,1,colour,0.5,4.0
85,19,0,1,7,1,301,476.5983728650026,477.19168480986264,"[96, 0, 158]",158,l,0.06916288833599538,1,colour,0.5,3.9
85,19,0,1,7,2,302,477.7086213659495,478.7277150162263,"[70, 0, 184]",184,l,0.49588943005073816,1,colour,0.5,3.9
85,19,0,1,7,3,303,479.2406315871049,480.1277352599427,"[97, 0, 157]",157,l,0.3637458528392017,1,colour,0.5,3.9
85,19,0,1,7,4,304,480.647103420808,481.61573123012204,"[83, 0, 171]",171,l,0.44524596468545496,1,colour,0.5,3.9
85,19,0,1,7,5,305,482.13142914080527,483.0156994861318,"[75, 0, 179]",179,l,0.36006733193062246,1,colour,0.5,3.9
85,19,0,1,7,6,306,483.5231404170627,484.9356920502614,"[27, 0, 227]",227,a,0.8893226006766781,1,colour,0.5,3.9
85,19,0,1,7,7,307,485.44503131869715,486.3757014395669,"[37, 0, 217]",217,a,0.4072327440371737,1,colour,0.5,3.9
85,19,0,1,7,8,308,486.87915271136444,487.7756822986994,"[50, 0, 204]",204,a,0.3731808257289231,1,colour,0.5,3.9
85,19,0,1,7,9,309,488.2873696764,489.1277171430411,"[72, 0, 182]",182,l,0.31691993586719036,1,colour,0.5,3.9
85,19,0,1,7,10,310,489.6469171317294,490.4236620266456,"[4, 0, 250]",250,a,0.2533213025890291,1,colour,0.5,3.9
85,19,0,1,7,11,311,490.94391437165905,491.81569231813774,"[66, 0, 188]",188,l,0.34848511102609336,1,colour,0.5,3.9
85,19,0,1,7,12,312,492.33462646079715,493.19168402219657,"[43, 0, 211]",211,a,0.33372061513364315,1,colour,0.5,3.9
85,19,0,1,7,13,313,493.70969223300926,494.4716777520953,"[21, 0, 233]",233,a,0.2392460370901972,1,colour,0.5,3.9
85,19,0,1,7,14,314,494.9910963253351,495.6156949963188,"[84, 0, 170]",170,l,0.10133537405636162,1,colour,0.5,3.9
85,19,0,1,7,15,315,496.1317737560021,496.7197065532673,"[48, 0, 206]",206,a,0.06443870649673045,1,colour,0.5,3.9
85,19,0,1,7,16,316,497.2255732821068,498.03166560595855,"[44, 0, 210]",210,a,0.2829034636961296,1,colour,0.5,3.9
85,19,0,1,7,17,317,498.538154217531,499.3196863096673,"[12, 0, 242]",242,a,0.26984825904946774,1,colour,0.5,3.9
85,19,0,1,7,18,318,499.8391103965696,500.5676922677085,"[34, 0, 220]",220,a,0.20531109103467315,1,colour,0.5,3.9
85,19,0,1,7,19,319,501.0891690796707,502.07972307910677,"[0, 0, 254]",254,a,0.4671670348616317,1,colour,0.5,3.9
85,19,0,1,7,20,320,502.58930889493786,503.42370928812306,"[93, 0, 161]",161,l,0.3109693177975714,1,colour,0.5,3.9
85,19,0,1,7,21,321,503.9331773441518,505.66371978027746,"[71, 0, 183]",183,l,1.2072110037552193,1,colour,0.5,3.9
85,19,0,1,7,22,322,506.1833935654722,507.0476884394884,"[45, 0, 209]",209,a,0.3409969185013324,1,colour,0.5,3.9
85,19,0,1,7,23,323,507.55848060548306,508.3277030433528,"[23, 0, 231]",231,a,0.2460721746319905,1,colour,0.5,3.9
85,19,0,1,7,24,324,508.83978466084227,509.6716656216886,"[33, 0, 221]",221,a,0.31133204989600927,1,colour,0.5,3.9
85,19,0,1,7,25,325,510.18086428695824,510.9516739239916,"[78, 0, 176]",176,l,0.24751010606996715,1,colour,0.5,3.9
85,19,0,1,7,26,326,511.4622723177308,512.2476963952649,"[9, 0, 245]",245,a,0.2744432594627142,1,colour,0.5,3.9
85,19,0,1,7,27,327,512.7625113034155,513.5436704234453,"[86, 0, 168]",168,l,0.257721743080765,1,colour,0.5,3.9
85,19,0,1,7,28,328,514.059408900328,514.8156927119708,"[7, 0, 247]",247,a,0.23296104394830763,1,colour,0.5,3.9
85,19,0,1,7,29,329,515.3252119679237,515.9757434235653,"[74, 0, 180]",180,l,0.12742057698778808,1,colour,0.5,3.9
85,19,0,1,7,30,330,516.4971162602305,517.2796983455773,"[40, 0, 214]",214,a,0.25917109614238143,1,colour,0.5,3.9
85,19,0,1,7,31,331,517.794321056921,518.6156934208702,"[53, 0, 201]",201,a,0.29822249454446137,0,colour,0.5,3.9
85,19,0,1,7,32,332,519.1223785615293,519.8556826452259,"[29, 0, 225]",225,a,0.20992617751471698,1,colour,0.5,3.9
85,19,0,1,7,33,333,520.3724644199247,521.1436714474112,"[20, 0, 234]",234,a,0.2478948935167864,1,colour,0.5,3.9
85,19,0,1,7,34,334,521.6537818660727,522.407675820752,"[38, 0, 216]",216,a,0.2305503130191937,1,colour,0.5,3.9
85,19,0,1,7,35,335,522.9195297952974,523.6556912311353,"[95, 0, 159]",159,l,0.21284654503688216,1,colour,0.5,3.9
85,19,0,1,7,36,336,524.1695853275014,524.9356766903074,"[51, 0, 203]",203,a,0.24259727203752846,0,colour,0.5,3.9
85,19,0,1,7,37,337,525.4510126566747,526.2556674428051,"[64, 0, 190]",190,l,0.2812016553943977,1,colour,0.5,3.9
85,19,0,1,7,38,338,526.7635742935818,527.679720952292,"[58, 0, 196]",196,l,0.3930810723686591,1,colour,0.5,3.9
85,19,0,1,7,39,339,528.2011111180764,529.0958573711105,"[54, 0, 200]",200,a,0.3712998175760731,0,colour,0.5,3.9
85,19,0,1,7,40,340,529.6074998503318,530.2877635223558,"[1, 0, 253]",253,a,0.1569180611986667,1,colour,0.5,3.9
85,19,0,1,7,41,341,530.7951138687786,531.5196820560377,"[19, 0, 235]",235,a,0.20116704422980547,1,colour,0.5,3.9
85,19,0,1,7,42,342,532.0295782225439,532.6956539890962,"[15, 0, 239]",239,a,0.14264626649674028,1,colour,0.5,3.9
85,19,0,1,7,43,343,533.2016128778923,533.9916705526412,"[77, 0, 177]",177,l,0.26675893168430775,1,colour,0.5,3.9
85,19,0,1,7,44,344,534.498423828627,535.1996826389804,"[28, 0, 226]",226,a,0.17769461497664452,1,colour,0.5,3.9
85,19,0,1,7,45,345,535.7174419392832,536.4236699035391,"[82, 0, 172]",172,l,0.1828567534685135,1,colour,0.5,3.9
85,19,0,1,7,46,346,536.9361926284619,537.7036506365985,"[68, 0, 186]",186,l,0.24399778817314655,1,colour,0.5,3.9
85,19,0,1,7,47,347,538.2175860868301,538.8556664976059,"[24, 0, 230]",230,a,0.11478245526086539,1,colour,0.5,3.9
85,19,0,1,7,48,348,539.3739476436749,540.4556761862477,"[91, 0, 163]",163,l,0.5583852947456762,1,colour,0.5,3.9
85,19,0,1,7,49,349,540.9678594159195,543.751698263688,"[60, 0, 194]",194,a,2.2604924492770806,0,colour,0.5,3.9
85,19,0,1,7,50,350,544.2649003727129,544.9436717624776,"[26, 0, 228]",228,a,0.1557073787553236,1,colour,0.5,3.9
85,19,0,1,8,1,351,550.2504982150858,551.2796514779329,"[68, 0, 186]",186,l,0.504959701676853,1,colour,0.5,3.9
85,19,0,1,8,2,352,551.7982382484479,552.4796551013133,"[92, 0, 162]",162,l,0.15796175284776837,1,colour,0.5,3.9
85,19,0,1,8,3,353,552.9858959837584,553.7756547294557,"[28, 0, 226]",226,a,0.266429282608442,1,colour,0.5,3.9
85,19,0,1,8,4,354,554.2829070083098,555.0716945299646,"[27, 0, 227]",227,a,0.26555652008391917,1,colour,0.5,3.9
85,19,0,1,8,5,355,555.5799038544064,556.3196674049832,"[11, 0, 243]",243,a,0.2165022228145972,1,colour,0.5,3.9
85,19,0,1,8,6,356,556.8226574832806,557.6396384652471,"[71, 0, 183]",183,l,0.29064292984548956,1,colour,0.5,3.9
85,19,0,1,8,7,357,558.1546877117362,562.8636473913211,"[51, 0, 203]",203,l,4.186235557659529,1,colour,0.5,3.9
85,19,0,1,8,8,358,563.373221391812,564.0236571429996,"[98, 0, 156]",156,l,0.12789516139309853,1,colour,0.5,3.9
85,19,0,1,8,9,359,564.5295136318309,566.0396673735231,"[62, 0, 192]",192,l,0.986792377079837,1,colour,0.5,3.9
85,19,0,1,8,10,360,566.5609512008959,567.2316664723912,"[44, 0, 210]",210,a,0.1475134143838659,1,colour,0.5,3.9
85,19,0,1,8,11,361,567.7512414023513,568.4956665133359,"[82, 0, 172]",172,l,0.22099797404371202,1,colour,0.5,3.9
85,19,0,1,8,12,362,569.016979879234,569.7036699351156,"[20, 0, 234]",234,a,0.16331648197956383,1,colour,0.5,3.9
85,19,0,1,8,13,363,570.2201512053143,572.1356901598629,"[3, 0, 251]",251,a,1.392235485254787,1,colour,0.5,3.9
85,19,0,1,8,14,364,572.6440731702605,573.4716190691106,"[39, 0, 215]",215,a,0.3041975310770795,1,colour,0.5,3.9
85,19,0,1,8,15,365,573.987901053275,574.8236535196193,"[67, 0, 187]",187,l,0.31236274470575154,1,colour,0.5,3.9
85,19,0,1,8,16,366,575.3317620194284,576.1356724367943,"[65, 0, 189]",189,l,0.280474615865387,1,colour,0.5,3.9
85,19,0,1,8,17,367,576.6444244808517,577.4076435253955,"[42, 0, 212]",212,a,0.23984507680870593,1,colour,0.5,3.9
85,19,0,1,8,18,368,577.9258600807516,578.7196380241076,"[33, 0, 221]",221,a,0.2706863632192835,1,colour,0.5,3.9
85,19,0,1,8,19,369,579.2383090776857,580.0556165579474,"[95, 0, 159]",159,l,0.29389530944172293,1,colour,0.5,3.9
85,19,0,1,8,20,370,580.5665615360485,581.383665004163,"[0, 0, 254]",254,a,0.2940386694390327,1,colour,0.5,3.9
85,19,0,1,8,21,371,581.8950550281443,582.7196435380029,"[6, 0, 248]",248,a,0.30412585113663226,1,colour,0.5,3.9
85,19,0,1,8,22,372,583.2362090912648,584.0476585072465,"[55, 0, 199]",199,l,0.28805890679359436,1,colour,0.5,3.9
85,19,0,1,8,23,373,584.564573401818,585.3436471077148,"[64, 0, 190]",190,l,0.25619952857960016,1,colour,0.5,3.9
85,19,0,1,8,24,374,585.864219255629,586.6316615099786,"[94, 0, 160]",160,l,0.2440954620251432,1,colour,0.5,3.9
85,19,0,1,8,25,375,587.1455304002156,587.9277217903873,"[73, 0, 181]",181,l,0.2587039947975427,1,colour,0.5,3.9
85,19,0,1,8,26,376,588.4425075539621,589.207635175786,"[47, 0, 207]",207,a,0.2417894940590486,1,colour,0.5,3.9
85,19,0,1,8,27,377,589.723888015491,590.5836056121625,"[49, 0, 205]",205,a,0.3364381520077586,1,colour,0.5,3.9
85,19,0,1,8,28,378,591.0989785999991,591.9836766619701,"[54, 0, 200]",200,a,0.36134890653192997,0,colour,0.5,3.9
85,19,0,1,8,29,379,592.5053598491941,594.8717295035021,"[66, 0, 188]",188,l,1.8430397973861545,1,colour,0.5,3.9
85,19,0,1,8,30,380,595.3806044274243,596.1916131299222,"[60, 0, 194]",194,l,0.28761307324748486,1,colour,0.5,3.9
85,19,0,1,8,31,381,596.7087552736048,597.4636239969404,"[23, 0, 231]",231,a,0.23168104467913508,1,colour,0.5,3.9
85,19,0,1,8,32,382,597.9745012335479,598.7837108478416,"[43, 0, 211]",211,a,0.2859809757210314,1,colour,0.5,3.9
85,19,0,1,8,33,383,599.3028702703305,600.0956616296899,"[34, 0, 220]",220,a,0.26943275157827884,1,colour,0.5,3.9
85,19,0,1,8,34,384,600.6153610149631,601.3836169549031,"[93, 0, 161]",161,l,0.24466260010376573,1,colour,0.5,3.9
85,19,0,1,8,35,385,601.8967859810218,602.6876337106805,"[25, 0, 229]",229,a,0.2655789692653343,1,colour,0.5,3.9
85,19,0,1,8,36,386,603.1956327214139,604.0236366629833,"[74, 0, 180]",180,l,0.3046039800392464,1,colour,0.5,3.9
85,19,0,1,8,37,387,604.5292737795971,605.3196126604453,"[50, 0, 204]",204,a,0.26751866040285677,1,colour,0.5,3.9
85,19,0,1,8,38,388,605.8262336042244,606.6716211170424,"[24, 0, 230]",230,a,0.3219139020657167,1,colour,0.5,3.9
85,19,0,1,8,39,389,607.185782241053,607.983602618915,"[19, 0, 235]",235,a,0.27458346856292337,1,colour,0.5,3.9
85,19,0,1,8,40,390,608.4982619580114,609.2876469439361,"[36, 0, 218]",218,a,0.2659767536679283,1,colour,0.5,3.9
85,19,0,1,8,41,391,609.7952934624627,610.6236538346857,"[87, 0, 167]",167,l,0.30496946908533573,1,colour,0.5,3.9
85,19,0,1,8,42,392,611.1391969639808,612.1596655303147,"[76, 0, 178]",178,l,0.4971662786556408,1,colour,0.5,3.9
85,19,0,1,8,43,393,612.6705435547046,613.4556364077143,"[97, 0, 157]",157,l,0.26173975912388414,1,colour,0.5,3.9
85,19,0,1,8,44,394,613.9675041668816,614.7916602338664,"[38, 0, 216]",216,a,0.30147566192317754,1,colour,0.5,3.9
85,19,0,1,8,45,395,615.3114100313978,616.1436426966684,"[69, 0, 185]",185,l,0.3088768144370988,1,colour,0.5,3.9
85,19,0,1,8,46,396,616.655209951452,617.5036095979158,"[30, 0, 224]",224,a,0.3250296172918752,1,colour,0.5,3.9
85,19,0,1,8,47,397,618.0146951790666,618.8555995437782,"[13, 0, 241]",241,a,0.3174725016579032,1,colour,0.5,3.9
85,19,0,1,8,48,398,619.3741882835748,620.2956396531081,"[37, 0, 217]",217,a,0.39822666940744966,1,colour,0.5,3.9
85,19,0,1,8,49,399,620.8118523204466,621.6476402328117,"[9, 0, 245]",245,a,0.31248404923826456,1,colour,0.5,3.9
85,19,0,1,8,50,400,622.1556380619295,622.9676786406199,"[91, 0, 163]",163,l,0.28860202024225146,1,colour,0.5,3.9
85,19,0,1,9,1,401,639.2969184707617,641.4796153227799,"[2, 0, 252]",252,a,1.6588246691972017,1,colour,0.5,3.9
85,19,0,1,9,2,402,642.0010771686211,642.7676281495951,"[67, 0, 187]",187,l,0.24317701323889196,1,colour,0.5,3.9
85,19,0,1,9,3,403,643.2922766027041,644.4556206539273,"[25, 0, 229]",229,a,0.6341120192082599,1,colour,0.5,3.9
85,19,0,1,9,4,404,644.9700086330995,645.9275705536129,"[63, 0, 191]",191,l,0.43413045129273087,1,colour,0.5,3.9
85,19,0,1,9,5,405,646.4389003191609,647.3915824886644,"[98, 0, 156]",156,l,0.42935034330002964,1,colour,0.5,3.9
85,19,0,1,9,6,406,647.9077364730183,648.8077634120127,"[88, 0, 166]",166,l,0.3767226820345968,1,colour,0.5,3.9
85,19,0,1,9,7,407,649.3141578944633,650.2556119106011,"[41, 0, 213]",213,a,0.4180985592538491,1,colour,0.5,3.9
85,19,0,1,9,8,408,650.7673481251113,651.663598869578,"[74, 0, 180]",180,l,0.3727349921828136,1,colour,0.5,3.9
85,19,0,1,9,9,409,652.1737380388658,653.0636120239506,"[95, 0, 159]",159,l,0.3665114388568327,1,colour,0.5,3.9
85,19,0,1,9,10,410,653.5800688758027,654.3915970609523,"[85, 0, 169]",169,l,0.28617868630681187,1,colour,0.5,3.9
85,19,0,1,9,11,411,654.9102283361135,655.7036120396806,"[40, 0, 214]",214,a,0.27000461576972157,1,colour,0.5,3.9
85,19,0,1,9,12,412,656.22280651459,657.1515719966264,"[32, 0, 222]",222,a,0.417714559356682,1,colour,0.5,3.9
85,19,0,1,9,13,413,657.6637784632621,658.5838876058115,"[43, 0, 211]",211,a,0.39675723016262054,1,colour,0.5,3.9
85,19,0,1,9,14,414,659.1013416755013,659.807566882926,"[1, 0, 253]",253,a,0.1828898366075009,1,colour,0.5,3.9
85,19,0,1,9,15,415,660.3201766477432,661.0636139932321,"[84, 0, 170]",170,l,0.22008346382062882,1,colour,0.5,3.9
85,19,0,1,9,16,416,661.570327096968,662.3517331583425,"[79, 0, 175]",175,l,0.2568923035869375,1,colour,0.5,3.9
85,19,0,1,9,17,417,662.8688646683004,663.6315725008026,"[22, 0, 232]",232,a,0.23934725555591285,1,colour,0.5,3.9
85,19,0,1,9,18,418,664.152083208668,665.591566813644,"[81, 0, 173]",173,l,0.9160336250206456,1,colour,0.5,3.9
85,19,0,1,9,19,419,666.1054427931085,666.8875857403036,"[6, 0, 248]",248,a,0.25871344713959843,1,colour,0.5,3.9
85,19,0,1,9,20,420,667.4023624453694,668.2715973288286,"[11, 0, 243]",243,a,0.34589636186137795,1,colour,0.5,3.9
85,19,0,1,9,21,421,668.7930969838053,669.5676245262148,"[18, 0, 236]",236,a,0.25197159266099334,1,colour,0.5,3.9
85,19,0,1,9,22,422,670.0620468802517,670.911643424537,"[31, 0, 223]",223,a,0.32619973341934383,1,colour,0.5,3.9
85,19,0,1,9,23,423,671.4215041449061,672.2235548218014,"[38, 0, 216]",216,a,0.27872475842013955,1,colour,0.5,3.9
85,19,0,1,9,24,424,672.7340909878258,673.5836264860118,"[75, 0, 179]",179,l,0.32614301959984004,1,colour,0.5,3.9
85,19,0,1,9,25,425,674.0936262339819,674.8796615602914,"[49, 0, 205]",205,a,0.2632281029364094,1,colour,0.5,3.9
85,19,0,1,9,26,426,675.3905553384684,676.1998307250906,"[89, 0, 165]",165,l,0.2851365701062605,1,colour,0.5,3.9
85,19,0,1,9,27,427,676.7189881782979,677.7196892240318,"[68, 0, 186]",186,l,0.47743381024338305,1,colour,0.5,3.9
85,19,0,1,9,28,428,678.2347049936652,679.0957990818424,"[33, 0, 221]",221,a,0.33799502486363053,1,colour,0.5,3.9
85,19,0,1,9,29,429,679.6095238245325,680.4236297312891,"[10, 0, 244]",244,a,0.2911301172571257,1,colour,0.5,3.9
85,19,0,1,9,30,430,680.9378582028439,681.7835753648542,"[56, 0, 198]",198,l,0.3223030219087377,1,colour,0.5,3.9
85,19,0,1,9,31,431,682.2855394744547,683.3037115251645,"[94, 0, 160]",160,l,0.4955511164152995,1,colour,0.5,3.9
85,19,0,1,9,32,432,683.816868735943,684.6796536046313,"[19, 0, 235]",235,a,0.3392135842004791,1,colour,0.5,3.9
85,19,0,1,9,33,433,685.1940723038279,685.879565461888,"[23, 0, 231]",231,a,0.16215581796132028,1,colour,0.5,3.9
85,19,0,1,9,34,434,686.3972727746004,687.263601075043,"[5, 0, 249]",249,a,0.3428893481614068,1,colour,0.5,3.9
85,19,0,1,9,35,435,687.7723810821772,688.6075628657127,"[58, 0, 196]",196,l,0.31178221583832055,1,colour,0.5,3.9
85,19,0,1,9,36,436,689.1162416543812,689.9276028489694,"[61, 0, 193]",193,l,0.28807347908150405,1,colour,0.5,3.9
85,19,0,1,9,37,437,690.4444846605184,691.247549884487,"[91, 0, 163]",163,l,0.27967353316489607,1,colour,0.5,3.9
85,19,0,1,9,38,438,691.7571613003965,692.5595999155194,"[37, 0, 217]",217,a,0.2791095458669588,1,colour,0.5,3.9
85,19,0,1,9,39,439,693.0696374727413,693.9036164508434,"[71, 0, 183]",183,l,0.31049315817654133,1,colour,0.5,3.9
85,19,0,1,9,40,440,694.4142892814707,695.1515519104432,"[69, 0, 185]",185,l,0.2139532520668581,1,colour,0.5,3.9
85,19,0,1,9,41,441,695.6643538721837,696.5595770725049,"[42, 0, 212]",212,a,0.3718693187693134,1,colour,0.5,3.9
85,19,0,1,9,42,442,697.0706791952252,697.8797048834385,"[90, 0, 164]",164,l,0.29322301456704736,1,colour,0.5,3.9
85,19,0,1,9,43,443,698.3912028211635,699.1916001329664,"[76, 0, 178]",178,l,0.2770501255290583,1,colour,0.5,3.9
85,19,0,1,9,44,444,699.7038865503855,700.5035820286721,"[8, 0, 246]",246,a,0.27623525832314044,1,colour,0.5,3.9
85,19,0,1,9,45,445,701.019259065506,702.247543976875,"[52, 0, 202]",202,a,0.7049361497629434,0,colour,0.5,3.9
85,19,0,1,9,46,446,702.754387443536,703.6076034317957,"[13, 0, 241]",241,a,0.3304178232792765,1,colour,0.5,3.9
85,19,0,1,9,47,447,704.1288703238824,705.0395992381964,"[54, 0, 200]",200,a,0.3873612481402233,0,colour,0.5,3.9
85,19,0,1,9,48,448,705.550891194609,706.3675681274617,"[55, 0, 199]",199,a,0.29331871902104467,0,colour,0.5,3.9
85,19,0,1,9,49,449,706.8791129329475,707.6956461120863,"[21, 0, 233]",233,a,0.29317378369159997,1,colour,0.5,3.9
85,19,0,1,9,50,450,708.2074370713672,709.6235482839402,"[46, 0, 208]",208,a,0.8928427955834195,1,colour,0.5,3.9
85,19,0,1,10,1,451,714.7601698894287,715.7436007914366,"[44, 0, 210]",210,a,0.45948388846591115,1,colour,0.5,3.9
85,19,0,1,10,2,452,716.2611257534008,717.0635419194587,"[73, 0, 181]",181,l,0.2790902474662289,1,colour,0.5,3.9
85,19,0,1,10,3,453,717.5736929042032,718.6795413586078,"[26, 0, 228]",228,a,0.5828486402751878,1,colour,0.5,3.9
85,19,0,1,10,4,454,719.1987196856644,720.8155698321061,"[53, 0, 201]",201,a,1.093373384908773,0,colour,0.5,3.9
85,19,0,1,10,5,455,721.3239418148296,722.1515456089983,"[85, 0, 169]",169,l,0.3042885095346719,1,colour,0.5,3.9
85,19,0,1,10,6,456,722.6678370455047,723.4715536906151,"[2, 0, 252]",252,a,0.28066208644304425,1,colour,0.5,3.9
85,19,0,1,10,7,457,723.967964178999,724.6955787644256,"[30, 0, 224]",224,a,0.2042768516112119,1,colour,0.5,3.9
85,19,0,1,10,8,458,725.2024415296037,725.9115433876868,"[79, 0, 175]",175,l,0.18637182842940092,1,colour,0.5,3.9
85,19,0,1,10,9,459,726.4211997019593,727.1275410938542,"[90, 0, 164]",164,l,0.18282918422482908,1,colour,0.5,3.9
85,19,0,1,10,10,460,727.6400839049602,728.495547571918,"[55, 0, 199]",199,a,0.3320597669808194,0,colour,0.5,3.9
85,19,0,1,10,11,461,729.0152839786606,729.839576710132,"[87, 0, 167]",167,l,0.29793656244874,1,colour,0.5,3.9
85,19,0,1,10,12,462,730.3465072168037,731.3035374452593,"[78, 0, 176]",176,l,0.4336219960823655,1,colour,0.5,3.9
85,19,0,1,10,13,463,731.8153063490754,733.0235964907333,"[25, 0, 229]",229,a,0.6847944754408672,1,colour,0.5,3.9
85,19,0,1,10,14,464,733.5342720781919,734.223588298657,"[92, 0, 162]",162,l,0.16606316342949867,1,colour,0.5,3.9
85,19,0,1,10,15,465,734.7374922411982,735.591582567431,"[19, 0, 235]",235,a,0.3337852058466524,1,colour,0.5,3.9
85,19,0,1,10,16,466,736.1095817198511,737.0155202862807,"[97, 0, 157]",157,l,0.3827418292639777,1,colour,0.5,3.9
85,19,0,1,10,17,467,737.5315033413935,738.4395529219182,"[59, 0, 195]",195,a,0.3846854589646682,0,colour,0.5,3.9
85,19,0,1,10,18,468,738.9535171228927,739.8555507068522,"[41, 0, 213]",213,a,0.378990052966401,1,colour,0.5,3.9
85,19,0,1,10,19,469,740.376180356252,741.0795265499037,"[34, 0, 220]",220,a,0.18003248434979469,1,colour,0.5,3.9
85,19,0,1,10,20,470,741.5845693531446,742.3115762344096,"[51, 0, 203]",203,a,0.2036577258259058,0,colour,0.5,3.9
85,19,0,1,10,21,471,742.8146832848433,743.6235715209041,"[14, 0, 240]",240,a,0.2854319545440376,1,colour,0.5,3.9
85,19,0,1,10,22,472,744.1429199894192,744.7115212535718,"[83, 0, 171]",171,l,0.04533363482914865,1,colour,0.5,3.9
85,19,0,1,10,23,473,745.2211492109345,747.0395311028697,"[28, 0, 226]",226,a,1.294986262684688,1,colour,0.5,3.9
85,19,0,1,10,24,474,747.5507757976884,748.3036083375337,"[93, 0, 161]",161,l,0.22979531029704958,1,colour,0.5,3.9
85,19,0,1,10,25,475,748.8164670130936,749.4715402999427,"[6, 0, 248]",248,a,0.14405308419372886,1,colour,0.5,3.9
85,19,0,1,10,26,476,749.9780281237327,751.2635841396404,"[23, 0, 231]",231,a,0.7622828726889566,1,colour,0.5,3.9
85,19,0,1,10,27,477,751.7750163052697,752.5995425874135,"[70, 0, 184]",184,l,0.30126652971375734,1,colour,0.5,3.9
85,19,0,1,10,28,478,753.1189131112769,754.2795167826116,"[36, 0, 218]",218,a,0.6372462450526655,1,colour,0.5,3.9
85,19,0,1,10,29,479,754.7909564311849,755.6795007924084,"[20, 0, 234]",234,a,0.3655500609893352,1,colour,0.5,3.9
85,19,0,1,10,30,480,756.1972963265143,757.0715535330819,"[60, 0, 194]",194,l,0.3508659095969051,1,colour,0.5,3.9
85,19,0,1,10,31,481,757.5879717880161,758.4875217797235,"[11, 0, 243]",243,a,0.3761417593341321,1,colour,0.5,3.9
85,19,0,1,10,32,482,758.99434240337,759.791548381676,"[86, 0, 168]",168,l,0.2738390997983515,1,colour,0.5,3.9
85,19,0,1,10,33,483,760.3069855663925,761.0154868093086,"[45, 0, 209]",209,a,0.1851993490708992,1,colour,0.5,3.9
85,19,0,1,10,34,484,761.5258528339909,762.3515141800744,"[61, 0, 193]",193,l,0.30254534748382866,1,colour,0.5,3.9
85,19,0,1,10,35,485,762.8695834371028,763.7035072767176,"[66, 0, 188]",188,l,0.310489613446407,1,colour,0.5,3.9
85,19,0,1,10,36,486,764.2135007231263,765.023501967662,"[7, 0, 247]",247,a,0.299282333930023,1,colour,0.5,3.9
85,19,0,1,10,37,487,765.5448901642812,766.4235588390147,"[3, 0, 251]",251,a,0.35529864544514567,1,colour,0.5,3.9
85,19,0,1,10,38,488,766.9356313979952,767.767538352753,"[94, 0, 160]",160,l,0.30932934337761253,1,colour,0.5,3.9
85,19,0,1,10,39,489,768.2795041794889,769.1754989239853,"[8, 0, 246]",246,a,0.37602242396678776,1,colour,0.5,3.9
85,19,0,1,10,40,490,769.6825302552897,770.5355725574773,"[82, 0, 172]",172,l,0.3300007404759526,1,colour,0.5,3.9
85,19,0,1,10,41,491,771.042097796686,771.8635056067724,"[18, 0, 236]",236,a,0.29822052537929267,1,colour,0.5,3.9
85,19,0,1,10,42,492,772.3702250120696,773.4395147188334,"[48, 0, 206]",206,a,0.5457255115034059,1,colour,0.5,3.9
85,19,0,1,10,43,493,773.9484664427582,774.7435330499429,"[98, 0, 156]",156,l,0.27160126715898514,1,colour,0.5,3.9
85,19,0,1,10,44,494,775.2610934580443,776.119505455601,"[89, 0, 165]",165,l,0.3349876175634563,1,colour,0.5,3.9
85,19,0,1,10,45,495,776.6361903442303,777.4955314241815,"[1, 0, 253]",253,a,0.33587337692733854,1,colour,0.5,3.9
85,19,0,1,10,46,496,778.0112998333061,778.9356467580656,"[49, 0, 205]",205,a,0.4008768586209044,1,colour,0.5,3.9
85,19,0,1,10,47,497,779.4489016424632,780.3355362449074,"[35, 0, 219]",219,a,0.3629687948850915,1,colour,0.5,3.9
85,19,0,1,10,48,498,780.8553041593404,781.7515379682882,"[77, 0, 177]",177,l,0.3728736258344725,1,colour,0.5,3.9
85,19,0,1,10,49,499,782.2722440238576,783.1434863398317,"[99, 0, 155]",155,l,0.3564916047034785,1,colour,0.5,3.9
85,19,0,1,10,50,500,783.6543041057885,784.5115101470146,"[22, 0, 232]",232,a,0.33385452267248183,1,colour,0.5,3.9
85,19,0,1,11,1,501,795.9148150656838,797.5757342076395,"[1, 0, 253]",253,a,1.1366062455344945,1,colour,0.5,3.9
85,19,0,1,11,2,502,798.0874991728924,799.0155431292951,"[49, 0, 205]",205,a,0.40445849334355444,1,colour,0.5,3.9
85,19,0,1,11,3,503,799.5147782805143,800.4235533252358,"[62, 0, 192]",192,l,0.3853356986073777,1,colour,0.5,3.9
85,19,0,1,11,4,504,800.9367845789529,801.6475429529091,"[11, 0, 243]",243,a,0.19995360495522618,1,colour,0.5,3.9
85,19,0,1,11,5,505,802.1588514507748,802.9514955118066,"[37, 0, 217]",217,a,0.2696340068941936,1,colour,0.5,3.9
85,19,0,1,11,6,506,803.4713666138705,804.6314941254677,"[50, 0, 204]",204,a,0.636730307014659,1,colour,0.5,3.9
85,19,0,1,11,7,507,805.143354401458,805.935540813487,"[28, 0, 226]",226,a,0.26878802583087236,1,colour,0.5,3.9
85,19,0,1,11,8,508,806.4559526660014,807.2395382708637,"[7, 0, 247]",247,a,0.26013326179236174,1,colour,0.5,3.9
85,19,0,1,11,9,509,807.7405276118079,808.5595006664516,"[38, 0, 216]",216,a,0.2955754562281072,1,colour,0.5,3.9
85,19,0,1,11,10,510,809.0687777070561,809.783555672504,"[89, 0, 165]",165,l,0.20378730120137334,1,colour,0.5,3.9
85,19,0,1,11,11,511,810.2907839267282,811.1035385481082,"[99, 0, 155]",155,l,0.28940428444184363,1,colour,0.5,3.9
85,19,0,1,11,12,512,811.6190048774006,812.4555032878416,"[53, 0, 201]",201,a,0.3131008119089529,0,colour,0.5,3.9
85,19,0,1,11,13,513,812.9536529997131,813.719541138038,"[71, 0, 183]",183,l,0.24262405361514539,1,colour,0.5,3.9
85,19,0,1,11,14,514,814.2348684397293,815.1515176459216,"[51, 0, 203]",203,a,0.40487321314867586,0,colour,0.5,3.9
85,19,0,1,11,15,515,815.6609179603402,816.4634967846796,"[9, 0, 245]",245,a,0.2791792566422373,1,colour,0.5,3.9
85,19,0,1,11,16,516,816.9735048033763,817.8074979599332,"[16, 0, 238]",238,a,0.3106187949888408,1,colour,0.5,3.9
85,19,0,1,11,17,517,818.317402003333,819.1115048695356,"[87, 0, 167]",167,l,0.27081160619854927,1,colour,0.5,3.9
85,19,0,1,11,18,518,819.6300711601507,820.3915045071626,"[8, 0, 246]",246,a,0.23812357627321035,1,colour,0.5,3.9
85,19,0,1,11,19,519,820.9112830555532,821.6875191015424,"[64, 0, 190]",190,l,0.25278803531546146,1,colour,0.5,3.9
85,19,0,1,11,20,520,822.2082897477085,823.3515882231295,"[48, 0, 206]",206,a,0.6200048521859571,1,colour,0.5,3.9
85,19,0,1,11,21,521,823.8647056553746,824.567481954,"[47, 0, 207]",207,a,0.17936334013938904,1,colour,0.5,3.9
85,19,0,1,11,22,522,825.0835268429946,825.9674608438509,"[59, 0, 195]",195,l,0.3605013501364738,1,colour,0.5,3.9
85,19,0,1,11,23,523,826.4742905260064,827.5994878427591,"[23, 0, 231]",231,a,0.6018304382450879,1,colour,0.5,3.9
85,19,0,1,11,24,524,828.1170210754499,828.8234904673882,"[79, 0, 175]",175,l,0.18310763337649405,1,colour,0.5,3.9
85,19,0,1,11,25,525,829.3358840107685,830.0875322560314,"[21, 0, 233]",233,a,0.2282404067227617,1,colour,0.5,3.9
85,19,0,1,11,26,526,830.6015894046286,831.4074556608684,"[90, 0, 164]",164,l,0.2824962269514799,1,colour,0.5,3.9
85,19,0,1,11,27,527,831.9142979460303,834.6315118485363,"[31, 0, 223]",223,a,2.1948296695481986,1,colour,0.5,3.9
85,19,0,1,11,28,528,835.1488454013597,835.9595437531825,"[3, 0, 251]",251,a,0.2872794857248664,1,colour,0.5,3.9
85,19,0,1,11,29,529,836.4770919519942,837.3834889549762,"[72, 0, 182]",182,l,0.3830636013299227,1,colour,0.5,3.9
85,19,0,1,11,30,530,837.8990257827099,838.6715230494738,"[94, 0, 160]",160,l,0.24907131132204086,1,colour,0.5,3.9
85,19,0,1,11,31,531,839.1804062442388,839.9434953195741,"[81, 0, 173]",173,l,0.23969580919947475,1,colour,0.5,3.9
85,19,0,1,11,32,532,840.461774496478,841.2635427858913,"[80, 0, 174]",174,l,0.2785187769914046,1,colour,0.5,3.9
85,19,0,1,11,33,533,841.7743412533309,842.5834571322193,"[74, 0, 180]",180,l,0.28578759729862213,1,colour,0.5,3.9
85,19,0,1,11,34,534,843.1025417241035,843.7835351924878,"[76, 0, 178]",178,l,0.15765376528725028,1,colour,0.5,3.9
85,19,0,1,11,35,535,844.2901825240115,845.1996286821086,"[78, 0, 176]",176,l,0.3861383565235883,1,colour,0.5,3.9
85,19,0,1,11,36,536,845.7121510131983,846.5434660174651,"[70, 0, 184]",184,l,0.30818088876549155,1,colour,0.5,3.9
85,19,0,1,11,37,537,847.0560572715476,847.8476056531072,"[86, 0, 168]",168,l,0.26819646928925067,1,colour,0.5,3.9
85,19,0,1,11,38,538,848.3560890943045,849.1515011043521,"[25, 0, 229]",229,a,0.27205458388198167,1,colour,0.5,3.9
85,19,0,1,11,39,539,849.6687401342206,854.9194691430312,"[33, 0, 221]",221,a,4.727417268790305,1,colour,0.5,3.9
85,19,0,1,11,40,540,855.4363667083671,856.1034499327652,"[36, 0, 218]",218,a,0.14369507820811123,1,colour,0.5,3.9
85,19,0,1,11,41,541,856.6239673360251,857.4238569804002,"[84, 0, 170]",170,l,0.2765330058755353,1,colour,0.5,3.9
85,19,0,1,11,42,542,857.9365270036506,858.8555034453748,"[30, 0, 224]",224,a,0.3955469416687265,1,colour,0.5,3.9
85,19,0,1,11,43,543,859.3741292066406,860.2234898372553,"[83, 0, 171]",171,l,0.3259614567505196,1,colour,0.5,3.9
85,19,0,1,11,44,544,860.7343036646489,861.6874808984576,"[63, 0, 191]",191,l,0.4304286934202537,1,colour,0.5,3.9
85,19,0,1,11,45,545,862.2042815778404,862.9434992580209,"[46, 0, 208]",208,a,0.21569562645163387,1,colour,0.5,3.9
85,19,0,1,11,46,546,863.4544292700011,864.1594977519708,"[40, 0, 214]",214,a,0.18165946193039417,1,colour,0.5,3.9
85,19,0,1,11,47,547,864.6735277251573,866.4074749592692,"[26, 0, 228]",228,a,1.210334595758468,1,colour,0.5,3.9
85,19,0,1,11,48,548,866.9239471710753,867.5435128851095,"[34, 0, 220]",220,a,0.09613975859247148,1,colour,0.5,3.9
85,19,0,1,11,49,549,868.064726214041,868.831577305682,"[12, 0, 242]",242,a,0.243490120745264,1,colour,0.5,3.9
85,19,0,1,11,50,550,869.3460409032414,870.0794662915869,"[77, 0, 177]",177,l,0.20998052833601832,1,colour,0.5,3.9
85,19,0,1,12,1,551,876.7989688325906,877.7994461738272,"[42, 0, 212]",212,a,0.4763830292504281,1,colour,0.5,3.9
85,19,0,1,12,2,552,878.3155410812469,878.967495896155,"[18, 0, 236]",236,a,0.12855012714862823,1,colour,0.5,3.9
85,19,0,1,12,3,553,879.4875229612226,880.8314532442018,"[33, 0, 221]",221,a,0.8205988506088033,1,colour,0.5,3.9
85,19,0,1,12,4,554,881.3470109457849,881.8954488741001,"[41, 0, 213]",213,a,0.02495328988879919,1,colour,0.5,3.9
85,19,0,1,12,5,555,882.4095800657524,882.9834754066542,"[48, 0, 206]",206,a,0.05069545307196677,1,colour,0.5,3.9
85,19,0,1,12,6,556,883.5040633083554,884.0794564454118,"[20, 0, 234]",234,a,0.05197624012362212,1,colour,0.5,3.9
85,19,0,1,12,7,557,884.5978518067859,885.1434390783543,"[95, 0, 159]",159,l,0.02221684844698757,1,colour,0.5,3.9
85,19,0,1,12,8,558,885.6604445575504,886.1996818513144,"[82, 0, 172]",172,l,0.015855055302381516,1,colour,0.5,3.9
85,19,0,1,12,9,559,886.7073953236686,887.3834838350303,"[70, 0, 184]",184,l,0.15269091294612736,1,colour,0.5,3.9
85,19,0,1,12,10,560,887.8950396681903,888.4874741242966,"[84, 0, 170]",170,l,0.06911208224482834,1,colour,0.5,3.9
85,19,0,1,12,11,561,889.0063562793657,889.6794499863172,"[74, 0, 180]",180,l,0.1496681454591453,1,colour,0.5,3.9
85,19,0,1,12,12,562,890.1940663960995,890.7994654723443,"[30, 0, 224]",224,a,0.08204992080572993,1,colour,0.5,3.9
85,19,0,1,12,13,563,891.3190770299407,891.8634689791361,"[8, 0, 246]",246,a,0.020917550660669804,1,colour,0.5,3.9
85,19,0,1,12,14,564,892.3817178298486,893.015468298574,"[97, 0, 157]",157,l,0.11040840251371264,1,colour,0.5,3.9
85,19,0,1,12,15,565,893.5223094022367,894.1914099054411,"[86, 0, 168]",168,l,0.14569227094762027,1,colour,0.5,3.9
85,19,0,1,12,16,566,894.710020700586,895.2874602609081,"[29, 0, 225]",225,a,0.05405810952652246,1,colour,0.5,3.9
85,19,0,1,12,17,567,895.8037820236059,896.3994724040385,"[85, 0, 169]",169,l,0.0721907758852467,1,colour,0.5,3.9
85,19,0,1,12,18,568,896.904352154932,897.7275243948679,"[81, 0, 173]",173,l,0.30694263719487935,1,colour,0.5,3.9
85,19,0,1,12,19,569,898.2409569037845,899.1274383001728,"[61, 0, 193]",193,l,0.36319880082737654,1,colour,0.5,3.9
85,19,0,1,12,20,570,899.6473314575851,900.2234488772228,"[71, 0, 183]",183,l,0.05271982110571116,1,colour,0.5,3.9
85,19,0,1,12,21,571,900.7410447314614,901.5354681883473,"[39, 0, 215]",215,a,0.2709900183835998,1,colour,0.5,3.9
85,19,0,1,12,22,572,902.0537205836736,902.7994556261692,"[56, 0, 198]",198,a,0.22237997932825238,0,colour,0.5,3.9
85,19,0,1,12,23,573,903.3194413374877,904.0394385490799,"[47, 0, 207]",207,a,0.1965515639167279,1,colour,0.5,3.9
85,19,0,1,12,24,574,904.5539021466393,905.095436349744,"[6, 0, 248]",248,a,0.01800978626124561,1,colour,0.5,3.9
85,19,0,1,12,25,575,905.6165378266014,906.3114139698446,"[77, 0, 177]",177,l,0.17152344319038093,1,colour,0.5,3.9
85,19,0,1,12,26,576,906.8195421620039,907.7274818595033,"[94, 0, 160]",160,l,0.38512617256492376,1,colour,0.5,3.9
85,19,0,1,12,27,577,908.2417406572495,909.0075429370627,"[89, 0, 165]",165,l,0.2425630073994398,1,colour,0.5,3.9
85,19,0,1,12,28,578,909.5231191493804,910.2314258324914,"[23, 0, 231]",231,a,0.18489057384431362,1,colour,0.5,3.9
85,19,0,1,12,29,579,910.7419332478894,911.4874378904933,"[91, 0, 163]",163,l,0.22226694563869387,1,colour,0.5,3.9
85,19,0,1,12,30,580,912.0076268262928,912.8074089507572,"[1, 0, 253]",253,a,0.2765144951408729,1,colour,0.5,3.9
85,19,0,1,12,31,581,913.3202065801015,914.0475423226599,"[17, 0, 237]",237,a,0.20393066096585244,1,colour,0.5,3.9
85,19,0,1,12,32,582,914.5547504907008,915.2394445354585,"[96, 0, 158]",158,l,0.16130314162001014,1,colour,0.5,3.9
85,19,0,1,12,33,583,915.7579060629942,916.3114769852255,"[28, 0, 226]",226,a,0.030273360549472272,1,colour,0.5,3.9
85,19,0,1,12,34,584,916.8205015707063,917.4634818185586,"[12, 0, 242]",242,a,0.12028605816885829,1,colour,0.5,3.9
85,19,0,1,12,35,585,917.9768635213841,918.6634413311258,"[64, 0, 190]",190,l,0.16317272814922035,1,colour,0.5,3.9
85,19,0,1,12,36,586,919.1800675367704,919.823464473593,"[73, 0, 181]",181,l,0.11988669843412936,1,colour,0.5,3.9
85,19,0,1,12,37,587,920.3364235797198,920.8794473081362,"[0, 0, 254]",254,a,0.019609194598160684,1,colour,0.5,3.9
85,19,0,1,12,38,588,921.3989789150655,922.0074425063794,"[3, 0, 251]",251,a,0.08498328516725451,1,colour,0.5,3.9
85,19,0,1,12,39,589,922.5241041580448,923.0874357637949,"[76, 0, 178]",178,l,0.04000805027317256,1,colour,0.5,3.9
85,19,0,1,12,40,590,923.6022420072695,924.463429830852,"[60, 0, 194]",194,l,0.33776029280852526,1,colour,0.5,3.9
85,19,0,1,12,41,591,924.9774160871748,925.6793755494291,"[55, 0, 199]",199,l,0.17857052839826792,1,colour,0.5,3.9
85,19,0,1,12,42,592,926.1963006840087,926.8074101322563,"[34, 0, 220]",220,a,0.08773823734372854,1,colour,0.5,3.9
85,19,0,1,12,43,593,927.3213617302245,927.9194514199626,"[16, 0, 238]",238,a,0.074813395855017,1,colour,0.5,3.9
85,19,0,1,12,44,594,928.4308438070584,929.9034262232017,"[24, 0, 230]",230,a,0.9491848177276552,1,colour,0.5,3.9
85,19,0,1,12,45,595,930.4152742900187,932.1274481462315,"[32, 0, 222]",222,a,1.1886533776996657,1,colour,0.5,3.9
85,19,0,1,12,46,596,932.6342053607805,933.3914438548964,"[25, 0, 229]",229,a,0.23368965880945325,1,colour,0.5,3.9
85,19,0,1,12,47,597,933.8999773145188,934.6554131759331,"[67, 0, 187]",187,l,0.2321075798245147,1,colour,0.5,3.9
85,19,0,1,12,48,598,935.1657051575603,935.9354199027875,"[35, 0, 219]",219,a,0.2463143898639828,1,colour,0.5,3.9
85,19,0,1,12,49,599,936.4470608066767,937.2234890494728,"[59, 0, 195]",195,l,0.2529802320059389,1,colour,0.5,3.9
85,19,0,1,12,50,600,937.7440627727192,938.551449668128,"[52, 0, 202]",202,l,0.28291094675660133,1,colour,0.5,3.9
85,19,0,1,13,1,601,949.0420859813457,950.3194582727738,"[53, 0, 201]",201,l,0.7533118502469733,1,colour,0.5,3.9
85,19,0,1,13,2,602,950.8399000576464,951.4314085820224,"[79, 0, 175]",175,l,0.06876313465181738,1,colour,0.5,3.9
85,19,0,1,13,3,603,951.9493608669145,952.8873844849877,"[49, 0, 205]",205,a,0.4136819710256532,1,colour,0.5,3.9
85,19,0,1,13,4,604,953.4035408323398,954.2314163802657,"[38, 0, 216]",216,a,0.3045047309715301,1,colour,0.5,3.9
85,19,0,1,13,5,605,954.7474762353813,956.2077119757887,"[91, 0, 163]",163,l,0.9368507449980825,1,colour,0.5,3.9
85,19,0,1,13,6,606,956.7163033307297,957.423425719142,"[65, 0, 189]",189,l,0.18371927610132843,1,colour,0.5,3.9
85,19,0,1,13,7,607,957.9351918660104,958.767399718985,"[41, 0, 213]",213,a,0.3088705128757283,1,colour,0.5,3.9
85,19,0,1,13,8,608,959.2790524382144,959.9194155798759,"[77, 0, 177]",177,l,0.11702501389663666,1,colour,0.5,3.9
85,19,0,1,13,9,609,960.4352930843597,961.1754036133643,"[9, 0, 245]",245,a,0.21669875201769173,1,colour,0.5,3.9
85,19,0,1,13,10,610,961.685451804311,962.3433788986877,"[30, 0, 224]",224,a,0.13493988336995244,1,colour,0.5,3.9
85,19,0,1,13,11,611,962.8574033580953,963.4794022522401,"[69, 0, 185]",185,l,0.09866549249272794,1,colour,0.5,3.9
85,19,0,1,13,12,612,963.998344271793,964.7993867031764,"[58, 0, 196]",196,l,0.2784344940446317,1,colour,0.5,3.9
85,19,0,1,13,13,613,965.310806659516,966.0874420652399,"[37, 0, 217]",217,a,0.25329176418017596,1,colour,0.5,3.9
85,19,0,1,13,14,614,966.6076825949131,967.4073969777673,"[82, 0, 172]",172,l,0.27667833492159843,1,colour,0.5,3.9
85,19,0,1,13,15,615,967.9203222132055,968.5913687091088,"[10, 0, 244]",244,a,0.14763117430265993,1,colour,0.5,3.9
85,19,0,1,13,16,616,969.1078806993319,969.8393975102808,"[4, 0, 250]",250,a,0.2081971939187497,1,colour,0.5,3.9
85,19,0,1,13,17,617,970.3579531670548,971.1274138817098,"[97, 0, 157]",157,l,0.24610840855166316,1,colour,0.5,3.9
85,19,0,1,13,18,618,971.6393430808093,972.38340427808,"[93, 0, 161]",161,l,0.22063760494347662,1,colour,0.5,3.9
85,19,0,1,13,19,619,972.8928553987062,973.6554017543094,"[33, 0, 221]",221,a,0.23950085532851517,1,colour,0.5,3.9
85,19,0,1,13,20,620,974.1739227526123,974.9193982507568,"[23, 0, 231]",231,a,0.22200621967203915,1,colour,0.5,3.9
85,19,0,1,13,21,621,975.4396777710645,976.2634455058724,"[46, 0, 208]",208,a,0.3003701363923028,1,colour,0.5,3.9
85,19,0,1,13,22,622,976.7835454324959,977.5594593125861,"[44, 0, 210]",210,a,0.25254503230098635,1,colour,0.5,3.9
85,19,0,1,13,23,623,978.0806178969797,978.8714396328432,"[13, 0, 241]",241,a,0.2674796696519479,1,colour,0.5,3.9
85,19,0,1,13,24,624,979.3775552723091,980.1114406726556,"[75, 0, 179]",179,l,0.21048977109603584,1,colour,0.5,3.9
85,19,0,1,13,25,625,980.6276139554102,981.4394229527097,"[50, 0, 204]",204,a,0.288414943497628,1,colour,0.5,3.9
85,19,0,1,13,26,626,981.9558711398859,982.7113818320213,"[60, 0, 194]",194,l,0.24381780053954571,1,colour,0.5,3.9
85,19,0,1,13,27,627,983.2256370851537,984.0153840155108,"[83, 0, 171]",171,l,0.2666648024460301,1,colour,0.5,3.9
85,19,0,1,13,28,628,984.5225492543541,985.3594084277283,"[34, 0, 220]",220,a,0.3134198271436617,1,colour,0.5,3.9
85,19,0,1,13,29,629,985.8664708727738,986.6953727831133,"[95, 0, 159]",159,l,0.3063376898644492,1,colour,0.5,3.9
85,19,0,1,13,30,630,987.2102692173794,988.0073842172278,"[99, 0, 155]",155,l,0.27366974600590765,1,colour,0.5,3.9
85,19,0,1,13,31,631,988.5228265218902,989.3993896964239,"[92, 0, 162]",162,l,0.3530139453941956,1,colour,0.5,3.9
85,19,0,1,13,32,632,989.9136228940915,990.6714143479476,"[87, 0, 167]",167,l,0.2343229630496353,1,colour,0.5,3.9
85,19,0,1,13,33,633,991.1793763370952,991.9673970408039,"[29, 0, 225]",225,a,0.2646010498283431,1,colour,0.5,3.9
85,19,0,1,13,34,634,992.4649725253694,993.2074039882282,"[36, 0, 218]",218,a,0.21912247978616506,1,colour,0.5,3.9
85,19,0,1,13,35,635,993.7149654361419,994.4954286303837,"[78, 0, 176]",176,l,0.2569793435977772,1,colour,0.5,3.9
85,19,0,1,13,36,636,995.011961494456,995.7834394879173,"[12, 0, 242]",242,a,0.2479996564798057,1,colour,0.5,3.9
85,19,0,1,13,37,637,996.2809653478907,997.0793934300309,"[16, 0, 238]",238,a,0.2750541144050658,1,colour,0.5,3.9
85,19,0,1,13,38,638,997.581043644459,998.4394123188686,"[62, 0, 192]",192,l,0.33492578368168324,1,colour,0.5,3.9
85,19,0,1,13,39,639,998.9564949919004,999.7594026775332,"[71, 0, 183]",183,l,0.27990157005842775,1,colour,0.5,3.9
85,19,0,1,13,40,640,1000.2687305243453,1000.9674033423653,"[42, 0, 212]",212,a,0.17519408732187003,1,colour,0.5,3.9
85,19,0,1,13,41,641,1001.4875828258228,1002.287385036354,"[14, 0, 240]",240,a,0.2763668028637767,1,colour,0.5,3.9
85,19,0,1,13,42,642,1002.8001822718652,1003.5515118957264,"[73, 0, 181]",181,l,0.22793478227686137,1,colour,0.5,3.9
85,19,0,1,13,43,643,1004.065955407219,1004.8233715258539,"[84, 0, 170]",170,l,0.23405436018947512,1,colour,0.5,3.9
85,19,0,1,13,44,644,1005.3317230286775,1006.1354065907653,"[32, 0, 222]",222,a,0.28022097900975496,1,colour,0.5,3.9
85,19,0,1,13,45,645,1006.6443138101604,1007.3113942776108,"[22, 0, 232]",232,a,0.14359897980466485,1,colour,0.5,3.9
85,19,0,1,13,46,646,1007.8318340932019,1008.4794219444739,"[21, 0, 233]",233,a,0.12410675745923072,1,colour,0.5,3.9
85,19,0,1,13,47,647,1008.9881814715918,1009.6234009856125,"[64, 0, 190]",190,l,0.11057893780525774,1,colour,0.5,3.9
85,19,0,1,13,48,648,1010.1301660769386,1010.7193926580949,"[47, 0, 207]",207,a,0.06574233656283468,1,colour,0.5,3.9
85,19,0,1,13,49,649,1011.2259580695536,1011.943387405714,"[3, 0, 251]",251,a,0.1941557991085574,1,colour,0.5,3.9
85,19,0,1,13,50,650,1012.4623936222633,1013.1594575796044,"[61, 0, 193]",193,l,0.17362303577829152,1,colour,0.5,3.9
85,19,0,1,14,1,651,1020.2903495146893,1020.9753893561428,"[89, 0, 165]",165,l,0.16096482798457146,1,colour,0.5,3.9
85,19,0,1,14,2,652,1021.4943762740586,1022.0873534498969,"[1, 0, 253]",253,a,0.06964022957254201,1,colour,0.5,3.9
85,19,0,1,14,3,653,1022.6037622526055,1023.2393669477897,"[73, 0, 181]",181,l,0.11218819208443165,1,colour,0.5,3.9
85,19,0,1,14,4,654,1023.7601108124945,1024.4314270928735,"[91, 0, 163]",163,l,0.14796673110686243,1,colour,0.5,3.9
85,19,0,1,14,5,655,1024.9477622462437,1025.5673760094214,"[5, 0, 249]",249,a,0.09622679848689586,1,colour,0.5,3.9
85,19,0,1,14,6,656,1026.0884168338962,1026.8313705365872,"[9, 0, 245]",245,a,0.21949505805969238,1,colour,0.5,3.9
85,19,0,1,14,7,657,1027.3384329816326,1027.9593700671103,"[19, 0, 235]",235,a,0.0973799794446677,1,colour,0.5,3.9
85,19,0,1,14,8,658,1028.4792600738583,1029.1916773268022,"[77, 0, 177]",177,l,0.1890373775968328,1,colour,0.5,3.9
85,19,0,1,14,9,659,1029.6985330027528,1030.5593655772973,"[95, 0, 159]",159,l,0.3374771175440401,1,colour,0.5,3.9
85,19,0,1,14,10,660,1031.0736294949893,1031.7196167564252,"[87, 0, 167]",167,l,0.12266725057270378,1,colour,0.5,3.9
85,19,0,1,14,11,661,1032.229853599565,1033.0073645248776,"[50, 0, 204]",204,a,0.25405936990864575,1,colour,0.5,3.9
85,19,0,1,14,12,662,1033.5269969563233,1034.2633915490005,"[62, 0, 192]",192,l,0.21312735718674958,1,colour,0.5,3.9
85,19,0,1,14,13,663,1034.7769831718178,1036.0153576278826,"[57, 0, 197]",197,l,0.7150004883296788,1,colour,0.5,3.9
85,19,0,1,14,14,664,1036.5271686732303,1037.151396341389,"[97, 0, 157]",157,l,0.1008253435138613,1,colour,0.5,3.9
85,19,0,1,14,15,665,1037.6678650085814,1038.319399589789,"[23, 0, 231]",231,a,0.12811768427491188,1,colour,0.5,3.9
85,19,0,1,14,16,666,1038.8398807592457,1039.5593986603199,"[39, 0, 215]",215,a,0.19618174259085208,1,colour,0.5,3.9
85,19,0,1,14,17,667,1040.064967641607,1040.751373734558,"[83, 0, 171]",171,l,0.1628997930092737,1,colour,0.5,3.9
85,19,0,1,14,18,668,1041.2682137985248,1042.0154426986119,"[93, 0, 161]",161,l,0.22387029242236167,1,colour,0.5,3.9
85,19,0,1,14,19,669,1042.5339184046024,1043.1513979167212,"[41, 0, 213]",213,a,0.09410199976991862,1,colour,0.5,3.9
85,19,0,1,14,20,670,1043.6589577891864,1046.3273800896714,"[85, 0, 169]",169,l,2.145214141928591,1,colour,0.5,3.9
85,19,0,1,14,21,671,1046.8467655797722,1048.0234838507604,"[51, 0, 203]",203,a,0.6532363895094022,0,colour,0.5,3.9
85,19,0,1,14,22,672,1048.5344004719518,1049.119328618748,"[42, 0, 212]",212,a,0.06152385286986828,1,colour,0.5,3.9
85,19,0,1,14,23,673,1049.6294748773798,1050.2073909913888,"[76, 0, 178]",178,l,0.055150244385004044,1,colour,0.5,3.9
85,19,0,1,14,24,674,1050.7246201749658,1051.4073319932213,"[58, 0, 196]",196,l,0.15937250887509435,1,colour,0.5,3.9
85,19,0,1,14,25,675,1051.9279836979695,1052.4954270550516,"[64, 0, 190]",190,l,0.04421156772878021,1,colour,0.5,3.9
85,19,0,1,14,26,676,1053.0095385543536,1053.5913718598895,"[81, 0, 173]",173,l,0.058596396120265126,1,colour,0.5,3.9
85,19,0,1,14,27,677,1054.1034558404936,1054.6316481191898,"[6, 0, 248]",248,a,0.004826187971048057,1,colour,0.5,3.9
85,19,0,1,14,28,678,1055.166014720453,1056.3514054785483,"[72, 0, 182]",182,l,0.6619982796255499,1,colour,0.5,3.9
85,19,0,1,14,29,679,1056.8629719455494,1057.599388199742,"[33, 0, 221]",221,a,0.21295839722733945,1,colour,0.5,3.9
85,19,0,1,14,30,680,1058.1130117239663,1058.7513631007168,"[38, 0, 216]",216,a,0.11487579671666026,1,colour,0.5,3.9
85,19,0,1,14,31,681,1059.2693945486099,1060.7353394794045,"[45, 0, 209]",209,a,0.9425670246127993,1,colour,0.5,3.9
85,19,0,1,14,32,682,1061.2538604777073,1062.0393337860005,"[48, 0, 206]",206,a,0.2620564113603905,1,colour,0.5,3.9
85,19,0,1,14,33,683,1062.551198000554,1063.1513801936526,"[94, 0, 160]",160,l,0.07667392387520522,1,colour,0.5,3.9
85,19,0,1,14,34,684,1063.660681258887,1064.3193625683198,"[75, 0, 179]",179,l,0.13529040629509836,1,colour,0.5,3.9
85,19,0,1,14,35,685,1064.8326028804295,1065.3594131538412,"[82, 0, 172]",172,l,0.00329649040941149,1,colour,0.5,3.9
85,19,0,1,14,36,686,1065.8795623112237,1066.5913561061025,"[18, 0, 236]",236,a,0.1883702026680112,1,colour,0.5,3.9
85,19,0,1,14,37,687,1067.0987210248131,1067.711675641127,"[47, 0, 207]",207,a,0.08954992867074907,1,colour,0.5,3.9
85,19,0,1,14,38,688,1068.2238939231029,1068.7673674236285,"[2, 0, 252]",252,a,0.02008653583470732,1,colour,0.5,3.9
85,19,0,1,14,39,689,1069.2864689507987,1069.8713510175003,"[10, 0, 244]",244,a,0.06147698510903865,1,colour,0.5,3.9
85,19,0,1,14,40,690,1070.3679647303652,1071.0073661003262,"[7, 0, 247]",247,a,0.11598447302822024,1,colour,0.5,3.9
85,19,0,1,14,41,691,1071.5242794195656,1072.1033467451343,"[29, 0, 225]",225,a,0.05569335783366114,1,colour,0.5,3.9
85,19,0,1,14,42,692,1072.6180813086685,1073.1914028162137,"[98, 0, 156]",156,l,0.04984001978300512,1,colour,0.5,3.9
85,19,0,1,14,43,693,1073.711943850154,1074.2793690903345,"[90, 0, 164]",164,l,0.0439216970698908,1,colour,0.5,3.9
85,19,0,1,14,44,694,1074.7816742705181,1075.4633329447825,"[26, 0, 228]",228,a,0.15836938342545182,1,colour,0.5,3.9
85,19,0,1,14,45,695,1075.9848030613502,1076.8233069351409,"[67, 0, 187]",187,l,0.3158396164653823,1,colour,0.5,3.9
85,19,0,1,14,46,696,1077.3442938027438,1078.3914044703124,"[24, 0, 230]",230,a,0.5206879385514185,1,colour,0.5,3.9
85,19,0,1,14,47,697,1078.909904200933,1079.447347920388,"[17, 0, 237]",237,a,0.013998859445564449,1,colour,0.5,3.9
85,19,0,1,14,48,698,1079.9569258593256,1081.0713495209347,"[49, 0, 205]",205,l,0.5913919459562749,0,colour,0.5,3.9
85,19,0,1,14,49,699,1081.5819660315756,1083.0553814319428,"[8, 0, 246]",246,a,0.9481675137067214,1,colour,0.5,3.9
85,19,0,1,14,50,700,1083.5683787411544,1084.223509529489,"[27, 0, 227]",227,a,0.13207110960502177,1,colour,0.5,3.9
85,19,0,1,15,1,701,1093.6947650788352,1094.383333779755,"[24, 0, 230]",230,a,0.16441846289671957,1,colour,0.5,3.9
85,19,0,1,15,2,702,1094.8987567860167,1095.495321110473,"[11, 0, 243]",243,a,0.0730851999251172,1,colour,0.5,3.9
85,19,0,1,15,3,703,1096.0082475274103,1096.6234510040376,"[92, 0, 162]",162,l,0.09196499187964946,1,colour,0.5,3.9
85,19,0,1,15,4,704,1097.1332782474346,1097.903358087875,"[16, 0, 238]",238,a,0.2466720020165667,1,colour,0.5,3.9
85,19,0,1,15,5,705,1098.4146799765294,1099.0475340519333,"[27, 0, 227]",227,a,0.10999565199017525,1,colour,0.5,3.9
85,19,0,1,15,6,706,1099.5564479667228,1100.3193810790544,"[65, 0, 189]",189,l,0.23956544615793973,1,colour,0.5,3.9
85,19,0,1,15,7,707,1100.8378240958555,1101.6393450499745,"[85, 0, 169]",169,l,0.2780564018758014,1,colour,0.5,3.9
85,19,0,1,15,8,708,1102.1512297445443,1102.9113661570009,"[0, 0, 254]",254,a,0.2370196261908859,1,colour,0.5,3.9
85,19,0,1,15,9,709,1103.4325349814026,1104.231363604893,"[55, 0, 199]",199,l,0.2753680096939206,1,colour,0.5,3.9
85,19,0,1,15,10,710,1104.7451872028178,1105.495346316602,"[23, 0, 231]",231,a,0.2267729367595166,1,colour,0.5,3.9
85,19,0,1,15,11,711,1106.0108595136553,1106.9033569063758,"[39, 0, 215]",215,a,0.3697283724322915,1,colour,0.5,3.9
85,19,0,1,15,12,712,1107.4172675443115,1108.0874243421713,"[83, 0, 171]",171,l,0.14677574089728296,1,colour,0.5,3.9
85,19,0,1,15,13,713,1108.6048484796192,1111.2873519533314,"[86, 0, 168]",168,l,2.1590798813849688,1,colour,0.5,3.9
85,19,0,1,15,14,714,1111.808948888327,1112.431370772887,"[8, 0, 246]",246,a,0.09929052600637078,1,colour,0.5,3.9
85,19,0,1,15,15,715,1112.9496054451447,1113.703401725972,"[35, 0, 219]",219,a,0.2305601591942832,1,colour,0.5,3.9
85,19,0,1,15,16,716,1114.215208832873,1114.8153311613714,"[62, 0, 192]",192,l,0.07710794208105654,1,colour,0.5,3.9
85,19,0,1,15,17,717,1115.3247464420274,1115.9833143237047,"[53, 0, 201]",201,l,0.13519982167053968,1,colour,0.5,3.9
85,19,0,1,15,18,718,1116.497405343107,1117.1673226826824,"[32, 0, 222]",222,a,0.14655597496312112,1,colour,0.5,3.9
85,19,0,1,15,19,719,1117.6849094785284,1118.2713019443909,"[58, 0, 196]",196,l,0.06337611027993262,1,colour,0.5,3.9
85,19,0,1,15,20,720,1118.7806683880044,1119.6713139172643,"[90, 0, 164]",164,l,0.36719082307536155,1,colour,0.5,3.9
85,19,0,1,15,21,721,1120.1871055633528,1120.9273653598502,"[50, 0, 204]",204,a,0.216951601090841,1,colour,0.5,3.9
85,19,0,1,15,22,722,1121.4370606648736,1121.9833269268274,"[33, 0, 221]",221,a,0.0227453897241503,1,colour,0.5,3.9
85,19,0,1,15,23,723,1122.499692406389,1123.0873302130494,"[47, 0, 207]",207,a,0.0642713219858706,1,colour,0.5,3.9
85,19,0,1,15,24,724,1123.5934683016967,1124.1593394258525,"[97, 0, 157]",157,l,0.04235891648568213,1,colour,0.5,3.9
85,19,0,1,15,25,725,1124.6630199160427,1125.2393098401371,"[99, 0, 155]",155,l,0.05290886713191867,1,colour,0.5,3.9
85,19,0,1,15,26,726,1125.7568639466772,1126.3433280925965,"[37, 0, 217]",217,a,0.06317524879705161,1,colour,0.5,3.9
85,19,0,1,15,27,727,1126.8512140694074,1127.4233111098874,"[7, 0, 247]",247,a,0.04903893708251417,1,colour,0.5,3.9
85,19,0,1,15,28,728,1127.9294448663713,1129.543341562152,"[10, 0, 244]",244,a,1.0904762542340904,1,colour,0.5,3.9
85,19,0,1,15,29,729,1130.054655573913,1130.6552977790125,"[74, 0, 180]",180,l,0.0773477943148464,1,colour,0.5,3.9
85,19,0,1,15,30,730,1131.1640813307604,1131.7833213341655,"[79, 0, 175]",175,l,0.09483494702726603,1,colour,0.5,3.9
85,19,0,1,15,31,731,1132.2901380193653,1132.84763440385,"[26, 0, 228]",228,a,0.034159832051955163,1,colour,0.5,3.9
85,19,0,1,15,32,732,1133.368226637831,1133.9273456675,"[34, 0, 220]",220,a,0.035604458884336054,1,colour,0.5,3.9
85,19,0,1,15,33,733,1134.4464806716423,1135.007346407976,"[2, 0, 252]",252,a,0.037407879484817386,1,colour,0.5,3.9
85,19,0,1,15,34,734,1135.5247736962046,1136.151321510668,"[73, 0, 181]",181,l,0.10325852362439036,1,colour,0.5,3.9
85,19,0,1,15,35,735,1136.6654011084465,1137.4635822492419,"[78, 0, 176]",176,l,0.2746815362479538,1,colour,0.5,3.9
85,19,0,1,15,36,736,1137.9800560363801,1138.5673460771795,"[5, 0, 249]",249,a,0.06388298992533237,1,colour,0.5,3.9
85,19,0,1,15,37,737,1139.0738791932818,1139.855312430067,"[68, 0, 186]",186,l,0.258119527483359,1,colour,0.5,3.9
85,19,0,1,15,38,738,1140.3708598916419,1140.9272858030163,"[61, 0, 193]",193,l,0.03305706358514726,1,colour,0.5,3.9
85,19,0,1,15,39,739,1141.4489871070255,1142.1433425861178,"[9, 0, 245]",245,a,0.17083106213249266,1,colour,0.5,3.9
85,19,0,1,15,40,740,1142.652300217771,1143.3514011462685,"[94, 0, 160]",160,l,0.17577855463605374,1,colour,0.5,3.9
85,19,0,1,15,41,741,1143.8711013192078,1144.4313632898265,"[76, 0, 178]",178,l,0.036808839766308665,1,colour,0.5,3.9
85,19,0,1,15,42,742,1144.9493151807692,1145.4793171815109,"[95, 0, 159]",159,l,0.006688685272820294,1,colour,0.5,3.9
85,19,0,1,15,43,743,1145.9963049376383,1146.9113547354937,"[63, 0, 191]",191,l,0.39167622406966984,1,colour,0.5,3.9
85,19,0,1,15,44,744,1147.4183455005987,1147.9514813333517,"[22, 0, 232]",232,a,0.010323095484636724,1,colour,0.5,3.9
85,19,0,1,15,45,745,1148.465198592865,1149.0792949685128,"[75, 0, 179]",179,l,0.09052390954457223,1,colour,0.5,3.9
85,19,0,1,15,46,746,1149.5903667650418,1150.3833034535637,"[54, 0, 200]",200,l,0.26956390228588134,1,colour,0.5,3.9
85,19,0,1,15,47,747,1150.9028421497205,1152.031366283074,"[12, 0, 242]",242,a,0.6050178334116936,1,colour,0.5,3.9
85,19,0,1,15,48,748,1152.5436129219597,1153.0872727115639,"[1, 0, 253]",253,a,0.020186966517940164,1,colour,0.5,3.9
85,19,0,1,15,49,749,1153.6077692409744,1154.7755909264088,"[20, 0, 234]",234,a,0.6443858839338645,1,colour,0.5,3.9
85,19,0,1,15,50,750,1155.295451394748,1156.2792997735087,"[31, 0, 223]",223,a,0.46038264501839876,1,colour,0.5,3.9
85,19,0,1,16,1,751,1163.4602570080897,1164.0473001074279,"[86, 0, 168]",168,l,0.06286017200909555,1,colour,0.5,3.9
85,19,0,1,16,2,752,1164.5581446548458,1165.807299855398,"[93, 0, 161]",161,l,0.7258296757936478,1,colour,0.5,3.9
85,19,0,1,16,3,753,1166.3238886456238,1167.6712867418537,"[90, 0, 164]",164,l,0.8240698146400973,1,colour,0.5,3.9
85,19,0,1,16,4,754,1168.1834435838973,1168.8232966951327,"[21, 0, 233]",233,a,0.11657957418356091,1,colour,0.5,3.9
85,19,0,1,16,5,755,1169.3397917500697,1169.9273007691372,"[67, 0, 187]",187,l,0.06416340824216604,1,colour,0.5,3.9
85,19,0,1,16,6,756,1170.433559768484,1171.1833049502457,"[18, 0, 236]",236,a,0.2267288260627538,1,colour,0.5,3.9
85,19,0,1,16,7,757,1171.6992687069578,1172.9993099819403,"[3, 0, 251]",251,a,0.7769579655723646,1,colour,0.5,3.9
85,19,0,1,16,8,758,1173.5120115128811,1174.8313276073895,"[41, 0, 213]",213,a,0.7952607732731849,1,colour,0.5,3.9
85,19,0,1,16,9,759,1175.3318088870728,1176.159307130496,"[0, 0, 254]",254,a,0.3042152541456744,1,colour,0.5,3.9
85,19,0,1,16,10,760,1176.675485533313,1177.4472805727273,"[60, 0, 194]",194,l,0.2485727024031803,1,colour,0.5,3.9
85,19,0,1,16,11,761,1177.9568978962488,1178.7912931694882,"[39, 0, 215]",215,a,0.3110205178381875,1,colour,0.5,3.9
85,19,0,1,16,12,762,1179.3017797109205,1180.1512305322103,"[72, 0, 182]",182,l,0.3260276227956638,1,colour,0.5,3.9
85,19,0,1,16,13,763,1180.6612350062933,1181.4396096357377,"[7, 0, 247]",247,a,0.25502232322469354,1,colour,0.5,3.9
85,19,0,1,16,14,764,1181.9581519016065,1182.7273546472425,"[8, 0, 246]",246,a,0.24581499327905476,1,colour,0.5,3.9
85,19,0,1,16,15,765,1183.2395303938538,1184.1513065444306,"[45, 0, 209]",209,a,0.3883813089923933,1,colour,0.5,3.9
85,19,0,1,16,16,766,1184.6615654430352,1185.4873201305745,"[28, 0, 226]",226,a,0.3023689044639468,1,colour,0.5,3.9
85,19,0,1,16,17,767,1186.0054110491183,1186.7993441678118,"[29, 0, 225]",225,a,0.2704843202373013,1,colour,0.5,3.9
85,19,0,1,16,18,768,1187.3180097074946,1188.1193014433375,"[81, 0, 173]",173,l,0.27784963278099895,1,colour,0.5,3.9
85,19,0,1,16,19,769,1188.6306308151688,1189.4233245006762,"[46, 0, 208]",208,a,0.2692811208544299,1,colour,0.5,3.9
85,19,0,1,16,20,770,1189.943243652,1190.8873222573893,"[6, 0, 248]",248,a,0.4208460283698514,1,colour,0.5,3.9
85,19,0,1,16,21,771,1191.3973334268667,1192.21529666055,"[70, 0, 184]",184,l,0.2945085276151076,1,colour,0.5,3.9
85,19,0,1,16,22,772,1192.7256315713748,1193.5272742238594,"[91, 0, 163]",163,l,0.2785179892089218,1,colour,0.5,3.9
85,19,0,1,16,23,773,1194.0257764278213,1195.0552857273724,"[54, 0, 200]",200,l,0.5063460393575951,1,colour,0.5,3.9
85,19,0,1,16,24,774,1195.572823686176,1196.53526063147,"[50, 0, 204]",204,l,0.43928550044074655,0,colour,0.5,3.9
85,19,0,1,16,25,775,1197.0416275446769,1197.8392517872853,"[55, 0, 199]",199,a,0.2743290440412238,0,colour,0.5,3.9
85,19,0,1,16,26,776,1198.3543632614892,1199.1912574870512,"[38, 0, 216]",216,a,0.3135687009198591,1,colour,0.5,3.9
85,19,0,1,16,27,777,1199.7011568042217,1200.5033177580917,"[32, 0, 222]",222,a,0.278676709276624,1,colour,0.5,3.9
85,19,0,1,16,28,778,1201.0138342318824,1201.8232907875208,"[82, 0, 172]",172,l,0.28597034187987447,1,colour,0.5,3.9
85,19,0,1,16,29,779,1202.3296273745364,1203.247243078542,"[49, 0, 205]",205,a,0.3941184625728056,1,colour,0.5,3.9
85,19,0,1,16,30,780,1203.767272506724,1204.4632663847879,"[95, 0, 159]",159,l,0.1726025810930878,1,colour,0.5,3.9
85,19,0,1,16,31,781,1204.97046903905,1205.7674229558324,"[51, 0, 203]",203,a,0.2735169337829575,0,colour,0.5,3.9
85,19,0,1,16,32,782,1206.2831460727612,1207.0712534225313,"[20, 0, 234]",234,a,0.26479679124895483,1,colour,0.5,3.9
85,19,0,1,16,33,783,1207.580075571197,1208.3992742995033,"[25, 0, 229]",229,a,0.2953765639103949,1,colour,0.5,3.9
85,19,0,1,16,34,784,1208.9151325055864,1209.7192599320551,"[14, 0, 240]",240,a,0.28071328648366034,1,colour,0.5,3.9
85,19,0,1,16,35,785,1210.2278351392597,1211.015306034009,"[88, 0, 166]",166,l,0.2640563609311357,1,colour,0.5,3.9
85,19,0,1,16,36,786,1211.5247969330521,1212.4312522253022,"[58, 0, 196]",196,l,0.394075533375144,1,colour,0.5,3.9
85,19,0,1,16,37,787,1212.9513289149618,1214.127563543152,"[96, 0, 158]",158,l,0.6528472697827965,1,colour,0.5,3.9
85,19,0,1,16,38,788,1214.62657577754,1215.3672412353335,"[16, 0, 238]",238,a,0.21751716372091323,1,colour,0.5,3.9
85,19,0,1,16,39,789,1215.8765793221537,1216.6632696143351,"[63, 0, 191]",191,l,0.2623931495472789,1,colour,0.5,3.9
85,19,0,1,16,40,790,1217.1746056814445,1218.3272725697607,"[37, 0, 217]",217,a,0.6294386435765773,1,colour,0.5,3.9
85,19,0,1,16,41,791,1218.8474004593445,1219.6152554642176,"[27, 0, 227]",227,a,0.2423070075456053,1,colour,0.5,3.9
85,19,0,1,16,42,792,1220.1308509750525,1220.8952468311181,"[99, 0, 155]",155,l,0.2416547987377271,1,colour,0.5,3.9
85,19,0,1,16,43,793,1221.412266094936,1222.0952480913838,"[23, 0, 231]",231,a,0.1596040902659297,1,colour,0.5,3.9
85,19,0,1,16,44,794,1222.6154181226157,1223.343246960314,"[61, 0, 193]",193,l,0.20428630395326763,1,colour,0.5,3.9
85,19,0,1,16,45,795,1223.849994722521,1224.6632711896673,"[73, 0, 181]",181,l,0.28994661022443324,1,colour,0.5,3.9
85,19,0,1,16,46,796,1225.178244030103,1225.9352529121097,"[1, 0, 253]",253,a,0.23374952340964228,1,colour,0.5,3.9
85,19,0,1,16,47,797,1226.4438678978477,1227.1432610600023,"[89, 0, 165]",165,l,0.1760266775963828,1,colour,0.5,3.9
85,19,0,1,16,48,798,1227.662759583909,1228.455268949503,"[43, 0, 211]",211,a,0.26905387185979635,1,colour,0.5,3.9
85,19,0,1,16,49,799,1228.9753617868992,1229.7752585205017,"[68, 0, 186]",186,l,0.27666927652899176,1,colour,0.5,3.9
85,19,0,1,16,50,800,1230.278650715365,1231.1432295523118,"[62, 0, 192]",192,l,0.34044317121151835,1,colour,0.5,3.9
