id,age,condition,counterbalance,block,trialinblock,trial,tstart,tend,trialstim,trialintensity,response,RT,accuracy,trialtype,colourfreq,credits
63,23,0,2,Practice,1,NA,6.3015613704919815e-06,0.8524679585825652,"[23, 0, 231]",231,a,0.21577417152002454,1,colour,0.5,4
63,23,0,2,Practice,2,NA,1.360084944870323,3.0443581133149564,"[55, 0, 199]",199,a,1.1680285867769271,0,colour,0.5,4
63,23,0,2,Practice,3,NA,3.552133425604552,4.092386873671785,"[97, 0, 157]",157,l,0.023533887695521116,1,colour,0.5,4
63,23,0,2,Practice,4,NA,4.600160610629246,5.27639537747018,"[89, 0, 165]",165,l,0.15983225288800895,1,colour,0.5,4
63,23,0,2,Practice,5,NA,5.784540117718279,6.3245446546934545,"[12, 0, 242]",242,a,0.023728841450065374,1,colour,0.5,4
63,23,0,2,Practice,6,NA,6.832316422369331,7.404478504322469,"[11, 0, 243]",243,a,0.05576508166268468,1,colour,0.5,4
63,23,0,2,Practice,7,NA,7.912473582895473,8.516350526362658,"[19, 0, 235]",235,a,0.08744016499258578,1,colour,0.5,4
63,23,0,2,Practice,8,NA,9.024501174222678,9.628337945323437,"[59, 0, 195]",195,a,0.08738187560811639,0,colour,0.5,4
63,23,0,2,Practice,9,NA,10.13646220532246,11.276475722203031,"[37, 0, 217]",217,a,0.6236893781460822,1,colour,0.5,4
63,23,0,2,Practice,10,NA,11.78507102234289,12.78040197538212,"[50, 0, 204]",204,a,0.47908006981015205,1,colour,0.5,4
63,23,0,2,1,1,1,4.2672561758663505,5.143989000702277,"[45, 0, 209]",209,a,0.36172413267195225,1,colour,0.5,4.0
63,23,0,2,1,2,2,5.652421642327681,6.560016651870683,"[55, 0, 199]",199,a,0.39127441542223096,0,colour,0.5,4.0
63,23,0,2,1,3,3,7.06775297340937,8.04004825418815,"[35, 0, 219]",219,a,0.45607787440530956,1,colour,0.5,4.0
63,23,0,2,1,4,4,8.548297363333404,9.520062133204192,"[24, 0, 230]",230,a,0.4557320773601532,1,colour,0.5,4.0
63,23,0,2,1,5,5,10.028574725612998,11.16799589782022,"[80, 0, 174]",174,l,0.6229387072380632,1,colour,0.5,4.0
63,23,0,2,1,6,6,11.676116613205522,12.600008585955948,"[10, 0, 244]",244,a,0.40750245563685894,1,colour,0.5,4.0
63,23,0,2,1,7,7,13.108463676879182,14.159992548404261,"[89, 0, 165]",165,l,0.5351169053465128,1,colour,0.5,4.0
63,23,0,2,1,8,8,14.66801519622095,15.863984416471794,"[96, 0, 158]",158,l,0.6795036909170449,1,colour,0.5,4.0
63,23,0,2,1,9,9,16.371619519311935,17.45599752990529,"[33, 0, 221]",221,a,0.567937687272206,1,colour,0.5,4.0
63,23,0,2,1,10,10,17.96415762999095,19.080011831130832,"[40, 0, 214]",214,a,0.5993473178241402,1,colour,0.5,4.0
63,23,0,2,1,11,11,19.588748916052282,20.69604208180681,"[19, 0, 235]",235,a,0.5909678456373513,1,colour,0.5,4.0
63,23,0,2,1,12,12,21.204268347937614,22.240055579692125,"[93, 0, 161]",161,l,0.5193307606969029,1,colour,0.5,4.0
63,23,0,2,1,13,13,22.747822621138766,23.79206297453493,"[32, 0, 222]",222,a,0.5277854579035193,1,colour,0.5,4.0
63,23,0,2,1,14,14,24.300237646792084,25.336118614068255,"[37, 0, 217]",217,a,0.5194055915344507,1,colour,0.5,4.0
63,23,0,2,1,15,15,25.84382264013402,26.9040858396329,"[91, 0, 163]",163,l,0.5436846362426877,1,colour,0.5,4.0
63,23,0,2,1,16,16,27.412186075001955,28.552003850229084,"[88, 0, 166]",166,l,0.6213306330610067,1,colour,0.5,4.0
63,23,0,2,1,17,17,29.0598634458147,30.52810407942161,"[82, 0, 172]",172,l,0.9519247659482062,1,colour,0.5,4.0
63,23,0,2,1,18,18,31.036839195061475,32.27198705682531,"[36, 0, 218]",218,a,0.7189123386051506,1,colour,0.5,4.0
63,23,0,2,1,19,19,32.78042009216733,33.871990128653124,"[52, 0, 202]",202,a,0.575407768599689,0,colour,0.5,4.0
63,23,0,2,1,20,20,34.379885958041996,35.58399204118177,"[57, 0, 197]",197,a,0.6878232983872294,0,colour,0.5,4.0
63,23,0,2,1,21,21,36.09155979659408,37.176093376241624,"[49, 0, 205]",205,a,0.5682043209671974,1,colour,0.5,4.0
63,23,0,2,1,22,22,37.68457012879662,38.736133265076205,"[1, 0, 253]",253,a,0.5356367824133486,1,colour,0.5,4.0
63,23,0,2,1,23,23,39.244621832855046,40.43203513743356,"[25, 0, 229]",229,a,0.6709918859414756,1,colour,0.5,4.0
63,23,0,2,1,24,24,40.940174363786355,42.31207705847919,"[65, 0, 189]",189,a,0.8564643163699657,0,colour,0.5,4.0
63,23,0,2,1,25,25,42.82008828455582,44.2480337228626,"[62, 0, 192]",192,a,0.9116831335704774,0,colour,0.5,4.0
63,23,0,2,1,26,26,44.75587598886341,48.048000797163695,"[71, 0, 183]",183,a,2.775760497432202,0,colour,0.5,4.0
63,23,0,2,1,27,27,48.555536651052535,49.65601706458256,"[90, 0, 164]",164,l,0.5838325333315879,1,colour,0.5,4.0
63,23,0,2,1,28,28,50.16406767535955,51.2960112830624,"[26, 0, 228]",228,a,0.6154761090874672,1,colour,0.5,4.0
63,23,0,2,1,29,29,51.803657807642594,52.800076563842595,"[0, 0, 254]",254,a,0.48004026687704027,1,colour,0.5,4.0
63,23,0,2,1,30,30,53.308194522280246,54.39204162801616,"[13, 0, 241]",241,a,0.5673610963858664,1,colour,0.5,4.0
63,23,0,2,1,31,31,54.89958063256927,55.928036416647956,"[44, 0, 210]",210,a,0.5119989193044603,1,colour,0.5,4.0
63,23,0,2,1,32,32,56.43634066451341,57.49600049154833,"[6, 0, 248]",248,a,0.5436944824177772,1,colour,0.5,4.0
63,23,0,2,1,33,33,58.00359660387039,59.13609238388017,"[76, 0, 178]",178,l,0.6161259552463889,1,colour,0.5,4.0
63,23,0,2,1,34,34,59.644140631426126,60.82401099312119,"[14, 0, 240]",240,a,0.6636123892385513,1,colour,0.5,4.0
63,23,0,2,1,35,35,61.33174692071043,62.52019407181069,"[46, 0, 208]",208,a,0.6722348646726459,1,colour,0.5,4.0
63,23,0,2,1,36,36,63.02939550136216,64.29607863072306,"[15, 0, 239]",239,a,0.7481908674817532,1,colour,0.5,4.0
63,23,0,2,1,37,37,64.80411703232676,65.83203324698843,"[86, 0, 168]",168,l,0.5113963345065713,1,colour,0.5,4.0
63,23,0,2,1,38,38,66.34056080551818,67.58411373966374,"[18, 0, 236]",236,l,0.7268920568749309,0,colour,0.5,4.0
63,23,0,2,1,39,39,68.092495969031,69.87201927322894,"[95, 0, 159]",159,l,1.2631176393479109,1,colour,0.5,4.0
63,23,0,2,1,40,40,70.37942949007265,71.58404954266734,"[97, 0, 157]",157,l,0.6862794212065637,1,colour,0.5,4.0
63,23,0,2,1,41,41,72.09236521204002,73.08812939585187,"[5, 0, 249]",249,a,0.47908479580655694,1,colour,0.5,4.0
63,23,0,2,1,42,42,73.59649626514874,74.67999757407233,"[60, 0, 194]",194,a,0.5669841854833066,0,colour,0.5,4.0
63,23,0,2,1,43,43,75.18807142181322,76.25602840748616,"[81, 0, 173]",173,l,0.5515481701586396,1,colour,0.5,4.0
63,23,0,2,1,44,44,76.7635922243353,78.07210654974915,"[54, 0, 200]",200,a,0.7922287837136537,0,colour,0.5,4.0
63,23,0,2,1,45,45,78.58046514820307,79.74402515590191,"[41, 0, 213]",213,a,0.6471740351989865,1,colour,0.5,4.0
63,23,0,2,1,46,46,80.25192098505795,81.44000697904266,"[22, 0, 232]",232,a,0.6716330675408244,1,colour,0.5,4.0
63,23,0,2,1,47,47,81.94752668519504,83.33610679861158,"[74, 0, 180]",180,l,0.8722043810412288,1,colour,0.5,4.0
63,23,0,2,1,48,48,83.8446327818092,84.9840551353991,"[92, 0, 162]",162,l,0.623002510285005,1,colour,0.5,4.0
63,23,0,2,1,49,49,85.4919127614703,86.62412182148546,"[78, 0, 176]",176,l,0.6159069766290486,1,colour,0.5,4.0
63,23,0,2,1,50,50,87.13248199550435,90.68003932177089,"[64, 0, 190]",190,a,3.0312906892504543,0,colour,0.5,4.0
63,23,0,2,2,1,51,96.46669833199121,98.08811679272912,"[62, 0, 192]",192,a,1.1061486485414207,0,colour,0.5,4.0
63,23,0,2,2,2,52,98.59650611132383,99.54408714710735,"[20, 0, 234]",234,a,0.431160798529163,1,colour,0.5,4.0
63,23,0,2,2,3,53,100.05189908714965,102.66400032769889,"[73, 0, 181]",181,l,2.0958680803887546,1,colour,0.5,4.0
63,23,0,2,2,4,54,103.17188158468343,104.18401401792653,"[42, 0, 212]",212,a,0.4953254391439259,1,colour,0.5,4.0
63,23,0,2,2,5,55,104.69237813027576,105.75211278814822,"[1, 0, 253]",253,a,0.5434034301433712,1,colour,0.5,4.0
63,23,0,2,2,6,56,106.25986407580785,107.19205517624505,"[9, 0, 245]",245,a,0.41568264178931713,1,colour,0.5,4.0
63,23,0,2,2,7,57,107.70010696863756,108.7040639417246,"[33, 0, 221]",221,a,0.4876481944229454,1,colour,0.5,4.0
63,23,0,2,2,8,58,109.21167068788782,110.23201284580864,"[13, 0, 241]",241,a,0.5038297607097775,1,colour,0.5,4.0
63,23,0,2,2,9,59,110.74017333961092,111.70416358485818,"[83, 0, 171]",171,l,0.4474620942492038,1,colour,0.5,4.0
63,23,0,2,2,10,60,112.2125462081749,113.56007021502592,"[24, 0, 230]",230,a,0.8290490740910172,1,colour,0.5,4.0
63,23,0,2,2,11,61,114.06834689364769,115.02415852784179,"[43, 0, 211]",211,a,0.43946544034406543,1,colour,0.5,4.0
63,23,0,2,2,12,62,115.53181450488046,116.52006173948757,"[54, 0, 200]",200,a,0.472026283852756,0,colour,0.5,4.0
63,23,0,2,2,13,63,117.02826634421945,117.92002361500636,"[4, 0, 250]",250,a,0.3754028060939163,1,colour,0.5,4.0
63,23,0,2,2,14,64,118.42757207201794,119.45610229298472,"[55, 0, 199]",199,a,0.5121221931185573,0,colour,0.5,4.0
63,23,0,2,2,15,65,119.96401702682488,121.12800317606889,"[63, 0, 191]",191,l,0.6475127430167049,1,colour,0.5,4.0
63,23,0,2,2,16,66,121.63565915287472,122.664068069309,"[85, 0, 169]",169,l,0.5122521624434739,1,colour,0.5,4.0
63,23,0,2,2,17,67,123.17211710475385,124.24803017824888,"[37, 0, 217]",217,a,0.5592746455222368,1,colour,0.5,4.0
63,23,0,2,2,18,68,124.75559005653486,125.69604247552343,"[92, 0, 162]",162,l,0.4240101263858378,1,colour,0.5,4.0
63,23,0,2,2,19,69,126.20404031104408,127.26405578129925,"[75, 0, 179]",179,l,0.5435180393978953,1,colour,0.5,4.0
63,23,0,2,2,20,70,127.77249826909974,128.800114372978,"[72, 0, 182]",182,l,0.5112549436744303,1,colour,0.5,4.0
63,23,0,2,2,21,71,129.3079763315618,130.24800772895105,"[86, 0, 168]",168,l,0.4235784711781889,1,colour,0.5,4.0
63,23,0,2,2,22,72,130.75656561367214,131.7762575314846,"[76, 0, 178]",178,l,0.5032133914064616,1,colour,0.5,4.0
63,23,0,2,2,23,73,132.28485283162445,133.28801699215546,"[77, 0, 177]",177,l,0.4867927604354918,1,colour,0.5,4.0
63,23,0,2,2,24,74,133.79628776293248,134.74410038045608,"[16, 0, 238]",238,a,0.4315782757475972,1,colour,0.5,4.0
63,23,0,2,2,25,75,135.25175320659764,136.24803254124708,"[56, 0, 198]",198,a,0.4801517252344638,0,colour,0.5,4.0
63,23,0,2,2,26,76,136.756368690636,137.68811750179157,"[2, 0, 252]",252,a,0.41539789107628167,1,colour,0.5,4.0
63,23,0,2,2,27,77,138.19652218022384,139.20001717167906,"[11, 0, 243]",243,a,0.48695541894994676,1,colour,0.5,4.0
63,23,0,2,2,28,78,139.7079594747629,140.62404423370026,"[97, 0, 157]",157,l,0.3994475125800818,1,colour,0.5,4.0
63,23,0,2,2,29,79,141.13231579237618,142.02402619551867,"[10, 0, 244]",244,a,0.37622476322576404,1,colour,0.5,4.0
63,23,0,2,2,30,80,142.5317239202559,143.45602509914897,"[38, 0, 216]",216,a,0.40787424659356475,1,colour,0.5,4.0
63,23,0,2,2,31,81,143.96402490371838,145.1040423589293,"[14, 0, 240]",240,a,0.6237330951262265,1,colour,0.5,4.0
63,23,0,2,2,32,82,145.6116711604409,146.61606766609475,"[74, 0, 180]",180,l,0.4881905207876116,1,colour,0.5,4.0
63,23,0,2,2,33,83,147.12406156305224,148.21605498413555,"[17, 0, 237]",237,a,0.5753742917440832,1,colour,0.5,4.0
63,23,0,2,2,34,84,148.72459987201728,149.6480633399915,"[99, 0, 155]",155,l,0.4068482769653201,1,colour,0.5,4.0
63,23,0,2,2,35,85,150.15601864014752,151.14412960386835,"[32, 0, 222]",222,a,0.47170687443576753,1,colour,0.5,4.0
63,23,0,2,2,36,86,151.65246299630962,152.62401745212264,"[15, 0, 239]",239,a,0.45513343112543225,1,colour,0.5,4.0
63,23,0,2,2,37,87,153.1319042230025,154.1520510329865,"[30, 0, 224]",224,a,0.5040038407314569,1,colour,0.5,4.0
63,23,0,2,2,38,88,154.66032298537903,155.54403831018135,"[40, 0, 214]",214,a,0.3664156289305538,1,colour,0.5,4.0
63,23,0,2,2,39,89,156.0526521212887,157.20014202105813,"[57, 0, 197]",197,a,0.6310338226612657,0,colour,0.5,4.0
63,23,0,2,2,40,90,157.70827376423404,158.78402417898178,"[60, 0, 194]",194,a,0.5594447869807482,0,colour,0.5,4.0
63,23,0,2,2,41,91,159.29173135594465,160.39202193566598,"[65, 0, 189]",189,a,0.5836990193929523,0,colour,0.5,4.0
63,23,0,2,2,42,92,160.90025844192132,161.99201082927175,"[51, 0, 203]",203,a,0.5754829933866858,0,colour,0.5,4.0
63,23,0,2,2,43,93,162.4998334031552,163.47217082534917,"[35, 0, 219]",219,a,0.45591954817064106,1,colour,0.5,4.0
63,23,0,2,2,44,94,163.98028760240413,164.9600352414418,"[59, 0, 195]",195,a,0.4635440174024552,0,colour,0.5,4.0
63,23,0,2,2,45,95,165.46763450442813,166.44004636374302,"[79, 0, 175]",175,l,0.4561889390461147,1,colour,0.5,4.0
63,23,0,2,2,46,96,166.94808279606514,168.04013490024954,"[28, 0, 226]",226,a,0.5757070917170495,1,colour,0.5,4.0
63,23,0,2,2,47,97,168.548585658893,169.46409422066063,"[8, 0, 246]",246,a,0.39923719852231443,1,colour,0.5,4.0
63,23,0,2,2,48,98,169.97220430220477,170.93613822758198,"[80, 0, 174]",174,l,0.4474955713376403,1,colour,0.5,4.0
63,23,0,2,2,49,99,171.44441057369113,172.37607982801273,"[12, 0, 242]",242,a,0.4152285372838378,1,colour,0.5,4.0
63,23,0,2,2,50,100,172.88376888795756,173.88803109177388,"[68, 0, 186]",186,l,0.4878021883778274,1,colour,0.5,4.0
63,23,0,2,3,1,101,179.67554199160077,180.63211886910722,"[22, 0, 232]",232,a,0.44147287448868155,1,colour,0.5,4.0
63,23,0,2,3,2,102,181.14067557244562,182.20806345017627,"[54, 0, 200]",200,a,0.5509991485159844,0,colour,0.5,4.0
63,23,0,2,3,3,103,182.71625348273665,183.65604384616017,"[42, 0, 212]",212,a,0.42329568951390684,1,colour,0.5,4.0
63,23,0,2,3,4,104,184.16371912159957,185.07209237129427,"[15, 0, 239]",239,a,0.3922787234187126,1,colour,0.5,4.0
63,23,0,2,3,5,105,185.5800925695803,186.40805423422717,"[21, 0, 233]",233,a,0.3117911259178072,1,colour,0.5,4.0
63,23,0,2,3,6,106,186.91621197131462,187.8320450624451,"[44, 0, 210]",210,a,0.3995719680096954,1,colour,0.5,4.0
63,23,0,2,3,7,107,188.33959036855958,189.272052828921,"[2, 0, 252]",252,a,0.41606861096806824,1,colour,0.5,4.0
63,23,0,2,3,8,108,189.7800443628803,192.1442757206969,"[64, 0, 190]",190,l,1.8480052868835628,1,colour,0.5,4.0
63,23,0,2,3,9,109,192.6527505039703,193.7920247714501,"[84, 0, 170]",170,l,0.6230619812849909,1,colour,0.5,4.0
63,23,0,2,3,10,110,194.30028136377223,195.24805459659547,"[45, 0, 209]",209,a,0.43146130349487066,1,colour,0.5,4.0
63,23,0,2,3,11,111,195.7556948196143,196.65611473843455,"[71, 0, 183]",183,l,0.3840477308258414,1,colour,0.5,4.0
63,23,0,2,3,12,112,197.16405389085412,198.00003820308484,"[8, 0, 246]",246,a,0.31957667833194137,1,colour,0.5,4.0
63,23,0,2,3,13,113,198.5083349677734,199.42402115440927,"[83, 0, 171]",171,l,0.39933526632376015,1,colour,0.5,4.0
63,23,0,2,3,14,114,199.93172951275483,201.00004056631587,"[6, 0, 248]",248,a,0.5521196410991251,1,colour,0.5,4.0
63,23,0,2,3,15,115,201.50822666008025,202.42413615738042,"[93, 0, 161]",161,l,0.39955070009455085,1,colour,0.5,4.0
63,23,0,2,3,16,116,202.93156409729272,204.0080852692481,"[36, 0, 218]",218,a,0.560223814798519,1,colour,0.5,4.0
63,23,0,2,3,17,117,204.51609373860992,205.448039079085,"[10, 0, 244]",244,a,0.4156464079860598,1,colour,0.5,4.0
63,23,0,2,3,18,118,205.95551743125543,206.95206615678035,"[65, 0, 189]",189,l,0.48019859311170876,1,colour,0.5,4.0
63,23,0,2,3,19,119,207.45987849053927,208.43202607892454,"[78, 0, 176]",176,l,0.45555760338902473,1,colour,0.5,4.0
63,23,0,2,3,20,120,208.94036301597953,209.8320438808296,"[0, 0, 254]",254,a,0.37527874461375177,1,colour,0.5,4.0
63,23,0,2,3,21,121,210.33966165455058,211.20810834877193,"[31, 0, 223]",223,a,0.3521253124345094,1,colour,0.5,4.0
63,23,0,2,3,22,122,211.7168123505544,212.62405841215514,"[85, 0, 169]",169,l,0.39079864928498864,1,colour,0.5,4.0
63,23,0,2,3,23,123,213.13236108468845,214.72019391413778,"[55, 0, 199]",199,l,1.0713172815740108,1,colour,0.5,4.0
63,23,0,2,3,24,124,215.2284701988101,216.13615776225924,"[25, 0, 229]",229,a,0.3913039539474994,1,colour,0.5,4.0
63,23,0,2,3,25,125,216.64382791751996,217.60809897514991,"[90, 0, 164]",164,l,0.4477543281391263,1,colour,0.5,4.0
63,23,0,2,3,26,126,218.1162114199251,219.12016681768,"[63, 0, 191]",191,l,0.4876611914951354,1,colour,0.5,4.0
63,23,0,2,3,27,127,219.62867665314116,220.6480846076738,"[98, 0, 156]",156,l,0.5032070898450911,1,colour,0.5,4.0
63,23,0,2,3,28,128,221.15610686154105,222.12004393758252,"[87, 0, 167]",167,l,0.44762829737737775,1,colour,0.5,4.0
63,23,0,2,3,29,129,222.6275018097367,223.49604814709164,"[34, 0, 220]",220,a,0.3522056571673602,1,colour,0.5,4.0
63,23,0,2,3,30,130,224.00378446863033,224.92804980743676,"[35, 0, 219]",219,a,0.40784785873256624,1,colour,0.5,4.0
63,23,0,2,3,31,131,225.4364950521849,226.38404300482944,"[37, 0, 217]",217,a,0.4316176602151245,1,colour,0.5,4.0
63,23,0,2,3,32,132,226.89156152959913,227.8401425408665,"[28, 0, 226]",226,a,0.43225529743358493,1,colour,0.5,4.0
63,23,0,2,3,33,133,228.34804152091965,229.2241036258638,"[58, 0, 196]",196,a,0.35988290165551007,0,colour,0.5,4.0
63,23,0,2,3,34,134,229.73229838418774,230.64807082316838,"[11, 0, 243]",243,a,0.39955582027323544,1,colour,0.5,4.0
63,23,0,2,3,35,135,231.1556720554363,232.0320736556314,"[96, 0, 158]",158,l,0.35989826172590256,1,colour,0.5,4.0
63,23,0,2,3,36,136,232.54004510329105,234.38406939269044,"[1, 0, 253]",253,a,1.3283342432696372,1,colour,0.5,4.0
63,23,0,2,3,37,137,234.89224445889704,235.90406732889824,"[86, 0, 168]",168,l,0.4954483190085739,1,colour,0.5,4.0
63,23,0,2,3,38,138,236.41172488126904,237.33611349388957,"[26, 0, 228]",228,a,0.4079033909365535,1,colour,0.5,4.0
63,23,0,2,3,39,139,237.844122356968,238.8080373776611,"[7, 0, 247]",247,a,0.4475022666156292,1,colour,0.5,4.0
63,23,0,2,3,40,140,239.3154751637485,240.28004948282614,"[60, 0, 194]",194,a,0.4480575895868242,0,colour,0.5,4.0
63,23,0,2,3,41,141,240.78802683833055,241.67205645237118,"[76, 0, 178]",178,l,0.36720922915264964,1,colour,0.5,4.0
63,23,0,2,3,42,142,242.18021891545504,243.1440724960994,"[27, 0, 227]",227,a,0.44739829120226204,1,colour,0.5,4.0
63,23,0,2,3,43,143,243.65170878078789,245.26403805823065,"[95, 0, 159]",159,l,1.0961626775097102,1,colour,0.5,4.0
63,23,0,2,3,44,144,245.7717649275437,246.784095071489,"[75, 0, 179]",179,l,0.4959437777288258,1,colour,0.5,4.0
63,23,0,2,3,45,145,247.29216852528043,248.38404024811462,"[91, 0, 163]",163,l,0.5753360888920724,1,colour,0.5,4.0
63,23,0,2,3,46,146,248.89169661863707,249.92007323983125,"[48, 0, 206]",206,a,0.5118937625084072,1,colour,0.5,4.0
63,23,0,2,3,47,147,250.42824279214256,251.44808279606514,"[61, 0, 193]",193,a,0.5036159022711217,0,colour,0.5,4.0
63,23,0,2,3,48,148,251.9558411729522,252.93603622121736,"[50, 0, 204]",204,a,0.4626062694005668,1,colour,0.5,4.0
63,23,0,2,3,49,149,253.44405729370192,254.37606407422572,"[80, 0, 174]",174,l,0.41556606348603964,1,colour,0.5,4.0
63,23,0,2,3,50,150,254.8834108817391,255.93609687360004,"[3, 0, 251]",251,a,0.5364146286156029,1,colour,0.5,4.0
63,23,0,2,4,1,151,263.8672939061653,264.9280746197328,"[22, 0, 232]",232,a,0.5447109995875508,1,colour,0.5,3.9
63,23,0,2,4,2,152,265.4356455258094,266.34406800637953,"[73, 0, 181]",181,l,0.3922728158067912,1,colour,0.5,3.9
63,23,0,2,4,3,153,266.85191578627564,267.80004505603574,"[1, 0, 253]",253,a,0.4312238141428679,1,colour,0.5,3.9
63,23,0,2,4,4,154,268.3083284299355,269.1920409977902,"[9, 0, 245]",245,a,0.3671674814540893,1,colour,0.5,3.9
63,23,0,2,4,5,155,269.6996276578866,270.66410430311225,"[90, 0, 164]",164,l,0.4482698729261756,1,colour,0.5,3.9
63,23,0,2,4,6,156,271.1720320340246,272.2720670076087,"[58, 0, 196]",196,l,0.5836178874596953,1,colour,0.5,3.9
63,23,0,2,4,7,157,272.7796379136853,273.72806886956096,"[38, 0, 216]",216,a,0.4302336846012622,1,colour,0.5,3.9
63,23,0,2,4,8,158,274.2360300773289,275.1280598898884,"[89, 0, 165]",165,l,0.37581713241524994,1,colour,0.5,3.9
63,23,0,2,4,9,159,275.63649331917986,276.6000692383386,"[76, 0, 178]",178,l,0.44747154670767486,1,colour,0.5,3.9
63,23,0,2,4,10,160,277.10774411982857,278.29603845835663,"[52, 0, 202]",202,l,0.6717019907664508,1,colour,0.5,3.9
63,23,0,2,4,11,161,278.8043505831156,279.7201505911071,"[28, 0, 226]",226,a,0.3993648048490286,1,colour,0.5,3.9
63,23,0,2,4,12,162,280.22776482021436,281.1600941608194,"[0, 0, 254]",254,a,0.4158823217730969,1,colour,0.5,3.9
63,23,0,2,4,13,163,281.66814752854407,282.6480491615366,"[45, 0, 209]",209,a,0.4635806451551616,1,colour,0.5,3.9
63,23,0,2,4,14,164,283.15556965535507,284.0480976833496,"[31, 0, 223]",223,a,0.3759356802329421,1,colour,0.5,3.9
63,23,0,2,4,15,165,284.55589347565547,285.46403671917506,"[8, 0, 246]",246,a,0.3917812956497073,1,colour,0.5,3.9
63,23,0,2,4,16,166,285.9722688931506,286.89606791804545,"[79, 0, 175]",175,l,0.4073709109798074,1,colour,0.5,3.9
63,23,0,2,4,17,167,287.4037573719397,288.4801741745323,"[68, 0, 186]",186,l,0.5603167626541108,1,colour,0.5,3.9
63,23,0,2,4,18,168,288.9881113576703,289.9280789520126,"[49, 0, 205]",205,a,0.4234835540410131,1,colour,0.5,3.9
63,23,0,2,4,19,169,290.43556399969384,291.4001946388744,"[87, 0, 167]",167,l,0.44814778049476445,1,colour,0.5,3.9
63,23,0,2,4,20,170,291.90795498504303,292.9360775751993,"[11, 0, 243]",243,a,0.5115712021943182,1,colour,0.5,3.9
63,23,0,2,4,21,171,293.44439285062253,294.55211885343306,"[93, 0, 161]",161,l,0.5912884364370257,1,colour,0.5,3.9
63,23,0,2,4,22,172,295.0599745104555,296.4480623160489,"[55, 0, 199]",199,a,0.8716159746982157,0,colour,0.5,3.9
63,23,0,2,4,23,173,296.9558242375497,297.8880665381439,"[19, 0, 235]",235,a,0.41592643270269036,1,colour,0.5,3.9
63,23,0,2,4,24,174,298.3963357335888,299.4720837853383,"[71, 0, 183]",183,a,0.5577213158831,0,colour,0.5,3.9
63,23,0,2,4,25,175,299.9796602053102,300.93615476903506,"[15, 0, 239]",239,a,0.4381881970912218,1,colour,0.5,3.9
63,23,0,2,4,26,176,301.4442258598283,302.25604809983633,"[75, 0, 179]",179,l,0.2955642675515264,1,colour,0.5,3.9
63,23,0,2,4,27,177,302.7644460829906,303.6960893434007,"[69, 0, 185]",185,l,0.4153084880672395,1,colour,0.5,3.9
63,23,0,2,4,28,178,304.2038465386722,305.224115047371,"[5, 0, 249]",249,a,0.5040613424498588,1,colour,0.5,3.9
63,23,0,2,4,29,179,305.7321892888285,306.6880946585443,"[62, 0, 192]",192,l,0.43952451716177166,1,colour,0.5,3.9
63,23,0,2,4,30,180,307.1956037308555,308.144090219168,"[20, 0, 234]",234,a,0.4319996910635382,1,colour,0.5,3.9
63,23,0,2,4,31,181,308.6520506392699,309.64015608932823,"[13, 0, 241]",241,a,0.47167379152961075,1,colour,0.5,3.9
63,23,0,2,4,32,182,310.14842567848973,310.976067540003,"[94, 0, 160]",160,l,0.3113925536163151,1,colour,0.5,3.9
63,23,0,2,4,33,183,311.4837054000236,312.5443596888799,"[24, 0, 230]",230,a,0.5443951350171119,1,colour,0.5,3.9
63,23,0,2,4,34,184,313.0533192967996,314.0322083509527,"[32, 0, 222]",222,a,0.4625101708807051,1,colour,0.5,3.9
63,23,0,2,4,35,185,314.54071030952036,315.4960544484202,"[39, 0, 215]",215,a,0.4390404801815748,1,colour,0.5,3.9
63,23,0,2,4,36,186,316.00405464693904,316.9041110458784,"[50, 0, 204]",204,a,0.38346208166331053,1,colour,0.5,3.9
63,23,0,2,4,37,187,317.41239678277634,318.2720567674842,"[66, 0, 188]",188,l,0.34335396299138665,1,colour,0.5,3.9
63,23,0,2,4,38,188,318.7797080182936,319.7040639417246,"[81, 0, 173]",173,l,0.40612675063312054,1,colour,0.5,3.9
63,23,0,2,4,39,189,320.2120924971532,321.144099277677,"[92, 0, 162]",162,l,0.4157484141178429,1,colour,0.5,3.9
63,23,0,2,4,40,190,321.652533888584,322.60006175516173,"[80, 0, 174]",174,l,0.4313214879948646,1,colour,0.5,3.9
63,23,0,2,4,41,191,323.10783391678706,324.09615440666676,"[53, 0, 201]",201,a,0.47184078209102154,0,colour,0.5,3.9
63,23,0,2,4,42,192,324.6043397129979,325.9600750198588,"[57, 0, 197]",197,a,0.8393863560631871,0,colour,0.5,3.9
63,23,0,2,4,43,193,326.468343033921,327.3760459572077,"[97, 0, 157]",157,l,0.39147567097097635,1,colour,0.5,3.9
63,23,0,2,4,44,194,327.8835219463799,328.84817464090884,"[85, 0, 169]",169,l,0.44851523893885314,1,colour,0.5,3.9
63,23,0,2,4,45,195,329.35585385467857,330.36013850802556,"[41, 0, 213]",213,a,0.4878943485673517,1,colour,0.5,3.9
63,23,0,2,4,46,196,330.8683431125246,331.7601515837014,"[2, 0, 252]",252,a,0.37534254789352417,1,colour,0.5,3.9
63,23,0,2,4,47,197,332.2677256404422,333.40015092189424,"[3, 0, 251]",251,a,0.6162567120045424,1,colour,0.5,3.9
63,23,0,2,4,48,198,333.9082354034763,334.6800826448016,"[40, 0, 214]",214,a,0.25536044407635927,1,colour,0.5,3.9
63,23,0,2,4,49,199,335.1886440741364,336.0000732555054,"[27, 0, 227]",227,a,0.2948844889178872,1,colour,0.5,3.9
63,23,0,2,4,50,200,336.50772923231125,337.3280778492335,"[4, 0, 250]",250,a,0.3039323182310909,1,colour,0.5,3.9
63,23,0,2,5,1,201,345.4675466767512,346.46426318073645,"[46, 0, 208]",208,a,0.4814888332039118,1,colour,0.5,3.9
63,23,0,2,5,2,202,346.97278207470663,347.8561063101515,"[42, 0, 212]",212,a,0.36693353671580553,1,colour,0.5,3.9
63,23,0,2,5,3,203,348.3641143855639,349.2881174229551,"[22, 0, 232]",232,a,0.407783268019557,1,colour,0.5,3.9
63,23,0,2,5,4,204,349.7964653878007,350.68009682325646,"[33, 0, 221]",221,a,0.3654231366235763,1,colour,0.5,3.9
63,23,0,2,5,5,205,351.18791664019227,352.1600925854873,"[98, 0, 156]",156,l,0.45569741912186146,1,colour,0.5,3.9
63,23,0,2,5,6,206,352.66827237792313,353.6961862295866,"[26, 0, 228]",228,a,0.5117826978676021,1,colour,0.5,3.9
63,23,0,2,5,7,207,354.20474687125534,355.06414928031154,"[19, 0, 235]",235,a,0.3425946272909641,1,colour,0.5,3.9
63,23,0,2,5,8,208,355.5720632264856,359.3601834063884,"[54, 0, 200]",200,a,3.271656225901097,0,colour,0.5,3.9
63,23,0,2,5,9,209,359.8681773033459,360.78409270825796,"[36, 0, 218]",218,a,0.39951013401150703,1,colour,0.5,3.9
63,23,0,2,5,10,210,361.29248281451873,362.2481802336406,"[99, 0, 155]",155,l,0.4392689112573862,1,colour,0.5,3.9
63,23,0,2,5,11,211,362.7560146227479,363.67208362789825,"[11, 0, 243]",243,a,0.3996653095819056,1,colour,0.5,3.9
63,23,0,2,5,12,212,364.1802980785724,365.06405830197036,"[82, 0, 172]",172,l,0.366559776943177,1,colour,0.5,3.9
63,23,0,2,5,13,213,365.57260949141346,366.4721247453708,"[66, 0, 188]",188,l,0.38299773703329265,1,colour,0.5,3.9
63,23,0,2,5,14,214,366.97994495602325,367.91208052425645,"[51, 0, 203]",203,a,0.413830776931718,0,colour,0.5,3.9
63,23,0,2,5,15,215,368.4204135229811,369.2881095460616,"[31, 0, 223]",223,a,0.35148294921964407,1,colour,0.5,3.9
63,23,0,2,5,16,216,369.79567454452626,370.648146441672,"[96, 0, 158]",158,l,0.3355770753696561,1,colour,0.5,3.9
63,23,0,2,5,17,217,371.1559705908876,372.17608589329757,"[87, 0, 167]",167,l,0.5035473729949445,1,colour,0.5,3.9
63,23,0,2,5,18,218,372.68468473805115,373.6721198617015,"[40, 0, 214]",214,a,0.47140164370648563,1,colour,0.5,3.9
63,23,0,2,5,19,219,374.18090696493164,375.0880632298067,"[71, 0, 183]",183,l,0.3909841508138925,1,colour,0.5,3.9
63,23,0,2,5,20,220,375.59623632673174,376.6082210675813,"[53, 0, 201]",201,a,0.49347633100114763,0,colour,0.5,3.9
63,23,0,2,5,21,221,377.1166478015948,378.19207053631544,"[80, 0, 174]",174,l,0.5589111254084855,1,colour,0.5,3.9
63,23,0,2,5,22,222,378.7001849503722,379.25609299819916,"[10, 0, 244]",244,a,0.03952995245344937,1,colour,0.5,3.9
63,23,0,2,5,23,223,379.7641995351296,380.3601448093541,"[79, 0, 175]",175,l,0.07963058794848621,1,colour,0.5,3.9
63,23,0,2,5,24,224,380.86826394940726,381.51207887008786,"[68, 0, 186]",186,l,0.12727101566269994,1,colour,0.5,3.9
63,23,0,2,5,25,225,382.02051111799665,382.6321350168437,"[13, 0, 241]",241,a,0.09522611112333834,1,colour,0.5,3.9
63,23,0,2,5,26,226,383.14053812017664,383.816087200772,"[44, 0, 210]",210,a,0.15931001282297075,1,colour,0.5,3.9
63,23,0,2,5,27,227,384.32356082694605,384.9921077154577,"[5, 0, 249]",249,a,0.15213807299733162,1,colour,0.5,3.9
63,23,0,2,5,28,228,385.4997802339494,386.12809179141186,"[91, 0, 163]",163,l,0.11181412660516798,1,colour,0.5,3.9
63,23,0,2,5,29,229,386.6358521375805,388.0561581403017,"[56, 0, 198]",198,a,0.904088202631101,0,colour,0.5,3.9
63,23,0,2,5,30,230,388.56364200636744,389.31209990149364,"[24, 0, 230]",230,a,0.23212233488447964,1,colour,0.5,3.9
63,23,0,2,5,31,231,389.8198677308392,390.424153880449,"[41, 0, 213]",213,a,0.08801675564609468,1,colour,0.5,3.9
63,23,0,2,5,32,232,390.9319504604209,391.5761623780709,"[18, 0, 236]",236,a,0.12792873894795775,1,colour,0.5,3.9
63,23,0,2,5,33,233,392.0840156720951,392.6800617708359,"[2, 0, 252]",252,a,0.07978024939075112,1,colour,0.5,3.9
63,23,0,2,5,34,234,393.1881277416833,393.74417442362756,"[88, 0, 166]",166,l,0.03920109081082046,1,colour,0.5,3.9
63,23,0,2,5,35,235,394.25214311433956,394.8640769701451,"[67, 0, 187]",187,l,0.09572590189054608,1,colour,0.5,3.9
63,23,0,2,5,36,236,395.3721909902524,395.9041791812051,"[25, 0, 229]",229,a,0.015645147766917944,1,colour,0.5,3.9
63,23,0,2,5,37,237,396.41220143507235,396.952075609006,"[16, 0, 238]",238,a,0.023425580002367496,1,colour,0.5,3.9
63,23,0,2,5,38,238,397.46024870616384,397.99210653384216,"[92, 0, 162]",162,l,0.01553565845824778,1,colour,0.5,3.9
63,23,0,2,5,39,239,398.50020913244225,399.520361850271,"[17, 0, 237]",237,a,0.5036454407963902,1,colour,0.5,3.9
63,23,0,2,5,40,240,400.0287491995841,400.72015571105294,"[81, 0, 173]",173,l,0.1752564529888332,1,colour,0.5,3.9
63,23,0,2,5,41,241,401.2277853002306,401.8800832750276,"[75, 0, 179]",179,l,0.13596674683503807,1,colour,0.5,3.9
63,23,0,2,5,42,242,402.3879893440753,402.97611952759326,"[76, 0, 178]",178,l,0.07150238938629627,1,colour,0.5,3.9
63,23,0,2,5,43,243,403.4840102370363,404.1203590144869,"[94, 0, 160]",160,l,0.11991002969443798,1,colour,0.5,3.9
63,23,0,2,5,44,244,404.6281276314985,405.54410368879326,"[9, 0, 245]",245,a,0.39976377109996974,1,colour,0.5,3.9
63,23,0,2,5,45,245,406.05242959805764,406.7521037296392,"[61, 0, 193]",193,l,0.18299946980550885,1,colour,0.5,3.9
63,23,0,2,5,46,246,407.26061002071947,408.14407289004885,"[4, 0, 250]",250,a,0.3669504723511636,1,colour,0.5,3.9
63,23,0,2,5,47,247,408.6519509961363,409.3441022709012,"[35, 0, 219]",219,a,0.17585234227590263,1,colour,0.5,3.9
63,23,0,2,5,48,248,409.8521233431529,410.5202263670508,"[55, 0, 199]",199,a,0.15160638047382236,0,colour,0.5,3.9
63,23,0,2,5,49,249,411.028184030205,411.73609151737764,"[12, 0, 242]",242,a,0.191679053241387,1,colour,0.5,3.9
63,23,0,2,5,50,250,412.2443945836276,413.66407279553823,"[57, 0, 197]",197,l,0.9033099624793977,1,colour,0.5,3.9
63,23,0,2,6,1,251,424.203158095479,425.2401071735658,"[91, 0, 163]",163,l,0.5219612596556544,1,colour,0.5,3.9
63,23,0,2,6,2,252,425.74872807366773,427.5681153119076,"[70, 0, 184]",184,l,1.3021899424493313,1,colour,0.5,3.9
63,23,0,2,6,3,253,428.0756239902694,428.9201917874161,"[36, 0, 218]",218,a,0.3280010491143912,1,colour,0.5,3.9
63,23,0,2,6,4,254,429.4279269273393,429.9841138185002,"[77, 0, 177]",177,l,0.03960478329099715,1,colour,0.5,3.9
63,23,0,2,6,5,255,430.49192851549014,431.9681748615112,"[15, 0, 239]",239,a,0.9598899120464921,1,colour,0.5,3.9
63,23,0,2,6,6,256,432.4758288692683,433.2004118056502,"[98, 0, 156]",156,l,0.20820365939289331,1,colour,0.5,3.9
63,23,0,2,6,7,257,433.7099574569147,434.30410482315347,"[2, 0, 252]",252,a,0.07769483397714794,1,colour,0.5,3.9
63,23,0,2,6,8,258,434.8120305845514,435.3681253157556,"[34, 0, 220]",220,a,0.03979343571700156,1,colour,0.5,3.9
63,23,0,2,6,9,259,435.8761073972564,436.4880727608688,"[78, 0, 176]",176,l,0.09533323720097542,1,colour,0.5,3.9
63,23,0,2,6,10,260,436.99618284241296,437.6241178829223,"[72, 0, 182]",182,l,0.11173968971706927,1,colour,0.5,3.9
63,23,0,2,6,11,261,438.1322874354664,438.84809232712723,"[86, 0, 168]",168,l,0.19956621783785522,1,colour,0.5,3.9
63,23,0,2,6,12,262,439.35646510403603,439.9681106645148,"[27, 0, 227]",227,a,0.0953781355638057,1,colour,0.5,3.9
63,23,0,2,6,13,263,440.47650155844167,441.11209887755103,"[79, 0, 175]",175,l,0.11991514987312257,1,colour,0.5,3.9
63,23,0,2,6,14,264,441.6195547806565,442.32027851231396,"[4, 0, 250]",250,a,0.1854476178996265,1,colour,0.5,3.9
63,23,0,2,6,15,265,442.8277525322046,443.4641083991155,"[85, 0, 169]",169,l,0.11975406669080257,1,colour,0.5,3.9
63,23,0,2,6,16,266,443.97651455551386,444.6481275369879,"[69, 0, 185]",185,l,0.15585322468541563,1,colour,0.5,3.9
63,23,0,2,6,17,267,445.15600012918003,445.80812363000587,"[94, 0, 160]",160,l,0.13567490666173398,1,colour,0.5,3.9
63,23,0,2,6,18,268,446.31608405010775,447.0080947217066,"[3, 0, 251]",251,a,0.17571685928851366,1,colour,0.5,3.9
63,23,0,2,6,19,269,447.51630602171645,448.0561073340941,"[89, 0, 165]",165,l,0.02366149378940463,1,colour,0.5,3.9
63,23,0,2,6,20,270,448.56421820353717,449.2401008720044,"[74, 0, 180]",180,l,0.15937420981936157,1,colour,0.5,3.9
63,23,0,2,6,21,271,449.7483743997291,450.3040890691336,"[75, 0, 179]",179,l,0.03946772473864257,1,colour,0.5,3.9
63,23,0,2,6,22,272,450.8123944986146,451.44005817896686,"[68, 0, 186]",186,l,0.11141279735602438,1,colour,0.5,3.9
63,23,0,2,6,23,273,451.94746800209396,452.640093467664,"[44, 0, 210]",210,a,0.17632220080122352,1,colour,0.5,3.9
63,23,0,2,6,24,274,453.1476824907586,453.83210689621046,"[23, 0, 231]",231,a,0.1681865192949772,1,colour,0.5,3.9
63,23,0,2,6,25,275,454.33979241154157,455.5521515426226,"[6, 0, 248]",248,a,0.695913293864578,1,colour,0.5,3.9
63,23,0,2,6,26,276,456.06068107043393,456.7201375942677,"[41, 0, 213]",213,a,0.1432714129332453,1,colour,0.5,3.9
63,23,0,2,6,27,277,457.2285855959635,458.1361171961762,"[57, 0, 197]",197,a,0.39111215085722506,0,colour,0.5,3.9
63,23,0,2,6,28,278,458.6439149577636,459.3281089630909,"[42, 0, 212]",212,a,0.16780566982924938,1,colour,0.5,3.9
63,23,0,2,6,29,279,459.83608080470003,460.4001351681072,"[13, 0, 241]",241,a,0.04781805258244276,1,colour,0.5,3.9
63,23,0,2,6,30,280,460.90807628957555,462.2001329625491,"[59, 0, 195]",195,l,0.7766029343474656,1,colour,0.5,3.9
63,23,0,2,6,31,281,462.70785195496865,463.40009105741046,"[81, 0, 173]",173,l,0.17572040390223265,1,colour,0.5,3.9
63,23,0,2,6,32,282,463.9079498650972,464.57620963966474,"[26, 0, 228]",228,a,0.15177179593592882,1,colour,0.5,3.9
63,23,0,2,6,33,283,465.0841610012576,465.81610413617454,"[54, 0, 200]",200,a,0.2156812238972634,0,colour,0.5,3.9
63,23,0,2,6,34,284,466.32433552248403,466.9520956953056,"[76, 0, 178]",178,l,0.11144076054915786,1,colour,0.5,3.9
63,23,0,2,6,35,285,467.46044878009707,468.16814752854407,"[33, 0, 221]",221,a,0.19118950213305652,1,colour,0.5,3.9
63,23,0,2,6,36,286,468.6766624841839,469.2641085567884,"[46, 0, 208]",208,a,0.0709836941678077,1,colour,0.5,3.9
63,23,0,2,6,37,287,469.772665259894,470.4721078099683,"[37, 0, 217]",217,a,0.18315622070804238,1,colour,0.5,3.9
63,23,0,2,6,38,288,470.9797586668283,471.56819762592204,"[8, 0, 246]",246,a,0.07027634629048407,1,colour,0.5,3.9
63,23,0,2,6,39,289,472.0758626612369,472.640134033747,"[20, 0, 234]",234,a,0.047946052392944694,1,colour,0.5,3.9
63,23,0,2,6,40,290,473.147820336977,473.78411555150524,"[14, 0, 240]",240,a,0.11981590068899095,1,colour,0.5,3.9
63,23,0,2,6,41,291,474.291972783627,474.8801084810402,"[18, 0, 236]",236,a,0.07149214949458838,1,colour,0.5,3.9
63,23,0,2,6,42,292,475.38796610734425,475.952133504441,"[10, 0, 244]",244,a,0.047480132430791855,1,colour,0.5,3.9
63,23,0,2,6,43,293,476.4600553275086,477.07218531891704,"[28, 0, 226]",226,a,0.09553016046993434,1,colour,0.5,3.9
63,23,0,2,6,44,294,477.58033242216334,478.5040739455726,"[66, 0, 188]",188,l,0.40743077569641173,1,colour,0.5,3.9
63,23,0,2,6,45,295,479.0124998916872,479.66407318925485,"[87, 0, 167]",167,l,0.13509477116167545,1,colour,0.5,3.9
63,23,0,2,6,46,296,480.17256215098314,481.1601327578537,"[50, 0, 204]",204,a,0.4711184683255851,1,colour,0.5,3.9
63,23,0,2,6,47,297,481.6680077132769,482.360152292531,"[56, 0, 198]",198,a,0.17587360995821655,0,colour,0.5,3.9
63,23,0,2,6,48,298,482.86821905104443,483.5202251856681,"[43, 0, 211]",211,a,0.13683202699758112,1,colour,0.5,3.9
63,23,0,2,6,49,299,484.0282947011292,484.72019115719013,"[60, 0, 194]",194,a,0.1756321822758764,0,colour,0.5,3.9
63,23,0,2,6,50,300,485.22847295575775,485.9041071073152,"[21, 0, 233]",233,a,0.15907449275255203,1,colour,0.5,3.9
63,23,0,2,7,1,301,493.2753961896524,494.0241049649194,"[92, 0, 162]",162,l,0.2322645136155188,1,colour,0.5,3.9
63,23,0,2,7,2,302,494.5324088188354,495.16811090079136,"[50, 0, 204]",204,a,0.11914045410230756,1,colour,0.5,3.9
63,23,0,2,7,3,303,495.6764092410449,496.2321172149386,"[13, 0, 241]",241,a,0.039068364538252354,1,colour,0.5,3.9
63,23,0,2,7,4,304,496.740509290481,497.31209438759834,"[26, 0, 228]",228,a,0.05525032454170287,1,colour,0.5,3.9
63,23,0,2,7,5,305,497.82068574940786,498.432091063587,"[38, 0, 216]",216,a,0.0947924864012748,1,colour,0.5,3.9
63,23,0,2,7,6,306,498.94063634541817,499.56015174114145,"[24, 0, 230]",230,a,0.10325506026856601,1,colour,0.5,3.9
63,23,0,2,7,7,307,500.0676726286765,500.6881115939468,"[37, 0, 217]",217,a,0.10394271579571068,1,colour,0.5,3.9
63,23,0,2,7,8,308,501.195751423249,501.87208504555747,"[83, 0, 171]",171,l,0.1600973114836961,1,colour,0.5,3.9
63,23,0,2,7,9,309,502.37992416112684,503.07213411899284,"[29, 0, 225]",225,a,0.17380906827747822,1,colour,0.5,3.9
63,23,0,2,7,10,310,503.5800878435839,504.24014261970297,"[21, 0, 233]",233,a,0.14159008325077593,1,colour,0.5,3.9
63,23,0,2,7,11,311,504.74822434433736,505.4241578190122,"[69, 0, 185]",185,l,0.15977868996560574,1,colour,0.5,3.9
63,23,0,2,7,12,312,505.93236714974046,506.6561084368732,"[99, 0, 155]",155,l,0.20736043457873166,1,colour,0.5,3.9
63,23,0,2,7,13,313,507.1634430354461,507.72811770648696,"[44, 0, 210]",210,a,0.046246605925261974,1,colour,0.5,3.9
63,23,0,2,7,14,314,508.2364916650113,508.87214372865856,"[94, 0, 160]",160,l,0.11944174650125206,1,colour,0.5,3.9
63,23,0,2,7,15,315,509.38066341052763,510.0960858773906,"[84, 0, 170]",170,l,0.19925822992809117,1,colour,0.5,3.9
63,23,0,2,7,16,316,510.6039698913228,511.28809694293886,"[82, 0, 172]",172,l,0.1680344946216792,1,colour,0.5,3.9
63,23,0,2,7,17,317,511.7959569322411,512.4481111529749,"[34, 0, 220]",220,a,0.13396403868682683,1,colour,0.5,3.9
63,23,0,2,7,18,318,512.9560030438006,513.632115718443,"[17, 0, 237]",237,a,0.159702283795923,1,colour,0.5,3.9
63,23,0,2,7,19,319,514.1401612092741,514.7842010159511,"[2, 0, 252]",252,a,0.12762075127102435,1,colour,0.5,3.9
63,23,0,2,7,20,320,515.2922595038544,515.9921065338422,"[52, 0, 202]",202,a,0.18347129761241376,0,colour,0.5,3.9
63,23,0,2,7,21,321,516.5004111756571,517.1680990855675,"[97, 0, 157]",157,l,0.15132359904237092,1,colour,0.5,3.9
63,23,0,2,7,22,322,517.6765399980359,518.4161107528489,"[46, 0, 208]",208,a,0.22318045026622713,1,colour,0.5,3.9
63,23,0,2,7,23,323,518.9237482189201,519.5601300795097,"[59, 0, 195]",195,a,0.11961503885686398,0,colour,0.5,3.9
63,23,0,2,7,24,324,520.0678581304383,521.0400896079373,"[40, 0, 214]",214,a,0.45595499430783093,1,colour,0.5,3.9
63,23,0,2,7,25,325,521.5483410803135,522.2481333657634,"[36, 0, 218]",218,a,0.18333857133984566,1,colour,0.5,3.9
63,23,0,2,7,26,326,522.7564372199122,523.4161690420005,"[4, 0, 250]",250,a,0.14330173889175057,1,colour,0.5,3.9
63,23,0,2,7,27,327,523.924643825274,524.5920934581663,"[56, 0, 198]",198,l,0.1508245957084,1,colour,0.5,3.9
63,23,0,2,7,28,328,525.0997147767339,525.7760901467409,"[88, 0, 166]",166,l,0.15997128072194755,1,colour,0.5,3.9
63,23,0,2,7,29,329,526.2846377915703,526.928149844287,"[80, 0, 174]",174,l,0.12707488029263914,1,colour,0.5,3.9
63,23,0,2,7,30,330,527.4359149166849,528.0160768032074,"[53, 0, 201]",201,a,0.06370738474652171,0,colour,0.5,3.9
63,23,0,2,7,31,331,528.5241506509483,529.2081221332774,"[48, 0, 206]",206,a,0.16781157767400146,1,colour,0.5,3.9
63,23,0,2,7,32,332,529.7528646406718,530.392097160453,"[55, 0, 199]",199,a,0.12242828262969851,0,colour,0.5,3.9
63,23,0,2,7,33,333,530.9002367805224,531.6961531464476,"[23, 0, 231]",231,a,0.2803657413460314,1,colour,0.5,3.9
63,23,0,2,7,34,334,532.2044672402553,532.9361220798455,"[96, 0, 158]",158,l,0.21525350701995194,1,colour,0.5,3.9
63,23,0,2,7,35,335,533.4436599027831,534.2800825659651,"[74, 0, 180]",180,l,0.319952801335603,1,colour,0.5,3.9
63,23,0,2,7,36,336,534.7880402291194,535.4162107896991,"[85, 0, 169]",169,l,0.11163256340660155,1,colour,0.5,3.9
63,23,0,2,7,37,337,535.9242610067595,536.6241320613772,"[15, 0, 239]",239,a,0.183383863652125,1,colour,0.5,3.9
63,23,0,2,7,38,338,537.1322039400693,537.856082679471,"[1, 0, 253]",253,a,0.20768181327730417,1,colour,0.5,3.9
63,23,0,2,7,39,339,538.3643920472823,539.0561041834299,"[32, 0, 222]",222,a,0.17539075459353626,1,colour,0.5,3.9
63,23,0,2,7,40,340,539.5635514217429,540.272094970569,"[67, 0, 187]",187,l,0.19036360667087138,1,colour,0.5,3.9
63,23,0,2,7,41,341,540.7797403135337,541.384142647963,"[25, 0, 229]",229,a,0.08819083566777408,1,colour,0.5,3.9
63,23,0,2,7,42,342,541.8918258002959,542.5761103904806,"[16, 0, 238]",238,a,0.16770287603139877,1,colour,0.5,3.9
63,23,0,2,7,43,343,543.0838927919976,543.7440952605102,"[75, 0, 179]",179,l,0.14367313613183796,1,colour,0.5,3.9
63,23,0,2,7,44,344,544.2520950650796,544.8401531747077,"[8, 0, 246]",246,a,0.07163235871121287,1,colour,0.5,3.9
63,23,0,2,7,45,345,545.3480852378998,545.9840960954316,"[72, 0, 182]",182,l,0.11958077433519065,1,colour,0.5,3.9
63,23,0,2,7,46,346,546.4923341770191,547.2080902317539,"[86, 0, 168]",168,l,0.19915228523314,1,colour,0.5,3.9
63,23,0,2,7,47,347,547.7163495812565,548.4161989742424,"[9, 0, 245]",245,a,0.18325743917375803,1,colour,0.5,3.9
63,23,0,2,7,48,348,548.924628859153,549.5681054657325,"[76, 0, 178]",178,l,0.12723320652730763,1,colour,0.5,3.9
63,23,0,2,7,49,349,550.0756783410907,550.7922134238761,"[70, 0, 184]",184,l,0.20019873487763107,1,colour,0.5,3.9
63,23,0,2,7,50,350,551.2997933882289,551.8961770134047,"[6, 0, 248]",248,a,0.08003900642506778,1,colour,0.5,3.9
63,23,0,2,8,1,351,559.4918694384396,560.2641912645195,"[55, 0, 199]",199,a,0.2569295277353376,0,colour,0.5,3.9
63,23,0,2,8,2,352,560.7719362506177,561.7441224358045,"[7, 0, 247]",247,a,0.4557403482031077,1,colour,0.5,3.9
63,23,0,2,8,3,353,562.2523392497096,562.8562024086714,"[66, 0, 188]",188,l,0.08759809727780521,1,colour,0.5,3.9
63,23,0,2,8,4,354,563.3644578196108,564.0161047664005,"[59, 0, 195]",195,l,0.13541142363101244,1,colour,0.5,3.9
63,23,0,2,8,5,355,564.5245385896415,565.0881282144692,"[11, 0, 243]",243,a,0.04705714178271592,1,colour,0.5,3.9
63,23,0,2,8,6,356,565.596625840757,566.2242162658367,"[68, 0, 186]",186,l,0.11113710491918027,1,colour,0.5,3.9
63,23,0,2,8,7,357,566.7326040088665,567.2801412490662,"[40, 0, 214]",214,a,0.03211461543105543,1,colour,0.5,3.9
63,23,0,2,8,8,358,567.7886152446736,568.7842250405811,"[79, 0, 175]",175,l,0.47915923269465566,1,colour,0.5,3.9
63,23,0,2,8,9,359,569.2930909132119,569.8961671672296,"[86, 0, 168]",168,l,0.08632676163688302,1,colour,0.5,3.9
63,23,0,2,8,10,360,570.4042709474452,571.0081534048077,"[90, 0, 164]",164,l,0.0874173219781369,1,colour,0.5,3.9
63,23,0,2,8,11,361,571.5162237079348,572.1601288192905,"[24, 0, 230]",230,a,0.12748723733238876,1,colour,0.5,3.9
63,23,0,2,8,12,362,572.6682967962697,573.2161160302348,"[48, 0, 206]",206,a,0.03161797532811761,1,colour,0.5,3.9
63,23,0,2,8,13,363,573.7243092134595,574.3041981644928,"[9, 0, 245]",245,a,0.06342657236382365,1,colour,0.5,3.9
63,23,0,2,8,14,364,574.8124248245731,575.4481225744821,"[54, 0, 200]",200,a,0.11918102041818202,0,colour,0.5,3.9
63,23,0,2,8,15,365,575.9564780222718,576.5681042843498,"[78, 0, 176]",176,l,0.09527612966485322,1,colour,0.5,3.9
63,23,0,2,8,16,366,577.0766137258615,577.7041139602661,"[52, 0, 202]",202,a,0.11116506811231375,0,colour,0.5,3.9
63,23,0,2,8,17,367,578.2116210632958,578.8081232360564,"[22, 0, 232]",232,a,0.08007760345935822,1,colour,0.5,3.9
63,23,0,2,8,18,368,579.3156886284705,580.0160937386099,"[56, 0, 198]",198,a,0.18396478705108166,0,colour,0.5,3.9
63,23,0,2,8,19,369,580.5238911062479,581.0882396728266,"[85, 0, 169]",169,l,0.04877076647244394,1,colour,0.5,3.9
63,23,0,2,8,20,370,581.5968960190658,582.2640920151025,"[77, 0, 177]",177,l,0.14891404774971306,1,colour,0.5,3.9
63,23,0,2,8,21,371,582.7719933581538,583.3842048756778,"[61, 0, 193]",193,a,0.09573614178225398,0,colour,0.5,3.9
63,23,0,2,8,22,372,583.8920479295775,584.4721637361217,"[2, 0, 252]",252,a,0.06355614797212183,1,colour,0.5,3.9
63,23,0,2,8,23,373,584.9801363653969,585.5281733963639,"[97, 0, 157]",157,l,0.02975035668350756,1,colour,0.5,3.9
63,23,0,2,8,24,374,586.0361156994477,586.6961941064801,"[70, 0, 184]",184,l,0.1437743545975536,1,colour,0.5,3.9
63,23,0,2,8,25,375,587.2043360895477,588.5761198427062,"[19, 0, 235]",235,a,0.8554915161803365,1,colour,0.5,3.9
63,23,0,2,8,26,376,589.0841570626944,590.89613447804,"[0, 0, 254]",254,a,1.2956367351580411,1,colour,0.5,3.9
63,23,0,2,8,27,377,591.4043048182502,592.3761522956192,"[20, 0, 234]",234,a,0.4552102310117334,1,colour,0.5,3.9
63,23,0,2,8,28,378,592.8836767280009,593.5841117703822,"[87, 0, 167]",167,l,0.18419282394461334,1,colour,0.5,3.9
63,23,0,2,8,29,379,594.091909925919,594.8561898055486,"[1, 0, 253]",253,a,0.24799985182471573,1,colour,0.5,3.9
63,23,0,2,8,30,380,595.3642388409935,596.176117794821,"[49, 0, 205]",205,a,0.2957797013223171,1,colour,0.5,3.9
63,23,0,2,8,31,381,596.6846110888291,597.5602064856794,"[95, 0, 159]",159,l,0.3595776706933975,1,colour,0.5,3.9
63,23,0,2,8,32,382,598.0686564566568,598.6561493969057,"[45, 0, 209]",209,a,0.07100653694942594,1,colour,0.5,3.9
63,23,0,2,8,33,383,599.1637848939281,599.8642238748726,"[8, 0, 246]",246,a,0.18408372858539224,1,colour,0.5,3.9
63,23,0,2,8,34,384,600.3719046639744,601.3681855741888,"[30, 0, 224]",224,a,0.4798803653102368,1,colour,0.5,3.9
63,23,0,2,8,35,385,601.876329526538,602.4081885358319,"[91, 0, 163]",163,l,0.0155569261405617,1,colour,0.5,3.9
63,23,0,2,8,36,386,602.9163041312713,603.4641670822166,"[5, 0, 249]",249,a,0.03134582773782313,1,colour,0.5,3.9
63,23,0,2,8,37,387,603.9723342715297,604.6800834324677,"[57, 0, 197]",197,a,0.19122179760597646,0,colour,0.5,3.9
63,23,0,2,8,38,388,605.1884762956761,605.7683510682546,"[38, 0, 216]",216,a,0.06308392621576786,1,colour,0.5,3.9
63,23,0,2,8,39,389,606.2775324117392,607.1441552038305,"[89, 0, 165]",165,l,0.3503301611635834,1,colour,0.5,3.9
63,23,0,2,8,40,390,607.6518541099504,608.2321195781697,"[84, 0, 170]",170,l,0.06411698507145047,1,colour,0.5,3.9
63,23,0,2,8,41,391,608.7399535735603,609.3122621662915,"[17, 0, 237]",237,a,0.05528419557958841,1,colour,0.5,3.9
63,23,0,2,8,42,392,609.8211957802996,610.5121722116601,"[21, 0, 233]",233,a,0.1746357511729002,1,colour,0.5,3.9
63,23,0,2,8,43,393,611.0211660843343,611.5922289413866,"[41, 0, 213]",213,a,0.0546264722943306,1,colour,0.5,3.9
63,23,0,2,8,44,394,612.1004268506076,612.7202998588327,"[3, 0, 251]",251,a,0.10246697394177318,1,colour,0.5,3.9
63,23,0,2,8,45,395,613.2282705188263,613.7921441069338,"[93, 0, 161]",161,l,0.04760970803909004,1,colour,0.5,3.9
63,23,0,2,8,46,396,614.3003880961332,614.9921092907898,"[88, 0, 166]",166,l,0.17444631131365895,1,colour,0.5,3.9
63,23,0,2,8,47,397,615.500417083269,616.1601339392364,"[62, 0, 192]",192,a,0.143191855866462,0,colour,0.5,3.9
63,23,0,2,8,48,398,616.6685681564268,617.2161243010778,"[27, 0, 227]",227,a,0.03138560615479946,1,colour,0.5,3.9
63,23,0,2,8,49,399,617.7245033797808,618.3441897048615,"[35, 0, 219]",219,a,0.103282235795632,1,colour,0.5,3.9
63,23,0,2,8,50,400,618.851604253985,619.8161147700157,"[43, 0, 211]",211,a,0.447971731191501,1,colour,0.5,3.9
63,23,0,2,9,1,401,647.8116158645134,648.608174987603,"[63, 0, 191]",191,a,0.2812869476620108,0,colour,0.5,3.9
63,23,0,2,9,2,402,649.1156722444575,649.7521958898287,"[31, 0, 223]",223,a,0.12005654070526361,1,colour,0.5,3.9
63,23,0,2,9,3,403,650.2607100575697,651.0721715341788,"[94, 0, 160]",160,l,0.294892365578562,1,colour,0.5,3.9
63,23,0,2,9,4,404,651.5799945020117,652.2882265183143,"[74, 0, 180]",180,l,0.1898397912736982,1,colour,0.5,3.9
63,23,0,2,9,5,405,652.7962668891996,653.4321387191303,"[76, 0, 178]",178,l,0.11927633127197623,1,colour,0.5,3.9
63,23,0,2,9,6,406,653.940501649864,654.6001531274524,"[71, 0, 183]",183,l,0.14349905587732792,1,colour,0.5,3.9
63,23,0,2,9,7,407,655.1085270859767,655.7041324710008,"[18, 0, 236]",236,a,0.07936907396651804,1,colour,0.5,3.9
63,23,0,2,9,8,408,656.2124875250738,656.9041189227719,"[82, 0, 172]",172,l,0.17538327141664922,1,colour,0.5,3.9
63,23,0,2,9,9,409,657.41160003189,658.1121232958976,"[30, 0, 224]",224,a,0.1841695869807154,1,colour,0.5,3.9
63,23,0,2,9,10,410,658.6198092051782,659.2961199844722,"[41, 0, 213]",213,a,0.16014339146204293,1,colour,0.5,3.9
63,23,0,2,9,11,411,659.8041060045362,660.5121789071709,"[33, 0, 221]",221,a,0.19189212401397526,1,colour,0.5,3.9
63,23,0,2,9,12,412,661.0200385025237,661.6721293139271,"[81, 0, 173]",173,l,0.13579739280976355,1,colour,0.5,3.9
63,23,0,2,9,13,413,662.180169290863,662.8241476577241,"[83, 0, 171]",171,l,0.12583662779070437,1,colour,0.5,3.9
63,23,0,2,9,14,414,663.3322443484794,664.0081770354882,"[99, 0, 155]",155,l,0.15958649292588234,1,colour,0.5,3.9
63,23,0,2,9,15,415,664.5166750557255,665.2001199657097,"[9, 0, 245]",245,a,0.1669305437244475,1,colour,0.5,3.9
63,23,0,2,9,16,416,665.7085782072973,666.3362202262506,"[10, 0, 244]",244,a,0.11199608352035284,1,colour,0.5,3.9
63,23,0,2,9,17,417,666.8737577106804,667.5761316581629,"[70, 0, 184]",184,l,0.18609431362710893,1,colour,0.5,3.9
63,23,0,2,9,18,418,668.0838916103821,668.8401630208828,"[19, 0, 235]",235,a,0.23999374569393694,1,colour,0.5,3.9
63,23,0,2,9,19,419,669.3480883885641,670.0561258450616,"[69, 0, 185]",185,a,0.1913620070554316,0,colour,0.5,3.9
63,23,0,2,9,20,420,670.5642402588855,671.1441745022312,"[91, 0, 163]",163,l,0.06344193243421614,1,colour,0.5,3.9
63,23,0,2,9,21,421,671.6524236116093,672.2162196119316,"[96, 0, 158]",158,l,0.047696747817099094,1,colour,0.5,3.9
63,23,0,2,9,22,422,672.7243036995642,673.5042082469445,"[16, 0, 238]",238,a,0.26354141789488494,1,colour,0.5,3.9
63,23,0,2,9,23,423,674.0125629070681,674.697072383482,"[29, 0, 225]",225,a,0.16587621718645096,1,colour,0.5,3.9
63,23,0,2,9,24,424,675.2066912900191,675.8961525950581,"[98, 0, 156]",156,l,0.1731249571312219,1,colour,0.5,3.9
63,23,0,2,9,25,425,676.4039117596112,677.0001055509783,"[1, 0, 253]",253,a,0.07927021873183548,1,colour,0.5,3.9
63,23,0,2,9,26,426,677.5079308815766,678.1361483100336,"[95, 0, 159]",159,l,0.1119003789499402,1,colour,0.5,3.9
63,23,0,2,9,27,427,678.6439866377041,679.3201725678518,"[13, 0, 241]",241,a,0.15986179164610803,1,colour,0.5,3.9
63,23,0,2,9,28,428,679.8284602740314,681.0001118523069,"[97, 0, 157]",157,l,0.6556381843984127,1,colour,0.5,3.9
63,23,0,2,9,29,429,681.5077859461308,682.240126865916,"[37, 0, 217]",217,a,0.2158072548918426,1,colour,0.5,3.9
63,23,0,2,9,30,430,682.7478781535756,683.3761255140416,"[40, 0, 214]",214,a,0.11278220056556165,1,colour,0.5,3.9
63,23,0,2,9,31,431,683.883972112555,684.5842484352179,"[27, 0, 227]",227,a,0.18499075644649565,1,colour,0.5,3.9
63,23,0,2,9,32,432,685.093164719874,685.6241694767959,"[35, 0, 219]",219,a,0.014608938246965408,1,colour,0.5,3.9
63,23,0,2,9,33,433,686.1322035461199,686.6801795309875,"[3, 0, 251]",251,a,0.03139190771616995,1,colour,0.5,3.9
63,23,0,2,9,34,434,687.1881655510515,687.8001131915953,"[15, 0, 239]",239,a,0.09553331113420427,1,colour,0.5,3.9
63,23,0,2,9,35,435,688.308279986959,689.1681861255784,"[87, 0, 167]",167,l,0.34338783379644156,1,colour,0.5,3.9
63,23,0,2,9,36,436,689.6765974995214,690.296133375261,"[52, 0, 202]",202,a,0.1032483649905771,0,colour,0.5,3.9
63,23,0,2,9,37,437,690.8036428415217,691.4401231636293,"[17, 0, 237]",237,a,0.12029442354105413,1,colour,0.5,3.9
63,23,0,2,9,38,438,691.9477177006193,692.6081383598503,"[75, 0, 179]",179,l,0.14411739446222782,1,colour,0.5,3.9
63,23,0,2,9,39,439,693.1158770443872,693.7441496113315,"[39, 0, 215]",215,a,0.11182948667556047,1,colour,0.5,3.9
63,23,0,2,9,40,440,694.2519205913413,694.9601786015555,"[55, 0, 199]",199,a,0.19193977932445705,0,colour,0.5,3.9
63,23,0,2,9,41,441,695.4681071199011,696.0322418280412,"[86, 0, 168]",168,l,0.04787634173408151,1,colour,0.5,3.9
63,23,0,2,9,42,442,696.5401313556358,697.1761469393969,"[45, 0, 209]",209,a,0.11957447277382016,1,colour,0.5,3.9
63,23,0,2,9,43,443,697.6847512980457,698.4161556512117,"[58, 0, 196]",196,a,0.21465564845129848,0,colour,0.5,3.9
63,23,0,2,9,44,444,698.9244791974779,699.640233283164,"[14, 0, 240]",240,a,0.19942325167357922,1,colour,0.5,3.9
63,23,0,2,9,45,445,700.1485899123363,700.7681651727762,"[7, 0, 247]",247,a,0.10333304177038372,1,colour,0.5,3.9
63,23,0,2,9,46,446,701.276719119167,701.9361508304719,"[93, 0, 161]",161,l,0.14314301894046366,1,colour,0.5,3.9
63,23,0,2,9,47,447,702.4437843582127,703.1922402840573,"[26, 0, 228]",228,a,0.23213178711012006,1,colour,0.5,3.9
63,23,0,2,9,48,448,703.7003105871845,704.45615585614,"[84, 0, 170]",170,l,0.2396680349484086,1,colour,0.5,3.9
63,23,0,2,9,49,449,704.9641859869007,705.7601893928368,"[68, 0, 186]",186,l,0.27977772895246744,1,colour,0.5,3.9
63,23,0,2,9,50,450,706.2684747360181,706.8321376163512,"[22, 0, 232]",232,a,0.04845214495435357,1,colour,0.5,3.9
63,23,0,2,10,1,451,730.7401627057698,731.3681784849614,"[17, 0, 237]",237,a,0.11272863764315844,1,colour,0.5,3.9
63,23,0,2,10,2,452,731.8761428433936,732.7761452852283,"[52, 0, 202]",202,a,0.3836337986867875,0,colour,0.5,3.9
63,23,0,2,10,3,453,733.2843782468699,733.8241385992151,"[89, 0, 165]",165,l,0.023425580002367496,1,colour,0.5,3.9
63,23,0,2,10,4,454,734.3326366194524,734.960299906088,"[8, 0, 246]",246,a,0.11026316019706428,1,colour,0.5,3.9
63,23,0,2,10,5,455,735.4695938895456,736.3681643065065,"[43, 0, 211]",211,a,0.382469589356333,1,colour,0.5,3.9
63,23,0,2,10,6,456,736.8759163818322,737.4802111962344,"[21, 0, 233]",233,a,0.08781904494389892,1,colour,0.5,3.9
63,23,0,2,10,7,457,737.9879475177731,738.8002171667758,"[53, 0, 201]",201,l,0.2959305443800986,1,colour,0.5,3.9
63,23,0,2,10,8,458,739.3081519869156,739.9121525981463,"[45, 0, 209]",209,a,0.08765402343124151,1,colour,0.5,3.9
63,23,0,2,10,9,459,740.4202036028728,741.2801195874345,"[38, 0, 216]",216,a,0.3436733721755445,1,colour,0.5,3.9
63,23,0,2,10,10,460,741.7885380508378,744.128209157614,"[23, 0, 231]",231,a,1.8231114482041448,1,colour,0.5,3.9
63,23,0,2,10,11,461,744.6362215653062,745.8641624348238,"[87, 0, 167]",167,l,0.711671081604436,1,colour,0.5,3.9
63,23,0,2,10,12,462,746.3719117532019,747.0961819759104,"[51, 0, 203]",203,a,0.20775034232065082,0,colour,0.5,3.9
63,23,0,2,10,13,463,747.6042912697885,748.4082294958644,"[67, 0, 187]",187,l,0.2886471461970359,1,colour,0.5,3.9
63,23,0,2,10,14,464,748.9163364267442,749.4641339990776,"[5, 0, 249]",249,a,0.031242639990523458,1,colour,0.5,3.9
63,23,0,2,10,15,465,749.9723913792986,750.5121501563117,"[32, 0, 222]",222,a,0.023041579872369766,1,colour,0.5,3.9
63,23,0,2,10,16,466,751.0207501826808,751.6001629736274,"[90, 0, 164]",164,l,0.06228323676623404,1,colour,0.5,3.9
63,23,0,2,10,17,467,752.108462101547,752.6641669247765,"[66, 0, 188]",188,l,0.03937595849856734,1,colour,0.5,3.9
63,23,0,2,10,18,468,753.1727259911131,753.728208685061,"[42, 0, 212]",212,a,0.03913256153464317,1,colour,0.5,3.9
63,23,0,2,10,19,469,754.2364912712947,754.7602019959595,"[12, 0, 242]",242,a,0.007484653731808066,1,colour,0.5,3.9
63,23,0,2,10,20,470,755.2754611743148,757.200147141004,"[14, 0, 240]",240,a,1.4082704556640238,1,colour,0.5,3.9
63,23,0,2,10,21,471,757.7078046933748,758.4001631313004,"[26, 0, 228]",228,a,0.1757255238480866,1,colour,0.5,3.9
63,23,0,2,10,22,472,758.9079797973391,760.3842367772013,"[71, 0, 183]",183,l,0.9597552167251706,1,colour,0.5,3.9
63,23,0,2,10,23,473,760.8919238680974,761.7361880096141,"[0, 0, 254]",254,a,0.328937221551314,1,colour,0.5,3.9
63,23,0,2,10,24,474,762.2441570942756,763.0321587263606,"[63, 0, 191]",191,l,0.27164795505814254,1,colour,0.5,3.9
63,23,0,2,10,25,475,763.5404157126322,764.1761311856098,"[44, 0, 210]",210,a,0.11920071276836097,1,colour,0.5,3.9
63,23,0,2,10,26,476,764.6840151993092,765.3521339772269,"[85, 0, 169]",169,l,0.15125664533115923,1,colour,0.5,3.9
63,23,0,2,10,27,477,765.8608978434931,766.6082565137185,"[79, 0, 175]",175,l,0.23100893176160753,1,colour,0.5,3.9
63,23,0,2,10,28,478,767.1158211182337,767.7442480728496,"[24, 0, 230]",230,a,0.11218040366657078,1,colour,0.5,3.9
63,23,0,2,10,29,479,768.2519485543016,769.000221735565,"[78, 0, 176]",176,l,0.23198055033572018,1,colour,0.5,3.9
63,23,0,2,10,30,480,769.50812662323,772.2161542333197,"[48, 0, 206]",206,l,2.1915557791944593,0,colour,0.5,3.9
63,23,0,2,10,31,481,772.724341114983,773.6401706614997,"[98, 0, 156]",156,l,0.3993191185873002,1,colour,0.5,3.9
63,23,0,2,10,32,482,774.1476108105853,774.7521702896338,"[74, 0, 180]",180,l,0.0883200173266232,1,colour,0.5,3.9
63,23,0,2,10,33,483,775.2606596453115,775.8722158025485,"[7, 0, 247]",247,a,0.09480627090670168,1,colour,0.5,3.9
63,23,0,2,10,34,484,776.3807280012406,777.008141589351,"[15, 0, 239]",239,a,0.11107920948415995,1,colour,0.5,3.9
63,23,0,2,10,35,485,777.515817258507,778.1201656360645,"[99, 0, 155]",155,l,0.08789348183199763,1,colour,0.5,3.9
63,23,0,2,10,36,486,778.6279019576032,779.2562402966432,"[80, 0, 174]",174,l,0.11195039749145508,1,colour,0.5,3.9
63,23,0,2,10,37,487,779.7646363107488,780.4641729900613,"[77, 0, 177]",177,l,0.18398999329656363,1,colour,0.5,3.9
63,23,0,2,10,38,488,780.9721184438094,781.5921722275671,"[18, 0, 236]",236,a,0.10328381112776697,1,colour,0.5,3.9
63,23,0,2,10,39,489,782.100369349122,782.7841639944818,"[73, 0, 181]",181,l,0.16751028527505696,1,colour,0.5,3.9
63,23,0,2,10,40,490,783.2923953807913,784.0481981141493,"[13, 0, 241]",241,a,0.23947150562889874,1,colour,0.5,3.9
63,23,0,2,10,41,491,784.5566339066718,785.1361865131184,"[81, 0, 173]",173,l,0.06260619079694152,1,colour,0.5,3.9
63,23,0,2,10,42,492,785.6446128531825,786.616167702945,"[96, 0, 158]",158,l,0.4551098004449159,1,colour,0.5,3.9
63,23,0,2,10,43,493,787.1240867690649,788.0881380604114,"[10, 0, 244]",244,a,0.4477456633467227,1,colour,0.5,3.9
63,23,0,2,10,44,494,788.5964391576126,789.3282196340151,"[72, 0, 182]",182,l,0.21535433176904917,1,colour,0.5,3.9
63,23,0,2,10,45,495,789.8365928048734,790.9601549706422,"[39, 0, 215]",215,a,0.6070477995090187,1,colour,0.5,3.9
63,23,0,2,10,46,496,791.4682402398903,792.1761300039943,"[35, 0, 219]",219,a,0.19163218536414206,1,colour,0.5,3.9
63,23,0,2,10,47,497,792.6843999871053,793.3681765156798,"[68, 0, 186]",186,l,0.16721962671726942,1,colour,0.5,3.9
63,23,0,2,10,48,498,793.8765717418864,794.6401694798842,"[97, 0, 157]",157,l,0.24703729152679443,1,colour,0.5,3.9
63,23,0,2,10,49,499,795.1477545646485,796.0481914188713,"[20, 0, 234]",234,a,0.38396502332761884,1,colour,0.5,3.9
63,23,0,2,10,50,500,796.5561502634082,797.5121982055716,"[58, 0, 196]",196,a,0.44078088691458106,0,colour,0.5,3.9
63,23,0,2,11,1,501,811.6758255609311,812.5361546901986,"[19, 0, 235]",235,a,0.34518534783273935,1,colour,0.5,3.9
63,23,0,2,11,2,502,813.0438925870694,813.744179149624,"[94, 0, 160]",160,l,0.18398684239946306,1,colour,0.5,3.9
63,23,0,2,11,3,503,814.2520718281157,815.0081404077355,"[90, 0, 164]",164,l,0.23985393019393086,1,colour,0.5,3.9
63,23,0,2,11,4,504,815.5162993264385,816.848251441028,"[50, 0, 204]",204,a,0.8154739821329713,1,colour,0.5,3.9
63,23,0,2,11,5,505,817.356066925684,818.1361412208062,"[31, 0, 223]",223,a,0.26348982425406575,1,colour,0.5,3.9
63,23,0,2,11,6,506,818.6442327916157,819.2801664553117,"[2, 0, 252]",252,a,0.11943702050484717,1,colour,0.5,3.9
63,23,0,2,11,7,507,819.7883805122692,820.5042799271178,"[39, 0, 215]",215,a,0.19955282704904675,1,colour,0.5,3.9
63,23,0,2,11,8,508,821.012619227171,821.9122451520525,"[72, 0, 182]",182,l,0.3834589309990406,1,colour,0.5,3.9
63,23,0,2,11,9,509,822.4198826181237,823.1841715562623,"[48, 0, 206]",206,a,0.24809240573085845,1,colour,0.5,3.9
63,23,0,2,11,10,510,823.6921209485736,824.4482588453684,"[20, 0, 234]",234,a,0.2397696473635733,1,colour,0.5,3.9
63,23,0,2,11,11,511,824.9563074868638,825.8241492330562,"[69, 0, 185]",185,l,0.35141323832795024,1,colour,0.5,3.9
63,23,0,2,11,12,512,826.3316744531039,827.1201711499598,"[65, 0, 189]",189,l,0.2720347121357918,1,colour,0.5,3.9
63,23,0,2,11,13,513,827.6279114098288,828.3282767415512,"[14, 0, 240]",240,a,0.18407151917926967,1,colour,0.5,3.9
63,23,0,2,11,14,514,828.8360926201567,829.5441915164702,"[10, 0, 244]",244,a,0.19165463466197252,1,colour,0.5,3.9
63,23,0,2,11,15,515,830.0522724534385,830.7441421281546,"[97, 0, 157]",157,l,0.17547503765672445,1,colour,0.5,3.9
63,23,0,2,11,16,516,831.2523660312872,832.0161839295179,"[42, 0, 212]",212,a,0.247210584115237,1,colour,0.5,3.9
63,23,0,2,11,17,517,832.5246130265296,833.3202442477923,"[46, 0, 208]",208,l,0.27930668881163,0,colour,0.5,3.9
63,23,0,2,11,18,518,833.8278710800223,834.6241470274981,"[51, 0, 203]",203,l,0.2800002519506961,1,colour,0.5,3.9
63,23,0,2,11,19,519,835.1320731830783,835.8001478500664,"[98, 0, 156]",156,a,0.15164734073914587,0,colour,0.5,3.9
63,23,0,2,11,20,520,836.3082090946846,840.3361741462722,"[63, 0, 191]",191,a,3.5112699097953737,0,colour,0.5,3.9
63,23,0,2,11,21,521,840.8448627879843,841.6082714798395,"[76, 0, 178]",178,l,0.24728187010623515,1,colour,0.5,3.9
63,23,0,2,11,22,522,842.1157746443059,842.8402847193647,"[91, 0, 163]",163,l,0.20930012734606862,1,colour,0.5,3.9
63,23,0,2,11,23,523,843.3490288935136,844.0161874741316,"[77, 0, 177]",177,l,0.1507607928942889,1,colour,0.5,3.9
63,23,0,2,11,24,524,844.5241794018075,845.1921819949057,"[3, 0, 251]",251,a,0.1517658883240074,1,colour,0.5,3.9
63,23,0,2,11,25,525,845.7002038548235,846.35225488781,"[4, 0, 250]",250,a,0.1357493435498327,1,colour,0.5,3.9
63,23,0,2,11,26,526,846.8603685142007,847.4402149298694,"[25, 0, 229]",229,a,0.06355102802626789,1,colour,0.5,3.9
63,23,0,2,11,27,527,847.9485664390959,848.8001584839076,"[56, 0, 198]",198,a,0.3353261954616755,0,colour,0.5,3.9
63,23,0,2,11,28,528,849.3086273593362,850.0081557678059,"[5, 0, 249]",249,a,0.18284744513221085,1,colour,0.5,3.9
63,23,0,2,11,29,529,850.5158227724023,851.12817765004,"[6, 0, 248]",248,a,0.09587201895192266,1,colour,0.5,3.9
63,23,0,2,11,30,530,851.6359415405896,852.5201676839497,"[8, 0, 246]",246,a,0.36804300150834024,1,colour,0.5,3.9
63,23,0,2,11,31,531,853.0282403503079,853.9361701291054,"[58, 0, 196]",196,a,0.3903878678102046,0,colour,0.5,3.9
63,23,0,2,11,32,532,854.4447433738969,855.1043373497669,"[54, 0, 200]",200,a,0.1432981942780316,0,colour,0.5,3.9
63,23,0,2,11,33,533,855.6128897208255,856.3841670665424,"[88, 0, 166]",166,l,0.25413006846792996,1,colour,0.5,3.9
63,23,0,2,11,34,534,856.8920156341046,857.9122506659478,"[64, 0, 190]",190,a,0.5037013669498265,0,colour,0.5,3.9
63,23,0,2,11,35,535,858.4204406982753,859.5602986458689,"[82, 0, 172]",172,l,0.6236263627652079,1,colour,0.5,3.9
63,23,0,2,11,36,536,860.068014881108,861.0881931988988,"[71, 0, 183]",183,l,0.5037805298343301,1,colour,0.5,3.9
63,23,0,2,11,37,537,861.5964958714321,862.2001955842134,"[84, 0, 170]",170,l,0.08686357410624623,1,colour,0.5,3.9
63,23,0,2,11,38,538,862.7085530010518,863.4402590405662,"[96, 0, 158]",158,l,0.2154134085867554,1,colour,0.5,3.9
63,23,0,2,11,39,539,863.9486960147042,864.5523228656966,"[11, 0, 243]",243,a,0.08746143244206905,1,colour,0.5,3.9
63,23,0,2,11,40,540,865.0611379321199,865.6643358848523,"[12, 0, 242]",242,a,0.08614441100507975,1,colour,0.5,3.9
63,23,0,2,11,41,541,866.174116662005,866.7602693436202,"[35, 0, 219]",219,a,0.06992385373450816,1,colour,0.5,3.9
63,23,0,2,11,42,542,867.2679024774116,868.2722095798235,"[22, 0, 232]",232,a,0.4880798498634249,1,colour,0.5,3.9
63,23,0,2,11,43,543,868.780349987559,869.4961529101711,"[37, 0, 217]",217,a,0.19751427904702723,1,colour,0.5,3.9
63,23,0,2,11,44,544,870.0046611703001,871.4401653052773,"[29, 0, 225]",225,a,0.9190716887824237,1,colour,0.5,3.9
63,23,0,2,11,45,545,871.9483675467782,872.888155941153,"[80, 0, 174]",174,l,0.42348788655363023,1,colour,0.5,3.9
63,23,0,2,11,46,546,873.3958190071862,874.0881530267652,"[79, 0, 175]",175,l,0.17614575778134167,1,colour,0.5,3.9
63,23,0,2,11,47,547,874.5959685111884,875.3603452772368,"[47, 0, 207]",207,a,0.24806995666585863,1,colour,0.5,3.9
63,23,0,2,11,48,548,875.868193844799,876.4962391625158,"[57, 0, 197]",197,a,0.11180467437952757,0,colour,0.5,3.9
63,23,0,2,11,49,549,877.0043260070961,877.6161755798385,"[44, 0, 210]",210,a,0.09569163736887276,1,colour,0.5,3.9
63,23,0,2,11,50,550,878.1243081106804,878.7841990469024,"[32, 0, 222]",222,a,0.14352820068597794,1,colour,0.5,3.9
63,23,0,2,12,1,551,903.2116399679799,904.1602721794043,"[21, 0, 233]",233,a,0.43315602373331785,1,colour,0.5,3.8
63,23,0,2,12,2,552,904.6678088207263,905.4562129636761,"[45, 0, 209]",209,a,0.2722009150311351,1,colour,0.5,3.8
63,23,0,2,12,3,553,905.9640544422437,906.7762402021326,"[52, 0, 202]",202,a,0.29373721475712955,0,colour,0.5,3.8
63,23,0,2,12,4,554,907.2842908129096,908.1602792686317,"[20, 0, 234]",234,a,0.3597273323684931,1,colour,0.5,3.8
63,23,0,2,12,5,555,908.6686252639629,909.3122267199215,"[40, 0, 214]",214,a,0.1273336373269558,1,colour,0.5,3.8
63,23,0,2,12,6,556,909.8197680877056,910.4562050867826,"[88, 0, 166]",166,l,0.12023770972155035,1,colour,0.5,3.8
63,23,0,2,12,7,557,910.9637921405956,911.528193088714,"[10, 0, 244]",244,a,0.04614617535844445,1,colour,0.5,3.8
63,23,0,2,12,8,558,912.0358868748881,912.7762126328889,"[54, 0, 200]",200,a,0.22382399486377835,0,colour,0.5,3.8
63,23,0,2,12,9,559,913.284175415989,915.4562421084847,"[11, 0, 243]",243,a,1.6559386893641204,1,colour,0.5,3.8
63,23,0,2,12,10,560,915.9648086577654,916.6802413647529,"[27, 0, 227]",227,a,0.19813576829619706,1,colour,0.5,3.8
63,23,0,2,12,11,561,917.1888425727375,917.752288443502,"[64, 0, 190]",190,a,0.046973252203315496,0,colour,0.5,3.8
63,23,0,2,12,12,562,918.2608672021888,918.8083552115131,"[81, 0, 173]",173,l,0.030933076748624444,1,colour,0.5,3.8
63,23,0,2,12,13,563,919.3168902532198,920.1681644639466,"[43, 0, 211]",211,a,0.33508791821077466,1,colour,0.5,3.8
63,23,0,2,12,14,564,920.6762190132868,921.3762133419514,"[47, 0, 207]",207,a,0.18350123008713126,1,colour,0.5,3.8
63,23,0,2,12,15,565,921.8843104264233,922.4562070560642,"[38, 0, 216]",216,a,0.0554188909009099,1,colour,0.5,3.8
63,23,0,2,12,16,566,922.964323045453,923.6561702708714,"[97, 0, 157]",157,l,0.17531277309171855,1,colour,0.5,3.8
63,23,0,2,12,17,567,924.1644871216267,924.8722319502849,"[63, 0, 191]",191,l,0.19030571123585105,1,colour,0.5,3.8
63,23,0,2,12,18,568,925.3806578966323,925.920205965871,"[72, 0, 182]",182,l,0.021883671870455146,1,colour,0.5,3.8
63,23,0,2,12,19,569,926.4287012291607,926.9602223183028,"[95, 0, 159]",159,a,0.014970095129683614,0,colour,0.5,3.8
63,23,0,2,12,20,570,927.4676585290581,928.1202680361457,"[65, 0, 189]",189,l,0.13636059314012527,1,colour,0.5,3.8
63,23,0,2,12,21,571,928.6277613544371,929.3282038799953,"[49, 0, 205]",205,a,0.1841038146521896,1,colour,0.5,3.8
63,23,0,2,12,22,572,929.8359146015719,930.5362015580758,"[26, 0, 228]",228,a,0.18407900258898735,1,colour,0.5,3.8
63,23,0,2,12,23,573,931.0440678487066,931.7521639883053,"[68, 0, 186]",186,l,0.19156601931899786,1,colour,0.5,3.8
63,23,0,2,12,24,574,932.260283522075,932.8322593148332,"[75, 0, 179]",179,l,0.05540510639548302,1,colour,0.5,3.8
63,23,0,2,12,25,575,933.340298504103,934.0961634651758,"[46, 0, 208]",208,a,0.2391741517931223,1,colour,0.5,3.8
63,23,0,2,12,26,576,934.6046205253806,935.3841942418367,"[23, 0, 231]",231,a,0.26318931952118874,1,colour,0.5,3.8
63,23,0,2,12,27,577,935.8917474248447,936.5601950641721,"[30, 0, 224]",224,a,0.15210380824282765,1,colour,0.5,3.8
63,23,0,2,12,28,578,937.0678258349653,937.6962264017202,"[17, 0, 237]",237,a,0.11194291431456804,1,colour,0.5,3.8
63,23,0,2,12,29,579,938.2039619355928,939.1202077774797,"[56, 0, 198]",198,a,0.4010469219647348,0,colour,0.5,3.8
63,23,0,2,12,30,580,939.6283284930978,940.2561757059302,"[91, 0, 163]",163,l,0.11143091437406838,1,colour,0.5,3.8
63,23,0,2,12,31,581,940.7644000030123,941.48029272235,"[79, 0, 175]",175,l,0.19925035303458571,1,colour,0.5,3.8
63,23,0,2,12,32,582,941.9885961825494,942.6002366228495,"[16, 0, 238]",238,a,0.09518357552587986,1,colour,0.5,3.8
63,23,0,2,12,33,583,943.1086858061608,943.7361950988416,"[29, 0, 225]",225,a,0.11106148641556501,1,colour,0.5,3.8
63,23,0,2,12,34,584,944.2437451311853,944.8242236701772,"[28, 0, 226]",226,a,0.06407090509310365,1,colour,0.5,3.8
63,23,0,2,12,35,585,945.331764643779,946.2242249303963,"[35, 0, 219]",219,a,0.3760739201679826,1,colour,0.5,3.8
63,23,0,2,12,36,586,946.7321424211841,947.3361591801513,"[48, 0, 206]",206,a,0.08755989419296384,1,colour,0.5,3.8
63,23,0,2,12,37,587,947.8442326339427,948.5521704473067,"[92, 0, 162]",162,l,0.191503397654742,1,colour,0.5,3.8
63,23,0,2,12,38,588,949.0604116795585,949.7841888067778,"[70, 0, 184]",184,l,0.20743250846862793,1,colour,0.5,3.8
63,23,0,2,12,39,589,950.2925174729899,951.0241967309266,"[14, 0, 240]",240,a,0.21527241147123277,1,colour,0.5,3.8
63,23,0,2,12,40,590,951.5317136801314,952.2242391088512,"[93, 0, 161]",161,l,0.17603390547446907,1,colour,0.5,3.8
63,23,0,2,12,41,591,952.7319325010758,953.4002958573401,"[89, 0, 165]",165,l,0.15214949450455606,1,colour,0.5,3.8
63,23,0,2,12,42,592,953.9080408434384,954.6482346630655,"[69, 0, 185]",185,l,0.22365621640346944,1,colour,0.5,3.8
63,23,0,2,12,43,593,955.1562821231782,956.1761571792886,"[96, 0, 158]",158,l,0.5031436805147678,1,colour,0.5,3.8
63,23,0,2,12,44,594,956.6841782517731,957.464256091509,"[7, 0, 247]",247,a,0.262977430364117,1,colour,0.5,3.8
63,23,0,2,12,45,595,957.972959699342,958.7203073420096,"[19, 0, 235]",235,a,0.2319833072833717,1,colour,0.5,3.8
63,23,0,2,12,46,596,959.2281066789292,960.0242132726125,"[85, 0, 169]",169,l,0.27971431985497475,1,colour,0.5,3.8
63,23,0,2,12,47,597,960.5324525358155,961.4001879435964,"[55, 0, 199]",199,l,0.3513289554975927,1,colour,0.5,3.8
63,23,0,2,12,48,598,961.9087856067345,962.5762750182766,"[62, 0, 192]",192,l,0.1510987130459398,1,colour,0.5,3.8
63,23,0,2,12,49,599,963.0838222934399,963.7042864649557,"[73, 0, 181]",181,l,0.10399982356466353,1,colour,0.5,3.8
63,23,0,2,12,50,600,964.2118928171694,964.7682301574387,"[31, 0, 223]",223,a,0.039957275381311774,1,colour,0.5,3.8
63,23,0,2,13,1,601,972.2438294142485,974.032179994043,"[57, 0, 197]",197,a,1.273127241525799,0,colour,0.5,3.8
63,23,0,2,13,2,602,974.5400261988398,975.46422300837,"[66, 0, 188]",188,l,0.407765151001513,1,colour,0.5,3.8
63,23,0,2,13,3,603,975.9721983945929,976.6162129952572,"[7, 0, 247]",247,a,0.12588231405243278,1,colour,0.5,3.8
63,23,0,2,13,4,604,977.1243644307833,977.8322089023422,"[59, 0, 195]",195,l,0.19133168063126504,1,colour,0.5,3.8
63,23,0,2,13,5,605,978.3404465902131,979.1121744960546,"[29, 0, 225]",225,a,0.2550500934012234,1,colour,0.5,3.8
63,23,0,2,13,6,606,979.6197414635681,980.3602444524877,"[24, 0, 230]",230,a,0.22407408710569143,1,colour,0.5,3.8
63,23,0,2,13,7,607,980.867861044826,981.5361885610037,"[32, 0, 222]",222,a,0.1520490637049079,1,colour,0.5,3.8
63,23,0,2,13,8,608,982.043985534925,982.6962212817743,"[99, 0, 155]",155,l,0.13571744202636182,1,colour,0.5,3.8
63,23,0,2,13,9,609,983.2041891848203,983.9043379011564,"[42, 0, 212]",212,a,0.18475169176235795,1,colour,0.5,3.8
63,23,0,2,13,10,610,984.4122975335922,985.1042975713499,"[20, 0, 234]",234,a,0.1757558500394225,1,colour,0.5,3.8
63,23,0,2,13,11,611,985.6124277391937,986.3521871464327,"[93, 0, 161]",161,l,0.22346717026084661,1,colour,0.5,3.8
63,23,0,2,13,12,612,986.8616780529264,987.6162468660623,"[65, 0, 189]",189,l,0.2381950500421226,1,colour,0.5,3.8
63,23,0,2,13,13,613,988.1238465229981,988.912186075002,"[26, 0, 228]",228,a,0.2719764227513224,1,colour,0.5,3.8
63,23,0,2,13,14,614,989.4201374365948,990.1602001055144,"[89, 0, 165]",165,l,0.22382005653344095,1,colour,0.5,3.8
63,23,0,2,13,15,615,990.6683550856542,991.4001942449249,"[62, 0, 192]",192,l,0.21566468244418502,1,colour,0.5,3.8
63,23,0,2,13,16,616,991.9084472928662,992.6642256078776,"[33, 0, 221]",221,a,0.24038444133475423,1,colour,0.5,3.8
63,23,0,2,13,17,617,993.1726759725716,994.1282178221736,"[46, 0, 208]",208,a,0.4388112616725266,1,colour,0.5,3.8
63,23,0,2,13,18,618,994.6361420084722,995.3043978447095,"[4, 0, 250]",250,a,0.1521412238944322,1,colour,0.5,3.8
63,23,0,2,13,19,619,995.8122034831904,996.9921750631183,"[75, 0, 179]",179,l,0.6634390966501087,1,colour,0.5,3.8
63,23,0,2,13,20,620,997.4998322215397,998.5202216410544,"[52, 0, 202]",202,l,0.504147594794631,1,colour,0.5,3.8
63,23,0,2,13,21,621,999.028281704057,999.7122043494601,"[91, 0, 163]",163,l,0.16729485127143562,1,colour,0.5,3.8
63,23,0,2,13,22,622,1000.2204215573147,1001.0321827509906,"[40, 0, 214]",214,a,0.2955012519378215,1,colour,0.5,3.8
63,23,0,2,13,23,623,1001.5407540265005,1002.4322174882982,"[97, 0, 157]",157,l,0.3748852922581136,1,colour,0.5,3.8
63,23,0,2,13,24,624,1002.9400593605824,1003.7202616557479,"[80, 0, 174]",174,l,0.26366035966202617,1,colour,0.5,3.8
63,23,0,2,13,25,625,1004.2283087219112,1005.1522215686273,"[58, 0, 196]",196,a,0.4073913909960538,0,colour,0.5,3.8
63,23,0,2,13,26,626,1005.6607058041263,1006.4002844358329,"[8, 0, 246]",246,a,0.2229020008817315,1,colour,0.5,3.8
63,23,0,2,13,27,627,1006.9079152066261,1007.6402269816026,"[5, 0, 249]",249,a,0.2159718826878816,1,colour,0.5,3.8
63,23,0,2,13,28,628,1008.1480341954157,1008.9202004519757,"[3, 0, 251]",251,a,0.2559193118941039,1,colour,0.5,3.8
63,23,0,2,13,29,629,1009.4282861151733,1010.0402290294878,"[9, 0, 245]",245,a,0.09543327405117452,1,colour,0.5,3.8
63,23,0,2,13,30,630,1010.5483934618533,1012.168269227026,"[41, 0, 213]",213,a,1.103398420382291,1,colour,0.5,3.8
63,23,0,2,13,31,631,1012.676465560915,1014.1842176362406,"[86, 0, 168]",168,l,0.9912392843980342,1,colour,0.5,3.8
63,23,0,2,13,32,632,1014.6923052687198,1015.4402129605878,"[43, 0, 211]",211,a,0.23160994099453092,1,colour,0.5,3.8
63,23,0,2,13,33,633,1015.9486007038504,1016.632183460053,"[14, 0, 240]",240,a,0.16638427902944386,1,colour,0.5,3.8
63,23,0,2,13,34,634,1017.1406759661622,1017.848187637981,"[98, 0, 156]",156,l,0.19206581031903625,1,colour,0.5,3.8
63,23,0,2,13,35,635,1018.3568542241119,1018.9842926247511,"[73, 0, 181]",181,l,0.11102446494624019,1,colour,0.5,3.8
63,23,0,2,13,36,636,1019.491982472362,1020.1442477577366,"[48, 0, 206]",206,a,0.1359947097953409,1,colour,0.5,3.8
63,23,0,2,13,37,637,1020.6520463069901,1021.2722253336105,"[64, 0, 190]",190,l,0.10391908511519432,1,colour,0.5,3.8
63,23,0,2,13,38,638,1021.7801085598767,1022.5361909242347,"[12, 0, 242]",242,a,0.23977555497549474,1,colour,0.5,3.8
63,23,0,2,13,39,639,1023.0443718980532,1023.688228960149,"[10, 0, 244]",244,a,0.1272816495038569,1,colour,0.5,3.8
63,23,0,2,13,40,640,1024.1964497126173,1024.8162167761475,"[69, 0, 185]",185,l,0.10352917737327516,1,colour,0.5,3.8
63,23,0,2,13,41,641,1025.3244757317007,1025.976214838447,"[85, 0, 169]",169,l,0.13504790351726115,1,colour,0.5,3.8
63,23,0,2,13,42,642,1026.48365380615,1027.4402464374434,"[47, 0, 207]",207,a,0.440324418945238,1,colour,0.5,3.8
63,23,0,2,13,43,643,1027.9480347468052,1028.4962742147036,"[44, 0, 210]",210,a,0.03198385867290199,1,colour,0.5,3.8
63,23,0,2,13,44,644,1029.0042870163452,1029.8001832962036,"[68, 0, 186]",186,l,0.279912818223238,1,colour,0.5,3.8
63,23,0,2,13,45,645,1030.3083292178344,1031.3042895370163,"[83, 0, 171]",171,l,0.47960861143656075,1,colour,0.5,3.8
63,23,0,2,13,46,646,1031.8127296615858,1032.7522927760147,"[54, 0, 200]",200,a,0.42334728338755667,0,colour,0.5,3.8
63,23,0,2,13,47,647,1033.2601200758945,1034.304356097011,"[13, 0, 241]",241,a,0.5278236609883606,1,colour,0.5,3.8
63,23,0,2,13,48,648,1034.812685550889,1035.552167690359,"[27, 0, 227]",227,a,0.22328363778069615,1,colour,0.5,3.8
63,23,0,2,13,49,649,1036.0598918027245,1036.712613161886,"[79, 0, 175]",175,l,0.1350494788493961,1,colour,0.5,3.8
63,23,0,2,13,50,650,1037.2220091514755,1037.8962290012278,"[82, 0, 172]",172,l,0.15801071422174573,1,colour,0.5,3.8
63,23,0,2,14,1,651,1059.4273889334872,1060.264220802812,"[38, 0, 216]",216,a,0.32167509105056524,1,colour,0.5,3.8
63,23,0,2,14,2,652,1060.77251796145,1061.3921853818465,"[98, 0, 156]",156,l,0.102969127940014,1,colour,0.5,3.8
63,23,0,2,14,3,653,1061.900566429831,1062.9922534385696,"[13, 0, 241]",241,a,0.5754755102097988,1,colour,0.5,3.8
63,23,0,2,14,4,654,1063.5000897969585,1064.1043101744726,"[71, 0, 183]",183,l,0.08774972800165415,1,colour,0.5,3.8
63,23,0,2,14,5,655,1064.6121390499175,1065.2482042582706,"[64, 0, 190]",190,l,0.11982220225036144,1,colour,0.5,3.8
63,23,0,2,14,6,656,1065.7562276935205,1066.4802647591569,"[49, 0, 205]",205,a,0.2075707484036684,1,colour,0.5,3.8
63,23,0,2,14,7,657,1066.988434311701,1067.5122769747395,"[19, 0, 235]",235,a,0.0074815028347074986,1,colour,0.5,3.8
63,23,0,2,14,8,658,1068.0264861590695,1069.048243800411,"[86, 0, 168]",168,l,0.5053767887875438,1,colour,0.5,3.8
63,23,0,2,14,9,659,1069.555893869605,1070.5201999794226,"[39, 0, 215]",215,l,0.4478098605759442,0,colour,0.5,3.8
63,23,0,2,14,10,660,1071.0282864302862,1071.6002433183603,"[20, 0, 234]",234,a,0.055638263234868646,1,colour,0.5,3.8
63,23,0,2,14,11,661,1072.1084152336698,1072.7762169651687,"[95, 0, 159]",159,l,0.15150279900990427,1,colour,0.5,3.8
63,23,0,2,14,12,662,1073.2844392929692,1073.9922916416544,"[10, 0, 244]",244,a,0.1914967023767531,1,colour,0.5,3.8
63,23,0,2,14,13,663,1074.5006699324585,1075.1762166500557,"[44, 0, 210]",210,a,0.15916113881394267,1,colour,0.5,3.8
63,23,0,2,14,14,664,1075.6837938576937,1077.3282259355765,"[58, 0, 196]",196,l,1.1280130222439766,1,colour,0.5,3.8
63,23,0,2,14,15,665,1077.835844103247,1078.56028525508,"[27, 0, 227]",227,a,0.20791457640007138,1,colour,0.5,3.8
63,23,0,2,14,16,666,1079.0680152750574,1079.8882906364743,"[63, 0, 191]",191,a,0.303751936648041,0,colour,0.5,3.8
63,23,0,2,14,17,667,1080.3963046197314,1081.0162189817056,"[34, 0, 220]",220,a,0.10348900500684977,1,colour,0.5,3.8
63,23,0,2,14,18,668,1081.5245819126721,1082.1043030852452,"[96, 0, 158]",158,l,0.06361443712376058,1,colour,0.5,3.8
63,23,0,2,14,19,669,1082.6124403423164,1083.2882454229984,"[57, 0, 197]",197,l,0.15930961910635233,1,colour,0.5,3.8
63,23,0,2,14,20,670,1083.796567787649,1084.4002647434827,"[26, 0, 228]",228,a,0.08747639879584312,1,colour,0.5,3.8
63,23,0,2,14,21,671,1084.908719834406,1085.5123143901583,"[93, 0, 161]",161,l,0.08802030025981367,1,colour,0.5,3.8
63,23,0,2,14,22,672,1086.0206875610165,1086.6962035587057,"[15, 0, 239]",239,a,0.1592584189493209,1,colour,0.5,3.8
63,23,0,2,14,23,673,1087.2038217263762,1087.8323089394253,"[6, 0, 248]",248,a,0.11225326522253454,1,colour,0.5,3.8
63,23,0,2,14,24,674,1088.340141359251,1089.0162520648446,"[4, 0, 250]",250,a,0.1598298898898065,1,colour,0.5,3.8
63,23,0,2,14,25,675,1089.524048250867,1090.3202076200396,"[59, 0, 195]",195,l,0.2795611135661602,1,colour,0.5,3.8
63,23,0,2,14,26,676,1090.8282771355007,1091.5122328640427,"[29, 0, 225]",225,a,0.16729682055301964,1,colour,0.5,3.8
63,23,0,2,14,27,677,1092.020418170141,1092.6482803493273,"[73, 0, 181]",181,l,0.11155970208346844,1,colour,0.5,3.8
63,23,0,2,14,28,678,1093.1565038585104,1093.912219945807,"[11, 0, 243]",243,a,0.23913358547724783,1,colour,0.5,3.8
63,23,0,2,14,29,679,1094.41972665512,1095.1282292436808,"[9, 0, 245]",245,a,0.19229187769815326,1,colour,0.5,3.8
63,23,0,2,14,30,680,1095.635878131492,1096.328239720082,"[22, 0, 232]",232,a,0.17614378849975765,1,colour,0.5,3.8
63,23,0,2,14,31,681,1096.8361016786657,1097.5682819089852,"[87, 0, 167]",167,l,0.2157485717907548,1,colour,0.5,3.8
63,23,0,2,14,32,682,1098.0762769873254,1098.9602152290754,"[50, 0, 204]",204,a,0.36739158001728356,1,colour,0.5,3.8
63,23,0,2,14,33,683,1099.4686191200744,1100.1523101839703,"[0, 0, 254]",254,a,0.16841416247189045,1,colour,0.5,3.8
63,23,0,2,14,34,684,1100.660740068648,1101.3442097909283,"[78, 0, 176]",176,l,0.16670565749518573,1,colour,0.5,3.8
63,23,0,2,14,35,685,1101.85183859244,1103.0401857064571,"[16, 0, 238]",238,a,0.6717815476004034,1,colour,0.5,3.8
63,23,0,2,14,36,686,1103.5485088587739,1104.17643169011,"[65, 0, 189]",189,l,0.11175071727484465,1,colour,0.5,3.8
63,23,0,2,14,37,687,1104.6848261288833,1105.3442743816413,"[18, 0, 236]",236,a,0.14344273577444255,1,colour,0.5,3.8
63,23,0,2,14,38,688,1105.852736561792,1106.4641867745668,"[82, 0, 172]",172,l,0.09492481872439384,1,colour,0.5,3.8
63,23,0,2,14,39,689,1106.9718128191307,1107.7282390112523,"[66, 0, 188]",188,l,0.2398117887787521,1,colour,0.5,3.8
63,23,0,2,14,40,690,1108.2359603664372,1108.976204204606,"[40, 0, 214]",214,a,0.22397877648472786,1,colour,0.5,3.8
63,23,0,2,14,41,691,1109.4843769078143,1110.032270972617,"[7, 0, 247]",247,a,0.03170974156819284,1,colour,0.5,3.8
63,23,0,2,14,42,692,1110.5402132757008,1111.232231036527,"[53, 0, 201]",201,a,0.17542620073072612,0,colour,0.5,3.8
63,23,0,2,14,43,693,1111.7404411551543,1112.3042958385777,"[37, 0, 217]",217,a,0.04760537575930357,1,colour,0.5,3.8
63,23,0,2,14,44,694,1112.8124291570857,1113.3362371616531,"[60, 0, 194]",194,l,0.0075878414791077375,1,colour,0.5,3.8
63,23,0,2,14,45,695,1113.8464043021668,1114.7681990435813,"[92, 0, 162]",162,l,0.4053504797630012,1,colour,0.5,3.8
63,23,0,2,14,46,696,1115.2757900359575,1116.008280617185,"[43, 0, 211]",211,a,0.21594313182868063,1,colour,0.5,3.8
63,23,0,2,14,47,697,1116.5160708955955,1117.1842830148526,"[88, 0, 166]",166,l,0.15188561752438545,1,colour,0.5,3.8
63,23,0,2,14,48,698,1117.6921331579797,1118.376248394139,"[80, 0, 174]",174,l,0.16784584219567478,1,colour,0.5,3.8
63,23,0,2,14,49,699,1118.8842371711507,1119.504273231607,"[69, 0, 185]",185,l,0.10360518959350884,1,colour,0.5,3.8
63,23,0,2,14,50,700,1120.012341959402,1120.8003077516332,"[94, 0, 160]",160,l,0.2717940721195191,1,colour,0.5,3.8
63,23,0,2,15,1,701,1156.8118147568312,1160.2162105534226,"[78, 0, 176]",176,l,2.8878306241240352,1,colour,0.5,3.8
63,23,0,2,15,2,702,1160.7244210657664,1161.688254560111,"[44, 0, 210]",210,a,0.44755819253623486,1,colour,0.5,3.8
63,23,0,2,15,3,703,1162.195864063222,1162.920289461268,"[32, 0, 222]",222,a,0.20829857629723847,1,colour,0.5,3.8
63,23,0,2,15,4,704,1163.4279525275342,1164.2723139491864,"[19, 0, 235]",235,a,0.32802034774795175,1,colour,0.5,3.8
63,23,0,2,15,5,705,1164.780227501411,1170.3842946726363,"[80, 0, 174]",174,l,5.087844251189381,1,colour,0.5,3.8
63,23,0,2,15,6,706,1170.8920940095559,1171.680242152419,"[29, 0, 225]",225,a,0.27163889654912055,1,colour,0.5,3.8
63,23,0,2,15,7,707,1172.1886298956815,1172.9842922308017,"[65, 0, 189]",189,l,0.27920980262570083,1,colour,0.5,3.8
63,23,0,2,15,8,708,1173.4925842694938,1174.192282031756,"[0, 0, 254]",254,a,0.18305854685604572,1,colour,0.5,3.8
63,23,0,2,15,9,709,1174.7007540580817,1175.3202454294078,"[11, 0, 243]",243,a,0.10306601435877383,1,colour,0.5,3.8
63,23,0,2,15,10,710,1175.8278120032046,1176.4643013838213,"[27, 0, 227]",227,a,0.12013334059156477,1,colour,0.5,3.8
63,23,0,2,15,11,711,1176.9719053730369,1177.5442222363781,"[18, 0, 236]",236,a,0.055682373931631446,1,colour,0.5,3.8
63,23,0,2,15,12,712,1178.0520286625251,1178.7602941559162,"[86, 0, 168]",168,l,0.19181729317642748,1,colour,0.5,3.8
63,23,0,2,15,13,713,1179.2681651727762,1180.000218584668,"[37, 0, 217]",217,a,0.21584939630702138,1,colour,0.5,3.8
63,23,0,2,15,14,714,1180.5083381186705,1181.2242544689216,"[56, 0, 198]",198,l,0.19955873466096818,1,colour,0.5,3.8
63,23,0,2,15,15,715,1181.7325551719405,1182.344219243154,"[92, 0, 162]",162,l,0.09545296640135348,1,colour,0.5,3.8
63,23,0,2,15,16,716,1182.8526018664706,1183.4242799112108,"[69, 0, 185]",185,l,0.05528065073303878,1,colour,0.5,3.8
63,23,0,2,15,17,717,1183.9326790759806,1184.5283250270877,"[68, 0, 186]",186,l,0.07945572026073933,1,colour,0.5,3.8
63,23,0,2,15,18,718,1185.0367147396319,1185.7122453094926,"[14, 0, 240]",240,a,0.15929662203416228,1,colour,0.5,3.8
63,23,0,2,15,19,719,1186.219832757255,1186.8162715209182,"[71, 0, 183]",183,l,0.0800890251994133,1,colour,0.5,3.8
63,23,0,2,15,20,720,1187.3238703899551,1188.0562376973685,"[3, 0, 251]",251,a,0.2158072548918426,1,colour,0.5,3.8
63,23,0,2,15,21,721,1188.5642973666545,1189.1363345992286,"[67, 0, 187]",187,l,0.054116441402584314,1,colour,0.5,3.8
63,23,0,2,15,22,722,1189.6440575299785,1190.824333159253,"[51, 0, 203]",203,a,0.6649085369426757,0,colour,0.5,3.8
63,23,0,2,15,23,723,1191.3327472901437,1192.1442792653106,"[89, 0, 165]",165,l,0.29531850735656917,1,colour,0.5,3.8
63,23,0,2,15,24,724,1192.6519561160821,1193.296288156882,"[66, 0, 188]",188,l,0.12778537906706333,1,colour,0.5,3.8
63,23,0,2,15,25,725,1193.8040709523484,1194.4722279331181,"[28, 0, 226]",226,a,0.1516193775460124,1,colour,0.5,3.8
63,23,0,2,15,26,726,1194.9802068639547,1197.0482229264453,"[55, 0, 199]",199,l,1.5516100039239973,1,colour,0.5,3.8
63,23,0,2,15,27,727,1197.5566732911393,1198.376262572594,"[72, 0, 182]",182,l,0.3030961826443672,1,colour,0.5,3.8
63,23,0,2,15,28,728,1198.8839268202428,1199.6322319030296,"[97, 0, 157]",157,l,0.23146185488440096,1,colour,0.5,3.8
63,23,0,2,15,29,729,1200.1401710554492,1200.8963294320274,"[22, 0, 232]",232,a,0.23970741964876652,1,colour,0.5,3.8
63,23,0,2,15,30,730,1201.4044269104488,1202.6483142201323,"[23, 0, 231]",231,a,0.7275005495175719,1,colour,0.5,3.8
63,23,0,2,15,31,731,1203.1570260988083,1203.8242402116302,"[4, 0, 250]",250,a,0.15055481111630797,1,colour,0.5,3.8
63,23,0,2,15,32,732,1204.3322026007809,1206.2642625505105,"[30, 0, 224]",224,a,1.4156456203199923,1,colour,0.5,3.8
63,23,0,2,15,33,733,1206.7724833029788,1207.5842504042666,"[24, 0, 230]",230,a,0.29534135037101805,1,colour,0.5,3.8
63,23,0,2,15,34,734,1208.0917740489822,1208.7282744573895,"[34, 0, 220]",220,a,0.1208847991656512,1,colour,0.5,3.8
63,23,0,2,15,35,735,1209.235901683569,1209.8803380934987,"[48, 0, 206]",206,a,0.12825444992631674,1,colour,0.5,3.8
63,23,0,2,15,36,736,1210.38821541192,1212.2722761398181,"[31, 0, 223]",223,a,1.367960687726736,1,colour,0.5,3.8
63,23,0,2,15,37,737,1212.7803917352576,1213.480365583906,"[81, 0, 173]",173,l,0.18383442400954664,1,colour,0.5,3.8
63,23,0,2,15,38,738,1213.9885501023382,1217.0323241418228,"[43, 0, 211]",211,a,2.5273419870063663,1,colour,0.5,3.8
63,23,0,2,15,39,739,1217.5408733619843,1218.4883256100584,"[83, 0, 171]",171,l,0.43113992479629815,1,colour,0.5,3.8
63,23,0,2,15,40,740,1218.9964392362162,1219.6162543492392,"[84, 0, 170]",170,l,0.10378754045814276,1,colour,0.5,3.8
63,23,0,2,15,41,741,1220.1243163815234,1220.7762063313276,"[93, 0, 161]",161,l,0.13502348493784666,1,colour,0.5,3.8
63,23,0,2,15,42,742,1221.2846492130775,1222.0482520710211,"[13, 0, 241]",241,a,0.247487457934767,1,colour,0.5,3.8
63,23,0,2,15,43,743,1222.5566311497241,1223.256219816627,"[63, 0, 191]",191,l,0.18287501437589526,1,colour,0.5,3.8
63,23,0,2,15,44,744,1223.7638033258263,1224.3843112143222,"[77, 0, 177]",177,l,0.1039628020953387,1,colour,0.5,3.8
63,23,0,2,15,45,745,1224.8929277821444,1225.5683386228047,"[74, 0, 180]",180,l,0.15910993912257254,1,colour,0.5,3.8
63,23,0,2,15,46,746,1226.0760123226792,1226.664336278569,"[1, 0, 253]",253,a,0.0719356203917414,1,colour,0.5,3.8
63,23,0,2,15,47,747,1227.172225412447,1227.9842229138594,"[52, 0, 202]",202,a,0.29678558465093374,0,colour,0.5,3.8
63,23,0,2,15,48,748,1228.4923708047718,1229.104266851442,"[99, 0, 155]",155,l,0.0955628496594727,1,colour,0.5,3.8
63,23,0,2,15,49,749,1229.612663259264,1230.2162534827366,"[8, 0, 246]",246,a,0.08724402962252498,1,colour,0.5,3.8
63,23,0,2,15,50,750,1230.7244671457447,1231.3682198387105,"[46, 0, 208]",208,a,0.12671332946047187,1,colour,0.5,3.8
63,23,0,2,16,1,751,1235.8035865214188,1236.5202381825075,"[4, 0, 250]",250,a,0.20156459347344935,1,colour,0.5,3.8
63,23,0,2,16,2,752,1237.0285593657754,1237.6482701092027,"[12, 0, 242]",242,a,0.10314123868010938,1,colour,0.5,3.8
63,23,0,2,16,3,753,1238.1566015323624,1238.768283720594,"[7, 0, 247]",247,a,0.09495711396448314,1,colour,0.5,3.8
63,23,0,2,16,4,754,1239.276685248362,1239.9042567689903,"[36, 0, 218]",218,a,0.11100910510867834,1,colour,0.5,3.8
63,23,0,2,16,5,755,1240.4127740876283,1240.9762743092142,"[71, 0, 183]",183,l,0.046971283154562116,1,colour,0.5,3.8
63,23,0,2,16,6,756,1241.4848518862855,1242.0804107973818,"[91, 0, 163]",163,l,0.07937222486361861,1,colour,0.5,3.8
63,23,0,2,16,7,757,1242.5879939128645,1243.1762564287055,"[11, 0, 243]",243,a,0.07217389740981162,1,colour,0.5,3.8
63,23,0,2,16,8,758,1243.6844196794555,1244.248233008897,"[95, 0, 159]",159,l,0.048065387876704335,1,colour,0.5,3.8
63,23,0,2,16,9,759,1244.75696064136,1245.464443956269,"[41, 0, 213]",213,a,0.19206935493275523,1,colour,0.5,3.8
63,23,0,2,16,10,760,1245.973133385647,1246.6082289444748,"[13, 0, 241]",241,a,0.11858355556614697,1,colour,0.5,3.8
63,23,0,2,16,11,761,1247.1161795184016,1247.7442732788622,"[47, 0, 207]",207,a,0.11162704951129854,1,colour,0.5,3.8
63,23,0,2,16,12,762,1248.2523313728161,1248.9282770566642,"[35, 0, 219]",219,a,0.1592804742977023,1,colour,0.5,3.8
63,23,0,2,16,13,763,1249.4364257352427,1250.03226348944,"[28, 0, 226]",226,a,0.0794951047282666,1,colour,0.5,3.8
63,23,0,2,16,14,764,1250.540640992811,1251.1682499286253,"[15, 0, 239]",239,a,0.11123241577297449,1,colour,0.5,3.8
63,23,0,2,16,15,765,1251.6766739056911,1252.264344864525,"[82, 0, 172]",172,l,0.07110696798190475,1,colour,0.5,3.8
63,23,0,2,16,16,766,1252.7726443861611,1253.35225488781,"[20, 0, 234]",234,a,0.06318081240169704,1,colour,0.5,3.8
63,23,0,2,16,17,767,1253.8606839850545,1254.480260426877,"[59, 0, 195]",195,l,0.10325663560070097,1,colour,0.5,3.8
63,23,0,2,16,18,768,1254.9877529577352,1255.6002405614126,"[14, 0, 240]",240,a,0.0962497175205499,1,colour,0.5,3.8
63,23,0,2,16,19,769,1256.1081052767113,1257.080308003584,"[89, 0, 165]",165,l,0.45589158521033823,1,colour,0.5,3.8
63,23,0,2,16,20,770,1257.5883597959764,1258.3364344786387,"[53, 0, 201]",201,l,0.2313704825937748,1,colour,0.5,3.8
63,23,0,2,16,21,771,1258.8456544189248,1259.4162434788886,"[85, 0, 169]",169,l,0.054132982855662704,1,colour,0.5,3.8
63,23,0,2,16,22,772,1259.9245473328047,1260.4802667284384,"[79, 0, 175]",175,l,0.040269989520311356,1,colour,0.5,3.8
63,23,0,2,16,23,773,1260.9886481701396,1261.5842874259688,"[97, 0, 157]",157,l,0.08021899429149926,1,colour,0.5,3.8
63,23,0,2,16,24,774,1262.0927373967133,1263.080226083519,"[52, 0, 202]",202,a,0.47113934205845,0,colour,0.5,3.8
63,23,0,2,16,25,775,1263.5882877220865,1264.2482617597561,"[63, 0, 191]",191,a,0.14276020042598248,0,colour,0.5,3.8
63,23,0,2,16,26,776,1264.7561438044067,1265.408257065108,"[19, 0, 235]",235,a,0.13559022988192737,1,colour,0.5,3.8
63,23,0,2,16,27,777,1265.9162714420818,1266.4883508163039,"[87, 0, 167]",167,l,0.055830854224041104,1,colour,0.5,3.8
63,23,0,2,16,28,778,1266.996287211543,1267.6083415844478,"[32, 0, 222]",222,a,0.0956703694537282,1,colour,0.5,3.8
63,23,0,2,16,29,779,1268.1164047983475,1268.9923211801797,"[83, 0, 171]",171,l,0.35964974481612444,1,colour,0.5,3.8
63,23,0,2,16,30,780,1269.5006904124748,1270.1603544931859,"[56, 0, 198]",198,l,0.1435144159477204,1,colour,0.5,3.8
63,23,0,2,16,31,781,1270.6688127347734,1271.2482282829005,"[10, 0, 244]",244,a,0.06307408027350903,1,colour,0.5,3.8
63,23,0,2,16,32,782,1271.7558354227804,1272.4323076789733,"[66, 0, 188]",188,l,0.1598243759945035,1,colour,0.5,3.8
63,23,0,2,16,33,783,1272.9400219451636,1273.576245085802,"[26, 0, 228]",228,a,0.11968947574496269,1,colour,0.5,3.8
63,23,0,2,16,34,784,1274.084137370577,1274.9762680076528,"[9, 0, 245]",245,a,0.37591795693151653,1,colour,0.5,3.8
63,23,0,2,16,35,785,1275.4844899417367,1276.216282233363,"[60, 0, 194]",194,l,0.21536023914813995,1,colour,0.5,3.8
63,23,0,2,16,36,786,1276.7245892381761,1277.3362607923336,"[8, 0, 246]",246,a,0.09527612943202257,1,colour,0.5,3.8
63,23,0,2,16,37,787,1277.844667833997,1278.4482568760868,"[98, 0, 156]",156,l,0.08693052781745791,1,colour,0.5,3.8
63,23,0,2,16,38,788,1278.9567710438278,1279.55237879185,"[18, 0, 236]",236,a,0.07903863699175417,1,colour,0.5,3.8
63,23,0,2,16,39,789,1280.060986301396,1280.632263016887,"[39, 0, 215]",215,a,0.05511208460666239,1,colour,0.5,3.8
63,23,0,2,16,40,790,1281.1408945508301,1281.9122636627872,"[62, 0, 192]",192,a,0.2559626349247992,0,colour,0.5,3.8
63,23,0,2,16,41,791,1282.4200740274973,1283.0402999217622,"[48, 0, 206]",206,a,0.10394626040942967,1,colour,0.5,3.8
63,23,0,2,16,42,792,1283.5482351356186,1284.0730565066915,"[72, 0, 182]",182,l,0.008382623083889484,1,colour,0.5,3.8
63,23,0,2,16,43,793,1284.5943092370871,1285.216243242612,"[5, 0, 249]",249,a,0.10544996522367,1,colour,0.5,3.8
63,23,0,2,16,44,794,1285.724286370445,1286.3282546862029,"[77, 0, 177]",177,l,0.08760676183737814,1,colour,0.5,3.8
63,23,0,2,16,45,795,1286.8362887555268,1287.4402460437268,"[68, 0, 186]",186,l,0.0876796233933419,1,colour,0.5,3.8
63,23,0,2,16,46,796,1287.9484317437746,1288.5842673396692,"[78, 0, 176]",176,l,0.11940984497778118,1,colour,0.5,3.8
63,23,0,2,16,47,797,1289.0924518583342,1289.9202173873782,"[30, 0, 224]",224,a,0.3112377719953656,1,colour,0.5,3.8
63,23,0,2,16,48,798,1290.4277552105486,1291.1762654869817,"[58, 0, 196]",196,l,0.2321770794223994,1,colour,0.5,3.8
63,23,0,2,16,49,799,1291.6839994455222,1292.424293695949,"[45, 0, 209]",209,a,0.22384959482587874,1,colour,0.5,3.8
63,23,0,2,16,50,800,1292.9321304482874,1293.6403262307867,"[65, 0, 189]",189,l,0.19196892390027642,1,colour,0.5,3.8
