id,age,condition,counterbalance,block,trialinblock,trial,tstart,tend,trialstim,trialintensity,response,RT,accuracy,trialtype,colourfreq,credits
61,20,1,2,Practice,1,NA,5.513778887689114e-06,1.2079648909857497,"[48, 0, 206]",206,a,0.683012034278363,1,colour,0.5,4
61,20,1,2,Practice,2,NA,1.7202867351006716,2.5360399957280606,"[89, 0, 165]",165,l,0.29348485346417874,1,colour,0.5,4
61,20,1,2,Practice,3,NA,3.048310246085748,7.487918007653207,"[4, 0, 250]",250,a,3.9285210163798183,1,colour,0.5,4
61,20,1,2,Practice,4,NA,8.004980567609891,8.87189905892592,"[82, 0, 172]",172,l,0.34414714376907796,1,colour,0.5,4
61,20,1,2,Practice,5,NA,9.380222979350947,10.207936140242964,"[22, 0, 232]",232,a,0.3054364830022678,1,colour,0.5,4
61,20,1,2,Practice,6,NA,10.723661201656796,11.511919728014618,"[5, 0, 249]",249,a,0.26560769544448704,1,colour,0.5,4
61,20,1,2,Practice,7,NA,12.020498072495684,12.83215809892863,"[99, 0, 155]",155,l,0.29546865227166563,1,colour,0.5,4
61,20,1,2,Practice,8,NA,13.341867960989475,14.303911120048724,"[66, 0, 188]",188,a,0.43896264291834086,0,colour,0.5,4
61,20,1,2,Practice,9,NA,14.813661548192613,15.66388414951507,"[59, 0, 195]",195,a,0.3270333838881925,0,colour,0.5,4
61,20,1,2,Practice,10,NA,16.173043415881693,16.911910590715706,"[19, 0, 235]",235,a,0.21625257772393525,1,colour,0.5,4
61,20,1,2,1,1,1,4.635758081334643,5.391933969571255,"[83, 0, 171]",171,l,0.2322458476992324,1,colour,0.5,4.0
61,20,1,2,1,2,2,5.902199941105209,6.7199314867611974,"[0, 0, 254]",254,a,0.2946147957118228,1,colour,0.5,4.0
61,20,1,2,1,3,3,7.230287648853846,8.344174319179729,"[64, 0, 190]",190,a,0.5907907941145822,0,colour,0.5,4.0
61,20,1,2,1,4,4,8.855463107000105,9.775895328610204,"[82, 0, 172]",172,l,0.39753563120029867,1,colour,0.5,4.0
61,20,1,2,1,5,5,10.292828707257286,11.191947596613318,"[38, 0, 216]",216,a,0.37600922863930464,1,colour,0.5,4.0
61,20,1,2,1,6,6,11.699093131814152,12.543918871087953,"[70, 0, 184]",184,l,0.32164794323034585,1,colour,0.5,4.0
61,20,1,2,1,7,7,13.05848681484349,13.863986313110217,"[53, 0, 201]",201,a,0.2823343053460121,0,colour,0.5,4.0
61,20,1,2,1,8,8,14.370869941310957,15.175859016017057,"[72, 0, 182]",182,l,0.2817006082041189,1,colour,0.5,4.0
61,20,1,2,1,9,9,15.68337003979832,16.551901721511967,"[84, 0, 170]",170,l,0.3452676336746663,1,colour,0.5,4.0
61,20,1,2,1,10,10,17.058480119565502,17.77587287942879,"[34, 0, 220]",220,a,0.1942476531257853,1,colour,0.5,4.0
61,20,1,2,1,11,11,18.292819255031645,19.03988983365707,"[33, 0, 221]",221,a,0.22396840096917003,1,colour,0.5,4.0
61,20,1,2,1,12,12,19.55839111050591,20.471862510195933,"[65, 0, 189]",189,a,0.3903333821799606,0,colour,0.5,4.0
61,20,1,2,1,13,13,20.980277408962138,21.791869694017805,"[21, 0, 233]",233,a,0.28847750439308584,1,colour,0.5,4.0
61,20,1,2,1,14,14,22.308365116710775,23.039993808837608,"[4, 0, 250]",250,a,0.20839418249670416,1,colour,0.5,4.0
61,20,1,2,1,15,15,23.558400956564583,24.223827404435724,"[19, 0, 235]",235,a,0.1423522331751883,1,colour,0.5,4.0
61,20,1,2,1,16,16,24.730266381287947,25.463880841387436,"[47, 0, 207]",207,a,0.21096796146593988,1,colour,0.5,4.0
61,20,1,2,1,17,17,25.980298676528037,26.712125866673887,"[75, 0, 179]",179,l,0.20882111066021025,1,colour,0.5,4.0
61,20,1,2,1,18,18,27.23028134740889,27.871832893113606,"[80, 0, 174]",174,l,0.11845645727589726,1,colour,0.5,4.0
61,20,1,2,1,19,19,28.38649772282224,29.0398567506345,"[32, 0, 222]",222,a,0.130202105618082,1,colour,0.5,4.0
61,20,1,2,1,20,20,29.558371024322696,30.303823292721063,"[13, 0, 241]",241,a,0.22228313703089952,1,colour,0.5,4.0
61,20,1,2,1,21,21,30.82406182109844,31.59184826875571,"[59, 0, 195]",195,l,0.24463110079523176,1,colour,0.5,4.0
61,20,1,2,1,22,22,32.105275242822245,32.85588491533417,"[90, 0, 164]",164,l,0.22755357483401895,1,colour,0.5,4.0
61,20,1,2,1,23,23,33.37086206441745,34.031854601809755,"[3, 0, 251]",251,a,0.13791083975229412,1,colour,0.5,4.0
61,20,1,2,1,24,24,34.54295631311834,35.15183563425671,"[76, 0, 178]",178,l,0.08579407876823097,1,colour,0.5,4.0
61,20,1,2,1,25,25,35.66787183331326,36.30387449252885,"[92, 0, 162]",162,l,0.1128335278481245,1,colour,0.5,4.0
61,20,1,2,1,26,26,36.824187457794324,37.60780372959562,"[29, 0, 225]",225,a,0.2605637186206877,1,colour,0.5,4.0
61,20,1,2,1,27,27,38.12106056243647,38.7678234691266,"[42, 0, 212]",212,a,0.123611104558222,1,colour,0.5,4.0
61,20,1,2,1,28,28,39.27728087629657,39.90383006678894,"[14, 0, 240]",240,a,0.10343007743358612,1,colour,0.5,4.0
61,20,1,2,1,29,29,40.417854898027144,41.12784927384928,"[23, 0, 231]",231,a,0.18696387810632586,1,colour,0.5,4.0
61,20,1,2,1,30,30,41.636677710106596,42.39189064654056,"[30, 0, 224]",224,a,0.2321603832533583,1,colour,0.5,4.0
61,20,1,2,1,31,31,42.9022822547704,43.81585762964096,"[58, 0, 196]",196,a,0.39053266786504537,0,colour,0.5,4.0
61,20,1,2,1,32,32,44.32415201177355,45.09587573085446,"[66, 0, 188]",188,l,0.2485805816249922,1,colour,0.5,4.0
61,20,1,2,1,33,33,45.60537646105513,46.26382515160367,"[77, 0, 177]",177,l,0.13531224837061018,1,colour,0.5,4.0
61,20,1,2,1,34,34,46.77724897488952,47.5038120286772,"[51, 0, 203]",203,a,0.20351089455652982,0,colour,0.5,4.0
61,20,1,2,1,35,35,48.01164403639268,48.863790965871885,"[5, 0, 249]",249,a,0.32932713895570487,1,colour,0.5,4.0
61,20,1,2,1,36,36,49.370976279489696,50.095790266408585,"[2, 0, 252]",252,a,0.20171102159656584,1,colour,0.5,4.0
61,20,1,2,1,37,37,50.605329593410715,51.3358437033603,"[40, 0, 214]",214,a,0.20737412315793335,1,colour,0.5,4.0
61,20,1,2,1,38,38,51.8554296301445,52.51186065131333,"[39, 0, 215]",215,a,0.13341706490609795,1,colour,0.5,4.0
61,20,1,2,1,39,39,53.02722022414673,53.6878212793963,"[99, 0, 155]",155,l,0.13750990526750684,1,colour,0.5,4.0
61,20,1,2,1,40,40,54.19914866401814,54.943846718641,"[37, 0, 217]",217,a,0.22161202458664775,1,colour,0.5,4.0
61,20,1,2,1,41,41,55.46468822425231,56.127770110964775,"[91, 0, 163]",163,l,0.14000727829989046,1,colour,0.5,4.0
61,20,1,2,1,42,42,56.636594214942306,57.31984413182363,"[28, 0, 226]",226,a,0.16038247104734182,1,colour,0.5,4.0
61,20,1,2,1,43,43,57.83971244574059,58.5677996808663,"[67, 0, 187]",187,a,0.2050476789008826,0,colour,0.5,4.0
61,20,1,2,1,44,44,59.074090571841225,59.7757649658015,"[55, 0, 199]",199,a,0.17860923777334392,0,colour,0.5,4.0
61,20,1,2,1,45,45,60.29281807341613,60.87979880813509,"[48, 0, 206]",206,a,0.06420859938953072,1,colour,0.5,4.0
61,20,1,2,1,46,46,61.386531987343915,61.97582695703022,"[57, 0, 197]",197,a,0.06615852750837803,0,colour,0.5,4.0
61,20,1,2,1,47,47,62.495866199722514,63.14376692555379,"[89, 0, 165]",165,l,0.12524083640892059,1,colour,0.5,4.0
61,20,1,2,1,48,48,63.65217591659166,64.215785477194,"[12, 0, 242]",242,a,0.04057276132516563,1,colour,0.5,4.0
61,20,1,2,1,49,49,64.7302648058394,65.35989938047715,"[25, 0, 229]",229,a,0.10655445232987404,1,colour,0.5,4.0
61,20,1,2,1,50,50,65.87088923971169,66.48775022965856,"[78, 0, 176]",176,l,0.09371785237453878,1,colour,0.5,4.0
61,20,1,2,2,1,51,75.55755182611756,76.35178025951609,"[7, 0, 247]",247,a,0.2703302943846211,1,colour,0.5,4.0
61,20,1,2,2,2,52,76.87084827979561,77.52780469052959,"[58, 0, 196]",196,l,0.1338621099712327,1,colour,0.5,4.0
61,20,1,2,2,3,53,78.0427353659179,78.79177044495009,"[44, 0, 210]",210,a,0.22599394735880196,1,colour,0.5,4.0
61,20,1,2,2,4,54,79.30835133208893,80.02370712405536,"[10, 0, 244]",244,a,0.19223392207641155,1,colour,0.5,4.0
61,20,1,2,2,5,55,80.54273930436466,81.19170498789754,"[61, 0, 193]",193,l,0.12594306259416044,1,colour,0.5,4.0
61,20,1,2,2,6,56,81.69903247966431,82.3518283086596,"[26, 0, 228]",228,a,0.12972791586071253,1,colour,0.5,4.0
61,20,1,2,2,7,57,82.87084355368279,83.5517473340733,"[2, 0, 252]",252,a,0.15783586725592613,1,colour,0.5,4.0
61,20,1,2,2,8,58,84.05834187986329,84.79975171992555,"[39, 0, 215]",215,a,0.2183308993699029,1,colour,0.5,4.0
61,20,1,2,2,9,59,85.30833479063585,86.08772116387263,"[57, 0, 197]",197,a,0.2563208232168108,0,colour,0.5,4.0
61,20,1,2,2,10,60,86.60519647365436,87.14387405151501,"[28, 0, 226]",226,a,0.015246539376676083,1,colour,0.5,4.0
61,20,1,2,2,11,61,87.65210423676763,88.35972648230381,"[22, 0, 232]",232,a,0.1845480309566483,1,colour,0.5,4.0
61,20,1,2,2,12,62,88.87084315984976,89.47192355629522,"[72, 0, 182]",182,l,0.07806447090115398,1,colour,0.5,4.0
61,20,1,2,2,13,63,89.98090795520693,90.63174676697236,"[96, 0, 158]",158,l,0.1285806446103379,1,colour,0.5,4.0
61,20,1,2,2,14,64,91.15207509219181,91.82373808033299,"[25, 0, 229]",229,a,0.14848401071503758,1,colour,0.5,4.0
61,20,1,2,2,15,65,92.33952064299956,93.07973555650096,"[55, 0, 199]",199,a,0.21742544893641025,0,colour,0.5,4.0
61,20,1,2,2,16,66,93.58955845225137,94.32766826252919,"[17, 0, 237]",237,a,0.21587645541876554,1,colour,0.5,4.0
61,20,1,2,2,17,67,94.83957735681906,95.51973834494129,"[60, 0, 194]",194,a,0.1571273396257311,0,colour,0.5,4.0
61,20,1,2,2,18,68,96.02697210165206,96.96773107303306,"[63, 0, 191]",191,l,0.41798723000101745,1,colour,0.5,4.0
61,20,1,2,2,19,69,97.48011356929783,98.06373440963216,"[43, 0, 211]",211,a,0.060522994957864285,1,colour,0.5,4.0
61,20,1,2,2,20,70,98.57386174774729,99.31970746745355,"[93, 0, 161]",161,l,0.22328823013231158,1,colour,0.5,4.0
61,20,1,2,2,21,71,99.83950055693276,100.67172127729282,"[56, 0, 198]",198,a,0.3090157490223646,0,colour,0.5,4.0
61,20,1,2,2,22,72,101.18324794771615,101.89570109976921,"[51, 0, 203]",203,a,0.18935963895637542,0,colour,0.5,4.0
61,20,1,2,2,23,73,102.40194394171704,103.0557598300511,"[94, 0, 160]",160,l,0.1306317908456549,1,colour,0.5,4.0
61,20,1,2,2,24,74,103.57382669555955,104.30376421590336,"[80, 0, 174]",174,l,0.20680186594836414,1,colour,0.5,4.0
61,20,1,2,2,25,75,104.82382433244493,105.60768872674089,"[69, 0, 185]",185,l,0.26074606901966035,1,colour,0.5,4.0
61,20,1,2,2,26,76,106.12076202768367,106.97569738188758,"[64, 0, 190]",190,l,0.3318824071902782,1,colour,0.5,4.0
61,20,1,2,2,27,77,107.49575828621164,108.3436650771182,"[6, 0, 248]",248,a,0.32510629878379405,1,colour,0.5,4.0
61,20,1,2,2,28,78,108.85512282466516,109.50365685368888,"[83, 0, 171]",171,l,0.12547753751277924,1,colour,0.5,4.0
61,20,1,2,2,29,79,109.99894095002674,110.67969467537478,"[27, 0, 227]",227,a,0.1582624017028138,1,colour,0.5,4.0
61,20,1,2,2,30,80,111.18647432839498,111.88770997861866,"[48, 0, 206]",206,a,0.17817010020371526,1,colour,0.5,4.0
61,20,1,2,2,31,81,112.40954594372306,113.03200977691449,"[77, 0, 177]",177,l,0.10363487713038921,1,colour,0.5,4.0
61,20,1,2,2,32,82,113.54582390072756,114.30381541582756,"[87, 0, 167]",167,l,0.23496850032825023,1,colour,0.5,4.0
61,20,1,2,2,33,83,114.81135558406822,115.49566100630909,"[9, 0, 245]",245,a,0.16122136148624122,1,colour,0.5,4.0
61,20,1,2,2,34,84,116.01460535917431,116.73595232586376,"[4, 0, 250]",250,a,0.19860673288349062,1,colour,0.5,4.0
61,20,1,2,2,35,85,117.2501413904829,117.86395992548205,"[20, 0, 234]",234,a,0.09076361882034689,1,colour,0.5,4.0
61,20,1,2,2,36,86,118.37513331673108,119.00768116489053,"[3, 0, 251]",251,a,0.10950947355013341,1,colour,0.5,4.0
61,20,1,2,2,37,87,119.5157191536855,120.207700227038,"[67, 0, 187]",187,l,0.16893915401306003,1,colour,0.5,4.0
61,20,1,2,2,38,88,120.71889409818687,121.2556867323583,"[0, 0, 254]",254,a,0.013823576271533966,1,colour,0.5,4.0
61,20,1,2,2,39,89,121.7656667722622,122.46366777108051,"[31, 0, 223]",223,a,0.17482359672430903,1,colour,0.5,4.0
61,20,1,2,2,40,90,122.98434504319448,123.6796324478928,"[34, 0, 220]",220,a,0.1721210302785039,1,colour,0.5,4.0
61,20,1,2,2,41,91,124.1875349538168,124.88765405258164,"[82, 0, 172]",172,l,0.17695233051199466,1,colour,0.5,4.0
61,20,1,2,2,42,92,125.40629199380055,126.16765640000813,"[65, 0, 189]",189,l,0.23822284408379346,1,colour,0.5,4.0
61,20,1,2,2,43,93,126.6875349538168,127.27163904241752,"[66, 0, 188]",188,l,0.06097709864843637,1,colour,0.5,4.0
61,20,1,2,2,44,94,127.7812858892139,128.35969458089676,"[5, 0, 249]",249,a,0.05531202792190015,1,colour,0.5,4.0
61,20,1,2,2,45,95,128.87501398159657,129.4396057924023,"[91, 0, 163]",163,l,0.041785411071032286,1,colour,0.5,4.0
61,20,1,2,2,46,96,129.9531528892694,130.60762492381036,"[46, 0, 208]",208,a,0.12855346919968724,1,colour,0.5,4.0
61,20,1,2,2,47,97,131.12778665241785,131.73566600028425,"[86, 0, 168]",168,l,0.084859877708368,1,colour,0.5,4.0
61,20,1,2,2,48,98,132.2528073292924,132.91965162020642,"[18, 0, 236]",236,a,0.14387247595004737,1,colour,0.5,4.0
61,20,1,2,2,49,99,133.44029068935197,134.16773674439173,"[14, 0, 240]",240,a,0.20445021556224674,1,colour,0.5,4.0
61,20,1,2,2,50,100,134.67636904574465,135.30362479470205,"[76, 0, 178]",178,l,0.10414411907549948,1,colour,0.5,4.0
61,20,1,2,3,1,101,141.22237293375656,141.79164441442117,"[73, 0, 181]",181,l,0.04535680019762367,1,colour,0.5,4.0
61,20,1,2,3,2,102,142.30125502753071,142.87164542265236,"[20, 0, 234]",234,a,0.04715234087780118,1,colour,0.5,4.0
61,20,1,2,3,3,103,143.37941165815573,144.10360652022064,"[53, 0, 201]",201,l,0.20101312769111246,1,colour,0.5,4.0
61,20,1,2,3,4,104,144.61384610424284,145.24788150622044,"[94, 0, 160]",160,l,0.11101514415349811,1,colour,0.5,4.0
61,20,1,2,3,5,105,145.7544524212135,146.35958942421712,"[14, 0, 240]",240,a,0.08209468983113766,1,colour,0.5,4.0
61,20,1,2,3,6,106,146.87947388575412,147.5436975300545,"[33, 0, 221]",221,a,0.1409182425122708,1,colour,0.5,4.0
61,20,1,2,3,7,107,148.05126920586918,148.85559386364184,"[49, 0, 205]",205,a,0.2812559569720179,1,colour,0.5,4.0
61,20,1,2,3,8,108,149.36383271345403,150.06356033007614,"[43, 0, 211]",211,a,0.18772163649555296,1,colour,0.5,4.0
61,20,1,2,3,9,109,150.57145968521945,151.15161901933607,"[90, 0, 164]",164,l,0.057102842489257455,1,colour,0.5,4.0
61,20,1,2,3,10,110,151.6651598146418,152.30359486246016,"[92, 0, 162]",162,l,0.11531160259619355,1,colour,0.5,4.0
61,20,1,2,3,11,111,152.8223690740997,153.4556258438388,"[32, 0, 222]",222,a,0.11011008766945451,1,colour,0.5,4.0
61,20,1,2,3,12,112,153.9629336433718,154.57561278389767,"[97, 0, 157]",157,l,0.08954506134614348,1,colour,0.5,4.0
61,20,1,2,3,13,113,155.08794998796657,155.7515962549951,"[99, 0, 155]",155,l,0.15294037014245987,1,colour,0.5,4.0
61,20,1,2,3,14,114,156.26296617498156,156.85561591899022,"[26, 0, 228]",228,a,0.06952826783526689,1,colour,0.5,4.0
61,20,1,2,3,15,115,157.37230353814084,157.96758850105107,"[86, 0, 168]",168,l,0.07212725304998457,1,colour,0.5,4.0
61,20,1,2,3,16,116,158.48171770118643,159.15161035466008,"[55, 0, 199]",199,a,0.14659197779837996,0,colour,0.5,4.0
61,20,1,2,3,17,117,159.66926092572976,160.22357691882644,"[6, 0, 248]",248,l,0.031317396787926555,0,colour,0.5,4.0
61,20,1,2,3,18,118,160.73172715352848,161.36757069919258,"[36, 0, 218]",218,a,0.11273112811613828,1,colour,0.5,4.0
61,20,1,2,3,19,119,161.88800615037326,162.54360733937938,"[37, 0, 217]",217,a,0.132513583637774,1,colour,0.5,4.0
61,20,1,2,3,20,120,163.0597711444134,163.65556889388245,"[66, 0, 188]",188,l,0.07256875361781567,1,colour,0.5,4.0
61,20,1,2,3,21,121,164.1691778243985,165.04757375549525,"[62, 0, 192]",192,l,0.35564388195052743,1,colour,0.5,4.0
61,20,1,2,3,22,122,165.55986330425367,166.11160630593076,"[91, 0, 163]",163,l,0.04106979409698397,1,colour,0.5,4.0
61,20,1,2,3,23,123,166.62559450953268,167.16757211706135,"[18, 0, 236]",236,a,0.018915602122433484,1,colour,0.5,4.0
61,20,1,2,3,24,124,167.6880808233982,168.25553352653515,"[89, 0, 165]",165,l,0.044315079459920526,1,colour,0.5,4.0
61,20,1,2,3,25,125,168.76615159586072,169.41553042305168,"[79, 0, 175]",175,l,0.1261707051889971,1,colour,0.5,4.0
61,20,1,2,3,26,126,169.92247115878854,170.50355996773578,"[98, 0, 156]",156,l,0.05797954206354916,1,colour,0.5,4.0
61,20,1,2,3,27,127,171.01615002041217,171.67950562969781,"[47, 0, 207]",207,a,0.14011046581435949,1,colour,0.5,4.0
61,20,1,2,3,28,128,172.18808161106426,172.90352680592332,"[65, 0, 189]",189,l,0.19262776733376086,1,colour,0.5,4.0
61,20,1,2,3,29,129,173.4224183835322,173.98354947566986,"[28, 0, 226]",226,a,0.03798874234780669,1,colour,0.5,4.0
61,20,1,2,3,30,130,174.50055098964367,175.20759703963995,"[10, 0, 244]",244,a,0.18388006940949708,1,colour,0.5,4.0
61,20,1,2,3,31,131,175.71926352509763,176.37553031276911,"[50, 0, 204]",204,a,0.1331204993184656,1,colour,0.5,4.0
61,20,1,2,3,32,132,176.89115100505296,177.54355771490373,"[64, 0, 190]",190,l,0.12925530155189335,1,colour,0.5,4.0
61,20,1,2,3,33,133,178.063001857372,178.95953515230212,"[46, 0, 208]",208,a,0.3733610127819702,1,colour,0.5,4.0
61,20,1,2,3,34,134,179.46923950046767,180.07158650341444,"[76, 0, 178]",178,l,0.0792897236533463,1,colour,0.5,4.0
61,20,1,2,3,35,135,180.57867414341308,181.29557774751447,"[68, 0, 186]",186,l,0.19396487215999514,1,colour,0.5,4.0
61,20,1,2,3,36,136,181.81304793735035,182.48779276490677,"[45, 0, 209]",209,a,0.15160917304456234,1,colour,0.5,4.0
61,20,1,2,3,37,137,183.00057265115902,183.71957899513654,"[7, 0, 247]",247,a,0.19597781542688608,1,colour,0.5,4.0
61,20,1,2,3,38,138,184.2348519221414,184.95953003235627,"[93, 0, 161]",161,l,0.2014818035531789,1,colour,0.5,4.0
61,20,1,2,3,39,139,185.46927258349024,186.0475599708734,"[24, 0, 230]",230,a,0.055229320423677564,1,colour,0.5,4.0
61,20,1,2,3,40,140,186.56299752509221,187.30351215484552,"[38, 0, 216]",216,a,0.217382519855164,1,colour,0.5,4.0
61,20,1,2,3,41,141,187.8006366903428,188.43952111562248,"[39, 0, 215]",215,a,0.11585432128049433,1,colour,0.5,4.0
61,20,1,2,3,42,142,188.95679832133465,189.5914981403621,"[23, 0, 231]",231,a,0.11154801689554006,1,colour,0.5,4.0
61,20,1,2,3,43,143,190.09746056434233,190.7595346008893,"[40, 0, 214]",214,a,0.13903132954146713,1,colour,0.5,4.0
61,20,1,2,3,44,144,191.26926848758012,191.87950303032994,"[0, 0, 254]",254,a,0.08716702356468886,1,colour,0.5,4.0
61,20,1,2,3,45,145,192.39427577366587,193.0395294651389,"[59, 0, 195]",195,l,0.12221689207945019,1,colour,0.5,4.0
61,20,1,2,3,46,146,193.55048230302054,194.191505308263,"[25, 0, 229]",229,a,0.11783536314032972,1,colour,0.5,4.0
61,20,1,2,3,47,147,194.70679083827417,195.27158154093195,"[72, 0, 182]",182,l,0.04173893725965172,1,colour,0.5,4.0
61,20,1,2,3,48,148,195.7848048969172,196.399546211469,"[31, 0, 223]",223,a,0.0914756910642609,1,colour,0.5,4.0
61,20,1,2,3,49,149,196.90994490892626,197.48752534401137,"[80, 0, 174]",174,l,0.05449676816351712,1,colour,0.5,4.0
61,20,1,2,3,50,150,198.00358753686305,198.88754732056987,"[63, 0, 191]",191,l,0.36049684369936585,1,colour,0.5,4.0
61,20,1,2,4,1,151,203.83119357191026,204.64746828365605,"[2, 0, 252]",252,a,0.2923568804981187,1,colour,0.5,4.0
61,20,1,2,4,2,152,205.1601993329823,205.75948182563297,"[97, 0, 157]",157,l,0.07621064106933773,1,colour,0.5,4.0
61,20,1,2,4,3,153,206.26949613017496,206.95146171748638,"[75, 0, 179]",179,l,0.15711552428547293,1,colour,0.5,4.0
61,20,1,2,4,4,154,207.45874352322426,208.0394613299286,"[28, 0, 226]",226,a,0.05795276060234755,1,colour,0.5,4.0
61,20,1,2,4,5,155,208.55246413254645,209.20779120526277,"[30, 0, 224]",224,a,0.13226191652938724,1,colour,0.5,4.0
61,20,1,2,4,6,156,209.72431577264797,210.30346253036987,"[90, 0, 164]",164,l,0.05600755871273577,1,colour,0.5,4.0
61,20,1,2,4,7,157,210.8180159019539,211.48746232874691,"[81, 0, 173]",173,l,0.1462418494047597,1,colour,0.5,4.0
61,20,1,2,4,8,158,212.0055953601841,212.72749607334845,"[55, 0, 199]",199,a,0.19915969157591462,0,colour,0.5,4.0
61,20,1,2,4,9,159,213.23994355415925,213.94348398712464,"[53, 0, 201]",201,a,0.18042959074955434,0,colour,0.5,4.0
61,20,1,2,4,10,160,214.45868996030185,215.11945052281953,"[68, 0, 186]",186,l,0.137980550294742,1,colour,0.5,4.0
61,20,1,2,4,11,161,215.6305853171507,216.31146507302765,"[24, 0, 230]",230,a,0.1561458770884201,1,colour,0.5,4.0
61,20,1,2,4,12,162,216.81968935066834,217.44745237228926,"[10, 0, 244]",244,a,0.10466399474535137,1,colour,0.5,4.0
61,20,1,2,4,13,163,217.95107181067578,218.55145628238097,"[79, 0, 175]",175,l,0.07722321734763682,1,colour,0.5,4.0
61,20,1,2,4,14,164,219.06045328453183,219.84742945048492,"[60, 0, 194]",194,l,0.263863354572095,1,colour,0.5,4.0
61,20,1,2,4,15,165,220.35735080752056,221.03142924886197,"[78, 0, 176]",176,l,0.15101131598930806,1,colour,0.5,4.0
61,20,1,2,4,16,166,221.54487827816047,222.12747905927245,"[92, 0, 162]",162,l,0.06016695883590728,1,colour,0.5,4.0
61,20,1,2,4,17,167,222.63877848093398,223.27140234143008,"[74, 0, 180]",180,l,0.1096390486927703,1,colour,0.5,4.0
61,20,1,2,4,18,168,223.77934738260228,224.46344446076546,"[37, 0, 217]",217,a,0.16150847473181784,1,colour,0.5,4.0
61,20,1,2,4,19,169,224.98242110887077,225.5594525235938,"[88, 0, 166]",166,l,0.05422659020405263,1,colour,0.5,4.0
61,20,1,2,4,20,170,226.07609800132923,226.66343004605733,"[98, 0, 156]",156,l,0.0648596256505698,1,colour,0.5,4.0
61,20,1,2,4,21,171,227.1699021058157,227.98342659592163,"[65, 0, 189]",189,a,0.29039277404081076,0,colour,0.5,4.0
61,20,1,2,4,22,172,228.49798272445332,229.4239122386789,"[94, 0, 160]",160,l,0.4028273365693167,1,colour,0.5,4.0
61,20,1,2,4,23,173,229.93634002713952,230.54341120447498,"[13, 0, 241]",241,a,0.08395757817197591,1,colour,0.5,4.0
61,20,1,2,4,24,174,231.06139575631823,231.71142797288485,"[49, 0, 205]",205,a,0.1271320815430954,1,colour,0.5,4.0
61,20,1,2,4,25,175,232.2175534487469,232.7834280137904,"[6, 0, 248]",248,a,0.042703070561401546,1,colour,0.5,4.0
61,20,1,2,4,26,176,233.29579278698657,233.84756808413658,"[0, 0, 254]",254,a,0.028865709784440696,1,colour,0.5,4.0
61,20,1,2,4,27,177,234.35819087957498,235.31938018207438,"[29, 0, 225]",225,a,0.4380449834279716,1,colour,0.5,4.0
61,20,1,2,4,28,178,235.82697194407228,236.83154566958547,"[51, 0, 203]",203,a,0.48150148009881377,0,colour,0.5,4.0
61,20,1,2,4,29,179,237.34258357796352,238.06344020727556,"[66, 0, 188]",188,l,0.19806440791580826,1,colour,0.5,4.0
61,20,1,2,4,30,180,238.57696524867788,239.23138844652567,"[39, 0, 215]",215,a,0.13135055860038847,1,colour,0.5,4.0
61,20,1,2,4,31,181,239.74884997180197,240.44739880936686,"[19, 0, 235]",235,a,0.17550337372813374,1,colour,0.5,4.0
61,20,1,2,4,32,182,240.96759086404927,241.61538800853305,"[15, 0, 239]",239,a,0.1247757050441578,1,colour,0.5,4.0
61,20,1,2,4,33,183,242.12383874715306,242.8077160596149,"[72, 0, 182]",182,l,0.16116070933640003,1,colour,0.5,4.0
61,20,1,2,4,34,184,243.32692074414808,244.12737665954046,"[25, 0, 229]",229,a,0.277627460192889,1,colour,0.5,4.0
61,20,1,2,4,35,185,244.63941493502352,245.2633741988102,"[69, 0, 185]",185,l,0.10080588632263243,1,colour,0.5,4.0
61,20,1,2,4,36,186,245.7800838733092,246.40739357913844,"[45, 0, 209]",209,a,0.10427251260261983,1,colour,0.5,4.0
61,20,1,2,4,37,187,246.92060472583398,247.56737905414775,"[70, 0, 184]",184,l,0.12364773219451308,1,colour,0.5,4.0
61,20,1,2,4,38,188,248.0769408303313,248.83938870485872,"[12, 0, 242]",242,a,0.24008258141111583,1,colour,0.5,4.0
61,20,1,2,4,39,189,249.3581156550208,250.06339255196508,"[33, 0, 221]",221,a,0.18242126645054668,1,colour,0.5,4.0
61,20,1,2,4,40,190,250.57687584578525,251.33538329822477,"[44, 0, 210]",210,a,0.23535880097188056,1,colour,0.5,4.0
61,20,1,2,4,41,191,251.8424898427911,252.5353763664607,"[83, 0, 171]",171,l,0.16976544144563377,1,colour,0.5,4.0
61,20,1,2,4,42,192,253.04610116791446,253.69540713366587,"[73, 0, 181]",181,l,0.12611792981624603,1,colour,0.5,4.0
61,20,1,2,4,43,193,254.20282008987851,254.83138734370004,"[14, 0, 240]",240,a,0.10556786973029375,1,colour,0.5,4.0
61,20,1,2,4,44,194,255.34341734845657,255.90337084315252,"[35, 0, 219]",219,a,0.037279032985679805,1,colour,0.5,4.0
61,20,1,2,4,45,195,256.42151687154546,257.7033809256973,"[71, 0, 183]",183,l,0.7587878702906892,1,colour,0.5,4.0
61,20,1,2,4,46,196,258.2182938779006,259.1354225251125,"[11, 0, 243]",243,a,0.3941635276423767,1,colour,0.5,4.0
61,20,1,2,4,47,197,259.65611712646205,260.3673962256871,"[95, 0, 159]",159,l,0.18865386815741658,1,colour,0.5,4.0
61,20,1,2,4,48,198,260.87461856089067,261.559383600601,"[48, 0, 206]",206,a,0.16209254728164524,1,colour,0.5,4.0
61,20,1,2,4,49,199,262.07777460082434,262.90332633873913,"[3, 0, 251]",251,a,0.3026204891502857,1,colour,0.5,4.0
61,20,1,2,4,50,200,263.4213935979642,264.103398963809,"[31, 0, 223]",223,a,0.15893666504416615,1,colour,0.5,4.0
61,20,1,2,5,1,201,269.42060669511557,270.3033648567507,"[77, 0, 177]",177,l,0.3588537211762741,1,colour,0.4,4.0
61,20,1,2,5,2,202,270.81211767473724,271.47139698511455,"[64, 0, 190]",190,l,0.13637169229332358,1,colour,0.4,4.0
61,20,1,2,5,3,203,271.9839551363839,272.75941487192176,"[61, 0, 193]",193,l,0.2523768563987687,1,colour,0.4,4.0
61,20,1,2,5,4,204,273.28195148776285,273.9833742144983,"[98, 0, 156]",156,l,0.17858088086359203,1,colour,0.4,4.0
61,20,1,2,5,5,205,274.50057225720957,275.3273516109912,"[66, 0, 188]",188,l,0.3035759578924626,1,colour,0.4,4.0
61,20,1,2,5,6,206,275.84439093398396,276.6073933427688,"[53, 0, 201]",201,a,0.2403204640140757,0,colour,0.4,4.0
61,20,1,2,5,7,207,277.1256401955616,277.67131719202735,"[87, 0, 167]",167,l,0.022572455694898963,1,colour,0.4,4.0
61,20,1,2,5,8,208,278.188172195456,278.831284550135,"[90, 0, 164]",164,l,0.11996646015904844,1,colour,0.4,4.0
61,20,1,2,5,9,209,279.34433737106156,279.97530786891,"[49, 0, 205]",205,a,0.10791873233392835,1,colour,0.4,4.0
61,20,1,2,5,10,210,280.4849425065331,281.1834212396061,"[38, 0, 216]",216,a,0.17568966245744377,1,colour,0.4,4.0
61,20,1,2,5,11,211,281.703709786525,282.40734119771514,"[82, 0, 172]",172,l,0.1806343903299421,1,colour,0.4,4.0
61,20,1,2,5,12,212,282.92242232197896,283.5673365187831,"[12, 0, 242]",242,a,0.12173403787892312,1,colour,0.4,4.0
61,20,1,2,5,13,213,284.0787414909573,284.81532357551623,"[63, 0, 191]",191,l,0.2137449646834284,1,colour,0.4,4.0
61,20,1,2,5,14,214,285.32873282639775,286.0153067976935,"[47, 0, 207]",207,a,0.16397315869107842,1,colour,0.4,4.0
61,20,1,2,5,15,215,286.5319042262854,287.27936589333694,"[2, 0, 252]",252,a,0.22437484934926033,1,colour,0.4,4.0
61,20,1,2,5,16,216,287.797481595655,288.5033795866184,"[54, 0, 200]",200,a,0.18281353637576103,0,colour,0.4,4.0
61,20,1,2,5,17,217,289.0161968880566,289.62330863135867,"[73, 0, 181]",181,l,0.08419230987783521,1,colour,0.4,4.0
61,20,1,2,5,18,218,290.14117109111976,290.71130115468986,"[27, 0, 227]",227,a,0.046895553823560476,1,colour,0.4,4.0
61,20,1,2,5,19,219,291.2192875496112,291.95133568695746,"[55, 0, 199]",199,a,0.20926418667659163,0,colour,0.4,4.0
61,20,1,2,5,20,220,292.4692721896572,293.51132856623735,"[32, 0, 222]",222,a,0.5194925854448229,1,colour,0.4,4.0
61,20,1,2,5,21,221,294.03180025110487,294.71131769614294,"[40, 0, 214]",214,a,0.15643574728164822,1,colour,0.4,4.0
61,20,1,2,5,22,222,295.21926510042977,295.8873413394904,"[43, 0, 211]",211,a,0.14542304503265768,1,colour,0.4,4.0
61,20,1,2,5,23,223,296.406798478798,297.1432966742432,"[69, 0, 185]",185,l,0.21332788246218115,1,colour,0.4,4.0
61,20,1,2,5,24,224,297.6573951544706,298.37529361166526,"[80, 0, 174]",174,l,0.1953516014618799,1,colour,0.4,4.0
61,20,1,2,5,25,225,298.89173153298907,299.63141829997767,"[44, 0, 210]",210,a,0.2169410192873329,1,colour,0.4,4.0
61,20,1,2,5,26,226,300.14177328068763,300.8553473164793,"[70, 0, 184]",184,l,0.19088263879530132,1,colour,0.4,4.0
61,20,1,2,5,27,227,301.37608563457616,302.10328356712125,"[67, 0, 187]",187,l,0.20400398888159543,1,colour,0.4,4.0
61,20,1,2,5,28,228,302.61139323562384,303.31131226103753,"[39, 0, 215]",215,a,0.17816931253764778,1,colour,0.4,4.0
61,20,1,2,5,29,229,303.829252308351,304.4472853819607,"[30, 0, 224]",224,a,0.09511403401847929,1,colour,0.4,4.0
61,20,1,2,5,30,230,304.9543423020514,305.5433190446347,"[0, 0, 254]",254,a,0.06641295144800097,1,colour,0.4,4.0
61,20,1,2,5,31,231,306.06363634217996,306.655267602182,"[96, 0, 158]",158,l,0.06891071842983365,1,colour,0.4,4.0
61,20,1,2,5,32,232,307.1730264805956,307.79134903044906,"[59, 0, 195]",195,a,0.09568944189231843,0,colour,0.4,4.0
61,20,1,2,5,33,233,308.2980089545017,308.9192581687821,"[89, 0, 165]",165,l,0.09859641408547759,1,colour,0.4,4.0
61,20,1,2,5,34,234,309.43856289004907,310.1593190887943,"[18, 0, 236]",236,a,0.19796712812967598,1,colour,0.4,4.0
61,20,1,2,5,35,235,310.6729355023708,311.33525254158303,"[31, 0, 223]",223,a,0.13922825234476477,1,colour,0.4,4.0
61,20,1,2,5,36,236,311.84548700554296,312.43926354078576,"[83, 0, 171]",171,l,0.07156050950288773,1,colour,0.4,4.0
61,20,1,2,5,37,237,312.9541997300694,313.7032686796738,"[10, 0, 244]",244,a,0.22638385416939855,1,colour,0.4,4.0
61,20,1,2,5,38,238,314.21978615783155,314.81531491084024,"[99, 0, 155]",155,l,0.0724100338993594,1,colour,0.4,4.0
61,20,1,2,5,39,239,315.3291034348076,315.9672789386241,"[50, 0, 204]",204,a,0.1155246727867052,1,colour,0.4,4.0
61,20,1,2,5,40,240,316.4853654963663,317.11926580942236,"[71, 0, 183]",183,l,0.111240423633717,1,colour,0.4,4.0
61,20,1,2,5,41,241,317.6260234070942,318.2312663544435,"[34, 0, 220]",220,a,0.08206554525531828,1,colour,0.4,4.0
61,20,1,2,5,42,242,318.7510192716727,319.61532105482183,"[57, 0, 197]",197,a,0.3411999993259087,0,colour,0.4,4.0
61,20,1,2,5,43,243,320.12607342540286,320.7992830440635,"[92, 0, 162]",162,l,0.15032760053873062,1,colour,0.4,4.0
61,20,1,2,5,44,244,321.31357805314474,321.9992457863409,"[97, 0, 157]",157,l,0.16297003475483507,1,colour,0.4,4.0
61,20,1,2,5,45,245,322.5168061667355,323.3672615305986,"[15, 0, 239]",239,a,0.3275371119379997,1,colour,0.4,4.0
61,20,1,2,5,46,246,323.87605767161585,324.5353472218849,"[51, 0, 203]",203,a,0.13657176564447582,0,colour,0.4,4.0
61,20,1,2,5,47,247,325.04793254856486,325.63154945045244,"[68, 0, 186]",186,l,0.060571831883862615,1,colour,0.4,4.0
61,20,1,2,5,48,248,326.1416090471903,326.751254397328,"[16, 0, 238]",238,a,0.08682555961422622,1,colour,0.4,4.0
61,20,1,2,5,49,249,327.26668801310007,327.871226765099,"[23, 0, 231]",231,a,0.08178591507021338,1,colour,0.4,4.0
61,20,1,2,5,50,250,328.3916673362255,329.1755065245088,"[52, 0, 202]",202,a,0.26116630202159286,0,colour,0.4,4.0
61,20,1,2,6,1,251,333.312740738038,334.21519195241854,"[97, 0, 157]",157,l,0.37865626288112253,1,colour,0.28,3.9
61,20,1,2,6,2,252,334.735456080758,335.59122244862374,"[49, 0, 205]",205,a,0.3327488669892773,1,colour,0.28,3.9
61,20,1,2,6,3,253,336.11037632706575,336.77517498552334,"[52, 0, 202]",202,a,0.14167403161991388,0,colour,0.28,3.9
61,20,1,2,6,4,254,337.28228468087036,337.95122856111266,"[81, 0, 173]",173,l,0.1456963736563921,1,colour,0.28,3.9
61,20,1,2,6,5,255,338.4698026992846,339.1111911929911,"[90, 0, 164]",164,l,0.11838398966938257,1,colour,0.28,3.9
61,20,1,2,6,6,256,339.6260045025265,340.2632481682813,"[0, 0, 254]",254,a,0.1145514810923487,1,colour,0.28,3.9
61,20,1,2,6,7,257,340.78225908090826,341.527216679533,"[50, 0, 204]",204,a,0.2217880734242499,1,colour,0.28,3.9
61,20,1,2,6,8,258,342.0478427518392,342.6631610497134,"[72, 0, 182]",182,l,0.09262926399242133,1,colour,0.28,3.9
61,20,1,2,6,9,259,343.1729819760658,343.71925486053806,"[51, 0, 203]",203,a,0.023319974192418158,0,colour,0.28,3.9
61,20,1,2,6,10,260,344.23541197006125,344.9032349665649,"[69, 0, 185]",185,l,0.14517177164088935,1,colour,0.28,3.9
61,20,1,2,6,11,261,345.4229429854313,346.0232053651707,"[86, 0, 168]",168,l,0.0777895669452846,1,colour,0.28,3.9
61,20,1,2,6,12,262,346.5322350563947,347.1992006516084,"[30, 0, 224]",224,a,0.144002444925718,1,colour,0.28,3.9
61,20,1,2,6,13,263,347.71974834869616,348.3431605612859,"[57, 0, 197]",197,a,0.10041243478190154,0,colour,0.28,3.9
61,20,1,2,6,14,264,348.86029598268215,349.4392773254076,"[39, 0, 215]",215,a,0.056379348621703684,1,colour,0.28,3.9
61,20,1,2,6,15,265,349.9539374290034,350.6072011463111,"[67, 0, 187]",187,l,0.13019462255761027,1,colour,0.28,3.9
61,20,1,2,6,16,266,351.1260092286393,351.76724136574194,"[75, 0, 179]",179,l,0.11861123843118548,1,colour,0.28,3.9
61,20,1,2,6,17,267,352.28215746884234,352.97516096464824,"[12, 0, 242]",242,a,0.1701703144935891,1,colour,0.28,3.9
61,20,1,2,6,18,268,353.4852745181415,354.16719678253867,"[46, 0, 208]",208,a,0.1588342651957646,1,colour,0.28,3.9
61,20,1,2,6,19,269,354.68843882880174,355.3192202808568,"[95, 0, 159]",159,l,0.1076505237724632,1,colour,0.28,3.9
61,20,1,2,6,20,270,355.8290274227038,356.4231635387987,"[87, 0, 167]",167,l,0.07136870699469,1,colour,0.28,3.9
61,20,1,2,6,21,271,356.9383726627566,357.56718646374065,"[53, 0, 201]",201,a,0.10617360391188413,0,colour,0.28,3.9
61,20,1,2,6,22,272,358.079014031915,358.6871639515739,"[61, 0, 193]",193,a,0.08493904070928693,0,colour,0.28,3.9
61,20,1,2,6,23,273,359.2040764564881,360.12714822927956,"[98, 0, 156]",156,l,0.39981284481473267,1,colour,0.28,3.9
61,20,1,2,6,24,274,360.64152633957565,361.31115117832087,"[59, 0, 195]",195,a,0.14660182397346944,0,colour,0.28,3.9
61,20,1,2,6,25,275,361.82902112114243,362.4631530152401,"[11, 0, 243]",243,a,0.11129122972488403,1,colour,0.28,3.9
61,20,1,2,6,26,276,362.9695872659795,363.6472682103049,"[70, 0, 184]",184,l,0.1548950244905427,1,colour,0.28,3.9
61,20,1,2,6,27,277,364.1571245827945,364.9351108359406,"[65, 0, 189]",189,l,0.25494078919291496,1,colour,0.28,3.9
61,20,1,2,6,28,278,365.4539417613996,366.1032252779696,"[20, 0, 234]",234,a,0.1367793221725151,1,colour,0.28,3.9
61,20,1,2,6,29,279,366.61526552261785,367.23113638546783,"[94, 0, 160]",160,l,0.09288526338059455,1,colour,0.28,3.9
61,20,1,2,6,30,280,367.7402424827451,368.3591191729065,"[1, 0, 253]",253,a,0.09610691794659942,1,colour,0.28,3.9
61,20,1,2,6,31,281,368.8652525257785,369.511132825166,"[92, 0, 162]",162,l,0.1228596477303654,1,colour,0.28,3.9
61,20,1,2,6,32,282,370.02149568265304,370.61515170137864,"[40, 0, 214]",214,a,0.0705042164772749,1,colour,0.28,3.9
61,20,1,2,6,33,283,371.130844861269,371.78311884519644,"[78, 0, 176]",176,l,0.1291749570518732,1,colour,0.28,3.9
61,20,1,2,6,34,284,372.30271698127035,372.8791414803127,"[58, 0, 196]",196,a,0.05340621049981564,0,colour,0.28,3.9
61,20,1,2,6,35,285,373.3967105252668,374.18308844033163,"[60, 0, 194]",194,a,0.2633422971703112,0,colour,0.28,3.9
61,20,1,2,6,36,286,374.69358993147034,375.36711935244966,"[68, 0, 186]",186,l,0.15042921260464936,1,colour,0.28,3.9
61,20,1,2,6,37,287,375.88105478079524,376.4791132021928,"[44, 0, 210]",210,a,0.07537647674325854,1,colour,0.28,3.9
61,20,1,2,6,38,288,376.99053156515583,377.5831454691943,"[74, 0, 180]",180,l,0.06947273574769497,1,colour,0.28,3.9
61,20,1,2,6,39,289,378.09983938990626,378.7030882985564,"[63, 0, 191]",191,a,0.0806382498703897,0,colour,0.28,3.9
61,20,1,2,6,40,290,379.2092519775033,379.8151061728131,"[32, 0, 222]",222,a,0.08280597440898418,1,colour,0.28,3.9
61,20,1,2,6,41,291,380.33422106073704,380.9430980186444,"[22, 0, 232]",232,a,0.08622612699400634,1,colour,0.28,3.9
61,20,1,2,6,42,292,381.45917990384623,382.0471109872451,"[56, 0, 198]",198,a,0.064763133530505,0,colour,0.28,3.9
61,20,1,2,6,43,293,382.5685279008467,383.37508487375453,"[85, 0, 169]",169,l,0.2834445552434772,1,colour,0.28,3.9
61,20,1,2,6,44,294,383.8810622638557,384.4311129123671,"[54, 0, 200]",200,a,0.026877972530201077,0,colour,0.28,3.9
61,20,1,2,6,45,295,384.94357535918243,385.5510821293574,"[73, 0, 181]",181,l,0.0843852941179648,1,colour,0.28,3.9
61,20,1,2,6,46,296,386.0685369592393,386.82306381710805,"[71, 0, 183]",183,l,0.23137151112314314,1,colour,0.28,3.9
61,20,1,2,6,47,297,387.3341336270096,387.8870573770255,"[33, 0, 221]",221,a,0.03020360227674246,1,colour,0.28,3.9
61,20,1,2,6,48,298,388.3966356946621,388.99908706662245,"[91, 0, 163]",163,l,0.07962724904064089,1,colour,0.28,3.9
61,20,1,2,6,49,299,389.5060144116869,390.3430770661216,"[62, 0, 192]",192,l,0.31432202679570764,1,colour,0.28,3.9
61,20,1,2,6,50,300,390.85042503790464,391.4551268419018,"[79, 0, 175]",175,l,0.08162050019018352,1,colour,0.28,3.9
61,20,1,2,7,1,301,397.55270043970086,398.135033799801,"[95, 0, 159]",159,l,0.058434827253222466,1,colour,0.14,3.9
61,20,1,2,7,2,302,398.6473473731894,399.2950755946804,"[64, 0, 190]",190,l,0.12493363698013127,1,colour,0.14,3.9
61,20,1,2,7,3,303,399.8035208195215,400.3830582718365,"[96, 0, 158]",158,l,0.05644866544753313,1,colour,0.14,3.9
61,20,1,2,7,4,304,400.8972481241217,401.4950954444939,"[55, 0, 199]",199,a,0.08394261205103248,0,colour,0.14,3.9
61,20,1,2,7,5,305,402.0130142241251,402.5670230179094,"[85, 0, 169]",169,l,0.030929852975532413,1,colour,0.14,3.9
61,20,1,2,7,6,306,403.07545563962776,403.67107655259315,"[81, 0, 173]",173,l,0.07246635388582945,1,colour,0.14,3.9
61,20,1,2,7,7,307,404.18474298447836,404.78304874070454,"[15, 0, 239]",239,a,0.07496963441371918,1,colour,0.14,3.9
61,20,1,2,7,8,308,405.294220556505,405.91103074047714,"[69, 0, 185]",185,l,0.09379071381408721,1,colour,0.14,3.9
61,20,1,2,7,9,309,406.4209958142601,406.95161846792325,"[91, 0, 163]",163,l,0.007465337635949254,1,colour,0.14,3.9
61,20,1,2,7,10,310,407.48385667498223,408.0151342934696,"[86, 0, 168]",168,l,0.008204585406929255,1,colour,0.14,3.9
61,20,1,2,7,11,311,408.5306864565937,409.0950080896728,"[76, 0, 178]",178,l,0.04125765839125961,1,colour,0.14,3.9
61,20,1,2,7,12,312,409.6088218196528,410.55103368638083,"[70, 0, 184]",184,l,0.4191226859111339,1,colour,0.14,3.9
61,20,1,2,7,13,313,411.06189042597543,411.67113444779534,"[94, 0, 160]",160,l,0.08639705588575453,1,colour,0.14,3.9
61,20,1,2,7,14,314,412.1870111395838,412.8070319503313,"[60, 0, 194]",194,a,0.09704505745321512,0,colour,0.14,3.9
61,20,1,2,7,15,315,413.3143842543941,413.8792942923028,"[97, 0, 157]",157,l,0.041835035546682775,1,colour,0.14,3.9
61,20,1,2,7,16,316,414.3925074082799,415.05502412701026,"[51, 0, 203]",203,a,0.13945353182498366,0,colour,0.14,3.9
61,20,1,2,7,17,317,415.5666425633244,416.2390109284315,"[54, 0, 200]",200,a,0.14940639631822705,0,colour,0.14,3.9
61,20,1,2,7,18,318,416.75403297587764,417.3430235031992,"[92, 0, 162]",162,l,0.06586786964908242,1,colour,0.14,3.9
61,20,1,2,7,19,319,417.86335261608474,418.5190073681297,"[65, 0, 189]",189,a,0.13290270289871842,0,colour,0.14,3.9
61,20,1,2,7,20,320,419.03526215138845,419.5671781930141,"[26, 0, 228]",228,l,0.00926875532604754,0,colour,0.14,3.9
61,20,1,2,7,21,321,420.0697047106223,421.1190488006687,"[83, 0, 171]",171,l,0.5261903187492862,1,colour,0.14,3.9
61,20,1,2,7,22,322,421.6322233197279,422.3910257623065,"[73, 0, 181]",181,l,0.23565024649724364,1,colour,0.14,3.9
61,20,1,2,7,23,323,422.89986010617577,423.5270485075889,"[11, 0, 243]",243,a,0.10403147921897471,1,colour,0.14,3.9
61,20,1,2,7,24,324,424.04037780791987,424.7110164044425,"[12, 0, 242]",242,a,0.14756280649453402,1,colour,0.14,3.9
61,20,1,2,7,25,325,425.2279757770011,426.1109883626923,"[50, 0, 204]",204,a,0.3601128445006907,1,colour,0.14,3.9
61,20,1,2,7,26,326,426.62147449387703,427.3109530741349,"[63, 0, 191]",191,a,0.16647407633718103,0,colour,0.14,3.9
61,20,1,2,7,27,327,427.82456870004535,428.50294793210924,"[90, 0, 164]",164,l,0.15523963910527527,1,colour,0.14,3.9
61,20,1,2,7,28,328,429.012077660067,429.69501053146087,"[52, 0, 202]",202,a,0.1581288882298395,0,colour,0.14,3.9
61,20,1,2,7,29,329,430.20125652407296,430.89498823985923,"[71, 0, 183]",183,l,0.17055549519136548,1,colour,0.14,3.9
61,20,1,2,7,30,330,431.4044976346195,432.0069801203208,"[78, 0, 176]",176,l,0.07980605482589453,1,colour,0.14,3.9
61,20,1,2,7,31,331,432.51379679481033,433.2629709012108,"[61, 0, 193]",193,a,0.22606090107001364,0,colour,0.14,3.9
61,20,1,2,7,32,332,433.7794233948225,434.44699551176745,"[44, 0, 210]",210,a,0.1443821118446067,1,colour,0.14,3.9
61,20,1,2,7,33,333,434.9668468902819,435.88700381398667,"[62, 0, 192]",192,a,0.3970311152515933,0,colour,0.14,3.9
61,20,1,2,7,34,334,436.4043361580698,437.2069617671659,"[66, 0, 188]",188,a,0.2794856223044917,0,colour,0.14,3.9
61,20,1,2,7,35,335,437.7168925764272,438.2709817145951,"[82, 0, 172]",172,l,0.030975145171396434,1,colour,0.14,3.9
61,20,1,2,7,36,336,438.77942615165375,439.3430711583933,"[80, 0, 174]",174,l,0.04047193692531437,1,colour,0.14,3.9
61,20,1,2,7,37,337,439.8575260686921,440.47901080246083,"[68, 0, 186]",186,l,0.09836128854658455,1,colour,0.14,3.9
61,20,1,2,7,38,338,440.9981363241095,442.5990520932246,"[59, 0, 195]",195,a,1.0777856284985319,0,colour,0.14,3.9
61,20,1,2,7,39,339,443.1075437916443,443.7269687145017,"[93, 0, 161]",161,l,0.09634558821562678,1,colour,0.14,3.9
61,20,1,2,7,40,340,444.2481851609191,444.85495465272106,"[98, 0, 156]",156,l,0.0837240278488025,1,colour,0.14,3.9
61,20,1,2,7,41,341,445.3736288276268,446.03098144673277,"[74, 0, 180]",180,a,0.1341405586572364,0,colour,0.14,3.9
61,20,1,2,7,42,342,446.5455549043836,447.2069570409367,"[88, 0, 166]",166,l,0.13847561390139163,1,colour,0.14,3.9
61,20,1,2,7,43,343,447.7184667760739,448.3109530741349,"[99, 0, 155]",155,l,0.06934394827112556,1,colour,0.14,3.9
61,20,1,2,7,44,344,448.82784155453555,449.4870078312233,"[53, 0, 201]",201,a,0.13625353865791112,0,colour,0.14,3.9
61,20,1,2,7,45,345,449.9997136745369,450.5829654819099,"[77, 0, 177]",177,l,0.06002871925011277,1,colour,0.14,3.9
61,20,1,2,7,46,346,451.09346933604684,452.5669182550628,"[56, 0, 198]",198,a,0.9507587035186589,0,colour,0.14,3.9
61,20,1,2,7,47,347,453.07777814543806,453.7269206654746,"[34, 0, 220]",220,a,0.12612777610775083,1,colour,0.14,3.9
61,20,1,2,7,48,348,454.2340736837359,454.89491498458665,"[29, 0, 225]",225,a,0.13780450145713985,1,colour,0.14,3.9
61,20,1,2,7,49,349,455.4058500993997,456.08690039021894,"[87, 0, 167]",167,l,0.1578346857568249,1,colour,0.14,3.9
61,20,1,2,7,50,350,456.59338702238165,457.31090384349227,"[72, 0, 182]",182,l,0.19436541281174868,1,colour,0.14,3.9
61,20,1,2,8,1,351,462.2019965593936,462.902919496526,"[75, 0, 179]",179,l,0.17703503812663257,1,colour,0.06,3.9
61,20,1,2,8,2,352,463.4215428653406,463.9989763961639,"[76, 0, 178]",178,l,0.05470314307603985,1,colour,0.06,3.9
61,20,1,2,8,3,353,464.51642610598356,465.1509175808169,"[94, 0, 160]",160,l,0.10948308592196554,1,colour,0.06,3.9
61,20,1,2,8,4,354,465.65884962514974,466.3428821127163,"[68, 0, 186]",186,l,0.1608826545998454,1,colour,0.06,3.9
61,20,1,2,8,5,355,466.86204938194714,467.46293640031945,"[79, 0, 175]",175,l,0.07799436640925705,1,colour,0.06,3.9
61,20,1,2,8,6,356,467.97144936653785,468.5669174673967,"[78, 0, 176]",176,l,0.07232496328651905,1,colour,0.06,3.9
61,20,1,2,8,7,357,469.08080366498325,469.71090770314913,"[85, 0, 169]",169,l,0.10700619278941303,1,colour,0.06,3.9
61,20,1,2,8,8,358,470.2213898958871,470.86295522609726,"[58, 0, 196]",196,a,0.11846157722175121,0,colour,0.06,3.9
61,20,1,2,8,9,359,471.3776870096335,472.1189267085865,"[69, 0, 185]",185,a,0.21830608707387,0,colour,0.06,3.9
61,20,1,2,8,10,360,472.62841050338466,473.23089023225475,"[89, 0, 165]",165,l,0.08022313704714179,1,colour,0.06,3.9
61,20,1,2,8,11,361,473.7370747849345,474.35085944924504,"[84, 0, 170]",170,l,0.09070808661635965,1,colour,0.06,3.9
61,20,1,2,8,12,362,474.8619796712883,475.8468867316842,"[64, 0, 190]",190,a,0.46230073389597237,0,colour,0.06,3.9
61,20,1,2,8,13,363,476.36200802819803,477.09491435450036,"[61, 0, 193]",193,a,0.2100298220757395,0,colour,0.06,3.9
61,20,1,2,8,14,364,477.6120135419769,478.4628899266245,"[65, 0, 189]",189,a,0.3280231171520427,0,colour,0.06,3.9
61,20,1,2,8,15,365,478.97133239440154,479.5828961650841,"[56, 0, 198]",198,a,0.08844583912286907,0,colour,0.06,3.9
61,20,1,2,8,16,366,480.0964011204196,480.7668573666597,"[71, 0, 183]",183,l,0.1473840008256957,1,colour,0.06,3.9
61,20,1,2,8,17,367,481.28457292204257,482.1508486579405,"[62, 0, 192]",192,a,0.3430049924645573,0,colour,0.06,3.9
61,20,1,2,8,18,368,482.6596447988413,483.39887864375487,"[72, 0, 182]",182,l,0.21608322428073734,1,colour,0.06,3.9
61,20,1,2,8,19,369,483.90966527874116,484.47086135542486,"[99, 0, 155]",155,l,0.03847356582991779,1,colour,0.06,3.9
61,20,1,2,8,20,370,484.98778882646,485.9108834422659,"[73, 0, 181]",181,a,0.400595415267162,0,colour,0.06,3.9
61,20,1,2,8,21,371,486.42532220482826,486.99087145365775,"[97, 0, 157]",157,l,0.04245061578694731,1,colour,0.06,3.9
61,20,1,2,8,22,372,487.50344181410037,488.1188963825116,"[87, 0, 167]",167,l,0.09243234130553901,1,colour,0.06,3.9
61,20,1,2,8,23,373,488.6284018388251,489.2468720807228,"[63, 0, 191]",191,a,0.09559452533721924,0,colour,0.06,3.9
61,20,1,2,8,24,374,489.7534532356076,490.3270101470407,"[50, 0, 204]",204,a,0.05056501040235162,1,colour,0.06,3.9
61,20,1,2,8,25,375,490.8333664163947,491.3669468482258,"[96, 0, 158]",158,l,0.010494401794858277,1,colour,0.06,3.9
61,20,1,2,8,26,376,491.8800973428879,492.59914070833474,"[83, 0, 171]",171,l,0.19588762486819178,1,colour,0.06,3.9
61,20,1,2,8,27,377,493.1144916166086,493.70286932063755,"[55, 0, 199]",199,a,0.0652578033041209,0,colour,0.06,3.9
61,20,1,2,8,28,378,494.223839219776,494.94284477620386,"[74, 0, 180]",180,l,0.19574347755406052,1,colour,0.06,3.9
61,20,1,2,8,29,379,495.45826775813475,496.35884702578187,"[98, 0, 156]",156,l,0.37746960693039,1,colour,0.06,3.9
61,20,1,2,8,30,380,496.8801954103401,497.50285459076986,"[59, 0, 195]",195,a,0.09962316881865263,0,colour,0.06,3.9
61,20,1,2,8,31,381,498.02067609061487,498.5668883228209,"[90, 0, 164]",164,l,0.023087211535312235,1,colour,0.06,3.9
61,20,1,2,8,32,382,499.0832829212304,499.69491128239315,"[80, 0, 174]",174,l,0.0885482388548553,1,colour,0.06,3.9
61,20,1,2,8,33,383,500.2082839057548,500.75885009777267,"[91, 0, 163]",163,l,0.02751482033636421,1,colour,0.06,3.9
61,20,1,2,8,34,384,501.2707072044723,502.25481830339413,"[16, 0, 238]",238,a,0.4609470876166597,1,colour,0.06,3.9
61,20,1,2,8,35,385,502.7707509212196,503.3268049536273,"[86, 0, 168]",168,l,0.03298966388683766,1,colour,0.06,3.9
61,20,1,2,8,36,386,503.83329670573585,504.51081144739874,"[67, 0, 187]",187,a,0.15447124699130654,0,colour,0.06,3.9
61,20,1,2,8,37,387,505.02069341985043,505.61480669293087,"[81, 0, 173]",173,l,0.07097368012182415,1,colour,0.06,3.9
61,20,1,2,8,38,388,506.13005362602416,506.7108616232872,"[41, 0, 213]",213,a,0.0577038504416123,1,colour,0.06,3.9
61,20,1,2,8,39,389,507.2238427643897,507.87093019962776,"[53, 0, 201]",201,a,0.12401637132279575,0,colour,0.06,3.9
61,20,1,2,8,40,390,508.3800205430016,509.0068017083686,"[92, 0, 162]",162,l,0.10364629852119833,1,colour,0.06,3.9
61,20,1,2,8,41,391,509.5206343430327,510.9108310608426,"[57, 0, 197]",197,a,0.8670185280498117,0,colour,0.06,3.9
61,20,1,2,8,42,392,511.42694287828635,512.0468230863335,"[60, 0, 194]",194,a,0.09683750104159117,0,colour,0.06,3.9
61,20,1,2,8,43,393,512.5675452568103,513.1108607568312,"[88, 0, 166]",166,l,0.02026058384217322,1,colour,0.06,3.9
61,20,1,2,8,44,394,513.6300752875395,514.302822531783,"[93, 0, 161]",161,l,0.1496927218977362,1,colour,0.06,3.9
61,20,1,2,8,45,395,514.8175168999005,515.486813271651,"[54, 0, 200]",200,a,0.14614693261682987,0,colour,0.06,3.9
61,20,1,2,8,46,396,516.0050034107408,516.9507976942696,"[52, 0, 202]",202,a,0.4226629612967372,0,colour,0.06,3.9
61,20,1,2,8,47,397,517.4507327098399,518.1508080918575,"[82, 0, 172]",172,l,0.17691845982335508,1,colour,0.06,3.9
61,20,1,2,8,48,398,518.6712352721952,519.3188146202592,"[28, 0, 226]",226,a,0.1247855513356626,1,colour,0.06,3.9
61,20,1,2,8,49,399,519.8274374692701,520.6468022912741,"[70, 0, 184]",184,l,0.29637489025481045,1,colour,0.06,3.9
61,20,1,2,8,50,400,521.1573234746465,521.8948184924666,"[95, 0, 159]",159,l,0.21432194800581783,1,colour,0.06,3.9
61,20,1,2,9,1,401,526.328428384033,526.9907643276965,"[63, 0, 191]",191,a,0.13896831427700818,0,colour,0.06,3.8
61,20,1,2,9,2,402,527.501016514725,528.1507820980623,"[98, 0, 156]",156,l,0.12663307960610837,1,colour,0.06,3.8
61,20,1,2,9,3,403,528.6572710932232,529.270782035077,"[79, 0, 175]",175,l,0.09034653659909964,1,colour,0.06,3.8
61,20,1,2,9,4,404,529.782383536105,530.4227649673121,"[22, 0, 232]",232,a,0.11730012740008533,1,colour,0.06,3.8
61,20,1,2,9,5,405,530.9385368962539,531.5027573109837,"[83, 0, 171]",171,l,0.05370710825081915,1,colour,0.06,3.8
61,20,1,2,9,6,406,532.0218666850124,532.5908167879097,"[85, 0, 169]",169,l,0.04578097152989358,1,colour,0.06,3.8
61,20,1,2,9,7,407,533.1000225279713,533.7347573991865,"[97, 0, 157]",157,l,0.11155943828634918,1,colour,0.06,3.8
61,20,1,2,9,8,408,534.2406249064952,534.838758552447,"[78, 0, 176]",176,l,0.07499641610775143,1,colour,0.06,3.8
61,20,1,2,9,9,409,535.3500154387439,535.886771445279,"[84, 0, 170]",170,l,0.013650678098201752,1,colour,0.06,3.8
61,20,1,2,9,10,410,536.3968054420548,537.1267847099807,"[66, 0, 188]",188,a,0.2067758720368147,0,colour,0.06,3.8
61,20,1,2,9,11,411,537.646847977303,538.2627676769625,"[95, 0, 159]",159,l,0.09286675264593214,1,colour,0.06,3.8
61,20,1,2,9,12,412,538.7720210723346,539.4468442752259,"[60, 0, 194]",194,a,0.15184429881628603,0,colour,0.06,3.8
61,20,1,2,9,13,413,539.9593476819573,540.6147448591655,"[61, 0, 193]",193,a,0.13234895642381161,0,colour,0.06,3.8
61,20,1,2,9,14,414,541.1312158635119,541.9587037449237,"[88, 0, 166]",166,l,0.3047681275056675,1,colour,0.06,3.8
61,20,1,2,9,15,415,542.4775988670299,543.2788842205191,"[67, 0, 187]",187,a,0.2782855755649507,0,colour,0.06,3.8
61,20,1,2,9,16,416,543.7901155069703,544.4707077557687,"[57, 0, 197]",197,a,0.15753693867009133,0,colour,0.06,3.8
61,20,1,2,9,17,417,544.9793573862407,545.6226989588467,"[52, 0, 202]",202,a,0.12022403487935662,0,colour,0.06,3.8
61,20,1,2,9,18,418,546.1356749800034,546.7507506691618,"[58, 0, 196]",196,a,0.09209993586409837,0,colour,0.06,3.8
61,20,1,2,9,19,419,547.2606688754167,547.7989919923712,"[96, 0, 158]",158,l,0.015248114708811045,1,colour,0.06,3.8
61,20,1,2,9,20,420,548.3081847355934,548.9026887031505,"[51, 0, 203]",203,a,0.07163337094243616,0,colour,0.06,3.8
61,20,1,2,9,21,421,549.4172987884376,550.0387299591675,"[50, 0, 204]",204,a,0.09824352862779051,1,colour,0.06,3.8
61,20,1,2,9,22,422,550.5579456714913,551.2147291841684,"[64, 0, 190]",190,a,0.13365731050726026,0,colour,0.06,3.8
61,20,1,2,9,23,423,551.7298575697932,552.302735885838,"[65, 0, 189]",189,a,0.049844273598864675,0,colour,0.06,3.8
61,20,1,2,9,24,424,552.809732941445,553.5827216915786,"[93, 0, 161]",161,l,0.2498731818050146,1,colour,0.06,3.8
61,20,1,2,9,25,425,554.0910018952563,554.6707429655362,"[62, 0, 192]",192,a,0.05662510811816901,0,colour,0.06,3.8
61,20,1,2,9,26,426,555.1846972984495,555.8067286894657,"[87, 0, 167]",167,l,0.09956881811376661,1,colour,0.06,3.8
61,20,1,2,9,27,427,556.3253410307225,556.9186863054056,"[86, 0, 168]",168,l,0.07051209337078035,1,colour,0.06,3.8
61,20,1,2,9,28,428,557.4347965474008,557.9746938641183,"[81, 0, 173]",173,l,0.016645477851852775,1,colour,0.06,3.8
61,20,1,2,9,29,429,558.4816672889283,560.3026945320889,"[59, 0, 195]",195,a,1.2979605115251616,0,colour,0.06,3.8
61,20,1,2,9,30,430,560.8108246806078,561.6546984957531,"[71, 0, 183]",183,l,0.3212068366119638,1,colour,0.06,3.8
61,20,1,2,9,31,431,562.1587039023871,562.9267093280796,"[68, 0, 186]",186,a,0.2541164711583406,0,colour,0.06,3.8
61,20,1,2,9,32,432,563.4462984056445,564.1187593243085,"[2, 0, 252]",252,a,0.14932723343372345,1,colour,0.06,3.8
61,20,1,2,9,33,433,564.6319933141349,565.2786943870597,"[53, 0, 201]",201,a,0.1236150428885594,0,colour,0.06,3.8
61,20,1,2,9,34,434,565.7882065387676,566.3347133672796,"[54, 0, 200]",200,a,0.0234538814984262,0,colour,0.06,3.8
61,20,1,2,9,35,435,566.8506641020067,567.5906726405956,"[73, 0, 181]",181,l,0.21687997330445796,1,colour,0.06,3.8
61,20,1,2,9,36,436,568.1006546496646,568.7667238530703,"[69, 0, 185]",185,l,0.14291188737843186,1,colour,0.06,3.8
61,20,1,2,9,37,437,569.2724968374241,569.8786582321627,"[94, 0, 160]",160,l,0.08340186241548508,1,colour,0.06,3.8
61,20,1,2,9,38,438,570.3975734403357,570.990700524766,"[89, 0, 165]",165,l,0.07006232207641006,1,colour,0.06,3.8
61,20,1,2,9,39,439,571.5069293142296,572.1986713234801,"[56, 0, 198]",198,a,0.16893639706540853,0,colour,0.06,3.8
61,20,1,2,9,40,440,572.7100676312111,573.2947869061027,"[82, 0, 172]",172,l,0.061920358217321336,1,colour,0.06,3.8
61,20,1,2,9,41,441,573.8078700531041,574.5587349374546,"[72, 0, 182]",182,l,0.22799704456701875,1,colour,0.06,3.8
61,20,1,2,9,42,442,575.0735112254042,575.6626474753721,"[74, 0, 180]",180,l,0.06602816458325833,1,colour,0.06,3.8
61,20,1,2,9,43,443,576.182998643606,576.8067160864593,"[91, 0, 163]",163,l,0.10068615735508502,1,colour,0.06,3.8
61,20,1,2,9,44,444,577.3235423391452,577.9507082913769,"[5, 0, 249]",249,a,0.10404762683901936,1,colour,0.06,3.8
61,20,1,2,9,45,445,578.4641226623207,579.0626631504856,"[77, 0, 177]",177,l,0.07437295897398144,1,colour,0.06,3.8
61,20,1,2,9,46,446,579.5748755055247,580.1826859305147,"[92, 0, 162]",162,l,0.08479568094480783,1,colour,0.06,3.8
61,20,1,2,9,47,447,580.6998709762702,581.3186590513214,"[76, 0, 178]",178,l,0.09573394642211497,1,colour,0.06,3.8
61,20,1,2,9,48,448,581.8248424225021,582.382638826617,"[99, 0, 155]",155,l,0.03471746330615133,1,colour,0.06,3.8
61,20,1,2,9,49,449,582.9029399764258,583.5906123822788,"[55, 0, 199]",199,a,0.16455723124090582,0,colour,0.06,3.8
61,20,1,2,9,50,450,584.1060999548063,584.9586832649074,"[70, 0, 184]",184,a,0.3295134276850149,0,colour,0.06,3.8
61,20,1,2,10,1,451,589.4646063044202,590.2146441135556,"[89, 0, 165]",165,l,0.22612312866840512,1,colour,0.06,3.8
61,20,1,2,10,2,452,590.7310458010761,591.3106545393821,"[77, 0, 177]",177,l,0.056507348315790296,1,colour,0.06,3.8
61,20,1,2,10,3,453,591.8247861026321,592.3746126531623,"[93, 0, 161]",161,l,0.02677517884876579,1,colour,0.06,3.8
61,20,1,2,10,4,454,592.8872448473703,593.4866584904958,"[71, 0, 183]",183,l,0.07625790254678577,1,colour,0.06,3.8
61,20,1,2,10,5,455,593.9966428626794,594.5666921879165,"[81, 0, 173]",173,l,0.04733981133904308,1,colour,0.06,3.8
61,20,1,2,10,6,456,595.0747077274136,596.0066315672593,"[80, 0, 174]",174,l,0.4089232742553577,1,colour,0.06,3.8
61,20,1,2,10,7,457,596.5279000011506,597.0786438173382,"[84, 0, 170]",170,l,0.027722770697437227,1,colour,0.06,3.8
61,20,1,2,10,8,458,597.5911263503367,598.4146521480288,"[67, 0, 187]",187,l,0.30121367366518825,1,colour,0.06,3.8
61,20,1,2,10,9,459,598.9340340628987,599.582610233454,"[50, 0, 204]",204,a,0.12544327299110591,1,colour,0.06,3.8
61,20,1,2,10,10,460,600.0903437797679,600.6226367313648,"[74, 0, 180]",180,l,0.009174232487566769,1,colour,0.06,3.8
61,20,1,2,10,11,461,601.1372290935833,601.7425878314534,"[78, 0, 176]",176,l,0.08222308335825801,1,colour,0.06,3.8
61,20,1,2,10,12,462,602.2621934505878,603.1505741477013,"[95, 0, 159]",159,l,0.3656747278291732,1,colour,0.06,3.8
61,20,1,2,10,13,463,603.6684559058631,604.3745984747075,"[75, 0, 179]",179,l,0.18304551113396883,1,colour,0.06,3.8
61,20,1,2,10,14,464,604.8872164904606,605.5986058664275,"[56, 0, 198]",198,a,0.18836833036039025,0,colour,0.06,3.8
61,20,1,2,10,15,465,606.10593020753,606.6785899393726,"[82, 0, 172]",172,l,0.04961387405637652,1,colour,0.06,3.8
61,20,1,2,10,16,466,607.1996764166979,607.8626074607018,"[76, 0, 178]",178,l,0.1398056293837726,1,colour,0.06,3.8
61,20,1,2,10,17,467,608.3714445616351,609.0466115913587,"[98, 0, 156]",156,l,0.15193685237318277,1,colour,0.06,3.8
61,20,1,2,10,18,468,609.5589830599492,610.1346249884227,"[87, 0, 167]",167,l,0.05250548629555851,1,colour,0.06,3.8
61,20,1,2,10,19,469,610.6527308445657,611.2786227072356,"[83, 0, 171]",171,l,0.10277353739365935,1,colour,0.06,3.8
61,20,1,2,10,20,470,611.7933907244587,612.6465758301783,"[73, 0, 181]",181,l,0.3341533192433417,1,colour,0.06,3.8
61,20,1,2,10,21,471,613.1642866595648,613.7589079930913,"[62, 0, 192]",192,a,0.07150773436296731,0,colour,0.06,3.8
61,20,1,2,10,22,472,614.2736086627701,614.9745871319901,"[72, 0, 182]",182,l,0.17782784858718514,1,colour,0.06,3.8
61,20,1,2,10,23,473,615.4924243857386,616.0785827713553,"[97, 0, 157]",157,l,0.06314403552096337,1,colour,0.06,3.8
61,20,1,2,10,24,474,616.5861359365517,617.2307244233089,"[94, 0, 160]",160,l,0.12153672135900706,1,colour,0.06,3.8
61,20,1,2,10,25,475,617.7424090256682,618.3345727645792,"[86, 0, 168]",168,l,0.06909621960949153,1,colour,0.06,3.8
61,20,1,2,10,26,476,618.8517715949565,619.478584661847,"[91, 0, 163]",163,l,0.10371364618185908,1,colour,0.06,3.8
61,20,1,2,10,27,477,619.992391696549,620.662647081539,"[59, 0, 195]",195,a,0.14716777962166816,0,colour,0.06,3.8
61,20,1,2,10,28,478,621.1798443365842,621.9105640337802,"[69, 0, 185]",185,a,0.20755647344049066,0,colour,0.06,3.8
61,20,1,2,10,29,479,622.4298514258116,623.1986193360062,"[68, 0, 186]",186,a,0.2456952709471807,0,colour,0.06,3.8
61,20,1,2,10,30,480,623.7110979304416,624.3349150160793,"[60, 0, 194]",194,a,0.1008783538127318,0,colour,0.06,3.8
61,20,1,2,10,31,481,624.8518046779791,625.4545935753267,"[65, 0, 189]",189,a,0.07977966719772667,0,colour,0.06,3.8
61,20,1,2,10,32,482,625.960952601512,626.5985940510873,"[52, 0, 202]",202,a,0.11456684104632586,0,colour,0.06,3.8
61,20,1,2,10,33,483,627.1172910690075,627.7107383497059,"[61, 0, 193]",193,a,0.07314455544110388,0,colour,0.06,3.8
61,20,1,2,10,34,484,628.2237903829664,628.7745416822145,"[79, 0, 175]",175,l,0.02754829719197005,1,colour,0.06,3.8
61,20,1,2,10,35,485,629.2863306537038,629.902737146127,"[51, 0, 203]",203,a,0.09339135466143489,0,colour,0.06,3.8
61,20,1,2,10,36,486,630.4113596013049,631.0945949458983,"[57, 0, 197]",197,a,0.1602269021095708,0,colour,0.06,3.8
61,20,1,2,10,37,487,631.6144486875273,632.254572150181,"[47, 0, 207]",207,a,0.1170311311725527,1,colour,0.06,3.8
61,20,1,2,10,38,488,632.7706890875706,633.6464939104626,"[99, 0, 155]",155,l,0.35267783305607736,1,colour,0.06,3.8
61,20,1,2,10,39,489,634.1489629265852,634.8705379297026,"[64, 0, 190]",190,a,0.19840547791682184,0,colour,0.06,3.8
61,20,1,2,10,40,490,635.383376498823,635.9985691601178,"[53, 0, 201]",201,a,0.09206252067815512,0,colour,0.06,3.8
61,20,1,2,10,41,491,636.5082790220622,637.0625304245623,"[88, 0, 166]",166,l,0.03107124345842749,1,colour,0.06,3.8
61,20,1,2,10,42,492,637.5708078712923,638.1505335816182,"[7, 0, 247]",247,a,0.05659478192683309,1,colour,0.06,3.8
61,20,1,2,10,43,493,638.6645080005983,639.4864942569984,"[55, 0, 199]",199,l,0.2992881640093401,1,colour,0.06,3.8
61,20,1,2,10,44,494,639.9927461573388,640.5745679123793,"[66, 0, 188]",188,a,0.05876841431017965,0,colour,0.06,3.8
61,20,1,2,10,45,495,641.086417142069,641.6785521302372,"[92, 0, 162]",162,l,0.06906392425298691,1,colour,0.06,3.8
61,20,1,2,10,46,496,642.1957934959792,642.7745609807316,"[54, 0, 200]",200,a,0.05561804573517293,0,colour,0.06,3.8
61,20,1,2,10,47,497,643.2895034713438,643.862556260894,"[96, 0, 158]",158,l,0.0498923227423802,1,colour,0.06,3.8
61,20,1,2,10,48,498,644.3832965482725,644.9825168133248,"[63, 0, 191]",191,a,0.07608973060268909,0,colour,0.06,3.8
61,20,1,2,10,49,499,645.492701258976,646.1425574265886,"[1, 0, 253]",253,l,0.1268000699346885,0,colour,0.06,3.8
61,20,1,2,10,50,500,646.6489349636249,647.2625230990816,"[70, 0, 184]",184,l,0.09050880093127489,1,colour,0.06,3.8
61,20,1,2,11,1,501,651.7730726392474,652.4465075375047,"[91, 0, 163]",163,l,0.14951391622889787,1,colour,0.06,3.7
61,20,1,2,11,2,502,652.961414582096,653.5424714896362,"[1, 0, 253]",253,a,0.05822884617373347,1,colour,0.06,3.7
61,20,1,2,11,3,503,654.0551162868505,654.8144957126351,"[41, 0, 213]",213,a,0.2362504666671157,1,colour,0.06,3.7
61,20,1,2,11,4,504,655.3207164991181,655.8705170558533,"[94, 0, 160]",160,l,0.026688139070756733,1,colour,0.06,3.7
61,20,1,2,11,5,505,656.3832008438185,656.9905008452479,"[90, 0, 164]",164,l,0.08411551010794938,1,colour,0.06,3.7
61,20,1,2,11,6,506,657.5082392437616,658.0944740354316,"[93, 0, 161]",161,l,0.06313300784677267,1,colour,0.06,3.7
61,20,1,2,11,7,507,658.6019720622571,659.2224867549958,"[57, 0, 197]",197,a,0.09550433466210961,0,colour,0.06,3.7
61,20,1,2,11,8,508,659.7288977688877,660.3504884470021,"[95, 0, 159]",159,l,0.09855742345098406,1,colour,0.06,3.7
61,20,1,2,11,9,509,660.8695123565849,661.4784657205455,"[87, 0, 167]",167,l,0.09824628569185734,1,colour,0.06,3.7
61,20,1,2,11,10,510,661.9976952173747,662.6384637985611,"[61, 0, 193]",193,a,0.1176014191005379,0,colour,0.06,3.7
61,20,1,2,11,11,511,663.1540139926365,663.7024947736645,"[51, 0, 203]",203,a,0.025336855789646506,0,colour,0.06,3.7
61,20,1,2,11,12,512,664.2165613524849,664.8464869786985,"[55, 0, 199]",199,a,0.10684235312510282,0,colour,0.06,3.7
61,20,1,2,11,13,513,665.3570841742912,666.6064559909282,"[14, 0, 240]",240,a,0.7388628425542265,1,colour,0.06,3.7
61,20,1,2,11,14,514,667.1259533026023,667.7424877947196,"[78, 0, 176]",176,l,0.09351384046021849,1,colour,0.06,3.7
61,20,1,2,11,15,515,668.2416528427275,668.8304901641095,"[92, 0, 162]",162,l,0.06573081144597381,1,colour,0.06,3.7
61,20,1,2,11,16,516,669.3509122245014,670.0464674440445,"[64, 0, 190]",190,a,0.1723758481675759,0,colour,0.06,3.7
61,20,1,2,11,17,517,670.5540635383222,671.2546473746188,"[74, 0, 180]",180,l,0.1774198249913752,1,colour,0.06,3.7
61,20,1,2,11,18,518,671.7729036796372,672.3345310168806,"[79, 0, 175]",175,l,0.03862480248790234,1,colour,0.06,3.7
61,20,1,2,11,19,519,672.8508610246936,673.4784802928334,"[66, 0, 188]",188,l,0.10438830312341452,1,colour,0.06,3.7
61,20,1,2,11,20,520,673.9916366951074,674.5984573867172,"[70, 0, 184]",184,l,0.08376932004466653,1,colour,0.06,3.7
61,20,1,2,11,21,521,675.1170783925336,675.7424444718054,"[71, 0, 183]",183,l,0.10232494759839028,1,colour,0.06,3.7
61,20,1,2,11,22,522,676.2577819892904,676.9665270879632,"[58, 0, 196]",196,a,0.18572011461947113,0,colour,0.06,3.7
61,20,1,2,11,23,523,677.4764248142019,678.1665307900403,"[59, 0, 195]",195,a,0.16703018581029028,0,colour,0.06,3.7
61,20,1,2,11,24,524,678.6813145611668,679.2944064515177,"[54, 0, 200]",200,a,0.09001806960441172,0,colour,0.06,3.7
61,20,1,2,11,25,525,679.8063521733275,680.5424628249602,"[50, 0, 204]",204,a,0.21334639319684356,1,colour,0.06,3.7
61,20,1,2,11,26,526,681.0562757673906,681.6225725344848,"[62, 0, 192]",192,a,0.0431634756969288,0,colour,0.06,3.7
61,20,1,2,11,27,527,682.1344650872052,682.926477353205,"[97, 0, 157]",157,l,0.2688789744861424,1,colour,0.06,3.7
61,20,1,2,11,28,528,683.446973062586,684.0464851669967,"[98, 0, 156]",156,l,0.0764717604033649,1,colour,0.06,3.7
61,20,1,2,11,29,529,684.5562915211776,685.1584116691956,"[83, 0, 171]",171,l,0.07939488033298403,1,colour,0.06,3.7
61,20,1,2,11,30,530,685.6657064718893,686.2864716502372,"[53, 0, 201]",201,a,0.09771971439477056,0,colour,0.06,3.7
61,20,1,2,11,31,531,686.8063376010396,687.7824465512531,"[73, 0, 181]",181,l,0.4534333070041612,1,colour,0.06,3.7
61,20,1,2,11,32,532,688.2906676781131,689.1904316860018,"[52, 0, 202]",202,a,0.3765783350681886,0,colour,0.06,3.7
61,20,1,2,11,33,533,689.6968529397855,690.3903853697702,"[99, 0, 155]",155,l,0.17015337909106165,1,colour,0.06,3.7
61,20,1,2,11,34,534,690.900023158174,691.6304057236994,"[76, 0, 178]",178,l,0.20724376023281366,1,colour,0.06,3.7
61,20,1,2,11,35,535,692.1500440319069,692.7824776651105,"[88, 0, 166]",166,l,0.10940155992284417,1,colour,0.06,3.7
61,20,1,2,11,36,536,693.2906326259254,693.9825136625441,"[84, 0, 170]",170,l,0.16881784971337765,1,colour,0.06,3.7
61,20,1,2,11,37,537,694.4945735995425,695.1824236294487,"[63, 0, 191]",191,a,0.16567102575208992,0,colour,0.06,3.7
61,20,1,2,11,38,538,695.6968123737024,696.3343683588319,"[56, 0, 198]",198,a,0.11436676769517362,0,colour,0.06,3.7
61,20,1,2,11,39,539,696.8531130320625,697.5024351455504,"[75, 0, 179]",179,l,0.12626483419444412,1,colour,0.06,3.7
61,20,1,2,11,40,540,698.0093876966275,698.6384586786153,"[72, 0, 182]",182,l,0.10277038661297411,1,colour,0.06,3.7
61,20,1,2,11,41,541,699.1531262652716,699.7904325524578,"[80, 0, 174]",174,l,0.11408516822848469,1,colour,0.06,3.7
61,20,1,2,11,42,542,700.3093717852607,700.9425174907083,"[82, 0, 172]",172,l,0.11000690015498549,1,colour,0.06,3.7
61,20,1,2,11,43,543,701.4500304836547,702.110396413249,"[68, 0, 186]",186,a,0.13724799815099686,0,colour,0.06,3.7
61,20,1,2,11,44,544,702.6218872437021,703.2703866143711,"[81, 0, 173]",173,l,0.12538459000643343,1,colour,0.06,3.7
61,20,1,2,11,45,545,703.778120948351,704.4223766358336,"[60, 0, 194]",194,a,0.12134806939866394,0,colour,0.06,3.7
61,20,1,2,11,46,546,704.9343696191208,705.5024107270874,"[65, 0, 189]",189,a,0.044824321288615465,0,colour,0.06,3.7
61,20,1,2,11,47,547,706.012489622226,706.6703853540821,"[89, 0, 165]",165,l,0.13476913585327566,1,colour,0.06,3.7
61,20,1,2,11,48,548,707.1843081793049,707.7185353051173,"[69, 0, 185]",185,a,0.011023729923181236,0,colour,0.06,3.7
61,20,1,2,11,49,549,708.2312793513993,708.7823784160428,"[67, 0, 187]",187,a,0.02807920065242797,0,colour,0.06,3.7
61,20,1,2,11,50,550,709.2937660590978,709.8943659642246,"[86, 0, 168]",168,l,0.0775256905471906,1,colour,0.06,3.7
61,20,1,2,12,1,551,716.5622358282562,717.4703588088742,"[87, 0, 167]",167,l,0.38418900163378567,1,colour,0.06,3.7
61,20,1,2,12,2,552,717.9849377804203,718.5664326437982,"[63, 0, 191]",191,a,0.058341485913842916,0,colour,0.06,3.7
61,20,1,2,12,3,553,719.078682020423,719.6863597194897,"[70, 0, 184]",184,l,0.08466334897093475,1,colour,0.06,3.7
61,20,1,2,12,4,554,720.2035904513905,721.150395735749,"[68, 0, 186]",186,a,0.42361252231057733,0,colour,0.06,3.7
61,20,1,2,12,5,555,721.6444478840567,722.238305551582,"[73, 0, 181]",181,l,0.07094611099455506,1,colour,0.06,3.7
61,20,1,2,12,6,556,722.7538120286772,723.3743318414781,"[44, 0, 210]",210,a,0.09774688980542123,1,colour,0.06,3.7
61,20,1,2,12,7,557,723.8944801794132,724.4943530461751,"[55, 0, 199]",199,a,0.07685457821935415,0,colour,0.06,3.7
61,20,1,2,12,8,558,725.0037679179804,725.5744166757213,"[76, 0, 178]",178,l,0.046724231098778546,1,colour,0.06,3.7
61,20,1,2,12,9,559,726.0837271786295,726.6864010732388,"[71, 0, 183]",183,l,0.08021841093432158,1,colour,0.06,3.7
61,20,1,2,12,10,560,727.192465896951,727.9823726658942,"[62, 0, 192]",192,a,0.2670192369259894,0,colour,0.06,3.7
61,20,1,2,12,11,561,728.4895441950066,729.022384591517,"[65, 0, 189]",189,a,0.010058415122330189,0,colour,0.06,3.7
61,20,1,2,12,12,562,729.5363527089357,731.4944235443836,"[60, 0, 194]",194,a,1.4349454208277166,0,colour,0.06,3.7
61,20,1,2,12,13,563,732.0049766292796,732.5585640085628,"[59, 0, 195]",195,a,0.030184697709046304,0,colour,0.06,3.7
61,20,1,2,12,14,564,733.0674814538797,733.7105319747934,"[75, 0, 179]",179,l,0.11965650389902294,1,colour,0.06,3.7
61,20,1,2,12,15,565,734.223895145813,734.7583668496227,"[15, 0, 239]",239,a,0.011265550972893834,1,colour,0.06,3.7
61,20,1,2,12,16,566,735.2706938136835,735.9583291979507,"[50, 0, 204]",204,a,0.1645517173456028,1,colour,0.06,3.7
61,20,1,2,12,17,567,736.4737265800359,737.0864222620148,"[97, 0, 157]",157,l,0.08964746119454503,1,colour,0.06,3.7
61,20,1,2,12,18,568,737.5986716386396,738.1904525598511,"[84, 0, 170]",170,l,0.06657954817637801,1,colour,0.06,3.7
61,20,1,2,12,19,569,738.6955642779358,739.4303555478109,"[61, 0, 193]",193,a,0.21243267215322703,0,colour,0.06,3.7
61,20,1,2,12,20,570,739.9454583335901,740.6143455000129,"[53, 0, 201]",201,a,0.14666168845724314,0,colour,0.06,3.7
61,20,1,2,12,21,571,741.1331449177815,741.8463396806037,"[88, 0, 166]",166,l,0.19170616939663887,1,colour,0.06,3.7
61,20,1,2,12,22,572,742.3659051274881,743.142309697927,"[92, 0, 162]",162,l,0.25159743649419397,1,colour,0.06,3.7
61,20,1,2,12,23,573,743.6500003151596,744.4063325598836,"[67, 0, 187]",187,a,0.233208799501881,0,colour,0.06,3.7
61,20,1,2,12,24,574,744.915598164429,745.6303159269737,"[69, 0, 185]",185,a,0.1919889502460137,0,colour,0.06,3.7
61,20,1,2,12,25,575,746.1499877120368,746.9023614176549,"[83, 0, 171]",171,l,0.2291868511820212,1,colour,0.06,3.7
61,20,1,2,12,26,576,747.4155457830057,748.206287110108,"[89, 0, 165]",165,l,0.26465695281513035,1,colour,0.06,3.7
61,20,1,2,12,27,577,748.7154109303374,749.5422714161687,"[85, 0, 169]",169,l,0.30384062184020877,1,colour,0.06,3.7
61,20,1,2,12,28,578,750.0591335088247,750.9423032389022,"[99, 0, 155]",155,l,0.3601100876694545,1,colour,0.06,3.7
61,20,1,2,12,29,579,751.4498816101113,752.3502651366871,"[78, 0, 176]",176,l,0.37724472128320485,1,colour,0.06,3.7
61,20,1,2,12,30,580,752.8559995242395,753.6222964490298,"[52, 0, 202]",202,a,0.2430915596196428,0,colour,0.06,3.7
61,20,1,2,12,31,581,754.1372255489696,754.8142727961531,"[95, 0, 159]",159,l,0.15386275586206466,1,colour,0.06,3.7
61,20,1,2,12,32,582,755.3247601088369,755.9182672540192,"[90, 0, 164]",164,l,0.0703486476559192,1,colour,0.06,3.7
61,20,1,2,12,33,583,756.4344405112788,757.014315095148,"[51, 0, 203]",203,a,0.05778458865825087,0,colour,0.06,3.7
61,20,1,2,12,34,584,757.5278385613346,758.2702881529694,"[56, 0, 198]",198,a,0.2194604476680979,0,colour,0.06,3.7
61,20,1,2,12,35,585,758.777922844165,759.3902884838171,"[81, 0, 173]",173,l,0.08946944307535887,1,colour,0.06,3.7
61,20,1,2,12,36,586,759.9028986226767,760.4942782155704,"[77, 0, 177]",177,l,0.06826284294947982,1,colour,0.06,3.7
61,20,1,2,12,37,587,761.0121969952015,761.7183301117038,"[54, 0, 200]",200,a,0.18305299419444054,0,colour,0.06,3.7
61,20,1,2,12,38,588,762.2310268965084,762.8462274346966,"[94, 0, 160]",160,l,0.09214207739569247,1,colour,0.06,3.7
61,20,1,2,12,39,589,763.3589210687205,764.0942995619262,"[74, 0, 180]",180,l,0.2126733115874231,1,colour,0.06,3.7
61,20,1,2,12,40,590,764.6087840105174,765.230242356658,"[86, 0, 168]",168,l,0.09831008850596845,1,colour,0.06,3.7
61,20,1,2,12,41,591,765.7494159274502,766.3262508133193,"[80, 0, 174]",174,l,0.05369686824269593,1,colour,0.06,3.7
61,20,1,2,12,42,592,766.8432795025874,767.4302716588136,"[98, 0, 156]",156,l,0.06397701834794134,1,colour,0.06,3.7
61,20,1,2,12,43,593,767.9368921982823,768.4783133023884,"[32, 0, 222]",222,a,0.01895301742479205,1,colour,0.06,3.7
61,20,1,2,12,44,594,768.9995545609854,769.6142470387276,"[72, 0, 182]",182,l,0.09159817697945982,1,colour,0.06,3.7
61,20,1,2,12,45,595,770.1244992257562,770.6943027914967,"[82, 0, 172]",172,l,0.046745498781092465,1,colour,0.06,3.7
61,20,1,2,12,46,596,771.2025904781185,771.750222128816,"[91, 0, 163]",163,l,0.024567282176576555,1,colour,0.06,3.7
61,20,1,2,12,47,597,772.265045678243,772.8142444393598,"[58, 0, 196]",196,a,0.026114700362086296,0,colour,0.06,3.7
61,20,1,2,12,48,598,773.3275883119786,773.894230875303,"[64, 0, 190]",190,a,0.04397637245710939,0,colour,0.06,3.7
61,20,1,2,12,49,599,774.408417576924,775.3422488094075,"[96, 0, 158]",158,l,0.4107199964346364,1,colour,0.06,3.7
61,20,1,2,12,50,600,775.8615322631085,776.4063357106643,"[79, 0, 175]",175,l,0.021900161867961287,1,colour,0.06,3.7
61,20,1,2,13,1,601,780.5954243841115,781.2942087411648,"[76, 0, 178]",178,l,0.17489645804744214,1,colour,0.06,3.6
61,20,1,2,13,2,602,781.8149923515739,782.3903479544679,"[50, 0, 204]",204,a,0.05226839135866612,1,colour,0.06,3.6
61,20,1,2,13,3,603,782.9086491579656,783.6382530913688,"[60, 0, 194]",194,a,0.2064741866197437,0,colour,0.06,3.6
61,20,1,2,13,4,604,784.1587149300613,784.7262286791811,"[58, 0, 196]",196,a,0.044437565258704126,0,colour,0.06,3.6
61,20,1,2,13,5,605,785.2369070068235,785.8702299427241,"[96, 0, 158]",158,l,0.11028062272816896,1,colour,0.06,3.6
61,20,1,2,13,6,606,786.3775066285161,787.3022412160644,"[80, 0, 174]",174,l,0.40209478430915624,1,colour,0.06,3.6
61,20,1,2,13,7,607,787.8149175209692,788.398204774363,"[57, 0, 197]",197,a,0.06014057120773941,0,colour,0.06,3.6
61,20,1,2,13,8,608,788.9086306472309,789.6145298196934,"[28, 0, 226]",226,a,0.1827497334452346,1,colour,0.06,3.6
61,20,1,2,13,9,609,790.1274731516605,790.7182576442137,"[89, 0, 165]",165,l,0.0678414284484461,1,colour,0.06,3.6
61,20,1,2,13,10,610,791.2375111655565,792.0222502902616,"[98, 0, 156]",156,l,0.2624399976339191,1,colour,0.06,3.6
61,20,1,2,13,11,611,792.533715127036,793.182229857659,"[94, 0, 160]",160,l,0.12551337736658752,1,colour,0.06,3.6
61,20,1,2,13,12,612,793.6899015702074,794.2781808128348,"[56, 0, 198]",198,a,0.06544094136916101,0,colour,0.06,3.6
61,20,1,2,13,13,613,794.799266108661,795.4301751666935,"[97, 0, 157]",157,l,0.10778994497377425,1,colour,0.06,3.6
61,20,1,2,13,14,614,795.939910234767,796.5341688367771,"[48, 0, 206]",206,a,0.0711839934810996,1,colour,0.06,3.6
61,20,1,2,13,15,615,797.0493263670942,797.718198567396,"[68, 0, 186]",186,l,0.1456983428215608,1,colour,0.06,3.6
61,20,1,2,13,16,616,798.236750650336,798.8541539652506,"[85, 0, 169]",169,l,0.09427671891171485,1,colour,0.06,3.6
61,20,1,2,13,17,617,799.3617630563676,799.9981713762973,"[77, 0, 177]",177,l,0.11378466431051493,1,colour,0.06,3.6
61,20,1,2,13,18,618,800.5179652534425,801.0782027106034,"[78, 0, 176]",176,l,0.03704942122567445,1,colour,0.06,3.6
61,20,1,2,13,19,619,801.5961049487814,802.2221689218422,"[93, 0, 161]",161,l,0.10299527226015925,1,colour,0.06,3.6
61,20,1,2,13,20,620,802.7367341087665,803.3662150836317,"[73, 0, 181]",181,l,0.10635831719264388,1,colour,0.06,3.6
61,20,1,2,13,21,621,803.8773597241379,804.4862008421915,"[64, 0, 190]",190,a,0.08581062022130936,0,colour,0.06,3.6
61,20,1,2,13,22,622,805.0023894595215,805.6142356172204,"[53, 0, 201]",201,a,0.08890230592805892,0,colour,0.06,3.6
61,20,1,2,13,23,623,806.1274136810098,806.7741505939048,"[71, 0, 183]",183,l,0.1237895165104419,1,colour,0.06,3.6
61,20,1,2,13,24,624,807.2835757057182,807.8942044876749,"[95, 0, 159]",159,l,0.08752148423809558,1,colour,0.06,3.6
61,20,1,2,13,25,625,808.400713962852,809.0142847690731,"[67, 0, 187]",187,a,0.09073171729687601,0,colour,0.06,3.6
61,20,1,2,13,26,626,809.5256192430388,810.0861831980292,"[79, 0, 175]",175,l,0.037911548744887114,1,colour,0.06,3.6
61,20,1,2,13,27,627,810.6037175846286,811.1741702073487,"[69, 0, 185]",185,a,0.047706875135190785,0,colour,0.06,3.6
61,20,1,2,13,28,628,811.681784418528,812.3021904100897,"[61, 0, 193]",193,a,0.09730538923759013,0,colour,0.06,3.6
61,20,1,2,13,29,629,812.8223107849481,813.3741305865115,"[65, 0, 189]",189,a,0.028566781198605895,0,colour,0.06,3.6
61,20,1,2,13,30,630,813.8849412462441,814.4701398308389,"[6, 0, 248]",248,a,0.06212279456667602,1,colour,0.06,3.6
61,20,1,2,13,31,631,814.9786665816791,815.5581268402748,"[87, 0, 167]",167,l,0.05664795113261789,1,colour,0.06,3.6
61,20,1,2,13,32,632,816.0723738002125,816.9981367179425,"[52, 0, 202]",202,a,0.4026394725078717,0,colour,0.06,3.6
61,20,1,2,13,33,633,817.498469517217,818.078173566144,"[81, 0, 173]",173,l,0.05664480046834797,1,colour,0.06,3.6
61,20,1,2,13,34,634,818.5922287233407,819.270233802381,"[63, 0, 191]",191,a,0.15502420580014586,0,colour,0.06,3.6
61,20,1,2,13,35,635,819.779669941985,820.3422157265013,"[66, 0, 188]",188,a,0.039420370012521744,0,colour,0.06,3.6
61,20,1,2,13,36,636,820.8578127879882,821.4143914224114,"[91, 0, 163]",163,l,0.03345952136442065,1,colour,0.06,3.6
61,20,1,2,13,37,637,821.9359060096322,822.4781419796636,"[62, 0, 192]",192,a,0.019058961770497262,0,colour,0.06,3.6
61,20,1,2,13,38,638,822.9984191049589,823.590122438618,"[55, 0, 199]",199,a,0.06857516220770776,0,colour,0.06,3.6
61,20,1,2,13,39,639,824.1077867943095,824.6701332930243,"[92, 0, 162]",162,l,0.03925731801427901,1,colour,0.06,3.6
61,20,1,2,13,40,640,825.1859406679869,825.7184155761497,"[82, 0, 172]",172,l,0.009724828181788325,1,colour,0.06,3.6
61,20,1,2,13,41,641,826.2327928988962,826.870117696817,"[99, 0, 155]",155,l,0.11419308197218925,1,colour,0.06,3.6
61,20,1,2,13,42,642,827.3890384188853,828.2221039374126,"[59, 0, 195]",195,a,0.3100306884152815,0,colour,0.06,3.6
61,20,1,2,13,43,643,828.7330642582383,829.4381517155562,"[74, 0, 180]",180,l,0.1946442553307861,1,colour,0.06,3.6
61,20,1,2,13,44,644,829.9548168856418,830.5661132353125,"[54, 0, 200]",200,a,0.0890519671374932,0,colour,0.06,3.6
61,20,1,2,13,45,645,831.0798044794938,831.9021503166296,"[51, 0, 203]",203,a,0.29931809625122696,0,colour,0.06,3.6
61,20,1,2,13,46,646,832.4234731012257,832.9821497495286,"[75, 0, 179]",179,l,0.03585488849785179,1,colour,0.06,3.6
61,20,1,2,13,47,647,833.5016313072992,834.3340678549139,"[72, 0, 182]",182,l,0.30936075758654624,1,colour,0.06,3.6
61,20,1,2,13,48,648,834.845400359598,835.5901169248391,"[83, 0, 171]",171,l,0.2220751866698265,1,colour,0.06,3.6
61,20,1,2,13,49,649,836.1108619383303,836.7661575034726,"[88, 0, 166]",166,l,0.1323020887793973,1,colour,0.06,3.6
61,20,1,2,13,50,650,837.2828600888606,837.9741542959819,"[90, 0, 164]",164,l,0.16815461416263133,1,colour,0.06,3.6
61,20,1,2,14,1,651,842.8288667338202,843.6060960163595,"[66, 0, 188]",188,l,0.25333193119149655,1,colour,0.06,3.6
61,20,1,2,14,2,652,844.1266039350303,844.6940846011275,"[85, 0, 169]",169,l,0.0444556821603328,1,colour,0.06,3.6
61,20,1,2,14,3,653,845.2046565905912,845.8700995799154,"[57, 0, 197]",197,a,0.14231284870766103,0,colour,0.06,3.6
61,20,1,2,14,4,654,846.3765803043498,846.9821107587777,"[76, 0, 178]",178,l,0.08251571049913764,1,colour,0.06,3.6
61,20,1,2,14,5,655,847.5016013750574,848.1260730315698,"[90, 0, 164]",164,l,0.10140019876416773,1,colour,0.06,3.6
61,20,1,2,14,6,656,848.6422159627546,849.334094242542,"[71, 0, 183]",183,a,0.16880603437311947,0,colour,0.06,3.6
61,20,1,2,14,7,657,849.8453219843796,850.534096369287,"[52, 0, 202]",202,a,0.16631220595445484,0,colour,0.06,3.6
61,20,1,2,14,8,658,851.048513864167,851.6861210492207,"[75, 0, 179]",179,l,0.11456211493350565,1,colour,0.06,3.6
61,20,1,2,14,9,659,852.2046636798186,852.7980629113736,"[78, 0, 176]",176,l,0.07028720784001052,1,colour,0.06,3.6
61,20,1,2,14,10,660,853.3140833566431,853.9340714782011,"[87, 0, 167]",167,l,0.0969253284856677,1,colour,0.06,3.6
61,20,1,2,14,11,661,854.4546841597185,855.110055737081,"[50, 0, 204]",204,a,0.13300392113160342,1,colour,0.06,3.6
61,20,1,2,14,12,662,855.6265952704707,856.2300820616074,"[55, 0, 199]",199,a,0.08051418862305582,0,colour,0.06,3.6
61,20,1,2,14,13,663,856.7388167626923,857.3340568272397,"[96, 0, 158]",158,l,0.07243957230821252,1,colour,0.06,3.6
61,20,1,2,14,14,664,857.8481486120727,858.4780143738026,"[91, 0, 163]",163,l,0.1067316826665774,1,colour,0.06,3.6
61,20,1,2,14,15,665,858.9887631997699,859.5740767872194,"[97, 0, 157]",157,l,0.06208774237893522,1,colour,0.06,3.6
61,20,1,2,14,16,666,860.0824680553051,860.6461225142702,"[88, 0, 166]",166,l,0.040466029196977615,1,colour,0.06,3.6
61,20,1,2,14,17,667,861.16059239069,861.7180536322994,"[86, 0, 168]",168,l,0.0344468915136531,1,colour,0.06,3.6
61,20,1,2,14,18,668,862.2387561105425,862.8461821425008,"[31, 0, 223]",223,a,0.08433054969646037,1,colour,0.06,3.6
61,20,1,2,14,19,669,863.3636980183655,863.9260488494765,"[98, 0, 156]",156,l,0.039459360647015274,1,colour,0.06,3.6
61,20,1,2,14,20,670,864.4418971843552,865.1820648363791,"[82, 0, 172]",172,l,0.21711549267638475,1,colour,0.06,3.6
61,20,1,2,14,21,671,865.6818454646273,866.326365028508,"[60, 0, 194]",194,a,0.12174782250076532,0,colour,0.06,3.6
61,20,1,2,14,22,672,866.8380649908213,867.6221830215072,"[68, 0, 186]",186,l,0.26100561302155256,1,colour,0.06,3.6
61,20,1,2,14,23,673,868.1348868955392,868.750024812296,"[79, 0, 175]",175,l,0.09199911146424711,1,colour,0.06,3.6
61,20,1,2,14,24,674,869.2598327418091,869.9260890217265,"[72, 0, 182]",182,l,0.14304973324760795,1,colour,0.06,3.6
61,20,1,2,14,25,675,870.4474507969571,871.0300267657731,"[99, 0, 155]",155,l,0.05947772960644215,1,colour,0.06,3.6
61,20,1,2,14,26,676,871.5410311972955,872.1099990232615,"[54, 0, 200]",200,a,0.046044060261920094,0,colour,0.06,3.6
61,20,1,2,14,27,677,872.6214232939528,873.2140336533776,"[65, 0, 189]",189,a,0.06951645249500871,0,colour,0.06,3.6
61,20,1,2,14,28,678,873.730846121558,874.590156309423,"[93, 0, 161]",161,l,0.33625802863389254,1,colour,0.06,3.6
61,20,1,2,14,29,679,875.1058120538946,875.7660866113147,"[74, 0, 180]",180,l,0.1371408720733598,1,colour,0.06,3.6
61,20,1,2,14,30,680,876.277699927683,876.8939788143616,"[61, 0, 193]",193,a,0.09324563189875335,0,colour,0.06,3.6
61,20,1,2,14,31,681,877.4026631031884,877.9740310224006,"[81, 0, 173]",173,l,0.048181852558627725,1,colour,0.06,3.6
61,20,1,2,14,32,682,878.4808701460715,879.0780353264417,"[51, 0, 203]",203,a,0.07473569049034268,0,colour,0.06,3.6
61,20,1,2,14,33,683,879.5901732447091,880.2380180445034,"[67, 0, 187]",187,l,0.12470953911542892,1,colour,0.06,3.6
61,20,1,2,14,34,684,880.7464569676667,881.3980303009739,"[73, 0, 181]",181,l,0.12850660167168826,1,colour,0.06,3.6
61,20,1,2,14,35,685,881.918337358511,882.574174460955,"[92, 0, 162]",162,l,0.13281369383912534,1,colour,0.06,3.6
61,20,1,2,14,36,686,883.090163004701,883.6860446431674,"[89, 0, 165]",165,l,0.07271211326587945,1,colour,0.06,3.6
61,20,1,2,14,37,687,884.2024278200697,884.7740245633759,"[77, 0, 177]",177,l,0.04858987627085298,1,colour,0.06,3.6
61,20,1,2,14,38,688,885.2805108015891,885.9260086772265,"[53, 0, 201]",201,a,0.12245398701634258,0,colour,0.06,3.6
61,20,1,2,14,39,689,886.4368484814186,887.0060187439667,"[69, 0, 185]",185,l,0.046142521663568914,1,colour,0.06,3.6
61,20,1,2,14,40,690,887.5148519063368,888.1099950848147,"[19, 0, 235]",235,a,0.071974047110416,1,colour,0.06,3.6
61,20,1,2,14,41,691,888.6242621308193,889.2142987112748,"[62, 0, 192]",192,l,0.06697615038137883,1,colour,0.06,3.6
61,20,1,2,14,42,692,889.7336569954641,890.4060257544043,"[83, 0, 171]",171,l,0.14937370724510401,1,colour,0.06,3.6
61,20,1,2,14,43,693,890.9215054500382,891.6220983448438,"[84, 0, 170]",170,l,0.17747378174681216,1,colour,0.06,3.6
61,20,1,2,14,44,694,892.1402380716754,892.8059910172597,"[94, 0, 160]",160,l,0.14269487862475216,1,colour,0.06,3.6
61,20,1,2,14,45,695,893.3139640215086,894.0140220742906,"[43, 0, 211]",211,a,0.1769700535805896,1,colour,0.06,3.6
61,20,1,2,14,46,696,894.5327190922108,895.1659656220581,"[95, 0, 159]",159,l,0.11005967541132122,1,colour,0.06,3.6
61,20,1,2,14,47,697,895.6734258397482,896.2379944137065,"[80, 0, 174]",174,l,0.04155579919461161,1,colour,0.06,3.6
61,20,1,2,14,48,698,896.7514907044824,897.3579809599323,"[70, 0, 184]",184,a,0.08336090249940753,0,colour,0.06,3.6
61,20,1,2,14,49,699,897.8765172890853,898.4459904185496,"[59, 0, 195]",195,a,0.04646035470068455,0,colour,0.06,3.6
61,20,1,2,14,50,700,898.954621538287,899.7019894701662,"[58, 0, 196]",196,a,0.2242854464566335,0,colour,0.06,3.6
61,20,1,2,15,1,701,904.3831500377273,905.1339964113431,"[93, 0, 161]",161,l,0.22696398838888854,1,colour,0.06,3.6
61,20,1,2,15,2,702,905.6496041067876,906.2219633345958,"[92, 0, 162]",162,l,0.049237751751206815,1,colour,0.06,3.6
61,20,1,2,15,3,703,906.7433570113499,907.3899174815742,"[82, 0, 172]",172,l,0.12354572617914528,1,colour,0.06,3.6
61,20,1,2,15,4,704,907.8995926852804,908.4939438408474,"[95, 0, 159]",159,l,0.07129387627355754,1,colour,0.06,3.6
61,20,1,2,15,5,705,909.0088812116301,909.5979942247504,"[91, 0, 163]",163,l,0.0658907126635313,1,colour,0.06,3.6
61,20,1,2,15,6,706,910.1183060084004,910.7019815932726,"[85, 0, 169]",169,l,0.06065060093533248,1,colour,0.06,3.6
61,20,1,2,15,7,707,911.2121309867362,911.7979215208907,"[51, 0, 203]",203,a,0.06290575920138508,0,colour,0.06,3.6
61,20,1,2,15,8,708,912.3057940945728,912.8300096729072,"[53, 0, 201]",201,a,0.0011004038387909532,0,colour,0.06,3.6
61,20,1,2,15,9,709,913.3527061898494,914.3179477667436,"[47, 0, 207]",207,a,0.4424458108842373,1,colour,0.06,3.6
61,20,1,2,15,10,710,914.8369712823769,915.3820208832622,"[50, 0, 204]",204,a,0.02185723267029971,1,colour,0.06,3.6
61,20,1,2,15,11,711,915.8996045006206,916.4779848353937,"[58, 0, 196]",196,a,0.05563773796893656,0,colour,0.06,3.6
61,20,1,2,15,12,712,916.9933089622064,917.5739657229278,"[64, 0, 190]",190,a,0.057600662927143276,0,colour,0.06,3.6
61,20,1,2,15,13,713,918.0898983406369,918.7420049404027,"[71, 0, 183]",183,l,0.12906349881086498,1,colour,0.06,3.6
61,20,1,2,15,14,714,919.2617578576319,919.8859262532787,"[77, 0, 177]",177,l,0.10115128860343248,1,colour,0.06,3.6
61,20,1,2,15,15,715,920.4024134052452,920.9419519288931,"[88, 0, 166]",166,l,0.01679356361273676,1,colour,0.06,3.6
61,20,1,2,15,16,716,921.4492321592988,922.0699351100484,"[81, 0, 173]",173,l,0.09603011806029826,1,colour,0.06,3.6
61,20,1,2,15,17,717,922.5914099189686,923.18991850561,"[59, 0, 195]",195,a,0.07543791667558253,0,colour,0.06,3.6
61,20,1,2,15,18,718,923.688419924234,924.3258762664627,"[83, 0, 171]",171,l,0.11427972780074924,1,colour,0.06,3.6
61,20,1,2,15,19,719,924.8446362996474,925.4459211018402,"[79, 0, 175]",175,l,0.07835709804203361,1,colour,0.06,3.6
61,20,1,2,15,20,720,925.9540098966099,926.5339648249792,"[96, 0, 158]",158,l,0.056882682954892516,1,colour,0.06,3.6
61,20,1,2,15,21,721,927.0478084872011,927.6539304973558,"[62, 0, 192]",192,a,0.08305567235220224,0,colour,0.06,3.6
61,20,1,2,15,22,722,928.1727878103266,928.7898701414233,"[61, 0, 193]",193,a,0.09399905800819397,0,colour,0.06,3.6
61,20,1,2,15,23,723,929.2994512160076,930.0538957602112,"[68, 0, 186]",186,l,0.23128604667726904,1,colour,0.06,3.6
61,20,1,2,15,24,724,930.5649801424006,931.2619075188413,"[80, 0, 174]",174,l,0.17369010986294597,1,colour,0.06,3.6
61,20,1,2,15,25,725,931.7679644657765,932.3818968220148,"[86, 0, 168]",168,l,0.09064585901796818,1,colour,0.06,3.6
61,20,1,2,15,26,726,932.8931501638144,933.5418830846902,"[32, 0, 222]",222,a,0.12562050321139395,1,colour,0.06,3.6
61,20,1,2,15,27,727,934.0511502646841,934.6862163597252,"[54, 0, 200]",200,a,0.1121895908145234,0,colour,0.06,3.6
61,20,1,2,15,28,728,935.2074485599296,935.8458954230882,"[99, 0, 155]",155,l,0.11535571317654103,1,colour,0.06,3.6
61,20,1,2,15,29,729,936.3636231877608,936.9898872342892,"[73, 0, 181]",181,l,0.10310121672227979,1,colour,0.06,3.6
61,20,1,2,15,30,730,937.5043535659788,938.1259099795716,"[90, 0, 164]",164,l,0.09847904823254794,1,colour,0.06,3.6
61,20,1,2,15,31,731,938.6448669354431,939.2379140693229,"[65, 0, 189]",189,a,0.07019938027951866,0,colour,0.06,3.6
61,20,1,2,15,32,732,939.7542803108227,940.3982327374397,"[66, 0, 188]",188,a,0.12083488900680095,0,colour,0.06,3.6
61,20,1,2,15,33,733,940.9004500864539,941.6298937248066,"[57, 0, 197]",197,a,0.20620637177489698,0,colour,0.06,3.6
61,20,1,2,15,34,734,942.1504619017942,942.8538723657839,"[67, 0, 187]",187,l,0.18027323414571583,1,colour,0.06,3.6
61,20,1,2,15,35,735,943.3692784124287,943.9259484189097,"[89, 0, 165]",165,l,0.03357570571824908,1,colour,0.06,3.6
61,20,1,2,15,36,736,944.447409049375,945.0059383994667,"[78, 0, 176]",176,l,0.03537360951304436,1,colour,0.06,3.6
61,20,1,2,15,37,737,945.5255109355785,946.093851759797,"[94, 0, 160]",160,l,0.046021611080504954,1,colour,0.06,3.6
61,20,1,2,15,38,738,946.6046888071578,947.2298812005902,"[74, 0, 180]",180,a,0.1020693420432508,0,colour,0.06,3.6
61,20,1,2,15,39,739,947.7463415710954,948.293920052587,"[97, 0, 157]",157,l,0.024472365388646722,1,colour,0.06,3.6
61,20,1,2,15,40,740,948.8088125250069,949.4938056011451,"[98, 0, 156]",156,l,0.16091810062061995,1,colour,0.06,3.6
61,20,1,2,15,41,741,950.012902372051,950.621877397527,"[15, 0, 239]",239,a,0.0858633954776451,1,colour,0.06,3.6
61,20,1,2,15,42,742,951.1379017813597,951.7978462964529,"[76, 0, 178]",178,l,0.13678404840175062,1,colour,0.06,3.6
61,20,1,2,15,43,743,952.3098002889892,952.9498654624913,"[69, 0, 185]",185,l,0.11691022058948874,1,colour,0.06,3.6
61,20,1,2,15,44,744,953.4659745229874,954.0618699460756,"[56, 0, 198]",198,l,0.07260144280735403,1,colour,0.06,3.6
61,20,1,2,15,45,745,954.5754272828344,955.2058633326087,"[63, 0, 191]",191,l,0.10723698616493493,1,colour,0.06,3.6
61,20,1,2,15,46,746,955.715998941334,956.3899659245508,"[60, 0, 194]",194,l,0.15077107038814574,1,colour,0.06,3.6
61,20,1,2,15,47,747,956.903561464278,957.4698515360942,"[70, 0, 184]",184,l,0.04317371570505202,1,colour,0.06,3.6
61,20,1,2,15,48,748,957.9816385383019,958.7578040446388,"[52, 0, 202]",202,a,0.25304875639267266,0,colour,0.06,3.6
61,20,1,2,15,49,749,959.278518338222,959.8938137930818,"[75, 0, 179]",179,l,0.09237562748603523,1,colour,0.06,3.6
61,20,1,2,15,50,750,960.4035756427329,960.9818319163751,"[72, 0, 182]",182,l,0.05519348045345396,1,colour,0.06,3.6
61,20,1,2,16,1,751,965.2965745698893,966.0299326367676,"[96, 0, 158]",158,l,0.20950640155933797,1,colour,0.06,3.5
61,20,1,2,16,2,752,966.5473898296477,967.1418158159358,"[85, 0, 169]",169,l,0.07203273009508848,1,colour,0.06,3.5
61,20,1,2,16,3,753,967.6567720911698,968.293808594346,"[93, 0, 161]",161,l,0.11430729692801833,1,colour,0.06,3.5
61,20,1,2,16,4,754,968.8129935866455,969.3898209894542,"[33, 0, 221]",221,a,0.05376894201617688,1,colour,0.06,3.5
61,20,1,2,16,5,755,969.8974765543826,970.5178352844669,"[78, 0, 176]",176,l,0.09728806000202894,1,colour,0.06,3.5
61,20,1,2,16,6,756,971.038111228263,971.957836497575,"[68, 0, 186]",186,l,0.396642783889547,1,colour,0.06,3.5
61,20,1,2,16,7,757,972.4755563853541,973.0538099019323,"[80, 0, 174]",174,l,0.05307459272444248,1,colour,0.06,3.5
61,20,1,2,16,8,758,973.5715719311265,974.1578492581611,"[83, 0, 171]",171,l,0.06393172615207732,1,colour,0.06,3.5
61,20,1,2,16,9,759,974.6652661528205,975.2858237747569,"[59, 0, 195]",195,a,0.09747749962843955,0,colour,0.06,3.5
61,20,1,2,16,10,760,975.8058504144428,976.3898217771202,"[92, 0, 162]",162,l,0.060875486582517624,1,colour,0.06,3.5
61,20,1,2,16,11,761,976.8903002991574,977.4618359965971,"[53, 0, 201]",201,a,0.04880176507867873,0,colour,0.06,3.5
61,20,1,2,16,12,762,977.9714997786796,978.7817766204244,"[66, 0, 188]",188,a,0.2871443380136043,0,colour,0.06,3.5
61,20,1,2,16,13,763,979.2996682247613,979.8538345566485,"[56, 0, 198]",198,a,0.031057458836585283,0,colour,0.06,3.5
61,20,1,2,16,14,764,980.3621553262929,981.0618864875287,"[69, 0, 185]",185,l,0.17680660774931312,1,colour,0.06,3.5
61,20,1,2,16,15,765,981.5809608092532,982.1578445319319,"[88, 0, 166]",166,l,0.054568054038099945,1,colour,0.06,3.5
61,20,1,2,16,16,766,982.6746113140834,983.2618515928043,"[73, 0, 181]",181,l,0.06414164567831904,1,colour,0.06,3.5
61,20,1,2,16,17,767,983.7683098680573,984.3338083107956,"[90, 0, 164]",164,l,0.0423789358465001,1,colour,0.06,3.5
61,20,1,2,16,18,768,984.8464964310406,985.4937721242895,"[77, 0, 177]",177,l,0.12424992164596915,1,colour,0.06,3.5
61,20,1,2,16,19,769,985.9933558298508,986.9097483801888,"[75, 0, 179]",179,l,0.39194814790971577,1,colour,0.06,3.5
61,20,1,2,16,20,770,987.4168876139447,988.0138353916118,"[84, 0, 170]",170,l,0.07390388916246593,1,colour,0.06,3.5
61,20,1,2,16,21,771,988.5263005953748,989.1578354735393,"[71, 0, 183]",183,l,0.10715152171906084,1,colour,0.06,3.5
61,20,1,2,16,22,772,989.6683952537132,990.3257557498291,"[76, 0, 178]",178,l,0.13430833676829934,1,colour,0.06,3.5
61,20,1,2,16,23,773,990.8403103029123,991.4697735547088,"[64, 0, 190]",190,l,0.10640676028560847,1,colour,0.06,3.5
61,20,1,2,16,24,774,991.9808339123847,992.7017850645352,"[89, 0, 165]",165,l,0.19785173144191504,1,colour,0.06,3.5
61,20,1,2,16,25,775,993.2152364568319,993.773876871448,"[79, 0, 175]",175,l,0.03538739413488656,1,colour,0.06,3.5
61,20,1,2,16,26,776,994.2933722138405,994.9340773859294,"[52, 0, 202]",202,a,0.11759905598592013,0,colour,0.06,3.5
61,20,1,2,16,27,777,995.4495866199723,996.1897400936577,"[8, 0, 246]",246,a,0.2173797630239278,1,colour,0.06,3.5
61,20,1,2,16,28,778,996.6996586937457,997.3258203404257,"[91, 0, 163]",163,l,0.10315281036309898,1,colour,0.06,3.5
61,20,1,2,16,29,779,997.8402287769131,998.4377586579649,"[54, 0, 200]",200,a,0.07447850948665291,0,colour,0.06,3.5
61,20,1,2,16,30,780,998.9496590875788,999.5897612825502,"[74, 0, 180]",180,l,0.11746790551114827,1,colour,0.06,3.5
61,20,1,2,16,31,781,1000.1058120538946,1000.733773967484,"[57, 0, 197]",197,a,0.10481050529051572,0,colour,0.06,3.5
61,20,1,2,16,32,782,1001.2472403260181,1001.8857576875016,"[99, 0, 155]",155,l,0.1154419652884826,1,colour,0.06,3.5
61,20,1,2,16,33,783,1002.4034787567798,1003.0457640362438,"[62, 0, 192]",192,a,0.11915159411728382,0,colour,0.06,3.5
61,20,1,2,16,34,784,1003.5597577536246,1004.1977449994301,"[50, 0, 204]",204,a,0.11495123407803476,1,colour,0.06,3.5
61,20,1,2,16,35,785,1004.7159288369585,1005.2857524887659,"[55, 0, 199]",199,a,0.04673053266014904,0,colour,0.06,3.5
61,20,1,2,16,36,786,1005.7940078801475,1006.3577517420053,"[98, 0, 156]",156,l,0.04066058888565749,1,colour,0.06,3.5
61,20,1,2,16,37,787,1006.8721842031227,1007.4457296929322,"[87, 0, 167]",167,l,0.05078044382389635,1,colour,0.06,3.5
61,20,1,2,16,38,788,1007.9659552245867,1008.6057372232899,"[60, 0, 194]",194,a,0.11656875675544143,0,colour,0.06,3.5
61,20,1,2,16,39,789,1009.1221582093276,1009.837703046971,"[51, 0, 203]",203,a,0.19246392766945064,0,colour,0.06,3.5
61,20,1,2,16,40,790,1010.3565583907766,1010.9817157319048,"[97, 0, 157]",157,l,0.10205004352610558,1,colour,0.06,3.5
61,20,1,2,16,41,791,1011.4971619507996,1012.1098107652506,"[81, 0, 173]",173,l,0.08957105525769293,1,colour,0.06,3.5
61,20,1,2,16,42,792,1012.6159838965395,1013.237788038794,"[94, 0, 160]",160,l,0.09949950140435249,1,colour,0.06,3.5
61,20,1,2,16,43,793,1013.756776896189,1014.3897449773503,"[82, 0, 172]",172,l,0.10983478976413608,1,colour,0.06,3.5
61,20,1,2,16,44,794,1014.8974533175351,1015.7017468614504,"[63, 0, 191]",191,a,0.2816131745930761,0,colour,0.06,3.5
61,20,1,2,16,45,795,1016.2099542036885,1016.8457579710521,"[65, 0, 189]",189,a,0.11273152194917202,0,colour,0.06,3.5
61,20,1,2,16,46,796,1017.3662012991263,1017.9578010514379,"[20, 0, 234]",234,a,0.06848654698114842,1,colour,0.06,3.5
61,20,1,2,16,47,797,1018.4754768285202,1019.0777273393469,"[95, 0, 159]",159,l,0.07912667165510356,1,colour,0.06,3.5
61,20,1,2,16,48,798,1019.5848772069439,1020.3657231709221,"[58, 0, 196]",196,a,0.2578788752434775,0,colour,0.06,3.5
61,20,1,2,16,49,799,1020.8817286500707,1021.5738333908375,"[61, 0, 193]",193,a,0.16889228636864573,0,colour,0.06,3.5
61,20,1,2,16,50,800,1022.0848740561632,1022.8616866504308,"[70, 0, 184]",184,l,0.25372380728367716,1,colour,0.06,3.5
