id,age,condition,counterbalance,block,trialinblock,trial,tstart,tend,trialstim,trialintensity,response,RT,accuracy,trialtype,colourfreq,credits
70,22,0,1,Practice,1,NA,6.3015613704919815e-06,13.883931546239182,"[85, 0, 169]",169,l,13.278236214770004,1,colour,0.5,4
70,22,0,1,Practice,2,NA,14.391704101581126,15.291947971330956,"[65, 0, 189]",189,a,0.3838823155965656,0,colour,0.5,4
70,22,0,1,Practice,3,NA,15.799983222037554,17.02797174709849,"[6, 0, 248]",248,l,0.7113686078228056,0,colour,0.5,4
70,22,0,1,Practice,4,NA,17.53558479459025,18.43597044888884,"[87, 0, 167]",167,l,0.38392760790884495,1,colour,0.5,4
70,22,0,1,Practice,5,NA,18.944225071929395,19.795963233569637,"[77, 0, 177]",177,l,0.3355735307559371,1,colour,0.5,4
70,22,0,1,Practice,6,NA,20.30427063209936,22.379992296220735,"[14, 0, 240]",240,a,1.5593026084825397,1,colour,0.5,4
70,22,0,1,Practice,7,NA,22.88775185472332,23.907958529423922,"[2, 0, 252]",252,a,0.503841576166451,1,colour,0.5,4
70,22,0,1,Practice,8,NA,24.416237571043894,25.40398540883325,"[73, 0, 181]",181,l,0.47129924362525344,1,colour,0.5,4
70,22,0,1,Practice,9,NA,25.91160751483403,26.875956947915256,"[47, 0, 207]",207,a,0.44795046374201775,1,colour,0.5,4
70,22,0,1,Practice,10,NA,27.384030401706696,28.323957429965958,"[40, 0, 214]",214,a,0.42338076047599316,1,colour,0.5,4
70,22,0,1,1,1,1,4.547044538427144,5.48797508678399,"[36, 0, 218]",218,a,0.42574462527409196,1,colour,0.5,4.0
70,22,0,1,1,2,2,5.996203716145828,6.943983250530437,"[19, 0, 235]",235,a,0.43139356188476086,1,colour,0.5,4.0
70,22,0,1,1,3,3,7.451597479637712,8.423986495705321,"[98, 0, 156]",156,l,0.45493808342143893,1,colour,0.5,4.0
70,22,0,1,1,4,4,8.931998509680852,9.919975959695876,"[92, 0, 162]",162,l,0.47154421592131257,1,colour,0.5,4.0
70,22,0,1,1,5,5,10.428474373649806,11.383996137185022,"[17, 0, 237]",237,a,0.43917320645414293,1,colour,0.5,4.0
70,22,0,1,1,6,6,11.891856914153323,12.839956645388156,"[93, 0, 161]",161,l,0.4315920602530241,1,colour,0.5,4.0
70,22,0,1,1,7,7,13.348271527094766,14.376079434063286,"[8, 0, 246]",246,a,0.5113431653007865,1,colour,0.5,4.0
70,22,0,1,1,8,8,14.883742894046009,15.847946210065857,"[56, 0, 198]",198,a,0.4472990420181304,0,colour,0.5,4.0
70,22,0,1,1,9,9,16.35611221776344,17.25594963808544,"[15, 0, 239]",239,a,0.38348689395934343,1,colour,0.5,4.0
70,22,0,1,1,10,10,17.764497282914817,18.68798398785293,"[88, 0, 166]",166,l,0.40672500315122306,1,colour,0.5,4.0
70,22,0,1,1,11,11,19.19596764468588,20.10396201442927,"[45, 0, 209]",209,a,0.39165959716774523,1,colour,0.5,4.0
70,22,0,1,1,12,12,20.612217031419277,21.495952836237848,"[46, 0, 208]",208,a,0.36713479249738157,1,colour,0.5,4.0
70,22,0,1,1,13,13,22.003557219170034,23.75198912038468,"[73, 0, 181]",181,l,1.2320187534205616,1,colour,0.5,4.0
70,22,0,1,1,14,14,24.260526919038966,25.23199669807218,"[79, 0, 175]",175,l,0.45469153579324484,1,colour,0.5,4.0
70,22,0,1,1,15,15,25.74011820112355,26.631945970701054,"[27, 0, 227]",227,a,0.3754638524260372,1,colour,0.5,4.0
70,22,0,1,1,16,16,27.139612187398598,28.12798584671691,"[44, 0, 210]",210,a,0.47214680071920156,1,colour,0.5,4.0
70,22,0,1,1,17,17,28.63595926365815,29.55997529788874,"[55, 0, 199]",199,a,0.40572935971431434,0,colour,0.5,4.0
70,22,0,1,1,18,18,30.068277182755992,30.976062419824302,"[43, 0, 211]",211,a,0.3913965078536421,1,colour,0.5,4.0
70,22,0,1,1,19,19,31.48470025556162,34.047997646499425,"[64, 0, 190]",190,l,2.0470153940841556,1,colour,0.5,4.0
70,22,0,1,1,20,20,34.55571466940455,35.49600285454653,"[51, 0, 203]",203,a,0.4240089450031519,0,colour,0.5,4.0
70,22,0,1,1,21,21,36.00406055455096,36.85597909777425,"[13, 0, 241]",241,a,0.3356361521873623,1,colour,0.5,4.0
70,22,0,1,1,22,22,37.364348330302164,38.29595890128985,"[50, 0, 204]",204,a,0.41522578010335565,1,colour,0.5,4.0
70,22,0,1,1,23,23,38.80364559823647,39.76800763444044,"[40, 0, 214]",214,a,0.4479575529694557,1,colour,0.5,4.0
70,22,0,1,1,24,24,40.27615001122467,41.16796320839785,"[82, 0, 172]",172,l,0.37558121839538217,1,colour,0.5,4.0
70,22,0,1,1,25,25,41.67653487785719,42.65596862160601,"[72, 0, 182]",182,l,0.46283233747817576,1,colour,0.5,4.0
70,22,0,1,1,26,26,43.163888475392014,44.1361085313838,"[75, 0, 179]",179,l,0.45550719113089144,1,colour,0.5,4.0
70,22,0,1,1,27,27,44.64430053299293,45.64801017078571,"[2, 0, 252]",252,a,0.4870802683290094,1,colour,0.5,4.0
70,22,0,1,1,28,28,46.15571104595438,46.99999566772021,"[49, 0, 205]",205,a,0.3277946738526225,1,colour,0.5,4.0
70,22,0,1,1,29,29,47.508052974008024,48.33602605992928,"[25, 0, 229]",229,a,0.3116706090513617,1,colour,0.5,4.0
70,22,0,1,1,30,30,48.84430943406187,51.16000830219127,"[60, 0, 194]",194,l,1.7989863972179592,1,colour,0.5,4.0
70,22,0,1,1,31,31,51.66848584241234,52.6799719738774,"[86, 0, 168]",168,l,0.4944719742052257,1,colour,0.5,4.0
70,22,0,1,1,32,32,53.18746804934926,53.99198365374468,"[84, 0, 170]",170,l,0.2882406967692077,1,colour,0.5,4.0
70,22,0,1,1,33,33,54.500200861599296,55.42402548668906,"[53, 0, 201]",201,a,0.40671003703027964,0,colour,0.5,4.0
70,22,0,1,1,34,34,55.9320989404805,56.847991896327585,"[90, 0, 164]",164,l,0.39934983872808516,1,colour,0.5,4.0
70,22,0,1,1,35,35,57.35645959014073,58.159987822175026,"[38, 0, 216]",216,a,0.2871568319387734,1,colour,0.5,4.0
70,22,0,1,1,36,36,58.66782457451336,59.520029444014654,"[76, 0, 178]",178,l,0.3359342939220369,1,colour,0.5,4.0
70,22,0,1,1,37,37,60.028028066968545,60.89596354868263,"[3, 0, 251]",251,a,0.35134707228280604,1,colour,0.5,4.0
70,22,0,1,1,38,38,61.40438831341453,62.28799178590998,"[81, 0, 173]",173,l,0.3671473953872919,1,colour,0.5,4.0
70,22,0,1,1,39,39,62.796750138513744,64.92006339342333,"[65, 0, 189]",189,l,1.6068918362725526,1,colour,0.5,4.0
70,22,0,1,1,40,40,65.42823885357939,66.62399618444033,"[58, 0, 196]",196,a,0.6791913707274944,0,colour,0.5,4.0
70,22,0,1,1,41,41,67.13200859213248,68.08041158504784,"[32, 0, 222]",222,a,0.43211272498592734,1,colour,0.5,4.0
70,22,0,1,1,42,42,68.58921247301623,69.60798594122753,"[23, 0, 231]",231,a,0.5023713482078165,1,colour,0.5,4.0
70,22,0,1,1,43,43,70.11568051506765,71.04801458166912,"[1, 0, 253]",253,a,0.41588783566839993,1,colour,0.5,4.0
70,22,0,1,1,44,44,71.55611048499122,73.40000677411444,"[66, 0, 188]",188,l,1.3275871167425066,1,colour,0.5,4.0
70,22,0,1,1,45,45,73.9083342589438,74.7360757633578,"[47, 0, 207]",207,a,0.3111972059123218,1,colour,0.5,4.0
70,22,0,1,1,46,46,75.2436045280192,76.0639901664108,"[7, 0, 247]",247,a,0.303896478144452,1,colour,0.5,4.0
70,22,0,1,1,47,47,76.57188402651809,79.60802020598203,"[62, 0, 192]",192,a,2.519750994630158,0,colour,0.5,4.0
70,22,0,1,1,48,48,80.1163138197735,81.03199449251406,"[6, 0, 248]",248,a,0.3990450017154217,1,colour,0.5,4.0
70,22,0,1,1,49,49,81.53967094933614,82.42397113586776,"[21, 0, 233]",233,a,0.3678996416274458,1,colour,0.5,4.0
70,22,0,1,1,50,50,82.93199850968085,83.83198401611298,"[34, 0, 220]",220,a,0.3835975646506995,1,colour,0.5,4.0
70,22,0,1,2,1,51,98.6272686526645,99.24797503952868,"[33, 0, 221]",221,a,0.10552361444570124,1,colour,0.5,4.0
70,22,0,1,2,2,52,99.75616979808547,100.71996902790852,"[66, 0, 188]",188,l,0.4474412202835083,1,colour,0.5,4.0
70,22,0,1,2,3,53,101.2285678726621,102.12803507759236,"[22, 0, 232]",232,a,0.3829835585784167,1,colour,0.5,4.0
70,22,0,1,2,4,54,102.63593484531157,103.57609266741201,"[82, 0, 172]",172,l,0.42179592326283455,1,colour,0.5,4.0
70,22,0,1,2,5,55,104.08435359201394,105.0399757863488,"[93, 0, 161]",161,l,0.4392133788205683,1,colour,0.5,4.0
70,22,0,1,2,6,56,105.54771880316548,106.45599949895404,"[23, 0, 231]",231,a,0.39184391708113253,1,colour,0.5,4.0
70,22,0,1,2,7,57,106.96406074380502,108.04002068471164,"[85, 0, 169]",169,l,0.5594522701576352,1,colour,0.5,4.0
70,22,0,1,2,8,58,108.5486636403948,109.42400500667281,"[54, 0, 200]",200,a,0.3589660276193172,0,colour,0.5,4.0
70,22,0,1,2,9,59,109.9319366759155,110.88799367635511,"[99, 0, 155]",155,l,0.43913500336930156,1,colour,0.5,4.0
70,22,0,1,2,10,60,111.39634676114656,112.32799632311799,"[37, 0, 217]",217,a,0.41495087556540966,1,colour,0.5,4.0
70,22,0,1,2,11,61,112.83574839844368,113.86401119781658,"[64, 0, 190]",190,l,0.511770882178098,1,colour,0.5,4.0
70,22,0,1,2,12,62,114.37232095957734,115.33598313084804,"[80, 0, 174]",174,l,0.4473565435037017,1,colour,0.5,4.0
70,22,0,1,2,13,63,115.84476905246265,117.34410502784885,"[74, 0, 180]",180,l,0.9828231844585389,1,colour,0.5,4.0
70,22,0,1,2,14,64,117.8524648079183,118.736111209495,"[6, 0, 248]",248,a,0.3672537337988615,1,colour,0.5,4.0
70,22,0,1,2,15,65,119.24481048504822,120.33603354310617,"[63, 0, 191]",191,a,0.5745865993667394,0,colour,0.5,4.0
70,22,0,1,2,16,66,120.8443566954229,121.76001531281509,"[91, 0, 163]",163,l,0.39812418911606073,1,colour,0.5,4.0
70,22,0,1,2,17,67,122.26771697588265,123.1440858868882,"[26, 0, 228]",228,a,0.35998530173674226,1,colour,0.5,4.0
70,22,0,1,2,18,68,123.65206087916158,124.54402295011096,"[4, 0, 250]",250,a,0.3756265107076615,1,colour,0.5,4.0
70,22,0,1,2,19,69,125.05243589961901,125.90401573502459,"[51, 0, 203]",203,a,0.33518637996166945,0,colour,0.5,4.0
70,22,0,1,2,20,70,126.41174063482322,127.28799572447315,"[9, 0, 245]",245,a,0.3598391846753657,1,colour,0.5,4.0
70,22,0,1,2,21,71,127.79603097517975,128.84015159937553,"[65, 0, 189]",189,a,0.5276783315930516,0,colour,0.5,4.0
70,22,0,1,2,22,72,129.34851453010924,130.32004732452333,"[53, 0, 201]",201,a,0.4550660834647715,0,colour,0.5,4.0
70,22,0,1,2,23,73,130.82799120317213,131.72001353255473,"[44, 0, 210]",210,a,0.37545715691521764,1,colour,0.5,4.0
70,22,0,1,2,24,74,132.22830675262958,133.14398545608856,"[1, 0, 253]",253,a,0.39914582623168826,1,colour,0.5,4.0
70,22,0,1,2,25,75,133.65161977149546,134.48797981301323,"[45, 0, 209]",209,a,0.3199929737020284,1,colour,0.5,4.0
70,22,0,1,2,26,76,134.99626318691298,135.85597988544032,"[88, 0, 166]",166,l,0.34253988275304437,1,colour,0.5,4.0
70,22,0,1,2,27,77,136.36425262549892,137.25600635190494,"[94, 0, 160]",160,l,0.375363421626389,1,colour,0.5,4.0
70,22,0,1,2,28,78,137.76464182441123,138.62401508912444,"[48, 0, 206]",206,a,0.34261550148949027,1,colour,0.5,4.0
70,22,0,1,2,29,79,139.1321031153202,140.00797499227338,"[20, 0, 234]",234,a,0.3595737323630601,1,colour,0.5,4.0
70,22,0,1,2,30,80,140.5162233139854,143.79202201450244,"[72, 0, 182]",182,l,2.7590744141489267,1,colour,0.5,4.0
70,22,0,1,2,31,81,144.3010040714871,145.19205084396526,"[30, 0, 224]",224,a,0.37480691680684686,1,colour,0.5,4.0
70,22,0,1,2,32,82,145.70020424877293,146.64006471680477,"[11, 0, 243]",243,a,0.42421177588403225,1,colour,0.5,4.0
70,22,0,1,2,33,83,147.14879077393562,148.06413825275376,"[47, 0, 207]",207,a,0.39901428180746734,1,colour,0.5,4.0
70,22,0,1,2,34,84,148.5728686421644,149.5440300393384,"[87, 0, 167]",167,l,0.4546513631939888,1,colour,0.5,4.0
70,22,0,1,2,35,85,150.05241620726883,150.8399846085813,"[40, 0, 214]",214,a,0.2691722377203405,1,colour,0.5,4.0
70,22,0,1,2,36,86,151.3487370533403,153.68815058469772,"[58, 0, 196]",196,a,1.8230996327474713,0,colour,0.5,4.0
70,22,0,1,2,37,87,154.19733783579431,155.10409552813508,"[52, 0, 202]",202,a,0.3902972829528153,0,colour,0.5,4.0
70,22,0,1,2,38,88,155.6127191851847,156.4719947760459,"[24, 0, 230]",230,a,0.342827390646562,1,colour,0.5,4.0
70,22,0,1,2,39,89,156.97999615618028,157.90400982717983,"[83, 0, 171]",171,l,0.40763084939680994,1,colour,0.5,4.0
70,22,0,1,2,40,90,158.4124030843377,159.33600636781193,"[18, 0, 236]",236,a,0.4070518957450986,1,colour,0.5,4.0
70,22,0,1,2,41,91,159.8438269724138,160.84009488555603,"[81, 0, 173]",173,l,0.4794585560448468,1,colour,0.5,4.0
70,22,0,1,2,42,92,161.34843930555508,162.3521020754706,"[76, 0, 178]",178,l,0.4873039729427546,1,colour,0.5,4.0
70,22,0,1,2,43,93,162.86068398482166,163.72003164957277,"[28, 0, 226]",226,a,0.3428888306953013,1,colour,0.5,4.0
70,22,0,1,2,44,94,164.2279605618678,165.1440260221716,"[39, 0, 215]",215,a,0.3993281770963222,1,colour,0.5,4.0
70,22,0,1,2,45,95,165.65233893459663,166.55999617185444,"[42, 0, 212]",212,a,0.3910979724023491,1,colour,0.5,4.0
70,22,0,1,2,46,96,167.06769625958987,167.9680082644336,"[0, 0, 254]",254,a,0.38378188479691744,1,colour,0.5,4.0
70,22,0,1,2,47,97,168.4761845122557,169.4240373019129,"[96, 0, 158]",158,l,0.4315822140779346,1,colour,0.5,4.0
70,22,0,1,2,48,98,169.9324876666069,170.991998226149,"[69, 0, 185]",185,l,0.5431135592516512,1,colour,0.5,4.0
70,22,0,1,2,49,99,171.50000275694765,172.4480115098413,"[27, 0, 227]",227,a,0.4315759127493948,1,colour,0.5,4.0
70,22,0,1,2,50,100,172.95634962827899,173.8640690932516,"[35, 0, 219]",219,a,0.39138941862620413,1,colour,0.5,4.0
70,22,0,1,3,1,101,181.73898274241947,182.28804534906521,"[42, 0, 212]",212,a,0.03373214206658304,1,colour,0.5,4.0
70,22,0,1,3,2,102,182.79712192923762,183.71199836791493,"[45, 0, 209]",209,a,0.3987094445619732,1,colour,0.5,4.0
70,22,0,1,3,3,103,184.22020257869735,185.20002819946967,"[15, 0, 239]",239,a,0.46344791911542416,1,colour,0.5,4.0
70,22,0,1,3,4,104,185.70760146854445,186.55203338875435,"[43, 0, 211]",211,a,0.3281337753869593,1,colour,0.5,4.0
70,22,0,1,3,5,105,187.05991976568475,188.0480118249543,"[47, 0, 207]",207,a,0.47167654847726226,1,colour,0.5,4.0
70,22,0,1,3,6,106,188.55635939561762,189.46403671917506,"[2, 0, 252]",252,a,0.39104677247814834,1,colour,0.5,4.0
70,22,0,1,3,7,107,189.97170569282025,191.26408216892742,"[74, 0, 180]",180,l,0.7759920789394528,1,colour,0.5,4.0
70,22,0,1,3,8,108,191.7724179243669,192.72006276343018,"[6, 0, 248]",248,a,0.4313407866284251,1,colour,0.5,4.0
70,22,0,1,3,9,109,193.22780971881002,194.1840727007948,"[96, 0, 158]",158,l,0.4398868556600064,1,colour,0.5,4.0
70,22,0,1,3,10,110,194.69224382867105,195.6240438397508,"[90, 0, 164]",164,l,0.415580635657534,1,colour,0.5,4.0
70,22,0,1,3,11,111,196.1315958413761,198.31999336765148,"[62, 0, 192]",192,l,1.6719619291834533,1,colour,0.5,4.0
70,22,0,1,3,12,112,198.8281975784339,199.7120168786496,"[52, 0, 202]",202,a,0.3669150259811431,0,colour,0.5,4.0
70,22,0,1,3,13,113,200.2205448311288,201.20001323334873,"[66, 0, 188]",188,a,0.4631139375269413,0,colour,0.5,4.0
70,22,0,1,3,14,114,201.70791930239648,203.80002969596535,"[70, 0, 184]",184,a,1.5757342672441155,0,colour,0.5,4.0
70,22,0,1,3,15,115,204.30846233759075,205.240092207212,"[10, 0, 244]",244,a,0.41524980473332107,1,colour,0.5,4.0
70,22,0,1,3,16,116,205.74787657801062,206.6240438397508,"[35, 0, 219]",219,a,0.3597048830706626,1,colour,0.5,4.0
70,22,0,1,3,17,117,207.13213186594658,208.1760433577001,"[31, 0, 223]",223,a,0.5274940114468336,1,colour,0.5,4.0
70,22,0,1,3,18,118,208.68361268844455,209.68809623387642,"[81, 0, 173]",173,l,0.4880396774969995,1,colour,0.5,4.0
70,22,0,1,3,19,119,210.1963063525036,211.02398011554033,"[23, 0, 231]",231,a,0.3114327259827405,1,colour,0.5,4.0
70,22,0,1,3,20,120,211.53236352629028,212.47204321902245,"[54, 0, 200]",200,a,0.42298533860594034,0,colour,0.5,4.0
70,22,0,1,3,21,121,212.97981538064778,213.86402340698987,"[99, 0, 155]",155,l,0.36760701378807425,1,colour,0.5,4.0
70,22,0,1,3,22,122,214.37211891636252,215.26402781810611,"[20, 0, 234]",234,a,0.37561193853616714,1,colour,0.5,4.0
70,22,0,1,3,23,123,215.77244273666292,216.7360422865022,"[21, 0, 233]",233,a,0.44728840817697346,1,colour,0.5,4.0
70,22,0,1,3,24,124,217.24387510027736,218.08802699577063,"[51, 0, 203]",203,a,0.32772181229665875,0,colour,0.5,4.0
70,22,0,1,3,25,125,218.59623199445195,219.76002279575914,"[60, 0, 194]",194,a,0.6473748965654522,0,colour,0.5,4.0
70,22,0,1,3,26,126,220.26771736959927,221.1600252375938,"[29, 0, 225]",225,a,0.3759376492816955,1,colour,0.5,4.0
70,22,0,1,3,27,127,221.66810341761447,222.49606744549237,"[12, 0, 242]",242,a,0.3113417476415634,1,colour,0.5,4.0
70,22,0,1,3,28,128,223.004338609986,223.89600017643534,"[3, 0, 251]",251,a,0.37535987701267004,1,colour,0.5,4.0
70,22,0,1,3,29,129,224.40372940874659,225.2800270335283,"[24, 0, 230]",230,a,0.3609277755022049,1,colour,0.5,4.0
70,22,0,1,3,30,130,225.7880362905562,226.7360379542224,"[38, 0, 216]",216,a,0.4314672111067921,1,colour,0.5,4.0
70,22,0,1,3,31,131,227.24444342055358,228.40004970342852,"[78, 0, 176]",176,l,0.6391521750483662,1,colour,0.5,4.0
70,22,0,1,3,32,132,228.9080400557723,229.77602555579506,"[16, 0, 238]",238,a,0.35149397677741945,1,colour,0.5,4.0
70,22,0,1,3,33,133,230.284370763693,231.32002526917495,"[73, 0, 181]",181,l,0.5190349821932614,1,colour,0.5,4.0
70,22,0,1,3,34,134,231.82897069863975,232.7360367726069,"[40, 0, 214]",214,a,0.3906135414727032,1,colour,0.5,4.0
70,22,0,1,3,35,135,233.2441996296402,234.1281087268144,"[14, 0, 240]",240,a,0.36708438000641763,1,colour,0.5,4.0
70,22,0,1,3,36,136,234.63657130068168,235.67202376318164,"[61, 0, 193]",193,a,0.5192657762672752,0,colour,0.5,4.0
70,22,0,1,3,37,137,236.18000663234852,237.18402347015217,"[63, 0, 191]",191,a,0.48750128992833197,0,colour,0.5,4.0
70,22,0,1,3,38,138,237.69251833949238,238.7042269941885,"[71, 0, 183]",183,l,0.4953014145139605,1,colour,0.5,4.0
70,22,0,1,3,39,139,239.21295029413886,240.10398879577406,"[48, 0, 206]",206,a,0.374622990610078,1,colour,0.5,4.0
70,22,0,1,3,40,140,240.61226547439583,241.6481078446377,"[87, 0, 167]",167,l,0.5193177638575435,1,colour,0.5,4.0
70,22,0,1,3,41,141,242.15574058447964,243.05603014025837,"[53, 0, 201]",201,a,0.3828252323437482,0,colour,0.5,4.0
70,22,0,1,3,42,142,243.564256406622,244.5680109425448,"[30, 0, 224]",224,a,0.4874898681882769,1,colour,0.5,4.0
70,22,0,1,3,43,143,245.07555506727658,245.96003327216022,"[25, 0, 229]",229,a,0.36785750021226704,1,colour,0.5,4.0
70,22,0,1,3,44,144,246.46786017832346,247.39203572040424,"[93, 0, 161]",161,l,0.40784864663146436,1,colour,0.5,4.0
70,22,0,1,3,45,145,247.90027183271013,248.78400251758285,"[7, 0, 247]",247,a,0.367414029315114,1,colour,0.5,4.0
70,22,0,1,3,46,146,249.29175459290855,250.2642054427415,"[82, 0, 172]",172,l,0.4551322495099157,1,colour,0.5,4.0
70,22,0,1,3,47,147,250.7720095058903,251.68803085549735,"[86, 0, 168]",168,l,0.39970548171550035,1,colour,0.5,4.0
70,22,0,1,3,48,148,252.19640245102346,253.18402819614857,"[76, 0, 178]",178,l,0.4712141726631671,1,colour,0.5,4.0
70,22,0,1,3,49,149,253.69180862861685,254.64803143846802,"[79, 0, 175]",175,l,0.43963518808595836,1,colour,0.5,4.0
70,22,0,1,3,50,150,255.1561773600988,256.09607248660177,"[88, 0, 166]",166,l,0.42338272952474654,1,colour,0.5,4.0
70,22,0,1,4,1,151,261.6276325667277,262.49608831922524,"[26, 0, 228]",228,a,0.35064208740368485,1,colour,0.5,3.9
70,22,0,1,4,2,152,263.00471512717195,263.8720499933697,"[89, 0, 165]",165,l,0.3507740260101855,1,colour,0.5,3.9
70,22,0,1,4,3,153,264.38006909633987,265.25604849355295,"[92, 0, 162]",162,l,0.35905464296229184,1,colour,0.5,3.9
70,22,0,1,4,4,154,265.7643330490682,266.5920808550436,"[21, 0, 233]",233,a,0.310849045868963,1,colour,0.5,3.9
70,22,0,1,4,5,155,267.10074468445964,267.92001810111105,"[59, 0, 195]",195,a,0.30252392403781414,0,colour,0.5,3.9
70,22,0,1,4,6,156,268.4281136104837,269.26407704898156,"[51, 0, 203]",203,a,0.3195715583860874,0,colour,0.5,3.9
70,22,0,1,4,7,157,269.7722182443831,270.58410980110057,"[33, 0, 221]",221,a,0.2950510857626796,1,colour,0.5,3.9
70,22,0,1,4,8,158,271.09258891665377,271.93606182117946,"[2, 0, 252]",252,a,0.3267809133976698,1,colour,0.5,3.9
70,22,0,1,4,9,159,272.4439407151658,273.20807329635136,"[34, 0, 220]",220,a,0.24774385173805058,1,colour,0.5,3.9
70,22,0,1,4,10,160,273.71633028262295,274.6001405243296,"[65, 0, 189]",189,a,0.36762473708949983,0,colour,0.5,3.9
70,22,0,1,4,11,161,275.1083652151283,275.9521012089681,"[57, 0, 197]",197,a,0.32709008269011974,0,colour,0.5,3.9
70,22,0,1,4,12,162,276.460739438422,277.48004696215503,"[37, 0, 217]",217,a,0.5028640497475863,1,colour,0.5,3.9
70,22,0,1,4,13,163,277.9881436531432,279.5761115718633,"[66, 0, 188]",188,l,1.0716713494621217,1,colour,0.5,3.9
70,22,0,1,4,14,164,280.08414170262404,280.94403011817485,"[42, 0, 212]",212,a,0.3434075261466205,1,colour,0.5,3.9
70,22,0,1,4,15,165,281.4514493935276,282.3120427937247,"[29, 0, 225]",225,a,0.3440215322189033,1,colour,0.5,3.9
70,22,0,1,4,16,166,282.8197791152634,283.6560119446367,"[52, 0, 202]",202,a,0.3179319764021784,0,colour,0.5,3.9
70,22,0,1,4,17,167,284.16403971239924,285.4400140682701,"[76, 0, 178]",178,l,0.7595348204486072,1,colour,0.5,3.9
70,22,0,1,4,18,168,285.94780001440085,286.8080417099409,"[15, 0, 239]",239,a,0.3438368185888976,1,colour,0.5,3.9
70,22,0,1,4,19,169,287.31612225295976,288.2480392365251,"[95, 0, 159]",159,l,0.41549595864489675,1,colour,0.5,3.9
70,22,0,1,4,20,170,288.7554553609807,289.61605348740704,"[31, 0, 223]",223,a,0.34424051083624363,1,colour,0.5,3.9
70,22,0,1,4,21,171,290.12382761831395,291.048006311059,"[96, 0, 158]",158,l,0.40790811739861965,1,colour,0.5,3.9
70,22,0,1,4,22,172,291.5561246634461,292.64805822004564,"[94, 0, 160]",160,l,0.5756373810581863,1,colour,0.5,3.9
70,22,0,1,4,23,173,293.15565945231356,294.2720228966791,"[1, 0, 253]",253,a,0.5999475396238267,1,colour,0.5,3.9
70,22,0,1,4,24,174,294.7802267137449,295.72806217405014,"[22, 0, 232]",232,a,0.4313529955688864,1,colour,0.5,3.9
70,22,0,1,4,25,175,296.23566301260144,297.0720096633304,"[9, 0, 245]",245,a,0.32007804443128407,1,colour,0.5,3.9
70,22,0,1,4,26,176,297.5799673264846,298.44005463435315,"[49, 0, 205]",205,a,0.3434268245473504,1,colour,0.5,3.9
70,22,0,1,4,27,177,298.94823954673484,301.0960472803563,"[39, 0, 215]",215,a,1.6313114841468632,1,colour,0.5,3.9
70,22,0,1,4,28,178,301.60383007582277,302.55200109328143,"[19, 0, 235]",235,a,0.4319236788433045,1,colour,0.5,3.9
70,22,0,1,4,29,179,303.06023051030934,303.9600238199346,"[91, 0, 163]",163,l,0.3834030048456043,1,colour,0.5,3.9
70,22,0,1,4,30,180,304.4675009904895,305.57602335046977,"[73, 0, 181]",181,l,0.5921352058649063,1,colour,0.5,3.9
70,22,0,1,4,31,181,306.08407593052834,307.04803033568896,"[77, 0, 177]",177,l,0.44721318362280726,1,colour,0.5,3.9
70,22,0,1,4,32,182,307.5554964786861,308.48804204072803,"[54, 0, 200]",200,a,0.41632106667384505,0,colour,0.5,3.9
70,22,0,1,4,33,183,308.9958669776097,309.9120147519279,"[58, 0, 196]",196,a,0.39808677369728684,0,colour,0.5,3.9
70,22,0,1,4,34,184,310.4204828396905,311.3120605167933,"[14, 0, 240]",240,a,0.3755721601191908,1,colour,0.5,3.9
70,22,0,1,4,35,185,311.81958809983917,312.7601177126635,"[88, 0, 166]",166,l,0.42221812601201236,1,colour,0.5,3.9
70,22,0,1,4,36,186,313.26797021902166,314.11203507427126,"[8, 0, 246]",246,a,0.3275284336414188,1,colour,0.5,3.9
70,22,0,1,4,37,187,314.62029324215837,315.5440520949196,"[87, 0, 167]",167,l,0.40743904653936625,1,colour,0.5,3.9
70,22,0,1,4,38,188,316.0517021641135,316.9440403582994,"[7, 0, 247]",247,a,0.37599357566796243,1,colour,0.5,3.9
70,22,0,1,4,39,189,317.45196336274967,318.66405310318805,"[67, 0, 187]",187,l,0.6957246416714042,1,colour,0.5,3.9
70,22,0,1,4,40,190,319.17161101219244,320.20802682242356,"[71, 0, 183]",183,l,0.5200199915561825,1,colour,0.5,3.9
70,22,0,1,4,41,191,320.7162160673179,321.68004483543336,"[13, 0, 241]",241,a,0.44743058644235134,1,colour,0.5,3.9
70,22,0,1,4,42,192,322.1875172799919,323.09609454195015,"[85, 0, 169]",169,l,0.392141270916909,1,colour,0.5,3.9
70,22,0,1,4,43,193,323.6038525251206,324.58406057045795,"[45, 0, 209]",209,a,0.46386224520392716,1,colour,0.5,3.9
70,22,0,1,4,44,194,325.09229865204543,326.0960240436252,"[81, 0, 173]",173,l,0.487340206746012,1,colour,0.5,3.9
70,22,0,1,4,45,195,326.6037339773029,327.6320464015007,"[68, 0, 186]",186,a,0.5119878917466849,0,colour,0.5,3.9
70,22,0,1,4,46,196,328.14026321540587,329.07202896196395,"[10, 0, 244]",244,a,0.4155235281214118,1,colour,0.5,3.9
70,22,0,1,4,47,197,329.57961680344306,330.59206273802556,"[35, 0, 219]",219,a,0.49600994377397,1,colour,0.5,3.9
70,22,0,1,4,48,198,331.1001231952105,332.14401735761203,"[98, 0, 156]",156,l,0.5273530145641416,1,colour,0.5,3.9
70,22,0,1,4,49,199,332.65158550674096,333.63209681375884,"[18, 0, 236]",236,a,0.4640402637887746,1,colour,0.5,3.9
70,22,0,1,4,50,200,334.14001115364954,335.01604844629765,"[3, 0, 251]",251,a,0.3597411171067506,1,colour,0.5,3.9
70,22,0,1,5,1,201,340.12294815969653,341.928061228944,"[36, 0, 218]",218,a,1.2900350601412356,1,colour,0.5,3.9
70,22,0,1,5,2,202,342.43601731653325,343.36806702637114,"[10, 0, 244]",244,a,0.41374137392267585,1,colour,0.5,3.9
70,22,0,1,5,3,203,343.87636536639184,344.76006296812557,"[94, 0, 160]",160,l,0.36740142619237304,1,colour,0.5,3.9
70,22,0,1,5,4,204,345.2689418375958,346.1520490637049,"[48, 0, 206]",206,a,0.36702530295588076,1,colour,0.5,3.9
70,22,0,1,5,5,205,346.6601170038339,347.6320664875675,"[80, 0, 174]",174,l,0.45537249580956995,1,colour,0.5,3.9
70,22,0,1,5,6,206,348.14044320303947,348.9760624198243,"[19, 0, 235]",235,a,0.31933249346911907,1,colour,0.5,3.9
70,22,0,1,5,7,207,349.48371012602,350.4320304112043,"[23, 0, 231]",231,a,0.43199732806533575,1,colour,0.5,3.9
70,22,0,1,5,8,208,350.94032678217627,351.9200480335858,"[92, 0, 162]",162,l,0.4635369284078479,1,colour,0.5,3.9
70,22,0,1,5,9,209,352.42852714890614,353.8000300899148,"[70, 0, 184]",184,l,0.8549515530467033,1,colour,0.5,3.9
70,22,0,1,5,10,210,354.30835796846077,355.2880733120255,"[83, 0, 171]",171,l,0.46338766044937074,1,colour,0.5,3.9
70,22,0,1,5,11,211,355.795791516779,356.73602535109967,"[50, 0, 204]",204,a,0.4237982372287661,1,colour,0.5,3.9
70,22,0,1,5,12,212,357.24416221422143,358.2402974010911,"[17, 0, 237]",237,a,0.4797015590593219,1,colour,0.5,3.9
70,22,0,1,5,13,213,358.74854532885365,359.6401269445196,"[22, 0, 232]",232,a,0.3750822152942419,1,colour,0.5,3.9
70,22,0,1,5,14,214,360.14794951840304,361.1200486635789,"[31, 0, 223]",223,a,0.45541030494496226,1,colour,0.5,3.9
70,22,0,1,5,15,215,361.6284041113686,362.59206234430894,"[88, 0, 166]",166,l,0.44669054960832,1,colour,0.5,3.9
70,22,0,1,5,16,216,363.09974234574474,364.2401552225929,"[49, 0, 205]",205,a,0.6239115074276924,1,colour,0.5,3.9
70,22,0,1,5,17,217,364.7483484058175,365.6240812551696,"[59, 0, 195]",195,a,0.3592677137348801,0,colour,0.5,3.9
70,22,0,1,5,18,218,366.1326525306795,367.15208844840527,"[32, 0, 222]",222,a,0.5027616496663541,1,colour,0.5,3.9
70,22,0,1,5,19,219,367.6602292500902,368.74406020808965,"[64, 0, 190]",190,a,0.5672803579363972,0,colour,0.5,3.9
70,22,0,1,5,20,220,369.25170358177274,370.1601985299494,"[21, 0, 233]",233,a,0.39118383079767227,1,colour,0.5,3.9
70,22,0,1,5,21,221,370.66816958389245,371.76017797132954,"[24, 0, 230]",230,a,0.5758150056935847,1,colour,0.5,3.9
70,22,0,1,5,22,222,372.26858619437553,373.1760532038752,"[71, 0, 183]",183,l,0.3909329508896917,1,colour,0.5,3.9
70,22,0,1,5,23,223,373.6839383994229,374.624128122814,"[95, 0, 159]",159,l,0.42382698808796704,1,colour,0.5,3.9
70,22,0,1,5,24,224,375.132358327508,376.08014416345395,"[82, 0, 172]",172,l,0.4312655618414283,1,colour,0.5,3.9
70,22,0,1,5,25,225,376.5877579988446,377.53606961946934,"[16, 0, 238]",238,a,0.43197881733067334,1,colour,0.5,3.9
70,22,0,1,5,26,226,378.04421790409833,379.04804490786046,"[18, 0, 236]",236,a,0.48724213894456625,1,colour,0.5,3.9
70,22,0,1,5,27,227,379.55564574641176,380.44002942810766,"[86, 0, 168]",168,l,0.3679595061112195,1,colour,0.5,3.9
70,22,0,1,5,28,228,380.94789650663733,381.93607048597187,"[98, 0, 156]",156,l,0.4717860375531018,1,colour,0.5,3.9
70,22,0,1,5,29,229,382.44443184137344,384.8080641592387,"[73, 0, 181]",181,a,1.8467367084231228,0,colour,0.5,3.9
70,22,0,1,5,30,230,385.3160584499128,386.5361200317275,"[45, 0, 209]",209,a,0.703582267742604,1,colour,0.5,3.9
70,22,0,1,5,31,231,387.04377640248276,388.0560317155905,"[14, 0, 240]",240,a,0.49569171597249806,1,colour,0.5,3.9
70,22,0,1,5,32,232,388.56421938491985,392.71207950031385,"[69, 0, 185]",185,l,3.631397736724466,1,colour,0.5,3.9
70,22,0,1,5,33,233,393.2196677355096,394.37604713859037,"[68, 0, 186]",186,a,0.6380060825031251,0,colour,0.5,3.9
70,22,0,1,5,34,234,394.88428837107494,395.7920818789862,"[58, 0, 196]",196,a,0.3910211722832173,0,colour,0.5,3.9
70,22,0,1,5,35,235,396.300644883886,397.2480423874222,"[39, 0, 215]",215,a,0.4309745095670223,1,colour,0.5,3.9
70,22,0,1,5,36,236,397.7561012688093,398.81604663445614,"[87, 0, 167]",167,l,0.5437110238708556,1,colour,0.5,3.9
70,22,0,1,5,37,237,399.32451787311584,400.24806877505034,"[62, 0, 192]",192,a,0.4070605603046715,0,colour,0.5,3.9
70,22,0,1,5,38,238,400.75592640112154,401.6160672721453,"[40, 0, 214]",214,a,0.34359302767552435,1,colour,0.5,3.9
70,22,0,1,5,39,239,402.1242478522472,403.0480571172666,"[60, 0, 194]",194,a,0.4073468865826726,0,colour,0.5,3.9
70,22,0,1,5,40,240,403.5556776479352,404.4161119342316,"[43, 0, 211]",211,a,0.3439793908037245,1,colour,0.5,3.9
70,22,0,1,5,41,241,404.92414206499234,405.9281140042003,"[38, 0, 216]",216,a,0.4878750497009605,1,colour,0.5,3.9
70,22,0,1,5,42,242,406.4363383012824,407.3680737216491,"[28, 0, 226]",226,a,0.41339163831435144,1,colour,0.5,3.9
70,22,0,1,5,43,243,407.8757556923665,408.8480986284558,"[4, 0, 250]",250,a,0.4560152527410537,1,colour,0.5,3.9
70,22,0,1,5,44,244,409.35616656858474,410.29618063685484,"[29, 0, 225]",225,a,0.42372616357170045,1,colour,0.5,3.9
70,22,0,1,5,45,245,410.8047704230994,411.74406808498316,"[26, 0, 228]",228,a,0.42282858793623745,1,colour,0.5,3.9
70,22,0,1,5,46,246,412.2519584004767,413.1680782116018,"[75, 0, 179]",179,l,0.39977873722091317,1,colour,0.5,3.9
70,22,0,1,5,47,247,413.6763694623951,414.57606431026943,"[84, 0, 170]",170,l,0.3832954845856875,1,colour,0.5,3.9
70,22,0,1,5,48,248,415.0836639672052,416.1040813496802,"[47, 0, 207]",207,a,0.5040499207098037,1,colour,0.5,3.9
70,22,0,1,5,49,249,416.6121374743525,417.56009187642485,"[77, 0, 177]",177,l,0.43146957410499454,1,colour,0.5,3.9
70,22,0,1,5,50,250,418.06851861043833,418.98408152302727,"[76, 0, 178]",178,l,0.3992852477822453,1,colour,0.5,3.9
70,22,0,1,6,1,251,423.5950339140836,424.2001183901448,"[79, 0, 175]",175,l,0.0898449900560081,1,colour,0.5,3.9
70,22,0,1,6,2,252,424.70792442257516,425.65606590150855,"[63, 0, 191]",191,a,0.4317740174010396,0,colour,0.5,3.9
70,22,0,1,6,3,253,426.16428980464116,427.06408153870143,"[76, 0, 178]",178,l,0.3833061184268445,1,colour,0.5,3.9
70,22,0,1,6,4,254,427.57164378021844,428.5440497316886,"[26, 0, 228]",228,a,0.4560361267067492,1,colour,0.5,3.9
70,22,0,1,6,5,255,429.0521094009746,429.9920592722483,"[50, 0, 204]",204,a,0.4235930433496833,1,colour,0.5,3.9
70,22,0,1,6,6,256,430.5004288984928,431.52010624390095,"[0, 0, 254]",254,a,0.5031243821140379,1,colour,0.5,3.9
70,22,0,1,6,7,257,432.02793472539634,432.96802992606536,"[70, 0, 184]",184,l,0.4235048219561577,1,colour,0.5,3.9
70,22,0,1,6,8,258,433.4765570908785,434.34414401859976,"[83, 0, 171]",171,l,0.350058407522738,1,colour,0.5,3.9
70,22,0,1,6,9,259,434.85264755249955,435.6880757538602,"[66, 0, 188]",188,a,0.31899496726691723,0,colour,0.5,3.9
70,22,0,1,6,10,260,436.19589832774363,437.1120374375023,"[4, 0, 250]",250,a,0.3996688541956246,1,colour,0.5,3.9
70,22,0,1,6,11,261,437.6205267929472,438.48007728834637,"[23, 0, 231]",231,a,0.3434335198253393,1,colour,0.5,3.9
70,22,0,1,6,12,262,438.9886009085458,439.8400791315362,"[86, 0, 168]",168,l,0.3351489643100649,1,colour,0.5,3.9
70,22,0,1,6,13,263,440.3479379392229,441.2640333320014,"[44, 0, 210]",210,a,0.3996011125855148,1,colour,0.5,3.9
70,22,0,1,6,14,264,441.77223281678744,442.7760369775351,"[48, 0, 206]",206,a,0.48740125307813287,1,colour,0.5,3.9
70,22,0,1,6,15,265,443.2836933482904,444.17607604688965,"[41, 0, 213]",213,a,0.3757269415073097,1,colour,0.5,3.9
70,22,0,1,6,16,266,444.68406758084893,445.50409245630726,"[49, 0, 205]",205,a,0.30358809675090015,1,colour,0.5,3.9
70,22,0,1,6,17,267,446.01232502399944,446.96806655381806,"[47, 0, 207]",207,a,0.4392937235534191,1,colour,0.5,3.9
70,22,0,1,6,18,268,447.47579933074303,448.3840481247753,"[53, 0, 201]",201,a,0.39187818160280585,0,colour,0.5,3.9
70,22,0,1,6,19,269,448.8921030680649,449.808036589995,"[89, 0, 165]",165,l,0.39962080493569374,1,colour,0.5,3.9
70,22,0,1,6,20,270,450.3165031024255,451.2961014737375,"[59, 0, 195]",195,a,0.4631352049764246,0,colour,0.5,3.9
70,22,0,1,6,21,271,451.80489645386115,452.75208640052006,"[92, 0, 162]",162,l,0.43075592489913106,1,colour,0.5,3.9
70,22,0,1,6,22,272,453.26036780513823,454.17611267464235,"[10, 0, 244]",244,a,0.3992513769771904,1,colour,0.5,3.9
70,22,0,1,6,23,273,454.68366585765034,457.13615303603,"[33, 0, 221]",221,a,1.936075211968273,1,colour,0.5,3.9
70,22,0,1,6,24,274,457.64451399771497,458.74410156183876,"[14, 0, 240]",240,a,0.5829798562917858,1,colour,0.5,3.9
70,22,0,1,6,25,275,459.2520481974352,460.3040508660488,"[69, 0, 185]",185,l,0.5357277609873563,1,colour,0.5,3.9
70,22,0,1,6,26,276,460.81265522469766,461.79210235900246,"[72, 0, 182]",182,l,0.4631155126262456,1,colour,0.5,3.9
70,22,0,1,6,27,277,462.30098516703583,463.2240421855822,"[90, 0, 164]",164,l,0.4066009414382279,1,colour,0.5,3.9
70,22,0,1,6,28,278,463.7323421011679,464.95206851977855,"[68, 0, 186]",186,a,0.7032037815079093,0,colour,0.5,3.9
70,22,0,1,6,29,279,465.46003839210607,466.3602003417909,"[5, 0, 249]",249,a,0.38365270337089896,1,colour,0.5,3.9
70,22,0,1,6,30,280,466.86833011568524,467.78406710829586,"[87, 0, 167]",167,l,0.39906508778221905,1,colour,0.5,3.9
70,22,0,1,6,31,281,468.291686457349,469.3280534306541,"[15, 0, 239]",239,a,0.5199577638413757,1,colour,0.5,3.9
70,22,0,1,6,32,282,469.8361639061477,470.72012932342477,"[28, 0, 226]",226,a,0.3674360846634954,1,colour,0.5,3.9
70,22,0,1,6,33,283,471.2285099772271,472.12807406834327,"[34, 0, 220]",220,a,0.383055632468313,1,colour,0.5,3.9
70,22,0,1,6,34,284,472.63589821755886,473.5200589823071,"[2, 0, 252]",252,a,0.36764718615449965,1,colour,0.5,3.9
70,22,0,1,6,35,285,474.02839434402995,474.95221699983813,"[51, 0, 203]",203,a,0.40742211090400815,0,colour,0.5,3.9
70,22,0,1,6,36,286,475.4606949337758,476.33608316769823,"[91, 0, 163]",163,l,0.35909481532871723,1,colour,0.5,3.9
70,22,0,1,6,37,287,476.8439612737857,477.72807083884254,"[1, 0, 253]",253,a,0.367153303232044,1,colour,0.5,3.9
70,22,0,1,6,38,288,478.2362919850275,481.4081267018337,"[65, 0, 189]",189,l,2.6552018027286977,1,colour,0.5,3.9
70,22,0,1,6,39,289,481.9169271958526,483.22415009955876,"[98, 0, 156]",156,l,0.7909168819896877,1,colour,0.5,3.9
70,22,0,1,6,40,290,483.732498458121,484.60804265504703,"[9, 0, 245]",245,a,0.35886874748393893,1,colour,0.5,3.9
70,22,0,1,6,41,291,485.1158396289684,485.97608250612393,"[94, 0, 160]",160,l,0.34348314465023577,1,colour,0.5,3.9
70,22,0,1,6,42,292,486.48420243384317,487.3120774521958,"[40, 0, 214]",214,a,0.31140121817588806,1,colour,0.5,3.9
70,22,0,1,6,43,293,487.820465589175,489.8721807501279,"[64, 0, 190]",190,a,1.5354174098465592,0,colour,0.5,3.9
70,22,0,1,6,44,294,490.3811675335746,491.4001009033527,"[27, 0, 227]",227,a,0.5018991264514625,1,colour,0.5,3.9
70,22,0,1,6,45,295,491.9082913296297,492.81606672075577,"[24, 0, 230]",230,a,0.39134491397999227,1,colour,0.5,3.9
70,22,0,1,6,46,296,493.3236722853035,494.26414557825774,"[54, 0, 200]",200,a,0.4240428158082068,0,colour,0.5,3.9
70,22,0,1,6,47,297,494.77218004129827,495.6240812551696,"[29, 0, 225]",225,a,0.3355904659256339,1,colour,0.5,3.9
70,22,0,1,6,48,298,496.1323807768058,497.04804924014024,"[88, 0, 166]",166,l,0.399204115383327,1,colour,0.5,3.9
70,22,0,1,6,49,299,497.5557918632403,498.44806782971136,"[46, 0, 208]",208,a,0.37600420927628875,1,colour,0.5,3.9
70,22,0,1,6,50,300,498.9560995360371,499.776106688194,"[22, 0, 232]",232,a,0.3034404043573886,1,colour,0.5,3.9
70,22,0,1,7,1,301,504.6517934575677,505.6561364000663,"[15, 0, 239]",239,a,0.487946730107069,1,colour,0.5,3.9
70,22,0,1,7,2,302,506.16399087547325,507.1521731254179,"[50, 0, 204]",204,a,0.4716982098761946,1,colour,0.5,3.9
70,22,0,1,7,3,303,507.6605557485018,508.5760871535167,"[8, 0, 246]",246,a,0.39875158620998263,1,colour,0.5,3.9
70,22,0,1,7,4,304,509.08397707506083,509.96015339531004,"[43, 0, 211]",211,a,0.35960405855439603,1,colour,0.5,3.9
70,22,0,1,7,5,305,510.46812799363397,511.4001261095982,"[96, 0, 158]",158,l,0.4153415709733963,1,colour,0.5,3.9
70,22,0,1,7,6,306,511.9085449667182,512.8800497979391,"[60, 0, 194]",194,a,0.4550203972030431,0,colour,0.5,3.9
70,22,0,1,7,7,307,513.3879460210446,514.3360859246459,"[21, 0, 233]",233,a,0.43167279893532395,1,colour,0.5,3.9
70,22,0,1,7,8,308,514.8443342463579,515.8002951482777,"[38, 0, 216]",216,a,0.43904166179709136,1,colour,0.5,3.9
70,22,0,1,7,9,309,516.3087061285041,519.3441956124734,"[61, 0, 193]",193,a,2.519139745272696,0,colour,0.5,3.9
70,22,0,1,7,10,310,519.8521765123587,520.7920558853075,"[68, 0, 186]",186,l,0.42349536973051727,1,colour,0.5,3.9
70,22,0,1,7,11,311,521.300717745442,522.1601445730776,"[18, 0, 236]",236,a,0.3431503444444388,1,colour,0.5,3.9
70,22,0,1,7,12,312,522.6681270485278,523.5920946397819,"[88, 0, 166]",166,l,0.40782580338418484,1,colour,0.5,3.9
70,22,0,1,7,13,313,524.1002307152376,524.9520740336739,"[1, 0, 253]",253,a,0.3353986630681902,1,colour,0.5,3.9
70,22,0,1,7,14,314,525.4595452966169,527.2400803919882,"[9, 0, 245]",245,a,1.2641172213479877,1,colour,0.5,3.9
70,22,0,1,7,15,315,527.7477533041965,528.7761732481886,"[95, 0, 159]",159,l,0.5120323961600661,1,colour,0.5,3.9
70,22,0,1,7,16,316,529.2842447329313,530.1761158255395,"[16, 0, 238]",238,a,0.37531222170218825,1,colour,0.5,3.9
70,22,0,1,7,17,317,530.6845693408977,531.600089718122,"[37, 0, 217]",217,a,0.39909698930568993,1,colour,0.5,3.9
70,22,0,1,7,18,318,532.1078969319351,533.0320661724545,"[70, 0, 184]",184,l,0.40779862785711884,1,colour,0.5,3.9
70,22,0,1,7,19,319,533.5402979524806,534.6720796893351,"[59, 0, 195]",195,a,0.615241376683116,0,colour,0.5,3.9
70,22,0,1,7,20,320,535.179867210798,536.1762808470521,"[90, 0, 164]",164,l,0.4800060021225363,1,colour,0.5,3.9
70,22,0,1,7,21,321,536.6843109778129,537.73616910493,"[99, 0, 155]",155,l,0.5353331270162016,1,colour,0.5,3.9
70,22,0,1,7,22,322,538.2439077894669,539.1201124666259,"[10, 0, 244]",244,a,0.35990495700389147,1,colour,0.5,3.9
70,22,0,1,7,23,323,539.6281701668631,540.5760540703777,"[54, 0, 200]",200,a,0.4313297588378191,0,colour,0.5,3.9
70,22,0,1,7,24,324,541.0845489397179,543.7360670987982,"[65, 0, 189]",189,l,2.1349041496869177,1,colour,0.5,3.9
70,22,0,1,7,25,325,544.2437045648694,545.1920547825284,"[51, 0, 203]",203,a,0.4320461652241647,0,colour,0.5,3.9
70,22,0,1,7,26,326,545.700000630226,546.6000779028982,"[4, 0, 250]",250,a,0.3836412818636745,1,colour,0.5,3.9
70,22,0,1,7,27,327,547.1083896337077,547.92806201661,"[7, 0, 247]",247,a,0.3032009459566325,1,colour,0.5,3.9
70,22,0,1,7,28,328,548.4355529719032,549.3760699818376,"[36, 0, 218]",218,a,0.42413655132986605,1,colour,0.5,3.9
70,22,0,1,7,29,329,549.8839827463962,550.7361214496195,"[82, 0, 172]",172,l,0.3355286321602762,1,colour,0.5,3.9
70,22,0,1,7,30,330,551.2442764297593,552.1440996713936,"[91, 0, 163]",163,l,0.3834916199557483,1,colour,0.5,3.9
70,22,0,1,7,31,331,552.652623291593,553.5681420934852,"[33, 0, 221]",221,a,0.3988484723959118,1,colour,0.5,3.9
70,22,0,1,7,32,332,554.0759296149481,554.9681067259517,"[34, 0, 220]",220,a,0.37584548932500184,1,colour,0.5,3.9
70,22,0,1,7,33,333,555.4763574106619,556.3441593784373,"[73, 0, 181]",181,l,0.3515365121420473,1,colour,0.5,3.9
70,22,0,1,7,34,334,556.8526550356764,557.6482437215745,"[31, 0, 223]",223,a,0.2792543072719127,1,colour,0.5,3.9
70,22,0,1,7,35,335,558.1558953661006,558.984207553789,"[11, 0, 243]",243,a,0.31184902135282755,1,colour,0.5,3.9
70,22,0,1,7,36,336,559.4921990877483,560.3520867154002,"[23, 0, 231]",231,a,0.342666307464242,1,colour,0.5,3.9
70,22,0,1,7,37,337,560.8606193941087,561.7440582388081,"[71, 0, 183]",183,l,0.3671777215786278,1,colour,0.5,3.9
70,22,0,1,7,38,338,562.2518244925886,563.0721695648972,"[44, 0, 210]",210,a,0.30395634286105633,1,colour,0.5,3.9
70,22,0,1,7,39,339,563.5800772095099,564.4401420683134,"[83, 0, 171]",171,l,0.3435973599553108,1,colour,0.5,3.9
70,22,0,1,7,40,340,564.9486298484262,565.8241059100255,"[22, 0, 232]",232,a,0.3585036522708833,1,colour,0.5,3.9
70,22,0,1,7,41,341,566.3319741699379,567.1840809716377,"[5, 0, 249]",249,a,0.3369019739329815,1,colour,0.5,3.9
70,22,0,1,7,42,342,567.6920721116476,568.552133819554,"[12, 0, 242]",242,a,0.3437426893506199,1,colour,0.5,3.9
70,22,0,1,7,43,343,569.0604223133996,569.9201299534179,"[69, 0, 185]",185,l,0.3433681414462626,1,colour,0.5,3.9
70,22,0,1,7,44,344,570.4277130689006,571.6720812646672,"[57, 0, 197]",197,a,0.7279436264652759,0,colour,0.5,3.9
70,22,0,1,7,45,345,572.1804099308793,572.9920632108115,"[20, 0, 234]",234,a,0.29529093811288476,1,colour,0.5,3.9
70,22,0,1,7,46,346,573.5006128246896,574.400073334109,"[66, 0, 188]",188,l,0.3830812321975827,1,colour,0.5,3.9
70,22,0,1,7,47,347,574.9080589604564,575.8321179237682,"[98, 0, 156]",156,l,0.40764660318382084,1,colour,0.5,3.9
70,22,0,1,7,48,348,576.3404481655452,577.2481625103392,"[49, 0, 205]",205,a,0.39144573849625885,1,colour,0.5,3.9
70,22,0,1,7,49,349,577.7557172689121,578.6401230059564,"[85, 0, 169]",169,l,0.3680867184884846,1,colour,0.5,3.9
70,22,0,1,7,50,350,579.148062158376,580.0881514512002,"[86, 0, 168]",168,l,0.4236225818749517,1,colour,0.5,3.9
70,22,0,1,8,1,351,584.6755538068246,585.5601863996126,"[90, 0, 164]",164,l,0.369487629737705,1,colour,0.5,3.9
70,22,0,1,8,2,352,586.0687088381965,587.0081270169467,"[98, 0, 156]",156,l,0.4231204278767109,1,colour,0.5,3.9
70,22,0,1,8,3,353,587.5160984646063,588.3200693798717,"[49, 0, 205]",205,a,0.28756525041535497,1,colour,0.5,3.9
70,22,0,1,8,4,354,588.828372052405,589.7200867880601,"[53, 0, 201]",201,a,0.37459739088080823,0,colour,0.5,3.9
70,22,0,1,8,5,355,590.2276994418353,591.07213411876,"[29, 0, 225]",225,a,0.3277497752569616,1,colour,0.5,3.9
70,22,0,1,8,6,356,591.5799948957283,592.4561664897483,"[94, 0, 160]",160,l,0.3597552953287959,1,colour,0.5,3.9
70,22,0,1,8,7,357,592.9645372976083,593.8080996053759,"[19, 0, 235]",235,a,0.3273189077153802,1,colour,0.5,3.9
70,22,0,1,8,8,358,594.3165901424363,595.2080666010734,"[43, 0, 211]",211,a,0.3750349539332092,1,colour,0.5,3.9
70,22,0,1,8,9,359,595.7159273778088,596.6400855907705,"[39, 0, 215]",215,a,0.40776869584806263,1,colour,0.5,3.9
70,22,0,1,8,10,360,597.1484682138544,598.0401104816701,"[52, 0, 202]",202,a,0.3754248614422977,0,colour,0.5,3.9
70,22,0,1,8,11,361,598.5486884526908,599.680145266233,"[40, 0, 214]",214,a,0.6149704102426767,1,colour,0.5,3.9
70,22,0,1,8,12,362,600.1882435325533,601.1360774175264,"[47, 0, 207]",207,a,0.43149438640102744,1,colour,0.5,3.9
70,22,0,1,8,13,363,601.6437499360181,602.5601757657714,"[93, 0, 161]",161,l,0.4002608051523566,1,colour,0.5,3.9
70,22,0,1,8,14,364,603.0679676195141,606.3680749032646,"[66, 0, 188]",188,a,2.78363820980303,0,colour,0.5,3.9
70,22,0,1,8,15,365,606.8756174524315,607.7281732386909,"[89, 0, 165]",165,l,0.3362765461206436,1,colour,0.5,3.9
70,22,0,1,8,16,366,608.2359611541033,609.048079172615,"[0, 0, 254]",254,a,0.2956182244233787,1,colour,0.5,3.9
70,22,0,1,8,17,367,609.5562833833974,610.3601113324985,"[30, 0, 224]",224,a,0.2876003028359264,1,colour,0.5,3.9
70,22,0,1,8,18,368,610.8684813524596,611.760103140492,"[71, 0, 183]",183,l,0.37342254747636616,1,colour,0.5,3.9
70,22,0,1,8,19,369,612.2678059849422,613.1360900206491,"[91, 0, 163]",163,l,0.3528425064869225,1,colour,0.5,3.9
70,22,0,1,8,20,370,613.6442824162077,614.4880896960385,"[92, 0, 162]",162,l,0.3273925567045808,1,colour,0.5,3.9
70,22,0,1,8,21,371,614.9966271009762,615.9520988459699,"[83, 0, 171]",171,l,0.438875064952299,1,colour,0.5,3.9
70,22,0,1,8,22,372,616.4598288659472,617.2160939748865,"[14, 0, 240]",240,a,0.23986338265240192,1,colour,0.5,3.9
70,22,0,1,8,23,373,617.7240343086887,618.5440977809485,"[87, 0, 167]",167,l,0.30338487192057073,1,colour,0.5,3.9
70,22,0,1,8,24,374,619.0522968717851,621.0241289893165,"[69, 0, 185]",185,a,1.455379585037008,0,colour,0.5,3.9
70,22,0,1,8,25,375,621.5316868985537,622.4640733466949,"[18, 0, 236]",236,a,0.41597763262689114,1,colour,0.5,3.9
70,22,0,1,8,26,376,622.9720644867048,624.7522837172728,"[57, 0, 197]",197,a,1.2638820949941874,0,colour,0.5,3.9
70,22,0,1,8,27,377,625.2603008511942,626.1920831394382,"[96, 0, 158]",158,l,0.41555149108171463,1,colour,0.5,3.9
70,22,0,1,8,28,378,626.6996390793938,627.6481499860529,"[80, 0, 174]",174,l,0.43202214036136866,1,colour,0.5,3.9
70,22,0,1,8,29,379,628.1561088308226,628.9601136166602,"[33, 0, 221]",221,a,0.28758533648215234,1,colour,0.5,3.9
70,22,0,1,8,30,380,629.4683288552333,630.3120991138276,"[22, 0, 232]",232,a,0.32724447059445083,1,colour,0.5,3.9
70,22,0,1,8,31,381,630.8196073982399,631.6961413309909,"[48, 0, 206]",206,a,0.3600132646970451,1,colour,0.5,3.9
70,22,0,1,8,32,382,632.2041698864195,633.0560738572385,"[81, 0, 173]",173,l,0.33583504473790526,1,colour,0.5,3.9
70,22,0,1,8,33,383,633.5642753110733,634.3760833726265,"[42, 0, 212]",212,a,0.2952873937319964,1,colour,0.5,3.9
70,22,0,1,8,34,384,634.8845750910696,635.7041600402445,"[78, 0, 176]",176,l,0.3032608104404062,1,colour,0.5,3.9
70,22,0,1,8,35,385,636.211867610924,637.0961276250891,"[27, 0, 227]",227,a,0.3677968478295952,1,colour,0.5,3.9
70,22,0,1,8,36,386,637.6041620881297,638.3921058250125,"[38, 0, 216]",216,a,0.27167197968810797,1,colour,0.5,3.9
70,22,0,1,8,37,387,638.9003714758437,639.8001001945231,"[72, 0, 182]",182,l,0.38324664789251983,1,colour,0.5,3.9
70,22,0,1,8,38,388,640.3077498697676,641.7761070821434,"[75, 0, 179]",179,l,0.9520578859373927,1,colour,0.5,3.9
70,22,0,1,8,39,389,642.2846043144818,643.1600693485234,"[16, 0, 238]",238,a,0.35874035372398794,1,colour,0.5,3.9
70,22,0,1,8,40,390,643.6683995900676,644.5921135442331,"[23, 0, 231]",231,a,0.4066958585754037,1,colour,0.5,3.9
70,22,0,1,8,41,391,645.1003236628603,646.0081155954394,"[12, 0, 242]",242,a,0.39117437857203186,1,colour,0.5,3.9
70,22,0,1,8,42,392,646.5157203723211,647.3921156711876,"[85, 0, 169]",169,l,0.3599234679713845,1,colour,0.5,3.9
70,22,0,1,8,43,393,647.9002458387986,648.8001025575213,"[76, 0, 178]",178,l,0.38367554638534784,1,colour,0.5,3.9
70,22,0,1,8,44,394,649.3083374884445,650.2321558119729,"[34, 0, 220]",220,a,0.4084858896676451,1,colour,0.5,3.9
70,22,0,1,8,45,395,650.7397318379954,651.6641232077964,"[46, 0, 208]",208,a,0.40803611744195223,1,colour,0.5,3.9
70,22,0,1,8,46,396,652.1721218307503,653.0721022172365,"[36, 0, 218]",218,a,0.3836814539972693,1,colour,0.5,3.9
70,22,0,1,8,47,397,653.5805112281814,656.032137852395,"[59, 0, 195]",195,l,1.9352378947660327,1,colour,0.5,3.9
70,22,0,1,8,48,398,656.540304254042,657.0721620819531,"[2, 0, 252]",252,a,0.015562833985313773,1,colour,0.5,3.9
70,22,0,1,8,49,399,657.580324545037,658.8241063037422,"[56, 0, 198]",198,a,0.727290629176423,0,colour,0.5,3.9
70,22,0,1,8,50,400,659.3319804714993,660.2800833536312,"[3, 0, 251]",251,a,0.43161529721692204,1,colour,0.5,3.9
70,22,0,1,9,1,401,664.7073564962484,665.5521838378627,"[35, 0, 219]",219,a,0.32964141853153706,1,colour,0.5,3.9
70,22,0,1,9,2,402,666.0605073841289,666.8800690963399,"[72, 0, 182]",182,l,0.30328601668588817,1,colour,0.5,3.9
70,22,0,1,9,3,403,667.3877053810284,668.2641018612776,"[70, 0, 184]",184,l,0.36002389853820205,1,colour,0.5,3.9
70,22,0,1,9,4,404,668.772037075134,669.6321003583726,"[97, 0, 157]",157,l,0.34348471998237073,1,colour,0.5,3.9
70,22,0,1,9,5,405,670.1403289877344,670.984149658354,"[26, 0, 228]",228,a,0.3274520274717361,1,colour,0.5,3.9
70,22,0,1,9,6,406,671.4931679493748,672.3121073844377,"[33, 0, 221]",221,a,0.3016570685431361,1,colour,0.5,3.9
70,22,0,1,9,7,407,672.8199264137074,673.6721080462448,"[87, 0, 167]",167,l,0.335594798438251,1,colour,0.5,3.9
70,22,0,1,9,8,408,674.1802070999984,675.1601737176534,"[82, 0, 172]",172,l,0.4634258635342121,1,colour,0.5,3.9
70,22,0,1,9,9,409,675.6689261624124,676.4960981654003,"[17, 0, 237]",237,a,0.31111331656575203,1,colour,0.5,3.9
70,22,0,1,9,10,410,677.004011717625,678.0001126399729,"[36, 0, 218]",218,a,0.4798390113282949,1,colour,0.5,3.9
70,22,0,1,9,11,411,678.5084007401019,679.3681028664578,"[40, 0, 214]",214,a,0.34318776009604335,1,colour,0.5,3.9
70,22,0,1,9,12,412,679.8756655016914,680.6641180876177,"[6, 0, 248]",248,a,0.27206779504194856,1,colour,0.5,3.9
70,22,0,1,9,13,413,681.1719516892917,682.0241337155458,"[91, 0, 163]",163,l,0.33588624466210604,1,colour,0.5,3.9
70,22,0,1,9,14,414,682.532269397052,683.3760932188015,"[99, 0, 155]",155,l,0.32739019370637834,1,colour,0.5,3.9
70,22,0,1,9,15,415,683.8845609126147,684.720098603284,"[78, 0, 176]",176,l,0.3190040257759392,1,colour,0.5,3.9
70,22,0,1,9,16,416,685.2277931771241,686.1201451560482,"[15, 0, 239]",239,a,0.3756808617617935,1,colour,0.5,3.9
70,22,0,1,9,17,417,686.6281658345833,687.6561009539291,"[71, 0, 183]",183,l,0.5109796454198658,1,colour,0.5,3.9
70,22,0,1,9,18,418,688.1646198478993,689.0001020061318,"[23, 0, 231]",231,a,0.31893549649976194,1,colour,0.5,3.9
70,22,0,1,9,19,419,689.507921429351,690.368090263335,"[77, 0, 177]",177,l,0.34380097850225866,1,colour,0.5,3.9
70,22,0,1,9,20,420,690.8762464248575,691.7521289358847,"[57, 0, 197]",197,a,0.359479209408164,0,colour,0.5,3.9
70,22,0,1,9,21,421,692.2606706728693,693.072111669695,"[21, 0, 233]",233,a,0.29514442733488977,1,colour,0.5,3.9
70,22,0,1,9,22,422,693.5798401141074,695.2401300165802,"[63, 0, 191]",191,a,1.1438259484712034,0,colour,0.5,3.9
70,22,0,1,9,23,423,695.7479277781677,696.5680995581206,"[48, 0, 206]",206,a,0.30372988153249025,1,colour,0.5,3.9
70,22,0,1,9,24,424,697.0764774549752,697.8960773702711,"[30, 0, 224]",224,a,0.3030473457183689,1,colour,0.5,3.9
70,22,0,1,9,25,425,698.4044777166564,699.2961125012953,"[94, 0, 160]",160,l,0.37532443064264953,1,colour,0.5,3.9
70,22,0,1,9,26,426,699.8038082567509,700.6724065816961,"[31, 0, 223]",223,a,0.3523513802792877,1,colour,0.5,3.9
70,22,0,1,9,27,427,701.180111395428,702.0561585342512,"[25, 0, 229]",229,a,0.3594689692836255,1,colour,0.5,3.9
70,22,0,1,9,28,428,702.5645175266545,703.4961292792577,"[86, 0, 168]",168,l,0.4149496939498931,1,colour,0.5,3.9
70,22,0,1,9,29,429,704.0038364562206,704.9040893842466,"[84, 0, 170]",170,l,0.38393587875179946,1,colour,0.5,3.9
70,22,0,1,9,30,430,705.4121707149316,706.3040741030127,"[60, 0, 194]",194,a,0.3751141170505434,0,colour,0.5,3.9
70,22,0,1,9,31,431,706.8125264369883,707.6241001598537,"[56, 0, 198]",198,a,0.29497113497927785,0,colour,0.5,3.9
70,22,0,1,9,32,432,708.1317974906415,708.9600986505393,"[54, 0, 200]",200,a,0.31179033825173974,0,colour,0.5,3.9
70,22,0,1,9,33,433,709.46807246143,710.320123730693,"[8, 0, 246]",246,a,0.33553296444006264,1,colour,0.5,3.9
70,22,0,1,9,34,434,710.8283909570891,711.6481558938976,"[46, 0, 208]",208,a,0.30281970277428627,1,colour,0.5,3.9
70,22,0,1,9,35,435,712.1566850277595,713.2241292255931,"[27, 0, 227]",227,a,0.5507971053011715,1,colour,0.5,3.9
70,22,0,1,9,36,436,713.7321321810596,714.5441355903167,"[53, 0, 201]",201,a,0.2955433935858309,0,colour,0.5,3.9
70,22,0,1,9,37,437,715.0524370810017,715.8721094641369,"[11, 0, 243]",243,a,0.30321709369309247,1,colour,0.5,3.9
70,22,0,1,9,38,438,716.3807551765349,717.2082012963947,"[69, 0, 185]",185,l,0.310982953524217,1,colour,0.5,3.9
70,22,0,1,9,39,439,717.7160415933467,718.6001027151942,"[89, 0, 165]",165,l,0.36861959262751043,1,colour,0.5,3.9
70,22,0,1,9,40,440,719.1083407967817,719.9201374365948,"[95, 0, 159]",159,l,0.2954744705930352,1,colour,0.5,3.9
70,22,0,1,9,41,441,720.4285921335686,721.3201127031352,"[92, 0, 162]",162,l,0.3750463754404336,1,colour,0.5,3.9
70,22,0,1,9,42,442,721.8289364341181,722.6401320644654,"[39, 0, 215]",215,a,0.29441896243952215,1,colour,0.5,3.9
70,22,0,1,9,43,443,723.1481602261774,723.9841161814984,"[93, 0, 161]",161,l,0.31944749667309225,1,colour,0.5,3.9
70,22,0,1,9,44,444,724.4924834447447,725.3360934078228,"[29, 0, 225]",225,a,0.32724328921176493,1,colour,0.5,3.9
70,22,0,1,9,45,445,725.8447954403237,726.7681257883087,"[10, 0, 244]",244,a,0.4065666771493852,1,colour,0.5,3.9
70,22,0,1,9,46,446,727.2761295312084,728.1761174008716,"[5, 0, 249]",249,a,0.38364167558029294,1,colour,0.5,3.9
70,22,0,1,9,47,447,728.6845638272353,729.4801733868662,"[4, 0, 250]",250,a,0.27913457807153463,1,colour,0.5,3.9
70,22,0,1,9,48,448,729.9877907668706,730.8561244271696,"[22, 0, 232]",232,a,0.35202015563845634,1,colour,0.5,3.9
70,22,0,1,9,49,449,731.364091936266,732.4160890912171,"[74, 0, 180]",180,l,0.533571058884263,1,colour,0.5,3.9
70,22,0,1,9,50,450,732.9245827789418,733.4721523146145,"[43, 0, 211]",211,a,0.03125603077933192,1,colour,0.5,3.9
70,22,0,1,10,1,451,738.7473917533644,741.2401630997192,"[7, 0, 247]",247,a,1.9775058664381504,1,colour,0.5,3.8
70,22,0,1,10,2,452,741.7480581412092,742.6161176844034,"[87, 0, 167]",167,l,0.351656241575256,1,colour,0.5,3.8
70,22,0,1,10,3,453,743.1245168491732,744.0001811692491,"[77, 0, 177]",177,l,0.35962926456704736,1,colour,0.5,3.8
70,22,0,1,10,4,454,744.508728420129,745.7761291374918,"[61, 0, 193]",193,a,0.7507150277961046,0,colour,0.5,3.8
70,22,0,1,10,5,455,746.2843940006569,747.2641227350105,"[99, 0, 155]",155,l,0.4631261464674026,1,colour,0.5,3.8
70,22,0,1,10,6,456,747.7718779612333,748.6721927232575,"[52, 0, 202]",202,a,0.38387680193409324,0,colour,0.5,3.8
70,22,0,1,10,7,457,749.1801547184587,750.2640876828227,"[4, 0, 250]",250,a,0.567478462588042,1,colour,0.5,3.8
70,22,0,1,10,8,458,750.7716692227405,752.5202106132638,"[64, 0, 190]",190,a,1.232156993355602,0,colour,0.5,3.8
70,22,0,1,10,9,459,753.0279492978007,753.8641474687029,"[13, 0, 241]",241,a,0.31957943527959287,1,colour,0.5,3.8
70,22,0,1,10,10,460,754.372168934904,755.3762862032745,"[10, 0, 244]",244,a,0.48778525297529995,1,colour,0.5,3.8
70,22,0,1,10,11,461,755.8845955710858,756.7841364252381,"[37, 0, 217]",217,a,0.3830745369195938,1,colour,0.5,3.8
70,22,0,1,10,12,462,757.2919373374898,758.2081591547467,"[56, 0, 198]",198,a,0.3998827124014497,0,colour,0.5,3.8
70,22,0,1,10,13,463,758.7163420980796,760.1921382779256,"[59, 0, 195]",195,l,0.9592873274814337,1,colour,0.5,3.8
70,22,0,1,10,14,464,760.7003200394101,761.5921336305328,"[40, 0, 214]",214,a,0.3754701539874077,1,colour,0.5,3.8
70,22,0,1,10,15,465,762.1005477614235,762.9921534014866,"[71, 0, 183]",183,l,0.3752027323935181,1,colour,0.5,3.8
70,22,0,1,10,16,466,763.4999078400433,764.3361769032199,"[12, 0, 242]",242,a,0.3198031398933381,1,colour,0.5,3.8
70,22,0,1,10,17,467,764.8442645354662,765.7521395697258,"[18, 0, 236]",236,a,0.39117398485541344,1,colour,0.5,3.8
70,22,0,1,10,18,468,766.2606218359433,767.1040935590863,"[23, 0, 231]",231,a,0.3269628705456853,1,colour,0.5,3.8
70,22,0,1,10,19,469,767.6118318496738,768.4241188280284,"[74, 0, 180]",180,l,0.29689034749753773,1,colour,0.5,3.8
70,22,0,1,10,20,470,768.9321288727224,769.7921255959664,"[35, 0, 219]",219,a,0.34451620327308774,1,colour,0.5,3.8
70,22,0,1,10,21,471,770.3004302375484,771.1601055823267,"[94, 0, 160]",160,l,0.3432992184534669,1,colour,0.5,3.8
70,22,0,1,10,22,472,771.6682530792896,772.5601411073003,"[3, 0, 251]",251,a,0.37502668309025466,1,colour,0.5,3.8
70,22,0,1,10,23,473,773.0680908933282,773.9121143950615,"[79, 0, 175]",175,l,0.3276324092876166,1,colour,0.5,3.8
70,22,0,1,10,24,474,774.4204123413656,775.2881245121825,"[17, 0, 237]",237,a,0.34945345972664654,1,colour,0.5,3.8
70,22,0,1,10,25,475,775.7968714430463,776.6561356124002,"[51, 0, 203]",203,a,0.34295184607617557,0,colour,0.5,3.8
70,22,0,1,10,26,476,777.1640861860942,777.9681346891448,"[90, 0, 164]",164,l,0.2875790351536125,1,colour,0.5,3.8
70,22,0,1,10,27,477,778.4763361429796,779.2561304136179,"[15, 0, 239]",239,a,0.26348312897607684,1,colour,0.5,3.8
70,22,0,1,10,28,478,779.765152642969,780.5921253596898,"[96, 0, 158]",158,l,0.311134978197515,1,colour,0.5,3.8
70,22,0,1,10,29,479,781.0997963028494,782.0481681819074,"[78, 0, 176]",176,l,0.4316877650562674,1,colour,0.5,3.8
70,22,0,1,10,30,480,782.5562392727006,783.456252742093,"[26, 0, 228]",228,a,0.3837358048185706,1,colour,0.5,3.8
70,22,0,1,10,31,481,783.9646845960524,784.8561437255703,"[53, 0, 201]",201,a,0.37514916923828423,0,colour,0.5,3.8
70,22,0,1,10,32,482,785.3639123423491,788.0881404234096,"[65, 0, 189]",189,l,2.2074604714289308,1,colour,0.5,3.8
70,22,0,1,10,33,483,788.5960067142732,789.6321468323004,"[70, 0, 184]",184,l,0.5195465886499733,1,colour,0.5,3.8
70,22,0,1,10,34,484,790.1404502922669,791.0241238693707,"[81, 0, 173]",173,l,0.3670658692717552,1,colour,0.5,3.8
70,22,0,1,10,35,485,791.5317700000014,792.3607359726448,"[55, 0, 199]",199,a,0.31210896000266075,0,colour,0.5,3.8
70,22,0,1,10,36,486,792.8700681589544,793.7521029419731,"[6, 0, 248]",248,a,0.36564526590518653,1,colour,0.5,3.8
70,22,0,1,10,37,487,794.2604331835173,795.136103411438,"[36, 0, 218]",218,a,0.35936066159047186,1,colour,0.5,3.8
70,22,0,1,10,38,488,795.6437617514748,796.5442324765027,"[58, 0, 196]",196,a,0.3839500572066754,0,colour,0.5,3.8
70,22,0,1,10,39,489,797.0520853763446,797.9761553676799,"[25, 0, 229]",229,a,0.4076647204346955,1,colour,0.5,3.8
70,22,0,1,10,40,490,798.4844895477872,799.3761420557275,"[89, 0, 165]",165,l,0.37626296654343605,1,colour,0.5,3.8
70,22,0,1,10,41,491,799.8838626232464,800.9362378704827,"[47, 0, 207]",207,a,0.5354642777238041,1,colour,0.5,3.8
70,22,0,1,10,42,492,801.444357798202,802.2962026922032,"[33, 0, 221]",221,a,0.33382170274853706,1,colour,0.5,3.8
70,22,0,1,10,43,493,802.8048807000741,803.7041399539448,"[22, 0, 232]",232,a,0.3829729245044291,1,colour,0.5,3.8
70,22,0,1,10,44,494,804.2129424172454,805.0563176479191,"[38, 0, 216]",216,a,0.32611098093912005,1,colour,0.5,3.8
70,22,0,1,10,45,495,805.5654761483893,806.4241393080447,"[31, 0, 223]",223,a,0.3413335317745805,1,colour,0.5,3.8
70,22,0,1,10,46,496,806.932628269773,807.8161423392594,"[83, 0, 171]",171,l,0.36683468148112297,1,colour,0.5,3.8
70,22,0,1,10,47,497,808.3240373807494,809.1522747376002,"[30, 0, 224]",224,a,0.3105835933238268,1,colour,0.5,3.8
70,22,0,1,10,48,498,809.6602446099278,810.4721649175044,"[29, 0, 225]",225,a,0.29541578725911677,1,colour,0.5,3.8
70,22,0,1,10,49,499,810.9804089069366,811.8241094546393,"[84, 0, 170]",170,l,0.3272113874554634,1,colour,0.5,3.8
70,22,0,1,10,50,500,812.3317461330444,813.1681447715964,"[21, 0, 233]",233,a,0.3198417369276285,1,colour,0.5,3.8
70,22,0,1,11,1,501,818.0034067698289,818.9041417657863,"[16, 0, 238]",238,a,0.38566250051371753,1,colour,0.5,3.8
70,22,0,1,11,2,502,819.412586616585,820.3281160523184,"[69, 0, 185]",185,l,0.3989638693165034,1,colour,0.5,3.8
70,22,0,1,11,3,503,820.8359870691784,821.7361222372856,"[19, 0, 235]",235,a,0.383759435499087,1,colour,0.5,3.8
70,22,0,1,11,4,504,822.2443697710987,823.0642890958115,"[36, 0, 218]",218,a,0.30327420122921467,1,colour,0.5,3.8
70,22,0,1,11,5,505,823.5725795589387,824.6081218181644,"[39, 0, 215]",215,a,0.5191807053051889,1,colour,0.5,3.8
70,22,0,1,11,6,506,825.1161011429504,826.0241321402136,"[76, 0, 178]",178,l,0.3914024156983942,1,colour,0.5,3.8
70,22,0,1,11,7,507,826.532417483395,827.4481536883395,"[71, 0, 183]",183,l,0.399252952542156,1,colour,0.5,3.8
70,22,0,1,11,8,508,827.9558128158096,828.7521376004443,"[5, 0, 249]",249,a,0.2800589350517839,1,colour,0.5,3.8
70,22,0,1,11,9,509,829.2599869559053,830.1761075546965,"[55, 0, 199]",199,a,0.3998413586523384,0,colour,0.5,3.8
70,22,0,1,11,10,510,830.6844047133345,831.55218265648,"[72, 0, 182]",182,l,0.3512490044813603,1,colour,0.5,3.8
70,22,0,1,11,11,511,832.0596594333183,833.0241195370909,"[54, 0, 200]",200,a,0.4490433868486434,0,colour,0.5,3.8
70,22,0,1,11,12,512,833.5322264679708,834.4401727882214,"[15, 0, 239]",239,a,0.39142328943125904,1,colour,0.5,3.8
70,22,0,1,11,13,513,834.9484411960002,836.9281187304296,"[65, 0, 189]",189,l,1.4632360297255218,1,colour,0.5,3.8
70,22,0,1,11,14,514,837.4358385105152,838.264139670413,"[8, 0, 246]",246,a,0.3119931691326201,1,colour,0.5,3.8
70,22,0,1,11,15,515,838.7720969398506,839.7121263679583,"[25, 0, 229]",229,a,0.4236032834742218,1,colour,0.5,3.8
70,22,0,1,11,16,516,840.2207157604862,841.0801386495586,"[14, 0, 240]",240,a,0.343216510489583,1,colour,0.5,3.8
70,22,0,1,11,17,517,841.5878186512273,842.4241282804869,"[44, 0, 210]",210,a,0.31999021698720753,1,colour,0.5,3.8
70,22,0,1,11,18,518,842.9321135128848,843.7522222774569,"[45, 0, 209]",209,a,0.303654263028875,1,colour,0.5,3.8
70,22,0,1,11,19,519,844.2603603219613,845.1361628822051,"[80, 0, 174]",174,l,0.3604358616285026,1,colour,0.5,3.8
70,22,0,1,11,20,520,845.644701074576,846.4721278960351,"[6, 0, 248]",248,a,0.31209359993226826,1,colour,0.5,3.8
70,22,0,1,11,21,521,846.980095011415,847.8321411607321,"[48, 0, 206]",206,a,0.3356865644454956,1,colour,0.5,3.8
70,22,0,1,11,22,522,848.3402874763124,849.1921382779256,"[30, 0, 224]",224,a,0.3355443861801177,1,colour,0.5,3.8
70,22,0,1,11,23,523,849.7006063656881,850.5121269193478,"[98, 0, 156]",156,l,0.2948384089395404,1,colour,0.5,3.8
70,22,0,1,11,24,524,851.0198478808161,851.8561256085522,"[50, 0, 204]",204,a,0.319956345949322,1,colour,0.5,3.8
70,22,0,1,11,25,525,852.3641462870874,853.2321652641986,"[20, 0, 234]",234,a,0.35142741701565683,1,colour,0.5,3.8
70,22,0,1,11,26,526,853.7404978689738,854.6241265474819,"[75, 0, 179]",179,l,0.3672753954306245,1,colour,0.5,3.8
70,22,0,1,11,27,527,855.1318388443906,856.5601155073382,"[66, 0, 188]",188,l,0.9117004626896232,1,colour,0.5,3.8
70,22,0,1,11,28,528,857.0676840501837,857.9281557521317,"[9, 0, 245]",245,a,0.3440412248019129,1,colour,0.5,3.8
70,22,0,1,11,29,529,858.4360326766036,859.3443937171251,"[60, 0, 194]",194,a,0.39213457563892007,0,colour,0.5,3.8
70,22,0,1,11,30,530,859.852321054088,860.77613150049,"[21, 0, 233]",233,a,0.4075508986134082,1,colour,0.5,3.8
70,22,0,1,11,31,531,861.2836882281117,862.1521597346291,"[84, 0, 170]",170,l,0.35184450005181134,1,colour,0.5,3.8
70,22,0,1,11,32,532,862.6602138900198,863.4881609822623,"[78, 0, 176]",176,l,0.31140476278960705,1,colour,0.5,3.8
70,22,0,1,11,33,533,863.9962852422614,864.8162392254453,"[49, 0, 205]",205,a,0.3034667922183871,1,colour,0.5,3.8
70,22,0,1,11,34,534,865.3245604084805,866.2001739225816,"[94, 0, 160]",160,l,0.3590739415958524,1,colour,0.5,3.8
70,22,0,1,11,35,535,866.7079988594633,867.5281548856292,"[93, 0, 161]",161,l,0.30389293376356363,1,colour,0.5,3.8
70,22,0,1,11,36,536,868.0363638226409,868.8881949319039,"[24, 0, 230]",230,a,0.33564324164763093,1,colour,0.5,3.8
70,22,0,1,11,37,537,869.3965011488181,870.2321668395307,"[81, 0, 173]",173,l,0.32016469072550535,1,colour,0.5,3.8
70,22,0,1,11,38,538,870.7408216104377,871.5601474088617,"[0, 0, 254]",254,a,0.303055222844705,1,colour,0.5,3.8
70,22,0,1,11,39,539,872.0680664749816,872.9041315256618,"[26, 0, 228]",228,a,0.3195053921081126,1,colour,0.5,3.8
70,22,0,1,11,40,540,873.4123865426518,875.4882176960818,"[70, 0, 184]",184,a,1.5590410947334021,0,colour,0.5,3.8
70,22,0,1,11,41,541,875.9968346578535,876.9121640196536,"[52, 0, 202]",202,a,0.39894929714500904,0,colour,0.5,3.8
70,22,0,1,11,42,542,877.4204273074865,878.3121916677337,"[3, 0, 251]",251,a,0.3756560494657606,1,colour,0.5,3.8
70,22,0,1,11,43,543,878.820532543119,879.6962212817743,"[56, 0, 198]",198,a,0.35734062432311475,0,colour,0.5,3.8
70,22,0,1,11,44,544,880.2038890740369,881.0641567634884,"[51, 0, 203]",203,a,0.34388486784882843,0,colour,0.5,3.8
70,22,0,1,11,45,545,881.5721857126337,882.4721704313997,"[57, 0, 197]",197,a,0.38363616168498993,0,colour,0.5,3.8
70,22,0,1,11,46,546,882.9805243038572,883.8081634084228,"[86, 0, 168]",168,l,0.31117278756573796,1,colour,0.5,3.8
70,22,0,1,11,47,547,884.3159627453424,885.1841888856143,"[91, 0, 163]",163,l,0.35194059857167304,1,colour,0.5,3.8
70,22,0,1,11,48,548,885.6921134656295,886.4961706330068,"[46, 0, 208]",208,a,0.2877440566662699,1,colour,0.5,3.8
70,22,0,1,11,49,549,887.0044362840708,888.0401707403362,"[29, 0, 225]",225,a,0.5192476592492312,1,colour,0.5,3.8
70,22,0,1,11,50,550,888.5489137326367,889.3121566153131,"[7, 0, 247]",247,a,0.2468001963570714,1,colour,0.5,3.8
70,22,0,1,12,1,551,894.1554542582016,895.0561671988107,"[19, 0, 235]",235,a,0.384195817168802,1,colour,0.5,3.8
70,22,0,1,12,2,552,895.5646415881347,896.3361194015015,"[38, 0, 216]",216,a,0.25511310854926705,1,colour,0.5,3.8
70,22,0,1,12,3,553,896.8438439078163,897.6961641740054,"[7, 0, 247]",247,a,0.33581535215489566,1,colour,0.5,3.8
70,22,0,1,12,4,554,898.2043120649178,899.3201465737075,"[62, 0, 192]",192,l,0.5996742101851851,1,colour,0.5,3.8
70,22,0,1,12,5,555,899.8286796463653,900.6881675201003,"[31, 0, 223]",223,a,0.3428490520454943,1,colour,0.5,3.8
70,22,0,1,12,6,556,901.1969849495217,902.0641886650119,"[83, 0, 171]",171,l,0.3507078599650413,1,colour,0.5,3.8
70,22,0,1,12,7,557,902.5723062297329,905.9361996673979,"[55, 0, 199]",199,l,2.847475169925019,1,colour,0.5,3.8
70,22,0,1,12,8,558,906.4441222781315,907.3121282584034,"[93, 0, 161]",161,l,0.3514541983604431,1,colour,0.5,3.8
70,22,0,1,12,9,559,907.820361220045,909.0481740895193,"[68, 0, 186]",186,l,0.711424533976242,1,colour,0.5,3.8
70,22,0,1,12,10,560,909.5560427433811,910.4641666882671,"[34, 0, 220]",220,a,0.39180374471470714,1,colour,0.5,3.8
70,22,0,1,12,11,561,910.972330726916,911.8161320991348,"[95, 0, 159]",159,l,0.32729055057279766,1,colour,0.5,3.8
70,22,0,1,12,12,562,912.3236730729695,913.1284753975924,"[23, 0, 231]",231,a,0.28567163785919547,1,colour,0.5,3.8
70,22,0,1,12,13,563,913.637979694875,914.4241255235393,"[27, 0, 227]",227,a,0.2698126316536218,1,colour,0.5,3.8
70,22,0,1,12,14,564,914.9321572296321,915.7281645741314,"[16, 0, 238]",238,a,0.27954535954631865,1,colour,0.5,3.8
70,22,0,1,12,15,565,916.2364022620022,917.0561829525977,"[1, 0, 253]",253,a,0.3043675182852894,1,colour,0.5,3.8
70,22,0,1,12,16,566,917.564866474364,918.4081664804835,"[98, 0, 156]",156,l,0.32700895075686276,1,colour,0.5,3.8
70,22,0,1,12,17,567,918.9159866911359,919.7761874266434,"[51, 0, 203]",203,a,0.3438198829535395,0,colour,0.5,3.8
70,22,0,1,12,18,568,920.2844936437905,921.1761760839727,"[75, 0, 179]",179,l,0.3753019815776497,1,colour,0.5,3.8
70,22,0,1,12,19,569,921.68475444871,922.4722046961542,"[80, 0, 174]",174,l,0.2711674626916647,1,colour,0.5,3.8
70,22,0,1,12,20,570,922.9798921807669,923.784182111267,"[72, 0, 182]",182,l,0.2878594535868615,1,colour,0.5,3.8
70,22,0,1,12,21,571,924.2921511959285,925.0881829590071,"[29, 0, 225]",225,a,0.2797690643928945,1,colour,0.5,3.8
70,22,0,1,12,22,572,925.596401741961,926.4722129667643,"[65, 0, 189]",189,l,0.35905661224387586,1,colour,0.5,3.8
70,22,0,1,12,23,573,926.9807220145594,927.7682203112636,"[69, 0, 185]",185,l,0.2708882256411016,1,colour,0.5,3.8
70,22,0,1,12,24,574,928.2759530881885,929.0321925971657,"[26, 0, 228]",228,a,0.23984723491594195,1,colour,0.5,3.8
70,22,0,1,12,25,575,929.5402195772622,930.3281314123888,"[22, 0, 232]",232,a,0.27141716121695936,1,colour,0.5,3.8
70,22,0,1,12,26,576,930.8364510200918,931.6241300920956,"[52, 0, 202]",202,a,0.27080551791004837,0,colour,0.5,3.8
70,22,0,1,12,27,577,932.1327592630405,932.9442081367597,"[53, 0, 201]",201,a,0.29514482128433883,0,colour,0.5,3.8
70,22,0,1,12,28,578,933.4519338244572,934.2321751103736,"[49, 0, 205]",205,a,0.2638887905050069,1,colour,0.5,3.8
70,22,0,1,12,29,579,934.7401835795026,935.5201861946844,"[48, 0, 206]",206,a,0.2636800517793745,1,colour,0.5,3.8
70,22,0,1,12,30,580,936.0283915870823,936.8001643915195,"[39, 0, 215]",215,a,0.2553915581665933,1,colour,0.5,3.8
70,22,0,1,12,31,581,937.3076821283903,938.0801709450316,"[86, 0, 168]",168,l,0.25607212423346937,1,colour,0.5,3.8
70,22,0,1,12,32,582,938.5880262081046,939.2881768937223,"[21, 0, 233]",233,a,0.18497539637610316,1,colour,0.5,3.8
70,22,0,1,12,33,583,939.7971735231113,940.5361881670542,"[5, 0, 249]",249,a,0.2226704191416502,1,colour,0.5,3.8
70,22,0,1,12,34,584,941.04425216862,941.7601385866292,"[28, 0, 226]",226,a,0.19959299941547215,1,colour,0.5,3.8
70,22,0,1,12,35,585,942.2683794251643,943.0402262725402,"[73, 0, 181]",181,l,0.25533720711246133,1,colour,0.5,3.8
70,22,0,1,12,36,586,943.5486404034309,944.2881355397403,"[11, 0, 243]",243,a,0.2230938037391752,1,colour,0.5,3.8
70,22,0,1,12,37,587,944.7968206368387,945.5762064887676,"[17, 0, 237]",237,a,0.2626359653659165,1,colour,0.5,3.8
70,22,0,1,12,38,588,946.0841314627323,946.8002010190394,"[32, 0, 222]",222,a,0.19961978076025844,1,colour,0.5,3.8
70,22,0,1,12,39,589,947.3082768360619,948.0481571541168,"[84, 0, 170]",170,l,0.22360383486375213,1,colour,0.5,3.8
70,22,0,1,12,40,590,948.5563991742674,949.3042363675777,"[99, 0, 155]",155,l,0.2311629254836589,1,colour,0.5,3.8
70,22,0,1,12,41,591,949.8126595569775,950.5282564978115,"[8, 0, 246]",246,a,0.19919915311038494,1,colour,0.5,3.8
70,22,0,1,12,42,592,951.0368254103232,951.7921582851559,"[74, 0, 180]",180,l,0.23896817001514137,1,colour,0.5,3.8
70,22,0,1,12,43,593,952.3010261270683,952.9921742754523,"[40, 0, 214]",214,a,0.17471294524148107,1,colour,0.5,3.8
70,22,0,1,12,44,594,953.5001335139386,954.2641621197108,"[0, 0, 254]",254,a,0.2475559872109443,1,colour,0.5,3.8
70,22,0,1,12,45,595,954.7723643614445,955.5042515699752,"[96, 0, 158]",158,l,0.2154976916499436,1,colour,0.5,3.8
70,22,0,1,12,46,596,956.0125877193641,956.7362557512242,"[25, 0, 229]",229,a,0.2070122747682035,1,colour,0.5,3.8
70,22,0,1,12,47,597,957.2437947557773,958.2322924765758,"[66, 0, 188]",188,a,0.4721983945928514,0,colour,0.5,3.8
70,22,0,1,12,48,598,958.740246988833,959.5121824515518,"[71, 0, 183]",183,l,0.25568457948975265,1,colour,0.5,3.8
70,22,0,1,12,49,599,960.0204244717024,960.7921468636487,"[59, 0, 195]",195,a,0.25340381590649486,0,colour,0.5,3.8
70,22,0,1,12,50,600,961.3006956900936,962.0805005943403,"[61, 0, 193]",193,a,0.26437282748520374,0,colour,0.5,3.8
70,22,0,1,13,1,601,966.6990786362439,967.8802317548543,"[64, 0, 190]",190,a,0.6647888077422976,0,colour,0.5,3.8
70,22,0,1,13,2,602,968.3884690487757,970.304174927529,"[68, 0, 186]",186,a,1.3993262078147382,0,colour,0.5,3.8
70,22,0,1,13,3,603,970.812774166232,971.6241938951425,"[90, 0, 164]",164,l,0.29494002112187445,1,colour,0.5,3.8
70,22,0,1,13,4,604,972.1322602599394,972.9121655949857,"[94, 0, 160]",160,l,0.2634776148479432,1,colour,0.5,3.8
70,22,0,1,13,5,605,973.4204706305172,974.1681735224556,"[48, 0, 206]",206,a,0.23057058081030846,1,colour,0.5,3.8
70,22,0,1,13,6,606,974.6765191240702,975.4642407314386,"[28, 0, 226]",226,a,0.2711706133559346,1,colour,0.5,3.8
70,22,0,1,13,7,607,975.9727352070622,976.7521698959172,"[10, 0, 244]",244,a,0.26292701810598373,1,colour,0.5,3.8
70,22,0,1,13,8,608,977.2599176389631,977.9762160198297,"[31, 0, 223]",223,a,0.19994352222420275,1,colour,0.5,3.8
70,22,0,1,13,9,609,978.4841358738486,982.9681882523,"[65, 0, 189]",189,a,3.9676435629371554,0,colour,0.5,3.8
70,22,0,1,13,10,610,983.4759426906239,984.3444055323489,"[53, 0, 201]",201,a,0.3521769060753286,0,colour,0.5,3.8
70,22,0,1,13,11,611,984.8522934848443,985.640158058377,"[51, 0, 203]",203,a,0.27129270578734577,0,colour,0.5,3.8
70,22,0,1,13,12,612,986.1484473401215,986.9522477197461,"[82, 0, 172]",172,l,0.28730491804890335,1,colour,0.5,3.8
70,22,0,1,13,13,613,987.4597571860068,988.2081469455734,"[87, 0, 167]",167,l,0.2318525502923876,1,colour,0.5,3.8
70,22,0,1,13,14,614,988.7159120179713,989.4802033191081,"[21, 0, 233]",233,a,0.24872925505042076,1,colour,0.5,3.8
70,22,0,1,13,15,615,989.9882905576378,990.7841738406569,"[81, 0, 173]",173,l,0.2797032920643687,1,colour,0.5,3.8
70,22,0,1,13,16,616,991.2924060143996,991.9841854984406,"[14, 0, 240]",240,a,0.1753557021729648,1,colour,0.5,3.8
70,22,0,1,13,17,617,992.4925799369812,993.328175917035,"[26, 0, 228]",228,a,0.31924427207559347,1,colour,0.5,3.8
70,22,0,1,13,18,618,993.8358941215556,994.6162527736742,"[27, 0, 227]",227,a,0.26340120867826045,1,colour,0.5,3.8
70,22,0,1,13,19,619,995.1240615628194,995.9121695335489,"[9, 0, 245]",245,a,0.2717420842964202,1,colour,0.5,3.8
70,22,0,1,13,20,620,996.4205639720894,997.1201353098731,"[92, 0, 162]",162,l,0.18134216498583555,1,colour,0.5,3.8
70,22,0,1,13,21,621,997.6286778345238,998.4161879466847,"[40, 0, 214]",214,a,0.2712627735454589,1,colour,0.5,3.8
70,22,0,1,13,22,622,998.9237387664616,999.6801736231428,"[7, 0, 247]",247,a,0.23993466864340007,1,colour,0.5,3.8
70,22,0,1,13,23,623,1000.1879501170479,1000.9681492613163,"[36, 0, 218]",218,a,0.26386673492379487,1,colour,0.5,3.8
70,22,0,1,13,24,624,1001.4761683645193,1002.7043163971975,"[60, 0, 194]",194,l,0.7118160170502961,1,colour,0.5,3.8
70,22,0,1,13,25,625,1003.2128262326587,1004.0082341432571,"[35, 0, 219]",219,a,0.2782704795245081,1,colour,0.5,3.8
70,22,0,1,13,26,626,1004.5161217015702,1005.2801920552738,"[18, 0, 236]",236,a,0.24765366106294096,1,colour,0.5,3.8
70,22,0,1,13,27,627,1005.7883568813559,1006.5601852179971,"[74, 0, 180]",180,l,0.2555467332713306,1,colour,0.5,3.8
70,22,0,1,13,28,628,1007.0685524812434,1007.6961531462148,"[22, 0, 232]",232,a,0.1109807479660958,1,colour,0.5,3.8
70,22,0,1,13,29,629,1008.2037079047877,1009.0561809833162,"[57, 0, 197]",197,a,0.33611467527225614,0,colour,0.5,3.8
70,22,0,1,13,30,630,1009.5640252188314,1010.304330496816,"[49, 0, 205]",205,a,0.22479915805161,1,colour,0.5,3.8
70,22,0,1,13,31,631,1010.8131660432555,1011.9201768212952,"[67, 0, 187]",187,l,0.5904003132600337,1,colour,0.5,3.8
70,22,0,1,13,32,632,1012.4286827181932,1013.1681947901379,"[84, 0, 170]",170,l,0.2225794408004731,1,colour,0.5,3.8
70,22,0,1,13,33,633,1013.6758842437994,1014.5361684749369,"[69, 0, 185]",185,l,0.3439100740943104,1,colour,0.5,3.8
70,22,0,1,13,34,634,1015.0442486240063,1015.8481541608926,"[62, 0, 192]",192,a,0.28731594583950937,0,colour,0.5,3.8
70,22,0,1,13,35,635,1016.3565174855758,1017.0801926066633,"[95, 0, 159]",159,l,0.20740297017619014,1,colour,0.5,3.8
70,22,0,1,13,36,636,1017.5887008667924,1019.9681835260708,"[70, 0, 184]",184,a,1.8631746685132384,0,colour,0.5,3.8
70,22,0,1,13,37,637,1020.4764775338117,1021.2481786580756,"[12, 0, 242]",242,a,0.2550300071015954,1,colour,0.5,3.8
70,22,0,1,13,38,638,1021.756603816757,1022.9202169934288,"[61, 0, 193]",193,a,0.6471712780185044,0,colour,0.5,3.8
70,22,0,1,13,39,639,1023.4288485276047,1024.176155210007,"[37, 0, 217]",217,a,0.23041225457563996,1,colour,0.5,3.8
70,22,0,1,13,40,640,1024.6844645778183,1025.4081574219745,"[85, 0, 169]",169,l,0.20724661322310567,1,colour,0.5,3.8
70,22,0,1,13,41,641,1025.9166333866306,1026.6561434892938,"[29, 0, 225]",225,a,0.22307096095755696,1,colour,0.5,3.8
70,22,0,1,13,42,642,1027.1638498783577,1028.3201603584457,"[4, 0, 250]",250,a,0.6397126181982458,1,colour,0.5,3.8
70,22,0,1,13,43,643,1028.8284342801198,1029.6801996170543,"[39, 0, 215]",215,a,0.33520843531005085,1,colour,0.5,3.8
70,22,0,1,13,44,644,1030.1877488614991,1031.0001512370072,"[2, 0, 252]",252,a,0.29598331986926496,1,colour,0.5,3.8
70,22,0,1,13,45,645,1031.5080860569142,1032.2722202136647,"[3, 0, 251]",251,a,0.2478974519763142,1,colour,0.5,3.8
70,22,0,1,13,46,646,1032.7802015074994,1033.545026076492,"[44, 0, 210]",210,a,0.24837912572547793,1,colour,0.5,3.8
70,22,0,1,13,47,647,1034.055418890901,1034.8481486469973,"[66, 0, 188]",188,l,0.2764044359792024,1,colour,0.5,3.8
70,22,0,1,13,48,648,1035.355698679341,1036.1601993176155,"[38, 0, 216]",216,a,0.28789293044246733,1,colour,0.5,3.8
70,22,0,1,13,49,649,1036.668065608479,1037.4162033065222,"[91, 0, 163]",163,l,0.23169973795302212,1,colour,0.5,3.8
70,22,0,1,13,50,650,1037.9241326127667,1038.7521813174244,"[73, 0, 181]",181,l,0.3117155076470226,1,colour,0.5,3.8
70,22,0,1,14,1,651,1044.2995180897415,1045.896191585809,"[72, 0, 182]",182,a,1.0814229822717607,0,colour,0.5,3.8
70,22,0,1,14,2,652,1046.4042953657918,1047.1841912486125,"[16, 0, 238]",238,a,0.26354929502122104,1,colour,0.5,3.8
70,22,0,1,14,3,653,1047.6924903762992,1048.8962683856953,"[62, 0, 192]",192,a,0.6866894152481109,0,colour,0.5,3.8
70,22,0,1,14,4,654,1049.404161064187,1050.1361774546094,"[43, 0, 211]",211,a,0.21561269485391676,1,colour,0.5,3.8
70,22,0,1,14,5,655,1050.6444324715994,1051.384160764981,"[42, 0, 212]",212,a,0.2234762287698686,1,colour,0.5,3.8
70,22,0,1,14,6,656,1051.892644212814,1052.6321948813275,"[79, 0, 175]",175,l,0.22329978551715612,1,colour,0.5,3.8
70,22,0,1,14,7,657,1053.1398150182795,1053.9042626766022,"[78, 0, 176]",176,l,0.24733582721091807,1,colour,0.5,3.8
70,22,0,1,14,8,658,1054.4121963151265,1055.1521459498908,"[90, 0, 164]",164,l,0.22377515793778002,1,colour,0.5,3.8
70,22,0,1,14,9,659,1055.6602044377942,1056.408230677247,"[7, 0, 247]",247,a,0.2315989132039249,1,colour,0.5,3.8
70,22,0,1,14,10,660,1056.9164014111739,1057.6561907506548,"[24, 0, 230]",230,a,0.22310049924999475,1,colour,0.5,3.8
70,22,0,1,14,11,661,1058.1645359585527,1058.9281841090415,"[32, 0, 222]",222,a,0.24713732884265482,1,colour,0.5,3.8
70,22,0,1,14,12,662,1059.435850325739,1060.4482879897114,"[66, 0, 188]",188,l,0.4959414144977927,1,colour,0.5,3.8
70,22,0,1,14,13,663,1060.9564524223097,1061.6962598785758,"[13, 0, 241]",241,a,0.22368024080060422,1,colour,0.5,3.8
70,22,0,1,14,14,664,1062.2044349447824,1062.9521654059645,"[40, 0, 214]",214,a,0.22940912819467485,1,colour,0.5,3.8
70,22,0,1,14,15,665,1063.4607457399834,1064.2001892824192,"[8, 0, 246]",246,a,0.22417609323747456,1,colour,0.5,3.8
70,22,0,1,14,16,666,1064.708835782716,1065.5121997809038,"[77, 0, 177]",177,l,0.2867283271625638,1,colour,0.5,3.8
70,22,0,1,14,17,667,1066.0200774932746,1066.8481876377482,"[60, 0, 194]",194,a,0.31155048590153456,0,colour,0.5,3.8
70,22,0,1,14,18,668,1067.3564186301082,1068.0961882774718,"[3, 0, 251]",251,a,0.22355381632223725,1,colour,0.5,3.8
70,22,0,1,14,19,669,1068.604682359146,1069.384255287936,"[98, 0, 156]",156,l,0.26334882713854313,1,colour,0.5,3.8
70,22,0,1,14,20,670,1069.8928214435,1070.6561950831674,"[45, 0, 209]",209,a,0.24698018422350287,1,colour,0.5,3.8
70,22,0,1,14,21,671,1071.16403498617,1071.8961947364733,"[86, 0, 168]",168,l,0.21566743939183652,1,colour,0.5,3.8
70,22,0,1,14,22,672,1072.4042394396383,1073.2642641258426,"[67, 0, 187]",187,l,0.3416304918937385,1,colour,0.5,3.8
70,22,0,1,14,23,673,1073.7725203244481,1074.5282962764613,"[22, 0, 232]",232,a,0.2393911611288786,1,colour,0.5,3.8
70,22,0,1,14,24,674,1075.0367627888918,1075.9362083319575,"[0, 0, 254]",254,a,0.38298040768131614,1,colour,0.5,3.8
70,22,0,1,14,25,675,1076.4441553612705,1077.2722170627676,"[21, 0, 233]",233,a,0.3117332304827869,1,colour,0.5,3.8
70,22,0,1,14,26,676,1077.7805220982991,1078.5682925425936,"[76, 0, 178]",178,l,0.271187154809013,1,colour,0.5,3.8
70,22,0,1,14,27,677,1079.0766322365962,1079.8402260362636,"[81, 0, 173]",173,l,0.24575098999775946,1,colour,0.5,3.8
70,22,0,1,14,28,678,1080.3490166841075,1081.0561991003342,"[5, 0, 249]",249,a,0.19069916382431984,1,colour,0.5,3.8
70,22,0,1,14,29,679,1081.564181969501,1082.3682166878134,"[1, 0, 253]",253,a,0.28763850568793714,1,colour,0.5,3.8
70,22,0,1,14,30,680,1082.876277538715,1083.6002232320607,"[6, 0, 248]",248,a,0.20761446561664343,1,colour,0.5,3.8
70,22,0,1,14,31,681,1084.1084412275814,1085.256170192035,"[61, 0, 193]",193,a,0.6323602967895567,0,colour,0.5,3.8
70,22,0,1,14,32,682,1085.76405105507,1086.4642497899476,"[56, 0, 198]",198,a,0.18375644250772893,0,colour,0.5,3.8
70,22,0,1,14,33,683,1086.9723027637228,1087.760217355797,"[46, 0, 208]",208,a,0.271373444236815,1,colour,0.5,3.8
70,22,0,1,14,34,684,1088.2684444098268,1089.152195574483,"[50, 0, 204]",204,a,0.3673198998440057,1,colour,0.5,3.8
70,22,0,1,14,35,685,1089.65977750835,1090.3682068416383,"[27, 0, 227]",227,a,0.19198782835155725,1,colour,0.5,3.8
70,22,0,1,14,36,686,1090.8759738833178,1091.7443890697323,"[64, 0, 190]",190,l,0.35138921393081546,1,colour,0.5,3.8
70,22,0,1,14,37,687,1092.2522612682078,1092.832329025492,"[11, 0, 243]",243,a,0.06318987091071904,1,colour,0.5,3.8
70,22,0,1,14,38,688,1093.3413134457078,1094.0971520191524,"[91, 0, 163]",163,l,0.23733173916116357,1,colour,0.5,3.8
70,22,0,1,14,39,689,1094.605497620767,1095.2881938291248,"[35, 0, 219]",219,a,0.16637285752221942,1,colour,0.5,3.8
70,22,0,1,14,40,690,1095.7966678244993,1096.7601590666454,"[68, 0, 186]",186,l,0.4469756942708045,1,colour,0.5,3.8
70,22,0,1,14,41,691,1097.2682782066986,1098.1202038391493,"[47, 0, 207]",207,a,0.335616460070014,1,colour,0.5,3.8
70,22,0,1,14,42,692,1098.628356456058,1099.336219044635,"[87, 0, 167]",167,l,0.19132695463486016,1,colour,0.5,3.8
70,22,0,1,14,43,693,1099.8446386894211,1100.5681791149545,"[29, 0, 225]",225,a,0.20720171462744474,1,colour,0.5,3.8
70,22,0,1,14,44,694,1101.0767444828525,1101.78433846822,"[93, 0, 161]",161,l,0.19118556380271912,1,colour,0.5,3.8
70,22,0,1,14,45,695,1102.291883380618,1103.0562077648938,"[10, 0, 244]",244,a,0.2478261657524854,1,colour,0.5,3.8
70,22,0,1,14,46,696,1103.5640961111058,1104.3442668984644,"[39, 0, 215]",215,a,0.2637084086891264,1,colour,0.5,3.8
70,22,0,1,14,47,697,1104.8524002172053,1105.5602860427462,"[89, 0, 165]",165,l,0.1916479393839836,1,colour,0.5,3.8
70,22,0,1,14,48,698,1106.0685186104383,1106.768196680583,"[96, 0, 158]",158,l,0.18315110076218843,1,colour,0.5,3.8
70,22,0,1,14,49,699,1107.2756907865405,1108.0401959463488,"[59, 0, 195]",195,a,0.24816093500703573,0,colour,0.5,3.8
70,22,0,1,14,50,700,1108.5478889448568,1109.2642259227578,"[94, 0, 160]",160,l,0.19977535004727542,1,colour,0.5,3.8
70,22,0,1,15,1,701,1114.067426474765,1114.904209901113,"[20, 0, 234]",234,a,0.3215841124765575,1,colour,0.5,3.8
70,22,0,1,15,2,702,1115.4124857920688,1116.1042085620575,"[58, 0, 196]",196,a,0.17506898217834532,0,colour,0.5,3.8
70,22,0,1,15,3,703,1116.6126191483345,1117.328210575506,"[51, 0, 203]",203,a,0.19889667932875454,0,colour,0.5,3.8
70,22,0,1,15,4,704,1117.8359370508697,1118.5522023488302,"[43, 0, 211]",211,a,0.19970524567179382,1,colour,0.5,3.8
70,22,0,1,15,5,705,1119.0602049103472,1119.856205165619,"[64, 0, 190]",190,a,0.2796241289470345,0,colour,0.5,3.8
70,22,0,1,15,6,706,1120.3642388409935,1121.144230034668,"[71, 0, 183]",183,l,0.263570956652984,1,colour,0.5,3.8
70,22,0,1,15,7,707,1121.6524673285894,1122.4002856172156,"[88, 0, 166]",166,l,0.23236691346392035,1,colour,0.5,3.8
70,22,0,1,15,8,708,1122.9086654835846,1123.6242167383898,"[15, 0, 239]",239,a,0.1990101069677621,1,colour,0.5,3.8
70,22,0,1,15,9,709,1124.1328719030134,1124.8721815380268,"[54, 0, 200]",200,a,0.22288861009292305,0,colour,0.5,3.8
70,22,0,1,15,10,710,1125.3803357302677,1126.0561979187187,"[34, 0, 220]",220,a,0.15964793297462165,1,colour,0.5,3.8
70,22,0,1,15,11,711,1126.5642182035372,1127.2401894873474,"[50, 0, 204]",204,a,0.15922888065688312,1,colour,0.5,3.8
70,22,0,1,15,12,712,1127.7483310766984,1128.4562007545028,"[3, 0, 251]",251,a,0.1914006038568914,1,colour,0.5,3.8
70,22,0,1,15,13,713,1128.9645975560416,1129.6641941000707,"[32, 0, 222]",222,a,0.18330430681817234,1,colour,0.5,3.8
70,22,0,1,15,14,714,1130.1726515539922,1130.8962061579805,"[87, 0, 167]",167,l,0.2072005330119282,1,colour,0.5,3.8
70,22,0,1,15,15,715,1131.4038231440354,1132.0962075758725,"[22, 0, 232]",232,a,0.1759811299853027,1,colour,0.5,3.8
70,22,0,1,15,16,716,1132.6039718603715,1133.4802088330034,"[66, 0, 188]",188,l,0.3599069262854755,1,colour,0.5,3.8
70,22,0,1,15,17,717,1133.9883114316035,1134.7202191203833,"[57, 0, 197]",197,a,0.21551699028350413,0,colour,0.5,3.8
70,22,0,1,15,18,718,1135.2285154911224,1135.9761856938712,"[14, 0, 240]",240,a,0.2312275164294988,1,colour,0.5,3.8
70,22,0,1,15,19,719,1136.4847475169227,1137.152206208557,"[1, 0, 253]",253,a,0.15107468841597438,1,colour,0.5,3.8
70,22,0,1,15,20,720,1137.659867699258,1138.3841769124847,"[75, 0, 179]",179,l,0.20662709278985858,1,colour,0.5,3.8
70,22,0,1,15,21,721,1138.8921948340721,1139.8562012270559,"[19, 0, 235]",235,a,0.4476735896896571,1,colour,0.5,3.8
70,22,0,1,15,22,722,1140.364460970275,1141.4642872053664,"[55, 0, 199]",199,a,0.5833768534939736,0,colour,0.5,3.8
70,22,0,1,15,23,723,1141.9719530283473,1144.2322066179477,"[31, 0, 223]",223,a,1.7436844785697758,1,colour,0.5,3.8
70,22,0,1,15,24,724,1144.740613659611,1145.4802131652832,"[68, 0, 186]",186,l,0.22314736689440906,1,colour,0.5,3.8
70,22,0,1,15,25,725,1145.9877864345908,1147.36033779406,"[59, 0, 195]",195,l,0.8541685866657645,1,colour,0.5,3.8
70,22,0,1,15,26,726,1147.8686278634705,1148.6002031459939,"[81, 0, 173]",173,l,0.21509360545314848,1,colour,0.5,3.8
70,22,0,1,15,27,727,1149.108987098327,1149.8962506626267,"[91, 0, 163]",163,l,0.27106466866098344,1,colour,0.5,3.8
70,22,0,1,15,28,728,1150.404152793344,1151.0482087479904,"[94, 0, 160]",160,l,0.12579291104339063,1,colour,0.5,3.8
70,22,0,1,15,29,729,1151.556154595688,1152.2882911090273,"[60, 0, 194]",194,a,0.21541813458316028,0,colour,0.5,3.8
70,22,0,1,15,30,730,1152.7963578675408,1153.6161948782392,"[36, 0, 218]",218,a,0.3032852290198207,1,colour,0.5,3.8
70,22,0,1,15,31,731,1154.1237141904421,1154.8961943427566,"[18, 0, 236]",236,a,0.2571236938238144,1,colour,0.5,3.8
70,22,0,1,15,32,732,1155.4038881286979,1156.632228358416,"[62, 0, 192]",192,a,0.7120310571044683,0,colour,0.5,3.8
70,22,0,1,15,33,733,1157.140527092386,1157.9681839197874,"[41, 0, 213]",213,a,0.31138940271921456,1,colour,0.5,3.8
70,22,0,1,15,34,734,1158.4767902477179,1159.216209371807,"[44, 0, 210]",210,a,0.22297210549004376,1,colour,0.5,3.8
70,22,0,1,15,35,735,1159.724000044167,1160.5922313043848,"[61, 0, 193]",193,a,0.3503179522231221,0,colour,0.5,3.8
70,22,0,1,15,36,736,1161.1002669490408,1161.7842447329313,"[37, 0, 217]",217,a,0.1684882054105401,1,colour,0.5,3.8
70,22,0,1,15,37,737,1162.2925001438707,1163.0641685787123,"[10, 0, 244]",244,a,0.25534547795541584,1,colour,0.5,3.8
70,22,0,1,15,38,738,1163.5716748940758,1164.3282101815566,"[92, 0, 162]",162,l,0.24015167797915637,1,colour,0.5,3.8
70,22,0,1,15,39,739,1164.8359122385737,1165.5842480412684,"[25, 0, 229]",229,a,0.23186475946567953,1,colour,0.5,3.8
70,22,0,1,15,40,740,1166.0920824303757,1166.8642282071523,"[52, 0, 202]",202,a,0.25578028429299593,0,colour,0.5,3.8
70,22,0,1,15,41,741,1167.3723497102037,1168.1121835543308,"[8, 0, 246]",246,a,0.22349355788901448,1,colour,0.5,3.8
70,22,0,1,15,42,742,1168.620564996032,1169.384208026342,"[42, 0, 212]",212,a,0.24535202351398766,1,colour,0.5,3.8
70,22,0,1,15,43,743,1169.8918636094313,1170.656237618532,"[27, 0, 227]",227,a,0.24795771040953696,1,colour,0.5,3.8
70,22,0,1,15,44,744,1171.1649526478723,1171.8882421934977,"[30, 0, 224]",224,a,0.20646797912195325,1,colour,0.5,3.8
70,22,0,1,15,45,745,1172.3964519181754,1173.1682184208184,"[67, 0, 187]",187,l,0.2545105239842087,1,colour,0.5,3.8
70,22,0,1,15,46,746,1173.676377733238,1174.4242842434905,"[9, 0, 245]",245,a,0.23126808227971196,1,colour,0.5,3.8
70,22,0,1,15,47,747,1174.9327822637279,1175.744222866604,"[40, 0, 214]",214,a,0.29445243952795863,1,colour,0.5,3.8
70,22,0,1,15,48,748,1176.2518370957114,1176.9442345243879,"[46, 0, 208]",208,a,0.17603548080660403,1,colour,0.5,3.8
70,22,0,1,15,49,749,1177.4519940828905,1178.2561918534338,"[65, 0, 189]",189,l,0.28780904109589756,1,colour,0.5,3.8
70,22,0,1,15,50,750,1178.7642830305267,1179.5282332608476,"[89, 0, 165]",165,l,0.24731849785894156,1,colour,0.5,3.8
70,22,0,1,16,1,751,1184.587079007877,1187.3842190541327,"[54, 0, 200]",200,a,2.282023440115154,0,colour,0.5,3.7
70,22,0,1,16,2,752,1187.892047535628,1188.6162598629016,"[32, 0, 222]",222,a,0.2079425393603742,1,colour,0.5,3.7
70,22,0,1,16,3,753,1189.1243384368718,1189.8642853149213,"[31, 0, 223]",223,a,0.22374798264354467,1,colour,0.5,3.7
70,22,0,1,16,4,754,1190.372363494942,1191.0881935928483,"[85, 0, 169]",169,l,0.19954258715733886,1,colour,0.5,3.7
70,22,0,1,16,5,755,1191.5965742466506,1192.3922054679133,"[14, 0, 240]",240,a,0.27909558708779514,1,colour,0.5,3.7
70,22,0,1,16,6,756,1192.8998240295332,1193.6242309168447,"[36, 0, 218]",218,a,0.20781375165097415,1,colour,0.5,3.7
70,22,0,1,16,7,757,1194.1320050475188,1194.864399136277,"[90, 0, 164]",164,l,0.21589862694963813,1,colour,0.5,3.7
70,22,0,1,16,8,758,1195.3733752858825,1196.1601965609007,"[70, 0, 184]",184,l,0.270631831837818,1,colour,0.5,3.7
70,22,0,1,16,9,759,1196.6684523655567,1197.4642324605957,"[23, 0, 231]",231,a,0.2804413598496467,1,colour,0.5,3.7
70,22,0,1,16,10,760,1197.9716639451217,1198.7601968757808,"[25, 0, 229]",229,a,0.2721524720545858,1,colour,0.5,3.7
70,22,0,1,16,11,761,1199.2689197822474,1199.9762195644435,"[74, 0, 180]",180,l,0.1907862036023289,1,colour,0.5,3.7
70,22,0,1,16,12,762,1200.4841149998829,1201.24820150109,"[22, 0, 232]",232,a,0.24762727320194244,1,colour,0.5,3.7
70,22,0,1,16,13,763,1201.7564998413436,1202.6081749873701,"[57, 0, 197]",197,a,0.3353557335212827,0,colour,0.5,3.7
70,22,0,1,16,14,764,1203.116681672167,1203.8563886978664,"[75, 0, 179]",179,l,0.223344290163368,1,colour,0.5,3.7
70,22,0,1,16,15,765,1204.3647953455802,1205.1042274667416,"[87, 0, 167]",167,l,0.22293626540340483,1,colour,0.5,3.7
70,22,0,1,16,16,766,1205.6130074807443,1206.352197780041,"[10, 0, 244]",244,a,0.22262867144308984,1,colour,0.5,3.7
70,22,0,1,16,17,767,1206.8605705571827,1207.6321862167679,"[19, 0, 235]",235,a,0.25556721328757703,1,colour,0.5,3.7
70,22,0,1,16,18,768,1208.1404573814943,1208.792207122082,"[33, 0, 221]",221,a,0.13531020493246615,1,colour,0.5,3.7
70,22,0,1,16,19,769,1209.3005948653445,1210.0082424138673,"[27, 0, 227]",227,a,0.19107528682798147,1,colour,0.5,3.7
70,22,0,1,16,20,770,1210.5166860832833,1211.312246806221,"[40, 0, 214]",214,a,0.27912433817982674,1,colour,0.5,3.7
70,22,0,1,16,21,771,1211.8199618598446,1212.8562429747544,"[59, 0, 195]",195,l,0.5207033148035407,1,colour,0.5,3.7
70,22,0,1,16,22,772,1213.364450336434,1214.1361880884506,"[60, 0, 194]",194,a,0.25526355812326074,0,colour,0.5,3.7
70,22,0,1,16,23,773,1214.6438491852023,1215.3922117694747,"[39, 0, 215]",215,a,0.2310849439818412,1,colour,0.5,3.7
70,22,0,1,16,24,774,1215.9009287680965,1216.6242399753537,"[17, 0, 237]",237,a,0.20692877937108278,1,colour,0.5,3.7
70,22,0,1,16,25,775,1217.132048764499,1217.8882567656692,"[72, 0, 182]",182,l,0.23971765954047441,1,colour,0.5,3.7
70,22,0,1,16,26,776,1218.396301862551,1219.2963098182809,"[66, 0, 188]",188,a,0.3833486537914723,0,colour,0.5,3.7
70,22,0,1,16,27,777,1219.80461761076,1220.5682043212,"[38, 0, 216]",216,a,0.24729959340766072,1,colour,0.5,3.7
70,22,0,1,16,28,778,1221.075885110302,1221.824245331576,"[97, 0, 157]",157,l,0.2321144579909742,1,colour,0.5,3.7
70,22,0,1,16,29,779,1222.3321250129957,1223.1282371205743,"[93, 0, 161]",161,l,0.27968478109687567,1,colour,0.5,3.7
70,22,0,1,16,30,780,1223.636322783772,1224.3921991665848,"[63, 0, 191]",191,a,0.23956839181482792,0,colour,0.5,3.7
70,22,0,1,16,31,781,1224.9005093220621,1225.6562214707956,"[13, 0, 241]",241,a,0.23930924106389284,1,colour,0.5,3.7
70,22,0,1,16,32,782,1226.1647135831881,1226.9202295965515,"[24, 0, 230]",230,a,0.23897998547181487,1,colour,0.5,3.7
70,22,0,1,16,33,783,1227.428019087296,1228.1841845531017,"[78, 0, 176]",176,l,0.23988543800078332,1,colour,0.5,3.7
70,22,0,1,16,34,784,1228.6921756933443,1229.4323431251105,"[89, 0, 165]",165,l,0.22485311492346227,1,colour,0.5,3.7
70,22,0,1,16,35,785,1229.940498498967,1230.688222264871,"[7, 0, 247]",247,a,0.23148272885009646,1,colour,0.5,3.7
70,22,0,1,16,36,786,1231.1965611709747,1231.93618863984,"[76, 0, 178]",178,l,0.22305599483661354,1,colour,0.5,3.7
70,22,0,1,16,37,787,1232.443813896738,1233.232254273491,"[37, 0, 217]",217,a,0.2722017029300332,1,colour,0.5,3.7
70,22,0,1,16,38,788,1233.7880102966446,1234.5362771763466,"[68, 0, 186]",186,a,0.23167453170754015,0,colour,0.5,3.7
70,22,0,1,16,39,789,1235.0442269626074,1235.8162116562016,"[44, 0, 210]",210,a,0.25562747195363045,1,colour,0.5,3.7
70,22,0,1,16,40,790,1236.324447374558,1237.0802339604124,"[35, 0, 219]",219,a,0.23947701952420175,1,colour,0.5,3.7
70,22,0,1,16,41,791,1237.587676472729,1238.3362194385845,"[2, 0, 252]",252,a,0.2301771284546703,1,colour,0.5,3.7
70,22,0,1,16,42,792,1238.8457564250566,1239.6162126013078,"[96, 0, 158]",158,l,0.2537464622873813,1,colour,0.5,3.7
70,22,0,1,16,43,793,1240.1241230028681,1240.944197108969,"[4, 0, 250]",250,a,0.30375863215886056,1,colour,0.5,3.7
70,22,0,1,16,44,794,1241.4529558552895,1242.2082170501817,"[91, 0, 163]",163,l,0.23846483463421464,1,colour,0.5,3.7
70,22,0,1,16,45,795,1242.7166370889172,1243.4802950853482,"[51, 0, 203]",203,a,0.2472483932506293,0,colour,0.5,3.7
70,22,0,1,16,46,796,1243.9887923179194,1244.744221291272,"[0, 0, 254]",254,a,0.23900479800067842,1,colour,0.5,3.7
70,22,0,1,16,47,797,1245.252140357392,1246.0162737262435,"[86, 0, 168]",168,l,0.24774424568749964,1,colour,0.5,3.7
70,22,0,1,16,48,798,1246.5243168540765,1247.2802247444633,"[6, 0, 248]",248,a,0.2405951488763094,1,colour,0.5,3.7
70,22,0,1,16,49,799,1247.7884710968938,1248.536225582473,"[94, 0, 160]",160,l,0.2322365501895547,1,colour,0.5,3.7
70,22,0,1,16,50,800,1249.0448027658276,1249.87221777183,"[62, 0, 192]",192,a,0.31100619048811495,0,colour,0.5,3.7
