id,age,condition,counterbalance,block,trialinblock,trial,tstart,tend,trialstim,trialintensity,response,RT,accuracy,trialtype,colourfreq,credits
59,20,0,1,Practice,1,NA,5.907728336751461e-06,1.9491616608574986,"[5, 0, 249]",249,a,1.3131243432871997,1,colour,0.5,4
59,20,0,1,Practice,2,NA,2.456365485326387,4.405100611736998,"[82, 0, 172]",172,l,1.4254919522209093,1,colour,0.5,4
59,20,0,1,Practice,3,NA,4.924966956372373,6.4211068785516545,"[4, 0, 250]",250,a,0.9728179788216949,1,colour,0.5,4
59,20,0,1,Practice,4,NA,6.940573470317759,8.47712270799093,"[89, 0, 165]",165,l,1.0131780637893826,1,colour,0.5,4
59,20,0,1,Practice,5,NA,8.976212531561032,10.781132289441302,"[71, 0, 183]",183,a,1.2820223798044026,0,colour,0.5,4
59,20,0,1,Practice,6,NA,11.28882802661974,12.82109537825454,"[80, 0, 174]",174,l,1.0069895725464448,1,colour,0.5,4
59,20,0,1,Practice,7,NA,13.337614431744441,14.821124128997326,"[28, 0, 226]",226,a,0.9600735388230532,1,colour,0.5,4
59,20,0,1,Practice,8,NA,15.33761167479679,16.77313447301276,"[24, 0, 230]",230,a,0.9121677718358114,1,colour,0.5,4
59,20,0,1,Practice,9,NA,17.291737361927517,18.72515308763832,"[29, 0, 225]",225,a,0.9101658561266959,1,colour,0.5,4
59,20,0,1,Practice,10,NA,19.24482014658861,20.57308193400968,"[57, 0, 197]",197,a,0.8049941947683692,0,colour,0.5,4
59,20,0,1,1,1,1,4.545558448997326,6.023986754240468,"[72, 0, 182]",182,l,0.9544884186470881,1,colour,0.5,4.0
59,20,0,1,1,2,2,6.5266940467990935,8.048020769841969,"[83, 0, 171]",171,l,0.998089850298129,1,colour,0.5,4.0
59,20,0,1,1,3,3,8.557826730189845,9.767951468820684,"[45, 0, 209]",209,a,0.6840202782768756,1,colour,0.5,4.0
59,20,0,1,1,4,4,10.27933989954181,11.735962171922438,"[80, 0, 174]",174,l,0.9332140769110993,1,colour,0.5,4.0
59,20,0,1,1,5,5,12.248132385662757,13.57597354624886,"[11, 0, 243]",243,a,0.8045117342844605,1,colour,0.5,4.0
59,20,0,1,1,6,6,14.091825031908229,15.488042856683023,"[33, 0, 221]",221,a,0.8726560296490788,1,colour,0.5,4.0
59,20,0,1,1,7,7,15.998035893542692,17.311943595064804,"[75, 0, 179]",179,l,0.7909969327738509,1,colour,0.5,4.0
59,20,0,1,1,8,8,17.8262035518419,19.48791249387432,"[65, 0, 189]",189,l,1.1383035035105422,1,colour,0.5,4.0
59,20,0,1,1,9,9,19.99818122247234,21.303968621534295,"[36, 0, 218]",218,a,0.7829105010023341,1,colour,0.5,4.0
59,20,0,1,1,10,10,21.81064469332341,23.09591826610267,"[42, 0, 212]",212,a,0.762587295845151,1,colour,0.5,4.0
59,20,0,1,1,11,11,23.607541428646073,25.207940472639166,"[20, 0, 234]",234,a,1.0777706622611731,1,colour,0.5,4.0
59,20,0,1,1,12,12,25.719658158021048,27.687935494468547,"[53, 0, 201]",201,a,1.4571799574187025,0,colour,0.5,4.0
59,20,0,1,1,13,13,28.2071787759196,29.439913385547698,"[59, 0, 195]",195,a,0.7098069054773077,0,colour,0.5,4.0
59,20,0,1,1,14,14,29.957153569790535,31.231913836090825,"[91, 0, 163]",163,l,0.7517124393489212,1,colour,0.5,4.0
59,20,0,1,1,15,15,31.73861629550811,33.07988206704613,"[89, 0, 165]",165,l,0.8179678528103977,1,colour,0.5,4.0
59,20,0,1,1,16,16,33.59787567728199,34.888022691826336,"[63, 0, 191]",191,a,0.7668888742337003,0,colour,0.5,4.0
59,20,0,1,1,17,17,35.394782652612776,37.103946014889516,"[67, 0, 187]",187,a,1.1865381313255057,0,colour,0.5,4.0
59,20,0,1,1,18,18,37.61345304653514,38.767925081192516,"[84, 0, 170]",170,l,0.6306723569286987,1,colour,0.5,4.0
59,20,0,1,1,19,19,39.286493311752565,42.43187815370038,"[68, 0, 186]",186,l,2.6221901106182486,1,colour,0.5,4.0
59,20,0,1,1,20,20,42.94262225355487,44.10386527655646,"[81, 0, 173]",173,a,0.6379376212134957,0,colour,0.5,4.0
59,20,0,1,1,21,21,44.611138417734765,45.79188505385537,"[19, 0, 235]",235,a,0.6574329634895548,1,colour,0.5,4.0
59,20,0,1,1,22,22,46.29859027010389,47.42389097099658,"[97, 0, 157]",157,l,0.61114629462827,1,colour,0.5,4.0
59,20,0,1,1,23,23,47.93008576380089,49.06383405253291,"[1, 0, 253]",253,a,0.6104444622760639,1,colour,0.5,4.0
59,20,0,1,1,24,24,49.57065072702244,50.7518825805746,"[57, 0, 197]",197,a,0.6579177872044966,0,colour,0.5,4.0
59,20,0,1,1,25,25,51.25807343481574,52.17589761281852,"[26, 0, 228]",228,a,0.3945943944854662,1,colour,0.5,4.0
59,20,0,1,1,26,26,52.69568361307029,53.81586432503536,"[21, 0, 233]",233,a,0.597171087982133,1,colour,0.5,4.0
59,20,0,1,1,27,27,54.33627693308517,55.25586987042334,"[17, 0, 237]",237,a,0.39618868031539023,1,colour,0.5,4.0
59,20,0,1,1,28,28,55.773822520743124,56.927821940975264,"[2, 0, 252]",252,a,0.6306762953754514,1,colour,0.5,4.0
59,20,0,1,1,29,29,57.43974639521912,58.599825999117456,"[49, 0, 205]",205,a,0.6367048854008317,1,colour,0.5,4.0
59,20,0,1,1,30,30,59.111676804255694,61.18384186644107,"[12, 0, 242]",242,a,1.5488175188656896,1,colour,0.5,4.0
59,20,0,1,1,31,31,61.689743638271466,63.47985481284559,"[66, 0, 188]",188,l,1.2670034831389785,1,colour,0.5,4.0
59,20,0,1,1,32,32,63.98622841143515,65.2399797878461,"[31, 0, 223]",223,a,0.7303601163439453,1,colour,0.5,4.0
59,20,0,1,1,33,33,65.75189715286251,66.887834039866,"[43, 0, 211]",211,a,0.6111911929911003,1,colour,0.5,4.0
59,20,0,1,1,34,34,67.39398984191939,68.72779500193428,"[92, 0, 162]",162,l,0.8104564351961017,1,colour,0.5,4.0
59,20,0,1,1,35,35,69.23787389707286,70.50382896407973,"[85, 0, 169]",169,l,0.7426307606510818,1,colour,0.5,4.0
59,20,0,1,1,36,36,71.0191101616947,72.2158122586552,"[25, 0, 229]",229,a,0.6733825167175382,1,colour,0.5,4.0
59,20,0,1,1,37,37,72.70987779775169,74.04782227182295,"[23, 0, 231]",231,a,0.8211832058150321,1,colour,0.5,4.0
59,20,0,1,1,38,38,74.56293844827451,75.81577255914453,"[71, 0, 183]",183,l,0.7296043273527175,1,colour,0.5,4.0
59,20,0,1,1,39,39,76.32844728860073,77.54399055091199,"[56, 0, 198]",198,a,0.6921776022063568,0,colour,0.5,4.0
59,20,0,1,1,40,40,78.06288015923928,79.15981651539914,"[9, 0, 245]",245,a,0.573898769216612,1,colour,0.5,4.0
59,20,0,1,1,41,41,79.6729240808636,80.75977720960509,"[94, 0, 160]",160,l,0.563543000840582,1,colour,0.5,4.0
59,20,0,1,1,42,42,81.26669234537985,82.37583002902102,"[13, 0, 241]",241,a,0.5861607487313449,1,colour,0.5,4.0
59,20,0,1,1,43,43,82.89167639461812,84.24784724158235,"[73, 0, 181]",181,l,0.8331281398423016,1,colour,0.5,4.0
59,20,0,1,1,44,44,84.76825039740652,85.83981090702582,"[64, 0, 190]",190,l,0.5481976063456386,1,colour,0.5,4.0
59,20,0,1,1,45,45,86.34641136042774,87.79183661099523,"[86, 0, 168]",168,l,0.9220434427261353,1,colour,0.5,4.0
59,20,0,1,1,46,46,88.28721680562012,89.45580583112314,"[48, 0, 206]",206,a,0.6451650762464851,1,colour,0.5,4.0
59,20,0,1,1,47,47,89.97692460380495,91.16779936582316,"[16, 0, 238]",238,a,0.6674870464485139,1,colour,0.5,4.0
59,20,0,1,1,48,48,91.68010230525397,92.78384194523096,"[28, 0, 226]",226,a,0.5807607359020039,1,colour,0.5,4.0
59,20,0,1,1,49,49,93.30516866827384,94.36782788019627,"[14, 0, 240]",240,a,0.5396901540225372,1,colour,0.5,4.0
59,20,0,1,1,50,50,94.88324652984738,96.15974286629353,"[34, 0, 220]",220,a,0.7532972728367895,1,colour,0.5,4.0
59,20,0,1,2,1,51,116.42093082971405,117.80774520419072,"[51, 0, 203]",203,a,0.8628555831965059,0,colour,0.5,4.0
59,20,0,1,2,2,52,118.32801839103922,119.48768918367568,"[19, 0, 235]",235,a,0.636458732187748,1,colour,0.5,4.0
59,20,0,1,2,3,53,119.9998696371913,121.30371852987446,"[26, 0, 228]",228,a,0.7807372626848519,1,colour,0.5,4.0
59,20,0,1,2,4,54,121.81229805585463,122.84777760971338,"[98, 0, 156]",156,l,0.5126802432350814,1,colour,0.5,4.0
59,20,0,1,2,5,55,123.35910066217184,124.5677662040107,"[76, 0, 178]",178,l,0.6852282017935067,1,colour,0.5,4.0
59,20,0,1,2,6,56,125.07796207116917,126.42373146372847,"[16, 0, 238]",238,a,0.8224943168461323,1,colour,0.5,4.0
59,20,0,1,2,7,57,126.93729037581943,128.26374677638523,"[23, 0, 231]",231,a,0.8031348510412499,1,colour,0.5,4.0
59,20,0,1,2,8,58,128.7810755757382,130.02368625020608,"[1, 0, 253]",253,a,0.7191875128773972,1,colour,0.5,4.0
59,20,0,1,2,9,59,130.52057447854895,131.64767977863085,"[81, 0, 173]",173,l,0.6038191966945305,1,colour,0.5,4.0
59,20,0,1,2,10,60,132.15489541832358,133.35972372547258,"[10, 0, 244]",244,a,0.6814693423220888,1,colour,0.5,4.0
59,20,0,1,2,11,61,133.8737075966783,135.0076984941261,"[86, 0, 168]",168,l,0.6106977048330009,1,colour,0.5,4.0
59,20,0,1,2,12,62,135.51436708273832,137.91167704062536,"[67, 0, 187]",187,l,1.873020730447024,1,colour,0.5,4.0
59,20,0,1,2,13,63,138.4092155074468,139.2638231824385,"[79, 0, 175]",175,l,0.33128061168827116,1,colour,0.5,4.0
59,20,0,1,2,14,64,139.78423263970762,140.92766715981998,"[57, 0, 197]",197,a,0.6202854748116806,0,colour,0.5,4.0
59,20,0,1,2,15,65,141.44226661126595,142.31971888896078,"[5, 0, 249]",249,a,0.354636819451116,1,colour,0.5,4.0
59,20,0,1,2,16,66,142.83273035625461,143.9198320013238,"[9, 0, 245]",245,a,0.5639297568704933,1,colour,0.5,4.0
59,20,0,1,2,17,67,144.42641748860478,145.71967391192447,"[73, 0, 181]",181,l,0.7699313291814178,1,colour,0.5,4.0
59,20,0,1,2,18,68,146.23904952523299,147.3916838776786,"[31, 0, 223]",223,a,0.6268705681432039,1,colour,0.5,4.0
59,20,0,1,2,19,69,147.8977171939332,149.04766985366587,"[84, 0, 170]",170,l,0.6271407461026683,1,colour,0.5,4.0
59,20,0,1,2,20,70,149.55387449252885,150.43169974186458,"[94, 0, 160]",160,l,0.3544564383337274,1,colour,0.5,4.0
59,20,0,1,2,21,71,150.94461511075497,152.231639325968,"[65, 0, 189]",189,a,0.763713299529627,0,colour,0.5,4.0
59,20,0,1,2,22,72,152.74139763100538,154.7116012647748,"[96, 0, 158]",158,l,1.446828521322459,1,colour,0.5,4.0
59,20,0,1,2,23,73,155.22582420008257,156.27960889588576,"[39, 0, 215]",215,a,0.530799490166828,1,colour,0.5,4.0
59,20,0,1,2,24,74,156.78833138779737,157.9679362664465,"[54, 0, 200]",200,a,0.6563286214368418,0,colour,0.5,4.0
59,20,0,1,2,25,75,158.47572495101485,159.62364261224866,"[69, 0, 185]",185,a,0.6244921365287155,0,colour,0.5,4.0
59,20,0,1,2,26,76,160.13208389852662,161.03176086663734,"[53, 0, 201]",201,a,0.3764475784264505,0,colour,0.5,4.0
59,20,0,1,2,27,77,161.53812737588305,162.50360171531793,"[99, 0, 155]",155,l,0.4419420827180147,1,colour,0.5,4.0
59,20,0,1,2,28,78,163.02266973548103,163.8236660065595,"[45, 0, 209]",209,a,0.27812685596290976,1,colour,0.5,4.0
59,20,0,1,2,29,79,164.33525963069405,165.6236587598687,"[21, 0, 233]",233,a,0.765153591753915,1,colour,0.5,4.0
59,20,0,1,2,30,80,166.12042528996244,167.40764209546614,"[15, 0, 239]",239,a,0.7600371474400163,1,colour,0.5,4.0
59,20,0,1,2,31,81,167.92114547546953,168.74358859239146,"[18, 0, 236]",236,a,0.2999990547541529,1,colour,0.5,4.0
59,20,0,1,2,32,82,169.26498226914555,170.46357679273933,"[11, 0, 243]",243,a,0.675277306465432,1,colour,0.5,4.0
59,20,0,1,2,33,83,170.98375663824845,172.1116322997259,"[85, 0, 169]",169,l,0.604691170156002,1,colour,0.5,4.0
59,20,0,1,2,34,84,172.62437870912254,173.8875902496511,"[72, 0, 182]",182,l,0.7400081446394324,1,colour,0.5,4.0
59,20,0,1,2,35,85,174.40567917050794,175.50363794912118,"[24, 0, 230]",230,a,0.5744816602673382,1,colour,0.5,4.0
59,20,0,1,2,36,86,176.0149696660228,177.19956141384318,"[7, 0, 247]",247,a,0.6613135213265195,1,colour,0.5,4.0
59,20,0,1,2,37,87,177.7180646599736,178.8155527934432,"[32, 0, 222]",222,a,0.574135864037089,1,colour,0.5,4.0
59,20,0,1,2,38,88,179.32760445959866,180.60761153302155,"[42, 0, 212]",212,a,0.7567524776095524,1,colour,0.5,4.0
59,20,0,1,2,39,89,181.12442203203682,182.29560689197388,"[33, 0, 221]",221,a,0.6479342025704682,1,colour,0.5,4.0
59,20,0,1,2,40,90,182.80069931177422,184.11957773484755,"[59, 0, 195]",195,a,0.8077771055977792,0,colour,0.5,4.0
59,20,0,1,2,41,91,184.6319011542946,185.66358364571352,"[3, 0, 251]",251,a,0.5082577544962987,1,colour,0.5,4.0
59,20,0,1,2,42,92,186.18093843886163,187.039539311314,"[77, 0, 177]",177,l,0.3354144119657576,1,colour,0.5,4.0
59,20,0,1,2,43,93,187.5560686046956,188.7276055624243,"[74, 0, 180]",180,l,0.6483666448621079,1,colour,0.5,4.0
59,20,0,1,2,44,94,189.24346374336164,190.32755207817536,"[55, 0, 199]",199,a,0.560745517606847,0,colour,0.5,4.0
59,20,0,1,2,45,95,190.8372698171297,191.99952344724443,"[30, 0, 224]",224,a,0.6389714651741087,1,colour,0.5,4.0
59,20,0,1,2,46,96,192.50912933412474,193.67954422649927,"[62, 0, 192]",192,a,0.6584762597922236,0,colour,0.5,4.0
59,20,0,1,2,47,97,194.18575556075666,195.1355513125891,"[2, 0, 252]",252,a,0.42585389607120305,1,colour,0.5,4.0
59,20,0,1,2,48,98,195.65533534355927,196.9035787935136,"[88, 0, 166]",166,l,0.7250404478982091,1,colour,0.5,4.0
59,20,0,1,2,49,99,197.42080834391527,198.5115250950912,"[40, 0, 214]",214,a,0.567235694383271,1,colour,0.5,4.0
59,20,0,1,2,50,100,199.03026228526141,200.07154002971947,"[13, 0, 241]",241,a,0.5179120843531564,1,colour,0.5,4.0
59,20,0,1,3,1,101,240.06533578468952,241.79144394712057,"[1, 0, 253]",253,a,1.2018382335081697,1,colour,0.5,4.0
59,20,0,1,3,2,102,242.3004527646117,243.65546767553315,"[41, 0, 213]",213,a,0.8317418044898659,1,colour,0.5,4.0
59,20,0,1,3,3,103,244.1494729561964,245.53541456942912,"[57, 0, 197]",197,a,0.862872518482618,0,colour,0.5,4.0
59,20,0,1,3,4,104,246.05580394063145,248.00747636542656,"[70, 0, 184]",184,a,1.428445004276,0,colour,0.5,4.0
59,20,0,1,3,5,105,248.52426244597882,249.38345014792867,"[52, 0, 202]",202,a,0.336249757790938,0,colour,0.5,4.0
59,20,0,1,3,6,106,249.8993457441684,251.0074381623417,"[66, 0, 188]",188,a,0.5852639629738405,0,colour,0.5,4.0
59,20,0,1,3,7,107,251.51190082344692,252.687466030824,"[88, 0, 166]",166,l,0.6523310914635658,1,colour,0.5,4.0
59,20,0,1,3,8,108,253.19931014056783,254.27941945625935,"[25, 0, 229]",229,a,0.5567653169855475,1,colour,0.5,4.0
59,20,0,1,3,9,109,254.79316780809313,256.4794137061108,"[64, 0, 190]",190,a,1.1629613700788468,0,colour,0.5,4.0
59,20,0,1,3,10,110,256.99611826078035,258.08739742299076,"[83, 0, 171]",171,l,0.5678741175215691,1,colour,0.5,4.0
59,20,0,1,3,11,111,258.60565412195865,259.77539593272377,"[73, 0, 181]",181,l,0.6465557441115379,1,colour,0.5,4.0
59,20,0,1,3,12,112,260.2931599311996,261.4553974135779,"[9, 0, 245]",245,a,0.638967132777907,1,colour,0.5,4.0
59,20,0,1,3,13,113,261.9667582750553,263.01540683431085,"[68, 0, 186]",186,l,0.5255991568556055,1,colour,0.5,4.0
59,20,0,1,3,14,114,263.52922804746777,264.4074479297269,"[37, 0, 217]",217,a,0.35505823395214975,1,colour,0.5,4.0
59,20,0,1,3,15,115,264.919811915257,267.76738866395317,"[6, 0, 248]",248,a,2.3243253036634997,1,colour,0.5,4.0
59,20,0,1,3,16,116,268.27918117993977,269.48736347351223,"[75, 0, 179]",179,l,0.6847177783492953,1,colour,0.5,4.0
59,20,0,1,3,17,117,269.9979011984542,270.8713882416487,"[80, 0, 174]",174,l,0.3501359553774819,1,colour,0.5,4.0
59,20,0,1,3,18,118,271.3886808073148,272.6954551828094,"[76, 0, 178]",178,l,0.7835044197272509,1,colour,0.5,4.0
59,20,0,1,3,19,119,273.201027699979,274.0953790919157,"[3, 0, 251]",251,a,0.3713346787262708,1,colour,0.5,4.0
59,20,0,1,3,20,120,274.60718224174343,275.46337632555515,"[72, 0, 182]",182,l,0.33288710669148713,1,colour,0.5,4.0
59,20,0,1,3,21,121,275.9822363954736,276.999365121359,"[13, 0, 241]",241,a,0.49387373635545373,1,colour,0.5,4.0
59,20,0,1,3,22,122,277.51358214905486,278.42338369833305,"[38, 0, 216]",216,a,0.3864981166552752,1,colour,0.5,4.0
59,20,0,1,3,23,123,278.9353660477791,279.9353542323224,"[34, 0, 220]",220,a,0.47662961366586387,1,colour,0.5,4.0
59,20,0,1,3,24,124,280.45103360759094,281.50338588806335,"[59, 0, 195]",195,a,0.5414853008696809,0,colour,0.5,4.0
59,20,0,1,3,25,125,282.01661751477513,282.8473845521221,"[91, 0, 163]",163,l,0.3076660411898047,1,colour,0.5,4.0
59,20,0,1,3,26,126,283.360960793565,284.3993870979175,"[99, 0, 155]",155,l,0.5151106625562534,1,colour,0.5,4.0
59,20,0,1,3,27,127,284.90378122997936,286.17538128164597,"[77, 0, 177]",177,l,0.7613738584332168,1,colour,0.5,4.0
59,20,0,1,3,28,128,286.6803980830591,287.6313174755778,"[14, 0, 240]",240,a,0.42809290648438036,1,colour,0.5,4.0
59,20,0,1,3,29,129,288.149007431115,289.0554124584887,"[28, 0, 226]",226,a,0.3837411995045841,1,colour,0.5,4.0
59,20,0,1,3,30,130,289.56727468501776,290.43947306647897,"[35, 0, 219]",219,a,0.34923523117322475,1,colour,0.5,4.0
59,20,0,1,3,31,131,290.9583933947142,291.9433496858692,"[36, 0, 218]",218,a,0.46159496321342885,1,colour,0.5,4.0
59,20,0,1,3,32,132,292.4585749574471,293.39936858729925,"[97, 0, 157]",157,l,0.41772020293865353,1,colour,0.5,4.0
59,20,0,1,3,33,133,293.91241116821766,294.8713303464465,"[15, 0, 239]",239,a,0.43634829786606133,1,colour,0.5,4.0
59,20,0,1,3,34,134,295.3682425993029,296.3753578084288,"[94, 0, 160]",160,l,0.48374285362660885,1,colour,0.5,4.0
59,20,0,1,3,35,135,296.88372387038544,297.9433477165876,"[24, 0, 230]",230,a,0.5363058414077386,1,colour,0.5,4.0
59,20,0,1,3,36,136,298.4619647839572,299.30332625994924,"[11, 0, 243]",243,a,0.3180674957111478,1,colour,0.5,4.0
59,20,0,1,3,37,137,299.82138406694867,300.8074187063612,"[10, 0, 244]",244,a,0.46329834405332804,1,colour,0.5,4.0
59,20,0,1,3,38,138,301.321365556214,302.1833208090393,"[7, 0, 247]",247,a,0.33852382050827146,1,colour,0.5,4.0
59,20,0,1,3,39,139,302.6963051009225,303.567524776794,"[89, 0, 165]",165,l,0.3478020280599594,1,colour,0.5,4.0
59,20,0,1,3,40,140,304.0868361934554,305.07133404864,"[81, 0, 173]",173,l,0.46089588780887425,1,colour,0.5,4.0
59,20,0,1,3,41,141,305.5869287471287,306.57529849535786,"[47, 0, 207]",207,a,0.4650324449175969,1,colour,0.5,4.0
59,20,0,1,3,42,142,307.08692599018104,307.8793155598687,"[95, 0, 159]",159,l,0.268952623475343,1,colour,0.5,4.0
59,20,0,1,3,43,143,308.3994150609942,309.4472845941782,"[62, 0, 192]",192,a,0.5246574727352709,0,colour,0.5,4.0
59,20,0,1,3,44,144,309.961913584033,310.80736317427363,"[87, 0, 167]",167,l,0.32210125925485045,1,colour,0.5,4.0
59,20,0,1,3,45,145,311.32128718099557,312.26332811883185,"[23, 0, 231]",231,a,0.4187363237142563,1,colour,0.5,4.0
59,20,0,1,3,46,146,312.77441998408176,313.78336499852594,"[30, 0, 224]",224,a,0.48550885601434857,1,colour,0.5,4.0
59,20,0,1,3,47,147,314.2902742266888,315.14327304356266,"[27, 0, 227]",227,a,0.33000376517884433,1,colour,0.5,4.0
59,20,0,1,3,48,148,315.64930281508714,316.51931338582654,"[93, 0, 161]",161,l,0.3467827565036714,1,colour,0.5,4.0
59,20,0,1,3,49,149,317.03997963038273,317.9833419191418,"[48, 0, 206]",206,a,0.4199347948888317,1,colour,0.5,4.0
59,20,0,1,3,50,150,318.4930667473236,319.3752806148259,"[39, 0, 215]",215,a,0.35942991683259606,1,colour,0.5,4.0
59,20,0,1,4,1,151,337.71100380143616,338.5992616188014,"[5, 0, 249]",249,a,0.36408753122668713,1,colour,0.5,3.9
59,20,0,1,4,2,152,339.1180106244283,340.04722835309803,"[11, 0, 243]",243,a,0.4059217791073024,1,colour,0.5,3.9
59,20,0,1,4,3,153,340.5554679906927,341.4072214687476,"[68, 0, 186]",186,l,0.3282925073290244,1,colour,0.5,3.9
59,20,0,1,4,4,154,341.9148553721607,342.76725790731143,"[21, 0, 233]",233,a,0.3290715334005654,1,colour,0.5,3.9
59,20,0,1,4,5,155,343.27426402131096,344.1912414318649,"[96, 0, 158]",158,l,0.3937346300808713,1,colour,0.5,3.9
59,20,0,1,4,6,156,344.7117595905438,345.7432034116937,"[0, 0, 254]",254,a,0.5081368439132348,1,colour,0.5,3.9
59,20,0,1,4,7,157,346.2585641661426,347.2472363875713,"[42, 0, 212]",212,a,0.4653274351730943,1,colour,0.5,3.9
59,20,0,1,4,8,158,347.75867050432134,348.6952673186315,"[48, 0, 206]",206,a,0.4134119291556999,1,colour,0.5,3.9
59,20,0,1,4,9,159,349.21176471048966,350.1112254575128,"[15, 0, 239]",239,a,0.3765188643010333,1,colour,0.5,3.9
59,20,0,1,4,10,160,350.6180011720862,351.47916125133634,"[38, 0, 216]",216,a,0.3380992553429678,1,colour,0.5,3.9
59,20,0,1,4,11,161,351.99289463693276,353.1432423235383,"[67, 0, 187]",187,l,0.6269887217786163,1,colour,0.5,3.9
59,20,0,1,4,12,162,353.66474824619945,354.5112364065135,"[78, 0, 176]",176,l,0.32301458646543324,1,colour,0.5,3.9
59,20,0,1,4,13,163,355.0243963532848,355.9034653661074,"[56, 0, 198]",198,a,0.35680454410612583,0,colour,0.5,3.9
59,20,0,1,4,14,164,356.414663175703,357.29519296064973,"[3, 0, 251]",251,a,0.35768793907482177,1,colour,0.5,3.9
59,20,0,1,4,15,165,357.8054589321837,358.7032296890393,"[62, 0, 192]",192,a,0.3750202830415219,0,colour,0.5,3.9
59,20,0,1,4,16,166,359.21163749846164,360.11120064533316,"[70, 0, 184]",184,a,0.3761581021826714,0,colour,0.5,3.9
59,20,0,1,4,17,167,360.61796336295083,361.55916225956753,"[7, 0, 247]",247,a,0.4179502085316926,1,colour,0.5,3.9
59,20,0,1,4,18,168,362.07108316908125,362.99121016066056,"[22, 0, 232]",232,a,0.39682828506920487,1,colour,0.5,3.9
59,20,0,1,4,19,169,363.508546049241,364.3671823677141,"[81, 0, 173]",173,l,0.3358606386464089,1,colour,0.5,3.9
59,20,0,1,4,20,170,364.88350568001624,365.71117945644073,"[52, 0, 202]",202,a,0.3043219008250162,0,colour,0.5,3.9
59,20,0,1,4,21,171,366.22723416623194,367.15120430022944,"[41, 0, 213]",213,a,0.40012161945924163,1,colour,0.5,3.9
59,20,0,1,4,22,172,367.6647852676688,368.55115735379513,"[43, 0, 211]",211,a,0.3632462777895853,1,colour,0.5,3.9
59,20,0,1,4,23,173,369.0710189723177,369.8471651803702,"[88, 0, 166]",166,l,0.2528049662942067,1,colour,0.5,3.9
59,20,0,1,4,24,174,370.3678093694616,371.2552755578654,"[60, 0, 194]",194,a,0.3641781157348305,0,colour,0.5,3.9
59,20,0,1,4,25,175,371.77411239081994,372.71122396097053,"[6, 0, 248]",248,a,0.4138384636025876,1,colour,0.5,3.9
59,20,0,1,4,26,176,373.227101046592,374.255213330267,"[33, 0, 221]",221,a,0.5048825001576915,1,colour,0.5,3.9
59,20,0,1,4,27,177,374.7741005754797,375.6151560336584,"[91, 0, 163]",163,l,0.31770318874623626,1,colour,0.5,3.9
59,20,0,1,4,28,178,376.13345881248824,377.23112417629454,"[53, 0, 201]",201,a,0.5749196162214503,0,colour,0.5,3.9
59,20,0,1,4,29,179,377.74290093849413,378.5991304683266,"[94, 0, 160]",160,l,0.3330903307069093,1,colour,0.5,3.9
59,20,0,1,4,30,180,379.11787002161145,380.4871500093723,"[77, 0, 177]",177,l,0.8459619828499854,1,colour,0.5,3.9
59,20,0,1,4,31,181,381.00860945833847,381.76724924263544,"[25, 0, 229]",229,a,0.23558014200534672,1,colour,0.5,3.9
59,20,0,1,4,32,182,382.273954852717,383.06317396776285,"[82, 0, 172]",172,l,0.26578256266657263,1,colour,0.5,3.9
59,20,0,1,4,33,183,383.570897274185,386.5111371574458,"[73, 0, 181]",181,l,2.416767491027713,1,colour,0.5,3.9
59,20,0,1,4,34,184,387.0239583973307,387.77514977939427,"[10, 0, 244]",244,a,0.22780287882778794,1,colour,0.5,3.9
59,20,0,1,4,35,185,388.2895916927373,389.10309215821326,"[16, 0, 238]",238,a,0.2901155068539083,1,colour,0.5,3.9
59,20,0,1,4,36,186,389.6176998805022,390.43114481377415,"[97, 0, 157]",157,l,0.29007257777266204,1,colour,0.5,3.9
59,20,0,1,4,37,187,390.9459029849386,391.85518268914893,"[65, 0, 189]",189,a,0.3866706208791584,0,colour,0.5,3.9
59,20,0,1,4,38,188,392.36779637250584,393.4470864899922,"[63, 0, 191]",191,a,0.5561962105566636,0,colour,0.5,3.9
59,20,0,1,4,39,189,393.9616335600149,394.8870932168793,"[83, 0, 171]",171,l,0.40278913360089064,1,colour,0.5,3.9
59,20,0,1,4,40,190,395.39901648950763,396.2071094590938,"[35, 0, 219]",219,a,0.2848939059767872,1,colour,0.5,3.9
59,20,0,1,4,41,191,396.72729993844405,397.53511052089743,"[51, 0, 203]",203,a,0.2844398022862151,0,colour,0.5,3.9
59,20,0,1,4,42,192,398.05542387999594,398.87110073457006,"[14, 0, 240]",240,a,0.29240138502791524,1,colour,0.5,3.9
59,20,0,1,4,43,193,399.3835048923502,400.20707913301885,"[54, 0, 200]",200,a,0.3006177857751027,0,colour,0.5,3.9
59,20,0,1,4,44,194,400.7272156554973,401.4871492217062,"[23, 0, 231]",231,a,0.2366892104037106,1,colour,0.5,3.9
59,20,0,1,4,45,195,402.00848776008934,402.7990849398775,"[71, 0, 183]",183,l,0.2672437288565561,1,colour,0.5,3.9
59,20,0,1,4,46,196,403.30543057539035,404.1590989292599,"[40, 0, 214]",214,a,0.3304771672701463,1,colour,0.5,3.9
59,20,0,1,4,47,197,404.68034373247065,405.4070848043775,"[45, 0, 209]",209,a,0.20349435310345143,1,colour,0.5,3.9
59,20,0,1,4,48,198,405.914741156972,406.67906176601537,"[32, 0, 222]",222,a,0.24115305300801992,1,colour,0.5,3.9
59,20,0,1,4,49,199,407.19602389540523,408.191124066012,"[47, 0, 207]",207,a,0.4718183994991705,1,colour,0.5,3.9
59,20,0,1,4,50,200,408.71162213850766,409.6071397063788,"[55, 0, 199]",199,a,0.3725461468566209,0,colour,0.5,3.9
59,20,0,1,5,1,201,442.6950353437569,444.0950218741782,"[45, 0, 209]",209,a,0.8758564165327698,1,colour,0.5,3.9
59,20,0,1,5,2,202,444.6021012434503,445.43103768792935,"[81, 0, 173]",173,l,0.30610759544651955,1,colour,0.5,3.9
59,20,0,1,5,3,203,445.945743083721,446.7430084582884,"[48, 0, 206]",206,a,0.2738815975608304,1,colour,0.5,3.9
59,20,0,1,5,4,204,447.2582857174566,448.0552297142567,"[80, 0, 174]",174,l,0.2737342993495986,1,colour,0.5,3.9
59,20,0,1,5,5,205,448.57086694811005,450.9030384377111,"[65, 0, 189]",189,a,1.8089877860620618,0,colour,0.5,3.9
59,20,0,1,5,6,206,451.41444065305404,452.19097322330344,"[96, 0, 158]",158,l,0.2531739992555231,1,colour,0.5,3.9
59,20,0,1,5,7,207,452.711286976235,453.48699601588305,"[13, 0, 241]",241,a,0.2523020257940516,1,colour,0.5,3.9
59,20,0,1,5,8,208,454.00819473923184,454.7670046647545,"[42, 0, 212]",212,a,0.23546553310006857,1,colour,0.5,3.9
59,20,0,1,5,9,209,455.2739371297648,455.9670020653866,"[84, 0, 170]",170,l,0.16995566885452718,1,colour,0.5,3.9
59,20,0,1,5,10,210,456.47697816684376,457.0390032877913,"[8, 0, 246]",246,a,0.038897343329153955,1,colour,0.5,3.9
59,20,0,1,5,11,211,457.5551926927874,458.8069527874468,"[70, 0, 184]",184,l,0.7285314926411957,1,colour,0.5,3.9
59,20,0,1,5,12,212,459.3206680561416,461.14293866883963,"[68, 0, 186]",186,a,1.2988765956833959,0,colour,0.5,3.9
59,20,0,1,5,13,213,461.6644323823275,462.3350115081994,"[9, 0, 245]",245,a,0.14768096012994647,1,colour,0.5,3.9
59,20,0,1,5,14,214,462.852001600666,463.7830136885168,"[97, 0, 157]",157,l,0.40816157741937786,1,colour,0.5,3.9
59,20,0,1,5,15,215,464.28941052383743,465.15091718698386,"[63, 0, 191]",191,a,0.33811697841156274,0,colour,0.5,3.9
59,20,0,1,5,16,216,465.6644587699557,468.014989752206,"[76, 0, 178]",178,l,1.8272700849920511,1,colour,0.5,3.9
59,20,0,1,5,17,217,468.52384300064296,469.4469238319434,"[34, 0, 220]",220,a,0.4001027148915455,1,colour,0.5,3.9
59,20,0,1,5,18,218,469.9613531421637,471.8949610644486,"[1, 0, 253]",253,a,1.4104076770599931,1,colour,0.5,3.9
59,20,0,1,5,19,219,472.41435637010727,473.206938530202,"[73, 0, 181]",181,l,0.26933937962166965,1,colour,0.5,3.9
59,20,0,1,5,20,220,473.72687773627695,474.54295001155697,"[26, 0, 228]",228,a,0.2926924367202446,1,colour,0.5,3.9
59,20,0,1,5,21,221,475.0550772960996,475.98290553863626,"[7, 0, 247]",247,a,0.40454410831443965,1,colour,0.5,3.9
59,20,0,1,5,22,222,476.49251812079456,477.74297261831816,"[92, 0, 162]",162,l,0.7271286157192662,1,colour,0.5,3.9
59,20,0,1,5,23,223,478.2580927332165,479.0709311448736,"[18, 0, 236]",236,a,0.28949874523095787,1,colour,0.5,3.9
59,20,0,1,5,24,224,479.5862044655951,480.51895813737065,"[53, 0, 201]",201,a,0.40947229450102895,0,colour,0.5,3.9
59,20,0,1,5,25,225,481.03935499174986,481.88695930945687,"[22, 0, 232]",232,a,0.32443754945416003,1,colour,0.5,3.9
59,20,0,1,5,26,226,482.398840046837,483.2469189482508,"[83, 0, 171]",171,l,0.3252445386024192,1,colour,0.5,3.9
59,20,0,1,5,27,227,483.7581073055044,484.81494863471016,"[3, 0, 251]",251,a,0.5335910656722263,1,colour,0.5,3.9
59,20,0,1,5,28,228,485.3361221519299,486.4389094739454,"[89, 0, 165]",165,l,0.5794803447788581,1,colour,0.5,3.9
59,20,0,1,5,29,229,486.94553631497547,487.7989325217204,"[17, 0, 237]",237,a,0.3297083812067285,1,colour,0.5,3.9
59,20,0,1,5,30,230,488.3049099118216,489.1268949867226,"[28, 0, 226]",226,a,0.29890574025921524,1,colour,0.5,3.9
59,20,0,1,5,31,231,489.63306614873,490.4949044295354,"[93, 0, 161]",161,l,0.33884362294338644,1,colour,0.5,3.9
59,20,0,1,5,32,232,491.0079391335603,491.83891687821597,"[52, 0, 202]",202,a,0.3082233323948458,0,colour,0.5,3.9
59,20,0,1,5,33,233,492.35187320702244,493.28689070162363,"[75, 0, 179]",179,l,0.41182394477073103,1,colour,0.5,3.9
59,20,0,1,5,34,234,493.80488706880715,494.8549660742283,"[64, 0, 190]",190,a,0.5268429203424603,0,colour,0.5,3.9
59,20,0,1,5,35,235,495.36741316108964,496.69489237782545,"[94, 0, 160]",160,l,0.8040733843808994,1,colour,0.5,3.9
59,20,0,1,5,36,236,497.2111191981239,498.4469100473216,"[5, 0, 249]",249,a,0.7128493604250252,1,colour,0.5,3.9
59,20,0,1,5,37,237,498.96110974578187,499.83088046486955,"[0, 0, 254]",254,a,0.34646925574634224,1,colour,0.5,3.9
59,20,0,1,5,38,238,500.35173417965416,501.262862199801,"[36, 0, 218]",218,a,0.3877903230022639,1,colour,0.5,3.9
59,20,0,1,5,39,239,501.77366892108694,502.5989465425955,"[87, 0, 167]",167,l,0.30222152383066714,1,colour,0.5,3.9
59,20,0,1,5,40,240,503.1173914995743,503.89507764263544,"[47, 0, 207]",207,a,0.2542007538722828,1,colour,0.5,3.9
59,20,0,1,5,41,241,504.4142051335657,505.47089365078136,"[72, 0, 182]",182,a,0.5332192757632583,0,colour,0.5,3.9
59,20,0,1,5,42,242,505.9767690349836,506.82288776827045,"[46, 0, 208]",208,a,0.32282081455923617,1,colour,0.5,3.9
59,20,0,1,5,43,243,507.33606465056073,508.10286372795235,"[29, 0, 225]",225,a,0.24382214259821922,1,colour,0.5,3.9
59,20,0,1,5,44,244,508.6174962624209,509.5348686998477,"[67, 0, 187]",187,l,0.39437817339785397,1,colour,0.5,3.9
59,20,0,1,5,45,245,510.0548984903144,510.7268694655504,"[49, 0, 205]",205,a,0.1485375736374408,1,colour,0.5,3.9
59,20,0,1,5,46,246,511.24230505048763,511.9429743512301,"[39, 0, 215]",215,a,0.1779404883272946,1,colour,0.5,3.9
59,20,0,1,5,47,247,512.461089265882,513.1428279983811,"[30, 0, 224]",224,a,0.15851997665595263,1,colour,0.5,3.9
59,20,0,1,5,48,248,513.6641885921126,515.2469516374404,"[23, 0, 231]",231,a,1.059602184803225,1,colour,0.5,3.9
59,20,0,1,5,49,249,515.7579316504998,516.6068620454753,"[50, 0, 204]",204,a,0.3255749747622758,1,colour,0.5,3.9
59,20,0,1,5,50,250,517.117338724318,517.9508658294799,"[85, 0, 169]",169,l,0.3105214196257293,1,colour,0.5,3.9
59,20,0,1,6,1,251,569.4445174371358,570.4307556946296,"[19, 0, 235]",235,a,0.46240431524347514,1,colour,0.5,3.9
59,20,0,1,6,2,252,570.9453232446685,572.0467242310988,"[56, 0, 198]",198,a,0.5781893198145553,0,colour,0.5,3.9
59,20,0,1,6,3,253,572.5545932602836,573.3827747032046,"[88, 0, 166]",166,l,0.30499104398768395,1,colour,0.5,3.9
59,20,0,1,6,4,254,573.8984048478305,575.0147050020751,"[8, 0, 246]",246,a,0.5932519334601238,1,colour,0.5,3.9
59,20,0,1,6,5,255,575.5233050079551,576.5026895696064,"[41, 0, 213]",213,a,0.4560842798091471,1,colour,0.5,3.9
59,20,0,1,6,6,256,577.0233077649027,577.8547108623898,"[28, 0, 226]",226,a,0.30807800334878266,1,colour,0.5,3.9
59,20,0,1,6,7,257,578.3670279803919,579.3827372879023,"[52, 0, 202]",202,a,0.4925630191573873,0,colour,0.5,3.9
59,20,0,1,6,8,258,579.8983434078982,580.7347002916504,"[85, 0, 169]",169,l,0.3135957760969177,1,colour,0.5,3.9
59,20,0,1,6,9,259,581.2420588972745,581.9747100117384,"[7, 0, 247]",247,a,0.20990654837805778,1,colour,0.5,3.9
59,20,0,1,6,10,260,582.4920313280309,583.3667436240939,"[5, 0, 249]",249,a,0.3512765314662829,1,colour,0.5,3.9
59,20,0,1,6,11,261,583.8826116512064,584.7347018669825,"[48, 0, 206]",206,a,0.32865642034448683,1,colour,0.5,3.9
59,20,0,1,6,12,262,585.2420037589036,586.0626895381138,"[90, 0, 164]",164,l,0.29797980992589146,1,colour,0.5,3.9
59,20,0,1,6,13,263,586.5701399096288,587.5027068987256,"[99, 0, 155]",155,l,0.4092040858231485,1,colour,0.5,3.9
59,20,0,1,6,14,264,588.0232447496383,588.7746586543508,"[64, 0, 190]",190,a,0.22829045937396586,0,colour,0.5,3.9
59,20,0,1,6,15,265,589.2888540205313,590.1429800225887,"[20, 0, 234]",234,a,0.33079893875401467,1,colour,0.5,3.9
59,20,0,1,6,16,266,590.6638691835105,591.4547290580813,"[15, 0, 239]",239,a,0.26743907609488815,1,colour,0.5,3.9
59,20,0,1,6,17,267,591.9606351621915,592.7668041974539,"[54, 0, 200]",200,a,0.2828707225853577,0,colour,0.5,3.9
59,20,0,1,6,18,268,593.2733176110778,594.4147053171182,"[70, 0, 184]",184,a,0.618041344336234,0,colour,0.5,3.9
59,20,0,1,6,19,269,594.929523746483,595.6946670983452,"[23, 0, 231]",231,a,0.24176745163276792,1,colour,0.5,3.9
59,20,0,1,6,20,270,596.2106394944713,596.9187426252756,"[92, 0, 162]",162,l,0.18471423373557627,1,colour,0.5,3.9
59,20,0,1,6,21,271,597.4294497036608,598.2387234213529,"[37, 0, 217]",217,a,0.28592105442658067,1,colour,0.5,3.9
59,20,0,1,6,22,272,598.7575830974383,599.5826976670651,"[45, 0, 209]",209,a,0.3020442934939638,1,colour,0.5,3.9
59,20,0,1,6,23,273,600.1013560881838,601.1026553837582,"[17, 0, 237]",237,a,0.4785015603993088,1,colour,0.5,3.9
59,20,0,1,6,24,274,601.6170520049054,602.3426410793327,"[49, 0, 205]",205,a,0.20259993034414947,1,colour,0.5,3.9
59,20,0,1,6,25,275,602.8512525068363,603.5187064702623,"[94, 0, 160]",160,l,0.1441934600006789,1,colour,0.5,3.9
59,20,0,1,6,26,276,604.0388217251748,604.7826135416981,"[35, 0, 219]",219,a,0.22049547312781215,1,colour,0.5,3.9
59,20,0,1,6,27,277,605.2887693437515,606.2866922036046,"[9, 0, 245]",245,a,0.4746879563899711,1,colour,0.5,3.9
59,20,0,1,6,28,278,606.8044022452086,607.5346729587764,"[76, 0, 178]",178,l,0.20712403138168156,1,colour,0.5,3.9
59,20,0,1,6,29,279,608.0544065776048,608.7586078828899,"[38, 0, 216]",216,a,0.1813299210043624,1,colour,0.5,3.9
59,20,0,1,6,30,280,609.2731053284369,610.0626812672708,"[3, 0, 251]",251,a,0.26615238341037184,1,colour,0.5,3.9
59,20,0,1,6,31,281,610.5698744578985,611.3346751643112,"[96, 0, 158]",158,l,0.24175051634665579,1,colour,0.5,3.9
59,20,0,1,6,32,282,611.8512473868905,612.6226627250435,"[86, 0, 168]",168,l,0.24811348097864538,1,colour,0.5,3.9
59,20,0,1,6,33,283,613.120204736595,613.9266124421265,"[77, 0, 177]",177,l,0.2835241120774299,1,colour,0.5,3.9
59,20,0,1,6,34,284,614.4326725397259,615.2066703215241,"[4, 0, 250]",250,a,0.2506411800859496,1,colour,0.5,3.9
59,20,0,1,6,35,285,615.7139438565355,616.4626374717336,"[97, 0, 157]",157,l,0.22561506822239608,1,colour,0.5,3.9
59,20,0,1,6,36,286,616.9796700994484,618.1186455030693,"[78, 0, 176]",176,l,0.6156999340746552,1,colour,0.5,3.9
59,20,0,1,6,37,287,618.6357608382823,619.4706222913228,"[18, 0, 236]",236,a,0.31152887595817447,1,colour,0.5,3.9
59,20,0,1,6,38,288,619.9796094472986,620.8546222472796,"[47, 0, 207]",207,a,0.3517172443680465,1,colour,0.5,3.9
59,20,0,1,6,39,289,621.3702011919813,622.3346535027958,"[44, 0, 210]",210,a,0.4411189459497109,1,colour,0.5,3.9
59,20,0,1,6,40,290,622.8545430843951,623.646634906996,"[91, 0, 163]",163,l,0.2686241565970704,1,colour,0.5,3.9
59,20,0,1,6,41,291,624.1670412136009,624.9186000532936,"[14, 0, 240]",240,a,0.22830069938208908,1,colour,0.5,3.9
59,20,0,1,6,42,292,625.4327111365274,626.4945921101607,"[73, 0, 181]",181,l,0.5387575282948092,1,colour,0.5,3.9
59,20,0,1,6,43,293,627.0108224750729,628.6945773016196,"[57, 0, 197]",197,a,1.160380107932724,0,colour,0.5,3.9
59,20,0,1,6,44,294,629.2139284965815,630.1746770862956,"[12, 0, 242]",242,a,0.43808870029170066,1,colour,0.5,3.9
59,20,0,1,6,45,295,630.682728859596,631.5908301786985,"[98, 0, 156]",156,l,0.3850117444526404,1,colour,0.5,3.9
59,20,0,1,6,46,296,632.1045438720612,633.9185886317864,"[80, 0, 174]",174,l,1.2906531058251858,1,colour,0.5,3.9
59,20,0,1,6,47,297,634.4326591489371,635.222696280689,"[63, 0, 191]",191,a,0.2666285424493253,0,colour,0.5,3.9
59,20,0,1,6,48,298,635.729418038507,636.5506276319502,"[30, 0, 224]",224,a,0.2977604381740093,1,colour,0.5,3.9
59,20,0,1,6,49,299,637.0576365028974,637.9745804365957,"[55, 0, 199]",199,a,0.3936664948705584,0,colour,0.5,3.9
59,20,0,1,6,50,300,638.4950993829407,639.3745992624899,"[67, 0, 187]",187,a,0.35603772732429206,0,colour,0.5,3.9
59,20,0,1,7,1,301,685.6347447173903,687.0224842344178,"[32, 0, 222]",222,a,0.8635676555568352,1,colour,0.5,3.9
59,20,0,1,7,2,302,687.5417247589212,688.4305268705357,"[15, 0, 239]",239,a,0.36604927480220795,1,colour,0.5,3.9
59,20,0,1,7,3,303,688.9479864265304,690.790505807614,"[66, 0, 188]",188,l,1.3194644649047405,1,colour,0.5,3.9
59,20,0,1,7,4,304,691.3073572665453,692.0704817672959,"[1, 0, 253]",253,a,0.24009124597068876,1,colour,0.5,3.9
59,20,0,1,7,5,305,692.5886612725444,693.374464567285,"[7, 0, 247]",247,a,0.26270348008256406,1,colour,0.5,3.9
59,20,0,1,7,6,306,693.8855040511116,694.6144514443586,"[90, 0, 164]",164,l,0.20628159621264786,1,colour,0.5,3.9
59,20,0,1,7,7,307,695.1355052326107,695.9264194578864,"[30, 0, 224]",224,a,0.2677064969902858,1,colour,0.5,3.9
59,20,0,1,7,8,308,696.447892297525,697.2784978583222,"[10, 0, 244]",244,a,0.30716900853440166,1,colour,0.5,3.9
59,20,0,1,7,9,309,697.7917357865954,698.5984530544374,"[93, 0, 161]",161,l,0.2835548318689689,1,colour,0.5,3.9
59,20,0,1,7,10,310,699.1198309774045,699.8785199924605,"[36, 0, 218]",218,a,0.2356010158546269,1,colour,0.5,3.9
59,20,0,1,7,11,311,700.3854437927948,701.1904781596968,"[16, 0, 238]",238,a,0.2815214085858315,1,colour,0.5,3.9
59,20,0,1,7,12,312,701.6978946606396,702.6547205509851,"[56, 0, 198]",198,a,0.43346062407363206,0,colour,0.5,3.9
59,20,0,1,7,13,313,703.1667379527353,703.9584386870265,"[21, 0, 233]",233,a,0.26875255024060607,1,colour,0.5,3.9
59,20,0,1,7,14,314,704.4792226911522,706.4544368248899,"[71, 0, 183]",183,l,1.4519292118493468,1,colour,0.5,3.9
59,20,0,1,7,15,315,706.9635456789983,708.1584289984312,"[43, 0, 211]",211,a,0.6718638492748141,1,colour,0.5,3.9
59,20,0,1,7,16,316,708.6666891159257,709.4544592740713,"[38, 0, 216]",216,a,0.2647042142925784,1,colour,0.5,3.9
59,20,0,1,7,17,317,709.9635921526933,710.9264348178403,"[62, 0, 192]",192,a,0.4397215829230845,0,colour,0.5,3.9
59,20,0,1,7,18,318,711.4478229806991,712.1584368753247,"[87, 0, 167]",167,l,0.1880063866265118,1,colour,0.5,3.9
59,20,0,1,7,19,319,712.6666182237677,714.0464249086799,"[67, 0, 187]",187,a,0.8566911165835336,0,colour,0.5,3.9
59,20,0,1,7,20,320,714.557258411427,715.2704378141789,"[58, 0, 196]",196,a,0.1903674891218543,0,colour,0.5,3.9
59,20,0,1,7,21,321,715.7916062114527,716.4543836558005,"[23, 0, 231]",231,a,0.1394964609062299,1,colour,0.5,3.9
59,20,0,1,7,22,322,716.9634988113539,717.7744373132009,"[63, 0, 191]",191,a,0.28785247181076556,0,colour,0.5,3.9
59,20,0,1,7,23,323,718.291601879173,718.9103769572685,"[78, 0, 176]",176,l,0.09550079004839063,1,colour,0.5,3.9
59,20,0,1,7,24,324,719.4165882915258,720.3024546802044,"[18, 0, 236]",236,a,0.36299776134546846,1,colour,0.5,3.9
59,20,0,1,7,25,325,720.8227700085845,721.7104216980515,"[31, 0, 223]",223,a,0.36424034333322197,1,colour,0.5,3.9
59,20,0,1,7,26,326,722.2293632939691,723.0145584915299,"[83, 0, 171]",171,l,0.26263258792459965,1,colour,0.5,3.9
59,20,0,1,7,27,327,723.5261076111346,724.3823989747325,"[79, 0, 175]",175,l,0.3336901571601629,1,colour,0.5,3.9
59,20,0,1,7,28,328,724.9009451499442,725.5584052888444,"[40, 0, 214]",214,a,0.13443436718080193,1,colour,0.5,3.9
59,20,0,1,7,29,329,726.0728617744753,727.0143733842997,"[27, 0, 227]",227,a,0.41892379405908287,1,colour,0.5,3.9
59,20,0,1,7,30,330,727.5259039931698,728.2064072329085,"[97, 0, 157]",157,l,0.15723092097323388,1,colour,0.5,3.9
59,20,0,1,7,31,331,728.7135834881337,729.2944210238056,"[6, 0, 248]",248,a,0.05839229200500995,1,colour,0.5,3.9
59,20,0,1,7,32,332,729.8070902394829,730.5423860251904,"[34, 0, 220]",220,a,0.2122593802632764,1,colour,0.5,3.9
59,20,0,1,7,33,333,731.0573407250922,731.7103760120226,"[89, 0, 165]",165,l,0.13053293572738767,1,colour,0.5,3.9
59,20,0,1,7,34,334,732.2289198241197,732.9424485677155,"[53, 0, 201]",201,a,0.1907270698575303,0,colour,0.5,3.9
59,20,0,1,7,35,335,733.463309765677,734.1503709235694,"[12, 0, 242]",242,a,0.16387351579032838,1,colour,0.5,3.9
59,20,0,1,7,36,336,734.6664366610348,735.7744010795141,"[75, 0, 179]",179,l,0.5851966154295951,1,colour,0.5,3.9
59,20,0,1,7,37,337,736.291515627061,737.086687713745,"[60, 0, 194]",194,a,0.2724109791452065,0,colour,0.5,3.9
59,20,0,1,7,38,338,737.6038778796792,738.5743709896924,"[98, 0, 156]",156,l,0.44722276052925736,1,colour,0.5,3.9
59,20,0,1,7,39,339,739.0884182699956,742.5026446712436,"[44, 0, 210]",210,a,2.8915054658427835,1,colour,0.5,3.9
59,20,0,1,7,40,340,743.0250040566316,744.0863234068966,"[74, 0, 180]",180,l,0.5378390811383724,1,colour,0.5,3.9
59,20,0,1,7,41,341,744.6031748657115,745.3183806026354,"[55, 0, 199]",199,a,0.19239776162430644,0,colour,0.5,3.9
59,20,0,1,7,42,342,745.8374974597245,746.5263423429569,"[2, 0, 252]",252,a,0.16602666804101318,1,colour,0.5,3.9
59,20,0,1,7,43,343,747.0405668537132,747.7023715000832,"[76, 0, 178]",178,l,0.1386796256992966,1,colour,0.5,3.9
59,20,0,1,7,44,344,748.2124677244574,749.2783741909079,"[4, 0, 250]",250,a,0.542985457694158,1,colour,0.5,3.9
59,20,0,1,7,45,345,749.7906412904849,750.734353313921,"[82, 0, 172]",172,l,0.4202790157869458,1,colour,0.5,3.9
59,20,0,1,7,46,346,751.2436709060566,752.2863133244682,"[11, 0, 243]",243,a,0.5195812006713822,1,colour,0.5,3.9
59,20,0,1,7,47,347,752.8061454045819,753.614299813984,"[84, 0, 170]",170,l,0.2847225832520053,1,colour,0.5,3.9
59,20,0,1,7,48,348,754.1343871058198,755.2463384203147,"[17, 0, 237]",237,a,0.5886018020100892,1,colour,0.5,3.9
59,20,0,1,7,49,349,755.7595153024886,756.7743238857947,"[54, 0, 200]",200,a,0.4915768305072561,0,colour,0.5,3.9
59,20,0,1,7,50,350,757.2906873703469,758.2703476236202,"[48, 0, 206]",206,a,0.4564300759229809,1,colour,0.5,3.9
59,20,0,1,8,1,351,787.9928619477432,790.8062639520504,"[11, 0, 243]",243,a,2.2893526286352426,1,colour,0.5,3.9
59,20,0,1,8,2,352,791.3217676723143,792.5422643269412,"[68, 0, 186]",186,l,0.697492150706239,1,colour,0.5,3.9
59,20,0,1,8,3,353,793.0561075954465,793.750222916482,"[55, 0, 199]",199,a,0.17104386340361089,0,colour,0.5,3.9
59,20,0,1,8,4,354,794.2593010506826,794.942306783516,"[97, 0, 157]",157,l,0.1602781021501869,1,colour,0.5,3.9
59,20,0,1,8,5,355,795.4623440569267,796.206343429978,"[29, 0, 225]",225,a,0.22103622276335955,1,colour,0.5,3.9
59,20,0,1,8,6,356,796.7204820824554,797.3902999053244,"[80, 0, 174]",174,l,0.14660497475415468,1,colour,0.5,3.9
59,20,0,1,8,7,357,797.9080339715583,798.6303750037914,"[48, 0, 206]",206,a,0.19941017730161548,1,colour,0.5,3.9
59,20,0,1,8,8,358,799.1422829164658,799.8782907744171,"[94, 0, 160]",160,l,0.21305179689079523,1,colour,0.5,3.9
59,20,0,1,8,9,359,800.3926917278441,802.1022824123502,"[72, 0, 182]",182,l,1.1867086663842201,1,colour,0.5,3.9
59,20,0,1,8,10,360,802.6114416786004,803.9662998392014,"[73, 0, 181]",181,l,0.8320627884240821,1,colour,0.5,3.9
59,20,0,1,8,11,361,804.4865462445887,805.2222122448729,"[33, 0, 221]",221,a,0.21257051802240312,1,colour,0.5,3.9
59,20,0,1,8,12,362,805.736503315391,806.5102829069365,"[18, 0, 236]",236,a,0.25103266234509647,1,colour,0.5,3.9
59,20,0,1,8,13,363,807.0176131557673,807.8702366380021,"[39, 0, 215]",215,a,0.32998564827721566,1,colour,0.5,3.9
59,20,0,1,8,14,364,808.3770107772434,809.006269623409,"[32, 0, 222]",222,a,0.10644693253561854,1,colour,0.5,3.9
59,20,0,1,8,15,365,809.5176584479632,811.6062177146086,"[46, 0, 208]",208,a,1.5656343194423243,1,colour,0.5,3.9
59,20,0,1,8,16,366,812.1270714293933,812.8142452270258,"[84, 0, 170]",170,l,0.1637778114527464,1,colour,0.5,3.9
59,20,0,1,8,17,367,813.3300329097547,814.0941873160191,"[12, 0, 242]",242,a,0.2411223331000656,1,colour,0.5,3.9
59,20,0,1,8,18,368,814.6115944905905,815.5022634289926,"[76, 0, 178]",178,l,0.3681559533579275,1,colour,0.5,3.9
59,20,0,1,8,19,369,816.0297404401936,816.6222283137031,"[83, 0, 171]",171,l,0.06602540775202215,1,colour,0.5,3.9
59,20,0,1,8,20,370,817.1428949519759,817.8062312628608,"[21, 0, 233]",233,a,0.14060631697066128,1,colour,0.5,3.9
59,20,0,1,8,21,371,818.3146623092471,819.230211242917,"[96, 0, 158]",158,l,0.3936727965483442,1,colour,0.5,3.9
59,20,0,1,8,22,372,819.7514450184535,820.8062651335495,"[26, 0, 228]",228,a,0.5317616543034092,1,colour,0.5,3.9
59,20,0,1,8,23,373,821.3144693250069,822.2301986397943,"[8, 0, 246]",246,a,0.392350657726638,1,colour,0.5,3.9
59,20,0,1,8,24,374,822.7363670449704,823.8142672823742,"[62, 0, 192]",192,a,0.554635007865727,0,colour,0.5,3.9
59,20,0,1,8,25,375,824.3301388541004,825.2302931627491,"[31, 0, 223]",223,a,0.3769213743507862,1,colour,0.5,3.9
59,20,0,1,8,26,376,825.7363733464153,826.4941754218889,"[85, 0, 169]",169,l,0.23459592263679951,1,colour,0.5,3.9
59,20,0,1,8,27,377,827.0020369678969,827.7821744041285,"[99, 0, 155]",155,l,0.25736254395451397,1,colour,0.5,3.9
59,20,0,1,8,28,378,828.2989041648107,829.0781794737559,"[34, 0, 220]",220,a,0.25603607308585197,1,colour,0.5,3.9
59,20,0,1,8,29,379,829.5958540693391,830.3341501684627,"[93, 0, 161]",161,l,0.21508128172717988,1,colour,0.5,3.9
59,20,0,1,8,30,380,830.8456524205394,831.6621969164116,"[61, 0, 193]",193,a,0.29350612114649266,0,colour,0.5,3.9
59,20,0,1,8,31,381,832.1742190441582,832.926152824657,"[63, 0, 191]",191,a,0.2296125980792567,0,colour,0.5,3.9
59,20,0,1,8,32,382,833.4393998113228,834.5261611741735,"[41, 0, 213]",213,a,0.5633866442367435,1,colour,0.5,3.9
59,20,0,1,8,33,383,835.0333720877534,835.8061761244899,"[19, 0, 235]",235,a,0.24989129870664328,1,colour,0.5,3.9
59,20,0,1,8,34,384,836.314804487396,837.0621515454259,"[49, 0, 205]",205,a,0.22485258372034878,1,colour,0.5,3.9
59,20,0,1,8,35,385,837.5801546078874,838.4061639941065,"[38, 0, 216]",216,a,0.3030229990836233,1,colour,0.5,3.9
59,20,0,1,8,36,386,838.9238559188088,839.8381500614341,"[45, 0, 209]",209,a,0.39096747315488756,1,colour,0.5,3.9
59,20,0,1,8,37,387,840.3457666356117,841.8141148642171,"[14, 0, 240]",240,a,0.9451042666332796,1,colour,0.5,3.9
59,20,0,1,8,38,388,842.330029758974,843.7022072665859,"[37, 0, 217]",217,a,0.8488772257696837,1,colour,0.5,3.9
59,20,0,1,8,39,389,844.2206884573679,845.0460862017935,"[42, 0, 212]",212,a,0.3022266438929364,1,colour,0.5,3.9
59,20,0,1,8,40,390,845.5644256081432,846.334131657728,"[52, 0, 202]",202,a,0.24665428407024592,0,colour,0.5,3.9
59,20,0,1,8,41,391,846.8457595465006,847.5741606763331,"[3, 0, 251]",251,a,0.20528438000474125,1,colour,0.5,3.9
59,20,0,1,8,42,392,848.0956583281513,848.9341435518581,"[92, 0, 162]",162,l,0.31537989526987076,1,colour,0.5,3.9
59,20,0,1,8,43,393,849.4551855247701,850.4221608086955,"[75, 0, 179]",179,l,0.4443949512206018,1,colour,0.5,3.9
59,20,0,1,8,44,394,850.9393486113986,852.134103931021,"[77, 0, 177]",177,l,0.6718575477134436,1,colour,0.5,3.9
59,20,0,1,8,45,395,852.6426271372475,853.3661233177409,"[59, 0, 195]",195,a,0.20020101871341467,0,colour,0.5,3.9
59,20,0,1,8,46,396,853.876837485237,856.7820968166925,"[60, 0, 194]",194,a,2.381880674394779,0,colour,0.5,3.9
59,20,0,1,8,47,397,857.2987781343982,858.2140891854651,"[6, 0, 248]",248,a,0.39208047988358885,1,colour,0.5,3.9
59,20,0,1,8,48,398,858.7206065375358,859.7261227348354,"[67, 0, 187]",187,l,0.4823903889628127,1,colour,0.5,3.9
59,20,0,1,8,49,399,860.2363650756888,861.1260848469101,"[53, 0, 201]",201,a,0.3672020599478856,0,colour,0.5,3.9
59,20,0,1,8,50,400,861.6425975988386,862.4860783563927,"[0, 0, 254]",254,a,0.3202962662326172,1,colour,0.5,3.9
59,20,0,1,9,1,401,888.9074558066204,889.878082430223,"[90, 0, 164]",164,l,0.44659654644783586,1,colour,0.5,3.8
59,20,0,1,9,2,402,890.3926279249135,891.9020128645934,"[59, 0, 195]",195,a,0.986136645427905,0,colour,0.5,3.8
59,20,0,1,9,3,403,892.4082234111847,893.3339965688065,"[82, 0, 172]",172,l,0.40245436516124755,1,colour,0.5,3.8
59,20,0,1,9,4,404,893.845645725145,895.2060677382397,"[7, 0, 247]",247,a,0.8372142849257216,1,colour,0.5,3.8
59,20,0,1,9,5,405,895.7206857004203,897.1019862405956,"[81, 0, 173]",173,l,0.8579482707427815,1,colour,0.5,3.8
59,20,0,1,9,6,406,897.6113404603675,898.5819714163663,"[10, 0, 244]",244,a,0.4473231910960749,1,colour,0.5,3.8
59,20,0,1,9,7,407,899.0956441498129,900.0221368628554,"[32, 0, 222]",222,a,0.403232209617272,1,colour,0.5,3.8
59,20,0,1,9,8,408,900.5332188819302,901.55801183742,"[66, 0, 188]",188,a,0.5016604517586529,0,colour,0.5,3.8
59,20,0,1,9,9,409,902.064383072895,902.9179762023268,"[78, 0, 176]",176,l,0.33020423247944564,1,colour,0.5,3.8
59,20,0,1,9,10,410,903.4393206484383,904.4619872331386,"[13, 0, 241]",241,a,0.4991595341125503,1,colour,0.5,3.8
59,20,0,1,9,11,411,904.97061756521,906.1980289617786,"[1, 0, 253]",253,a,0.7040819701505825,1,colour,0.5,3.8
59,20,0,1,9,12,412,906.7051067557186,907.5660005955724,"[68, 0, 186]",186,l,0.33775739767588675,1,colour,0.5,3.8
59,20,0,1,9,13,413,908.0800967126852,909.2540290374309,"[95, 0, 159]",159,l,0.6506887566065416,1,colour,0.5,3.8
59,20,0,1,9,14,414,909.7677569092484,910.7099920128239,"[76, 0, 178]",178,l,0.4191916089039296,1,colour,0.5,3.8
59,20,0,1,9,15,415,911.220632925164,912.3340221687686,"[43, 0, 211]",211,a,0.589975928189233,1,colour,0.5,3.8
59,20,0,1,9,16,416,912.8455921622226,913.845995853655,"[36, 0, 218]",218,a,0.4770474835531786,1,colour,0.5,3.8
59,20,0,1,9,17,417,914.3612782328855,916.1180027475348,"[34, 0, 220]",220,a,1.2334569219965488,1,colour,0.5,3.8
59,20,0,1,9,18,418,916.6269383096369,917.5739554829197,"[37, 0, 217]",217,a,0.423740915954113,1,colour,0.5,3.8
59,20,0,1,9,19,419,918.0800498450408,919.1180602489039,"[62, 0, 192]",192,a,0.5149188599316403,0,colour,0.5,3.8
59,20,0,1,9,20,420,919.6268839590484,920.7819696046645,"[75, 0, 179]",179,l,0.6318960343487561,1,colour,0.5,3.8
59,20,0,1,9,21,421,921.2987659251085,922.2860703219194,"[97, 0, 157]",157,l,0.4643097388325259,1,colour,0.5,3.8
59,20,0,1,9,22,422,922.798742688261,923.6859300341457,"[27, 0, 227]",227,a,0.3640063991770148,1,colour,0.5,3.8
59,20,0,1,9,23,423,924.2050626450218,925.341940034763,"[98, 0, 156]",156,l,0.613712984486483,1,colour,0.5,3.8
59,20,0,1,9,24,424,925.8613396727014,927.0859512230381,"[17, 0, 237]",237,a,0.7013931883266196,1,colour,0.5,3.8
59,20,0,1,9,25,425,927.5956276082434,928.6459732468938,"[11, 0, 243]",243,a,0.5271883226232603,1,colour,0.5,3.8
59,20,0,1,9,26,426,929.1581517312443,930.6459700961132,"[40, 0, 214]",214,a,0.9644515231484547,1,colour,0.5,3.8
59,20,0,1,9,27,427,931.158108014497,932.0299850181909,"[64, 0, 190]",190,a,0.34862634644377977,0,colour,0.5,3.8
59,20,0,1,9,28,428,932.5487155129667,933.9019793877378,"[96, 0, 158]",158,l,0.8300510265398771,1,colour,0.5,3.8
59,20,0,1,9,29,429,934.4081225867849,935.3179528866895,"[39, 0, 215]",215,a,0.38659775955602527,1,colour,0.5,3.8
59,20,0,1,9,30,430,935.830537425587,936.6860139232595,"[20, 0, 234]",234,a,0.3330655185272917,1,colour,0.5,3.8
59,20,0,1,9,31,431,937.2049570945092,938.1499625059078,"[9, 0, 245]",245,a,0.42177208326756954,1,colour,0.5,3.8
59,20,0,1,9,32,432,938.65805208846,939.5819217917742,"[92, 0, 162]",162,l,0.40052097849547863,1,colour,0.5,3.8
59,20,0,1,9,33,433,940.0955976760015,941.333973331959,"[71, 0, 183]",183,a,0.7151671400060877,0,colour,0.5,3.8
59,20,0,1,9,34,434,941.8456473004771,942.7739056220744,"[50, 0, 204]",204,a,0.40498639654833823,1,colour,0.5,3.8
59,20,0,1,9,35,435,943.283065282274,944.3499169774586,"[24, 0, 230]",230,a,0.5437243115156889,1,colour,0.5,3.8
59,20,0,1,9,36,436,944.8611364485696,946.9979500352638,"[28, 0, 226]",226,a,1.6134538343176246,1,colour,0.5,3.8
59,20,0,1,9,37,437,947.51746506989,948.3580049845623,"[31, 0, 223]",223,a,0.31731682654935867,1,colour,0.5,3.8
59,20,0,1,9,38,438,948.8767484762939,950.1179231907008,"[42, 0, 212]",212,a,0.7179858908057213,1,colour,0.5,3.8
59,20,0,1,9,39,439,950.6268103099428,951.6538631498115,"[12, 0, 242]",242,a,0.5039762621745467,1,colour,0.5,3.8
59,20,0,1,9,40,440,952.1739890385652,953.0299373628804,"[70, 0, 184]",184,l,0.333171856822446,1,colour,0.5,3.8
59,20,0,1,9,41,441,953.5486391070299,954.4298805703875,"[55, 0, 199]",199,a,0.3581416488159448,0,colour,0.5,3.8
59,20,0,1,9,42,442,954.9391544456594,956.3499252481852,"[60, 0, 194]",194,a,0.8873815116239712,0,colour,0.5,3.8
59,20,0,1,9,43,443,956.8610238087131,958.3978617350804,"[46, 0, 208]",208,a,1.0134139771107584,1,colour,0.5,3.8
59,20,0,1,9,44,444,958.9080891099293,960.453868506127,"[58, 0, 196]",196,a,1.0225141666596755,0,colour,0.5,3.8
59,20,0,1,9,45,445,960.9704013441224,962.1019114099909,"[30, 0, 224]",224,a,0.6080943873384967,1,colour,0.5,3.8
59,20,0,1,9,46,446,962.6112250636797,963.4379154084018,"[99, 0, 155]",155,l,0.3035802901722491,1,colour,0.5,3.8
59,20,0,1,9,47,447,963.9549732421292,964.7818754755426,"[51, 0, 203]",203,a,0.3037197112571448,0,colour,0.5,3.8
59,20,0,1,9,48,448,965.2985595501959,966.2138847798342,"[0, 0, 254]",254,a,0.3920789045514539,1,colour,0.5,3.8
59,20,0,1,9,49,449,966.7204553009942,967.8778870829847,"[65, 0, 189]",189,l,0.6341374078765512,1,colour,0.5,3.8
59,20,0,1,9,50,450,968.3923876793124,969.1978568513878,"[49, 0, 205]",205,a,0.28223899472504854,1,colour,0.5,3.8
59,20,0,1,10,1,451,994.9539464875124,995.7497688127914,"[76, 0, 178]",178,l,0.2718288757605478,1,colour,0.5,3.8
59,20,0,1,10,2,452,996.2672720856499,997.4137845067307,"[63, 0, 191]",191,l,0.6231959915021434,1,colour,0.5,3.8
59,20,0,1,10,3,453,997.9235183934215,998.6457755365409,"[41, 0, 213]",213,a,0.19911124871578068,1,colour,0.5,3.8
59,20,0,1,10,4,454,999.1578626488335,999.9737750230124,"[10, 0, 244]",244,a,0.2926577783655375,1,colour,0.5,3.8
59,20,0,1,10,5,455,1000.4860023441724,1001.2617873960407,"[75, 0, 179]",179,l,0.25271280645392835,1,colour,0.5,3.8
59,20,0,1,10,6,456,1001.7828376396792,1002.5897845193977,"[71, 0, 183]",183,l,0.28383840050082654,1,colour,0.5,3.8
59,20,0,1,10,7,457,1003.1110151441535,1003.9097558632493,"[87, 0, 167]",167,l,0.2756003384711221,1,colour,0.5,3.8
59,20,0,1,10,8,458,1004.423469950445,1005.1337849163683,"[70, 0, 184]",184,l,0.18725177901796997,1,colour,0.5,3.8
59,20,0,1,10,9,459,1005.6421954827383,1006.4297895921627,"[7, 0, 247]",247,a,0.2642812244594097,1,colour,0.5,3.8
59,20,0,1,10,10,460,1006.9390642551007,1007.6378438860411,"[97, 0, 157]",157,l,0.17542342306114733,1,colour,0.5,3.8
59,20,0,1,10,11,461,1008.1577354368055,1008.9417569753714,"[55, 0, 199]",199,a,0.26070668443571776,0,colour,0.5,3.8
59,20,0,1,10,12,462,1009.4546660428168,1010.2057656588731,"[12, 0, 242]",242,a,0.2277768850326538,1,colour,0.5,3.8
59,20,0,1,10,13,463,1010.720403313404,1011.469753074809,"[44, 0, 210]",210,a,0.22626058070454746,1,colour,0.5,3.8
59,20,0,1,10,14,464,1011.985917667509,1012.7338074443396,"[42, 0, 212]",212,a,0.22463715029880404,1,colour,0.5,3.8
59,20,0,1,10,15,465,1013.2516072826693,1014.1897818412399,"[58, 0, 196]",196,a,0.41501487942878157,0,colour,0.5,3.8
59,20,0,1,10,16,466,1014.7046947935596,1015.4698011239525,"[51, 0, 203]",203,a,0.24182259012013674,0,colour,0.5,3.8
59,20,0,1,10,17,467,1015.9858069969341,1016.7897496246733,"[27, 0, 227]",227,a,0.2807274165097624,1,colour,0.5,3.8
59,20,0,1,10,18,468,1017.2983437230578,1019.3497700731969,"[65, 0, 189]",189,a,1.528216258971952,0,colour,0.5,3.8
59,20,0,1,10,19,469,1019.8608666644432,1020.4378189162817,"[46, 0, 208]",208,a,0.053632671595551074,1,colour,0.5,3.8
59,20,0,1,10,20,470,1020.9546908551129,1021.581736684544,"[77, 0, 177]",177,l,0.10373727686237544,1,colour,0.5,3.8
59,20,0,1,10,21,471,1022.0953676704085,1023.6697552015539,"[83, 0, 171]",171,l,1.051291261217557,1,colour,0.5,3.8
59,20,0,1,10,22,472,1024.189029596746,1024.9977267249487,"[3, 0, 251]",251,a,0.2863156874664128,1,colour,0.5,3.8
59,20,0,1,10,23,473,1025.5171499936841,1026.285778482561,"[24, 0, 230]",230,a,0.24522698880173266,1,colour,0.5,3.8
59,20,0,1,10,24,474,1026.7984232797753,1027.6297436697641,"[35, 0, 219]",219,a,0.30808706185780466,1,colour,0.5,3.8
59,20,0,1,10,25,475,1028.1422206888674,1028.757753632497,"[66, 0, 188]",188,l,0.092334667686373,1,colour,0.5,3.8
59,20,0,1,10,26,476,1029.2672145842807,1029.9417408277513,"[5, 0, 249]",249,a,0.15130906295962632,1,colour,0.5,3.8
59,20,0,1,10,27,477,1030.4547668672167,1031.2297472931677,"[81, 0, 173]",173,l,0.2517317378660664,1,colour,0.5,3.8
59,20,0,1,10,28,478,1031.7358644983033,1032.5338214652147,"[92, 0, 162]",162,l,0.27482288773171604,1,colour,0.5,3.8
59,20,0,1,10,29,479,1033.048487870372,1034.1496958726784,"[99, 0, 155]",155,l,0.5782062552170828,1,colour,0.5,3.8
59,20,0,1,10,30,480,1034.6578401996521,1035.4377369964495,"[16, 0, 238]",238,a,0.2565953334560618,1,colour,0.5,3.8
59,20,0,1,10,31,481,1035.954651864362,1036.7737213025102,"[56, 0, 198]",198,a,0.29569314408581704,0,colour,0.5,3.8
59,20,0,1,10,32,482,1037.282684827689,1038.1980265987804,"[18, 0, 236]",236,a,0.3921813042834401,1,colour,0.5,3.8
59,20,0,1,10,33,483,1038.7046168121742,1039.9097007248783,"[89, 0, 165]",165,l,0.6817552739521489,1,colour,0.5,3.8
59,20,0,1,10,34,484,1040.42334313225,1041.2297535946127,"[11, 0, 243]",243,a,0.2831728019518778,1,colour,0.5,3.8
59,20,0,1,10,35,485,1041.735796363093,1042.5337052808609,"[4, 0, 250]",250,a,0.2745861867442727,1,colour,0.5,3.8
59,20,0,1,10,36,486,1043.0482980369125,1043.9257546470035,"[73, 0, 181]",181,l,0.3542169803986326,1,colour,0.5,3.8
59,20,0,1,10,37,487,1044.4388952954905,1045.3496869717492,"[80, 0, 174]",174,l,0.3873366132611409,1,colour,0.5,3.8
59,20,0,1,10,38,488,1045.860849729157,1046.66168767435,"[6, 0, 248]",248,a,0.27765699848532677,1,colour,0.5,3.8
59,20,0,1,10,39,489,1047.173357704538,1048.2137248786166,"[52, 0, 202]",202,a,0.5171255752211437,0,colour,0.5,3.8
59,20,0,1,10,40,490,1048.7200996585889,1049.5496914616087,"[20, 0, 234]",234,a,0.3061808506026864,1,colour,0.5,3.8
59,20,0,1,10,41,491,1050.0638576832134,1051.061685626395,"[13, 0, 241]",241,a,0.4745426274603233,1,colour,0.5,3.8
59,20,0,1,10,42,492,1051.579572110786,1052.3656680325512,"[95, 0, 159]",159,l,0.26294254430104047,1,colour,0.5,3.8
59,20,0,1,10,43,493,1052.8763463601936,1054.0296467050212,"[64, 0, 190]",190,l,0.6300142414402217,1,colour,0.5,3.8
59,20,0,1,10,44,494,1054.548306307639,1055.1017203950323,"[36, 0, 218]",218,a,0.030148463905788958,1,colour,0.5,3.8
59,20,0,1,10,45,495,1055.6107666278258,1056.6856933331583,"[23, 0, 231]",231,a,0.5515724667347968,1,colour,0.5,3.8
59,20,0,1,10,46,496,1057.2045577353565,1058.1657064718893,"[0, 0, 254]",254,a,0.43824584456160665,1,colour,0.5,3.8
59,20,0,1,10,47,497,1058.6731970156543,1060.3016602942953,"[28, 0, 226]",226,a,1.1057671555317938,1,colour,0.5,3.8
59,20,0,1,10,48,498,1060.8138631971087,1061.485710110981,"[84, 0, 170]",170,l,0.14904602791648358,1,colour,0.5,3.8
59,20,0,1,10,49,499,1062.0013883047504,1062.8776818895712,"[9, 0, 245]",245,a,0.35324536403641105,1,colour,0.5,3.8
59,20,0,1,10,50,500,1063.3919457849115,1064.2136622571852,"[29, 0, 225]",225,a,0.29773405042942613,1,colour,0.5,3.8
59,20,0,1,11,1,501,1105.9223463097587,1107.1975996705005,"[20, 0, 234]",234,a,0.7511614498216659,1,colour,0.5,3.8
59,20,0,1,11,2,502,1107.7044033480342,1108.613563323277,"[10, 0, 244]",244,a,0.3856930969050154,1,colour,0.5,3.8
59,20,0,1,11,3,503,1109.1262790126493,1109.8135737207485,"[65, 0, 189]",189,l,0.16393692488782108,1,colour,0.5,3.8
59,20,0,1,11,4,504,1110.329394092667,1111.109554371913,"[72, 0, 182]",182,l,0.2572908641304821,1,colour,0.5,3.8
59,20,0,1,11,5,505,1111.6263199725654,1112.389525211649,"[76, 0, 178]",178,l,0.23973520996514708,1,colour,0.5,3.8
59,20,0,1,11,6,506,1112.9074116959237,1113.5895899598254,"[67, 0, 187]",187,l,0.15894532960373908,1,colour,0.5,3.8
59,20,0,1,11,7,507,1114.1105996373808,1114.8455953130033,"[98, 0, 156]",156,l,0.21159653866197914,1,colour,0.5,3.8
59,20,0,1,11,8,508,1115.3606732864864,1116.093550862046,"[55, 0, 199]",199,a,0.20945914019830525,0,colour,0.5,3.8
59,20,0,1,11,9,509,1116.6105472559575,1117.6535496489378,"[69, 0, 185]",185,l,0.5201093471841887,1,colour,0.5,3.8
59,20,0,1,11,10,510,1118.173144634231,1118.917580781621,"[11, 0, 243]",243,a,0.22144582180771977,1,colour,0.5,3.8
59,20,0,1,11,11,511,1119.4386751359561,1120.2136248418828,"[31, 0, 223]",223,a,0.2515249690040946,1,colour,0.5,3.8
59,20,0,1,11,12,512,1120.7199460589327,1121.5335662534926,"[43, 0, 211]",211,a,0.2902230267645791,1,colour,0.5,3.8
59,20,0,1,11,13,513,1122.0480841789395,1122.7735814873595,"[86, 0, 168]",168,l,0.20248571515548974,1,colour,0.5,3.8
59,20,0,1,11,14,514,1123.2824114990653,1124.0935898526805,"[24, 0, 230]",230,a,0.28799504379276186,1,colour,0.5,3.8
59,20,0,1,11,15,515,1124.6106732864864,1125.317564949044,"[91, 0, 163]",163,l,0.18369850667659193,1,colour,0.5,3.8
59,20,0,1,11,16,516,1125.829309415887,1126.6535539812176,"[22, 0, 232]",232,a,0.301264873589389,1,colour,0.5,3.8
59,20,0,1,11,17,517,1127.1729863083456,1128.1335568799404,"[48, 0, 206]",206,a,0.4370828194078058,1,colour,0.5,3.8
59,20,0,1,11,18,518,1128.64171420387,1129.4135025135474,"[75, 0, 179]",179,l,0.2487381196115166,1,colour,0.5,3.8
59,20,0,1,11,19,519,1129.923130061943,1130.6855720288586,"[13, 0, 241]",241,a,0.2392838632222265,1,colour,0.5,3.8
59,20,0,1,11,20,520,1131.2043080374133,1132.1255094389198,"[57, 0, 197]",197,a,0.39779675065074116,0,colour,0.5,3.8
59,20,0,1,11,21,521,1132.6417185361497,1133.3016839249758,"[73, 0, 181]",181,l,0.13689590035937726,1,colour,0.5,3.8
59,20,0,1,11,22,522,1133.81353985006,1134.5736006282968,"[19, 0, 235]",235,a,0.23700507427565753,1,colour,0.5,3.8
59,20,0,1,11,23,523,1135.094868668355,1135.8934766615275,"[2, 0, 252]",252,a,0.2752364253392443,1,colour,0.5,3.8
59,20,0,1,11,24,524,1136.4073514376068,1137.2055707054678,"[29, 0, 225]",225,a,0.27511354559101164,1,colour,0.5,3.8
59,20,0,1,11,25,525,1137.7198869822314,1138.7495510163717,"[71, 0, 183]",183,l,0.5065669765463099,1,colour,0.5,3.8
59,20,0,1,11,26,526,1139.2667648129864,1140.0935008436209,"[82, 0, 172]",172,l,0.30350861023180187,1,colour,0.5,3.8
59,20,0,1,11,27,527,1140.610509052989,1143.2214588187635,"[66, 0, 188]",188,l,2.087618764024228,1,colour,0.5,3.8
59,20,0,1,11,28,528,1143.7355084621813,1144.493511004839,"[21, 0, 233]",233,a,0.23484798357822,1,colour,0.5,3.8
59,20,0,1,11,29,529,1145.0010976468911,1145.9255348813022,"[26, 0, 228]",228,a,0.4011306510074064,1,colour,0.5,3.8
59,20,0,1,11,30,530,1146.4385963669047,1147.2057975603966,"[96, 0, 158]",158,l,0.24404663441237062,1,colour,0.5,3.8
59,20,0,1,11,31,531,1147.7198342068586,1148.7974863217678,"[89, 0, 165]",165,l,0.5544404481770471,1,colour,0.5,3.8
59,20,0,1,11,32,532,1149.3136194067774,1150.101509294007,"[44, 0, 210]",210,a,0.26454628235660493,1,colour,0.5,3.8
59,20,0,1,11,33,533,1150.610371994786,1151.5654913535109,"[14, 0, 240]",240,a,0.43127793341409415,1,colour,0.5,3.8
59,20,0,1,11,34,534,1152.0792204068275,1152.869489513454,"[23, 0, 231]",231,a,0.2671858335379511,1,colour,0.5,3.8
59,20,0,1,11,35,535,1153.376059640781,1154.3814687121194,"[32, 0, 222]",222,a,0.4821343894582242,1,colour,0.5,3.8
59,20,0,1,11,36,536,1154.89169017924,1155.9175425786525,"[30, 0, 224]",224,a,0.5027179263997823,1,colour,0.5,3.8
59,20,0,1,11,37,537,1156.4386585943867,1157.4934487772407,"[62, 0, 192]",192,a,0.5313406336354092,0,colour,0.5,3.8
59,20,0,1,11,38,538,1158.001285511069,1159.3094509481452,"[63, 0, 191]",191,l,0.7849923672620207,1,colour,0.5,3.8
59,20,0,1,11,39,539,1159.8293377727969,1160.5976421269588,"[3, 0, 251]",251,a,0.24539082846604288,1,colour,0.5,3.8
59,20,0,1,11,40,540,1161.110665409593,1161.8376041918527,"[61, 0, 193]",193,l,0.2039669674122706,1,colour,0.5,3.8
59,20,0,1,11,41,541,1162.344949012855,1162.8774778777733,"[52, 0, 202]",202,a,0.009260878432542086,0,colour,0.5,3.8
59,20,0,1,11,42,542,1163.3917878528591,1164.6534763937816,"[78, 0, 176]",176,l,0.7382972807390615,1,colour,0.5,3.8
59,20,0,1,11,43,543,1165.1730150590884,1165.949447592604,"[36, 0, 218]",218,a,0.25318935920950025,1,colour,0.5,3.8
59,20,0,1,11,44,544,1166.4699145513587,1167.285444895504,"[41, 0, 213]",213,a,0.29238484357483685,1,colour,0.5,3.8
59,20,0,1,11,45,545,1167.7979624808067,1168.5654433043674,"[17, 0, 237]",237,a,0.24437076901085675,1,colour,0.5,3.8
59,20,0,1,11,46,546,1169.0792192253284,1169.8294397786958,"[99, 0, 155]",155,l,0.22693366219755262,1,colour,0.5,3.8
59,20,0,1,11,47,547,1170.3449261698406,1171.2294566353085,"[49, 0, 205]",205,a,0.3614995739189908,1,colour,0.5,3.8
59,20,0,1,11,48,548,1171.73544150847,1172.7414704923285,"[8, 0, 246]",246,a,0.4826995574403554,1,colour,0.5,3.8
59,20,0,1,11,49,549,1173.2511598744895,1174.029524219106,"[94, 0, 160]",160,l,0.2551286534871906,1,colour,0.5,3.8
59,20,0,1,11,50,550,1174.547973902314,1175.3494790215045,"[54, 0, 200]",200,a,0.2782981786876917,0,colour,0.5,3.8
59,20,0,1,12,1,551,1198.3909568393137,1199.7814020735677,"[1, 0, 253]",253,a,0.8663375695468858,1,colour,0.5,3.8
59,20,0,1,12,2,552,1200.2979813853744,1201.1973669078434,"[47, 0, 207]",207,a,0.3760560961673036,1,colour,0.5,3.8
59,20,0,1,12,3,553,1201.7044706955785,1202.517399691511,"[23, 0, 231]",231,a,0.2898425720632076,1,colour,0.5,3.8
59,20,0,1,12,4,554,1203.0322358440608,1203.6134400496958,"[75, 0, 179]",179,l,0.05786138854455203,1,colour,0.5,3.8
59,20,0,1,12,5,555,1204.1260651546763,1204.8293621911434,"[4, 0, 250]",250,a,0.1802527541294694,1,colour,0.5,3.8
59,20,0,1,12,6,556,1205.3448418868938,1205.9733764515258,"[7, 0, 247]",247,a,0.105417420854792,1,colour,0.5,3.8
59,20,0,1,12,7,557,1206.4853580133058,1207.0774201400345,"[84, 0, 170]",170,l,0.06869961740449071,1,colour,0.5,3.8
59,20,0,1,12,8,558,1207.5948745760834,1208.5254195634043,"[60, 0, 194]",194,a,0.4077287414111197,0,colour,0.5,3.8
59,20,0,1,12,9,559,1209.032391019049,1209.8133641950553,"[6, 0, 248]",248,a,0.2579966349294409,1,colour,0.5,3.8
59,20,0,1,12,10,560,1210.3292255268898,1211.0453859447734,"[2, 0, 252]",252,a,0.19282390223816037,1,colour,0.5,3.8
59,20,0,1,12,11,561,1211.5636016838253,1212.3173443956766,"[41, 0, 213]",213,a,0.23102925950661302,1,colour,0.5,3.8
59,20,0,1,12,12,562,1212.82919716998,1213.5813507160638,"[48, 0, 206]",206,a,0.2288638980826363,1,colour,0.5,3.8
59,20,0,1,12,13,563,1214.0948048654245,1214.741351551027,"[82, 0, 172]",172,l,0.12351106782443821,1,colour,0.5,3.8
59,20,0,1,12,14,564,1215.2510586561402,1216.1333308127942,"[99, 0, 155]",155,l,0.3589943239931017,1,colour,0.5,3.8
59,20,0,1,12,15,565,1216.6417665852932,1217.3973056256073,"[31, 0, 223]",223,a,0.23263969307299703,1,colour,0.5,3.8
59,20,0,1,12,16,566,1217.9072533701546,1218.797339811339,"[29, 0, 225]",225,a,0.3668149100849405,1,colour,0.5,3.8
59,20,0,1,12,17,567,1219.3134760471294,1220.2052989522927,"[56, 0, 198]",198,a,0.3685442848363891,0,colour,0.5,3.8
59,20,0,1,12,18,568,1220.719783794717,1221.5173287994694,"[44, 0, 210]",210,a,0.2743494857568294,1,colour,0.5,3.8
59,20,0,1,12,19,569,1222.0322531732963,1222.8053045448614,"[97, 0, 157]",157,l,0.24971367453690618,1,colour,0.5,3.8
59,20,0,1,12,20,570,1223.3133929457981,1224.0533676136984,"[9, 0, 245]",245,a,0.21669604757335037,1,colour,0.5,3.8
59,20,0,1,12,21,571,1224.5634047611384,1225.3813966384623,"[0, 0, 254]",254,a,0.29552694130688906,1,colour,0.5,3.8
59,20,0,1,12,22,572,1225.8917366530513,1226.6933162090136,"[88, 0, 166]",166,l,0.2784655629657209,1,colour,0.5,3.8
59,20,0,1,12,23,573,1227.2050543742953,1228.0854482826544,"[40, 0, 214]",214,a,0.3578214526642114,1,colour,0.5,3.8
59,20,0,1,12,24,574,1228.595390907256,1229.7414504062617,"[57, 0, 197]",197,a,0.6235398185672238,0,colour,0.5,3.8
59,20,0,1,12,25,575,1230.2518877005205,1231.0214322735555,"[90, 0, 164]",164,l,0.2473537534242496,1,colour,0.5,3.8
59,20,0,1,12,26,576,1231.5330274731386,1232.757333005662,"[64, 0, 190]",190,a,0.70141878828872,0,colour,0.5,3.8
59,20,0,1,12,27,577,1233.2672453041887,1234.1653358634794,"[93, 0, 161]",161,l,0.37532236240804195,1,colour,0.5,3.8
59,20,0,1,12,28,578,1234.673517211806,1235.485288302647,"[59, 0, 195]",195,a,0.28884299274068326,0,colour,0.5,3.8
59,20,0,1,12,29,579,1236.001682113274,1237.5493133701384,"[42, 0, 212]",212,a,1.0247508140746504,1,colour,0.5,3.8
59,20,0,1,12,30,580,1238.0643015468959,1239.2372724952875,"[32, 0, 222]",222,a,0.6499573859618977,1,colour,0.5,3.8
59,20,0,1,12,31,581,1239.7515761689283,1240.8133185090264,"[83, 0, 171]",171,l,0.5382971231592819,1,colour,0.5,3.8
59,20,0,1,12,32,582,1241.329730436555,1242.4372994343285,"[89, 0, 165]",165,l,0.5845680383499712,1,colour,0.5,3.8
59,20,0,1,12,33,583,1242.9548558762763,1243.7092901804717,"[17, 0, 237]",237,a,0.23118837305810302,1,colour,0.5,3.8
59,20,0,1,12,34,584,1244.2203974056756,1244.9332802429562,"[92, 0, 162]",162,l,0.18965856754221022,1,colour,0.5,3.8
59,20,0,1,12,35,585,1245.4390957626747,1246.2052757153288,"[53, 0, 201]",201,a,0.24314354709349573,0,colour,0.5,3.8
59,20,0,1,12,36,586,1246.7202560151927,1247.7972653745674,"[67, 0, 187]",187,l,0.5533601305214688,1,colour,0.5,3.8
59,20,0,1,12,37,587,1248.314079024247,1249.0453111141687,"[3, 0, 251]",251,a,0.2079192049568519,1,colour,0.5,3.8
59,20,0,1,12,38,588,1249.5640683905222,1250.3893007198349,"[50, 0, 204]",204,a,0.30207737640012056,1,colour,0.5,3.8
59,20,0,1,12,39,589,1250.9078224765835,1252.5652644986985,"[65, 0, 189]",189,l,1.13397396216169,1,colour,0.5,3.8
59,20,0,1,12,40,590,1253.079694990418,1254.0052464132896,"[80, 0, 174]",174,l,0.4025331342127174,1,colour,0.5,3.8
59,20,0,1,12,41,591,1254.5172240365064,1255.2532283499604,"[62, 0, 192]",192,a,0.21254806884098798,0,colour,0.5,3.8
59,20,0,1,12,42,592,1255.7672157657798,1256.6372444535373,"[27, 0, 227]",227,a,0.3467051690677181,1,colour,0.5,3.8
59,20,0,1,12,43,593,1257.1578650119482,1257.8692268186715,"[34, 0, 220]",220,a,0.1884120472241193,1,colour,0.5,3.8
59,20,0,1,12,44,594,1258.3765350120375,1259.0372577654198,"[24, 0, 230]",230,a,0.13746855140198022,1,colour,0.5,3.8
59,20,0,1,12,45,595,1259.5483437230578,1260.5732430167263,"[77, 0, 177]",177,l,0.5016301256837323,1,colour,0.5,3.8
59,20,0,1,12,46,596,1261.0796055876417,1261.8692681724206,"[22, 0, 232]",232,a,0.26701687392778695,1,colour,0.5,3.8
59,20,0,1,12,47,597,1262.376497202902,1263.1253003070597,"[39, 0, 215]",215,a,0.22604514728300273,1,colour,0.5,3.8
59,20,0,1,12,48,598,1263.6424085530452,1264.317254598951,"[55, 0, 199]",199,a,0.15188683406449854,0,colour,0.5,3.8
59,20,0,1,12,49,599,1264.829587864573,1265.5332141558174,"[16, 0, 238]",238,a,0.18084352219011635,1,colour,0.5,3.8
59,20,0,1,12,50,600,1266.0483508121688,1266.6692439903272,"[98, 0, 156]",156,l,0.09785480343271047,1,colour,0.5,3.8
59,20,0,1,13,1,601,1304.0787076202687,1304.9731996150222,"[7, 0, 247]",247,a,0.37032170861493796,1,colour,0.5,3.8
59,20,0,1,13,2,602,1305.4857049910352,1306.6771642193198,"[79, 0, 175]",175,l,0.6685504287015647,1,colour,0.5,3.8
59,20,0,1,13,3,603,1307.1887440588325,1308.4371706468519,"[16, 0, 238]",238,a,0.7250113033223897,1,colour,0.5,3.8
59,20,0,1,13,4,604,1308.9546321721282,1310.0691541148117,"[77, 0, 177]",177,l,0.5918270010733977,1,colour,0.5,3.8
59,20,0,1,13,5,605,1310.5794890093384,1311.5491156597855,"[4, 0, 250]",250,a,0.447238908149302,1,colour,0.5,3.8
59,20,0,1,13,6,606,1312.0637962433975,1312.9331234926358,"[87, 0, 167]",167,l,0.3467540058773011,1,colour,0.5,3.8
59,20,0,1,13,7,607,1313.454401772702,1314.501142939087,"[3, 0, 251]",251,a,0.5234743613982573,1,colour,0.5,3.8
59,20,0,1,13,8,608,1315.0169239264214,1315.9652195215458,"[73, 0, 181]",181,l,0.4249338733498007,1,colour,0.5,3.8
59,20,0,1,13,9,609,1316.4856124373619,1317.2932351556374,"[25, 0, 229]",229,a,0.28470486029982567,1,colour,0.5,3.8
59,20,0,1,13,10,610,1317.8137040835572,1318.6371869520517,"[99, 0, 155]",155,l,0.3001203590538353,1,colour,0.5,3.8
59,20,0,1,13,11,611,1319.1574695912423,1319.9331053757342,"[20, 0, 234]",234,a,0.2530684487428516,1,colour,0.5,3.8
59,20,0,1,13,12,612,1320.4544513971778,1321.2770973443985,"[85, 0, 169]",169,l,0.29956661257892847,1,colour,0.5,3.8
59,20,0,1,13,13,613,1321.7981263203546,1322.493153787218,"[84, 0, 170]",170,l,0.17214190412778407,1,colour,0.5,3.8
59,20,0,1,13,14,614,1323.0014020892559,1323.8212111688918,"[36, 0, 218]",218,a,0.2969203661195934,1,colour,0.5,3.8
59,20,0,1,13,15,615,1324.3293830649927,1325.2610906837508,"[13, 0, 241]",241,a,0.4090217355405912,1,colour,0.5,3.8
59,20,0,1,13,16,616,1325.7824579727603,1326.6051169169368,"[39, 0, 215]",215,a,0.2996044218307361,1,colour,0.5,3.8
59,20,0,1,13,17,617,1327.1262132404372,1328.0691021272214,"[55, 0, 199]",199,a,0.4198383028851822,0,colour,0.5,3.8
59,20,0,1,13,18,618,1328.5795142154675,1329.757078187773,"[67, 0, 187]",187,l,0.6546996772522107,1,colour,0.5,3.8
59,20,0,1,13,19,619,1330.2668408250902,1331.1090979052242,"[61, 0, 193]",193,a,0.3196688706520945,0,colour,0.5,3.8
59,20,0,1,13,20,620,1331.6262152097188,1332.413114575902,"[35, 0, 219]",219,a,0.2627460154471919,1,colour,0.5,3.8
59,20,0,1,13,21,621,1332.9230268744286,1333.8131070140516,"[81, 0, 173]",173,l,0.3669696912402287,1,colour,0.5,3.8
59,20,0,1,13,22,622,1334.3292716067517,1335.1891402672045,"[42, 0, 212]",212,a,0.33696931309532374,1,colour,0.5,3.8
59,20,0,1,13,23,623,1335.7043722342933,1336.445053460542,"[92, 0, 162]",162,l,0.21792405715677887,1,colour,0.5,3.8
59,20,0,1,13,24,624,1336.9543990157545,1337.7091070424067,"[17, 0, 237]",237,a,0.2320674357470125,1,colour,0.5,3.8
59,20,0,1,13,25,625,1338.2201378616737,1339.005095964414,"[9, 0, 245]",245,a,0.26206033083144575,1,colour,0.5,3.8
59,20,0,1,13,26,626,1339.5167671759846,1340.245041093789,"[93, 0, 161]",161,l,0.2048712361138314,1,colour,0.5,3.8
59,20,0,1,13,27,627,1340.751808537636,1341.6850379746174,"[33, 0, 221]",221,a,0.4110795772867277,1,colour,0.5,3.8
59,20,0,1,13,28,628,1342.2042666836642,1343.021164064994,"[19, 0, 235]",235,a,0.2940464769490063,1,colour,0.5,3.8
59,20,0,1,13,29,629,1343.532359905308,1344.5330767037813,"[57, 0, 197]",197,a,0.47725858469493687,0,colour,0.5,3.8
59,20,0,1,13,30,630,1345.0479868991533,1345.837107159081,"[54, 0, 200]",200,a,0.26652771804947406,0,colour,0.5,3.8
59,20,0,1,13,31,631,1346.3449029328767,1347.1570497521898,"[1, 0, 253]",253,a,0.2897582893492654,1,colour,0.5,3.8
59,20,0,1,13,32,632,1347.6729705545586,1348.461033339845,"[51, 0, 203]",203,a,0.26569512905552983,0,colour,0.5,3.8
59,20,0,1,13,33,633,1348.9698353884742,1349.7730671254685,"[26, 0, 228]",228,a,0.28007678408175707,1,colour,0.5,3.8
59,20,0,1,13,34,634,1350.2823260346195,1351.3570755096152,"[65, 0, 189]",189,l,0.5520037272945046,1,colour,0.5,3.8
59,20,0,1,13,35,635,1351.8761128098704,1352.597032454447,"[75, 0, 179]",179,l,0.19781943608541042,1,colour,0.5,3.8
59,20,0,1,13,36,636,1353.1104464315576,1353.9490446888376,"[6, 0, 248]",248,a,0.316000989289023,1,colour,0.5,3.8
59,20,0,1,13,37,637,1354.4698661083821,1355.2530491503421,"[8, 0, 246]",246,a,0.26031362684443593,1,colour,0.5,3.8
59,20,0,1,13,38,638,1355.7666817115387,1356.709025910357,"[52, 0, 202]",202,a,0.41944760840851814,0,colour,0.5,3.8
59,20,0,1,13,39,639,1357.219830268412,1358.0850126896985,"[88, 0, 166]",166,l,0.34155879239551723,1,colour,0.5,3.8
59,20,0,1,13,40,640,1358.5947138871998,1359.4850271831965,"[46, 0, 208]",208,a,0.36700671270955354,1,colour,0.5,3.8
59,20,0,1,13,41,641,1360.0009641333017,1360.8610293226084,"[86, 0, 168]",168,l,0.33699412539135665,1,colour,0.5,3.8
59,20,0,1,13,42,642,1361.376139197615,1362.341052307398,"[69, 0, 185]",185,l,0.4418152645230293,1,colour,0.5,3.8
59,20,0,1,13,43,643,1362.8604901484214,1363.6050668986281,"[50, 0, 204]",204,a,0.22184715024195611,1,colour,0.5,3.8
59,20,0,1,13,44,644,1364.12601237942,1364.925041393144,"[28, 0, 226]",226,a,0.2762911430327222,1,colour,0.5,3.8
59,20,0,1,13,45,645,1365.4384959363379,1366.2610398776596,"[95, 0, 159]",159,l,0.2994894189760089,1,colour,0.5,3.8
59,20,0,1,13,46,646,1366.7822949208785,1367.549052644521,"[24, 0, 230]",230,a,0.24375164427328855,1,colour,0.5,3.8
59,20,0,1,13,47,647,1368.0634662009543,1368.8849979599472,"[40, 0, 214]",214,a,0.29924720409326255,1,colour,0.5,3.8
59,20,0,1,13,48,648,1369.3915960502345,1370.285047899466,"[89, 0, 165]",165,l,0.37017913651652634,1,colour,0.5,3.8
59,20,0,1,13,49,649,1370.7978596871253,1371.613395938999,"[29, 0, 225]",225,a,0.29222927463706583,1,colour,0.5,3.8
59,20,0,1,13,50,650,1372.1260478254408,1373.189005965949,"[23, 0, 231]",231,a,0.5398520244052634,1,colour,0.5,3.8
59,20,0,1,14,1,651,1433.3280510802288,1434.5088926330209,"[20, 0, 234]",234,a,0.6570087921572849,1,colour,0.5,3.7
59,20,0,1,14,2,652,1435.0163382785395,1435.8209051510785,"[77, 0, 177]",177,l,0.28182309411931783,1,colour,0.5,3.7
59,20,0,1,14,3,653,1436.328783238656,1437.1008830799256,"[98, 0, 156]",156,l,0.2490984881296754,1,colour,0.5,3.7
59,20,0,1,14,4,654,1437.6100612508599,1438.4928485570708,"[73, 0, 181]",181,l,0.3593365754932165,1,colour,0.5,3.7
59,20,0,1,14,5,655,1439.0007014385192,1439.7728568121092,"[87, 0, 167]",167,l,0.24886060564313084,1,colour,0.5,3.7
59,20,0,1,14,6,656,1440.2819668477168,1441.0368391078664,"[4, 0, 250]",250,a,0.23162002745084465,1,colour,0.5,3.7
59,20,0,1,14,7,657,1441.5475556385936,1442.2448713465128,"[96, 0, 158]",158,l,0.17456562805455178,1,colour,0.5,3.7
59,20,0,1,14,8,658,1442.7506789893378,1443.420852848445,"[50, 0, 204]",204,a,0.1468873618869111,1,colour,0.5,3.7
59,20,0,1,14,9,659,1443.9381588047836,1444.6768136969768,"[55, 0, 199]",199,a,0.21562754514161497,0,colour,0.5,3.7
59,20,0,1,14,10,660,1445.1881670755101,1445.9649087776197,"[37, 0, 217]",217,a,0.2537332596257329,1,colour,0.5,3.7
59,20,0,1,14,11,661,1446.4850681431126,1447.0608435851755,"[88, 0, 166]",166,l,0.05287648853845894,1,colour,0.5,3.7
59,20,0,1,14,12,662,1447.5787359771784,1448.4131267850753,"[61, 0, 193]",193,a,0.3115844080457464,0,colour,0.5,3.7
59,20,0,1,14,13,663,1448.9224585556658,1449.700834715739,"[34, 0, 220]",220,a,0.25564774160739034,1,colour,0.5,3.7
59,20,0,1,14,14,664,1450.2193753771717,1450.9568073797273,"[11, 0, 243]",243,a,0.21473509178031236,1,colour,0.5,3.7
59,20,0,1,14,15,665,1451.4693198449677,1452.1488467422314,"[31, 0, 223]",223,a,0.15633925516158342,1,colour,0.5,3.7
59,20,0,1,14,16,666,1452.656879610964,1453.4688369906507,"[41, 0, 213]",213,a,0.28864961478393525,1,colour,0.5,3.7
59,20,0,1,14,17,667,1453.9849495957606,1454.7247970515164,"[2, 0, 252]",252,a,0.2172123787458986,1,colour,0.5,3.7
59,20,0,1,14,18,668,1455.2349681063788,1456.020909640938,"[23, 0, 231]",231,a,0.2630035904003307,1,colour,0.5,3.7
59,20,0,1,14,19,669,1456.531785678817,1457.2688596760854,"[99, 0, 155]",155,l,0.21400372101925313,1,colour,0.5,3.7
59,20,0,1,14,20,670,1457.781891229446,1458.67677746329,"[39, 0, 215]",215,a,0.3717328563798219,1,colour,0.5,3.7
59,20,0,1,14,21,671,1459.1880887002917,1460.012816119939,"[90, 0, 164]",164,l,0.30228256981354207,1,colour,0.5,3.7
59,20,0,1,14,22,672,1460.5318037957186,1461.2688281685114,"[30, 0, 224]",224,a,0.2144538862630725,1,colour,0.5,3.7
59,20,0,1,14,23,673,1461.781779771205,1462.588877887465,"[52, 0, 202]",202,a,0.2835300196893513,0,colour,0.5,3.7
59,20,0,1,14,24,674,1463.0942503312835,1464.97276756668,"[74, 0, 180]",180,l,1.3553870947798714,1,colour,0.5,3.7
59,20,0,1,14,25,675,1465.4849251772976,1466.364849228179,"[1, 0, 253]",253,a,0.35675531334709376,1,colour,0.5,3.7
59,20,0,1,14,26,676,1466.875560638844,1467.7568844158668,"[53, 0, 201]",201,a,0.35815582727082074,0,colour,0.5,3.7
59,20,0,1,14,27,677,1468.2661901926622,1469.0528111102758,"[7, 0, 247]",247,a,0.2633411157876253,1,colour,0.5,3.7
59,20,0,1,14,28,678,1469.5630207619397,1470.4208496976644,"[0, 0, 254]",254,a,0.33472872723359615,1,colour,0.5,3.7
59,20,0,1,14,29,679,1470.9382793214172,1471.820842135814,"[78, 0, 176]",176,l,0.3595067166024819,1,colour,0.5,3.7
59,20,0,1,14,30,680,1472.3286434235051,1473.1807584515773,"[21, 0, 233]",233,a,0.3296898704720661,1,colour,0.5,3.7
59,20,0,1,14,31,681,1473.6880871249596,1476.4608297217637,"[64, 0, 190]",190,a,2.2501602950505912,0,colour,0.5,3.7
59,20,0,1,14,32,682,1476.969245014363,1477.812787605566,"[43, 0, 211]",211,a,0.3208106281235814,1,colour,0.5,3.7
59,20,0,1,14,33,683,1478.3286532696802,1479.2447382267565,"[45, 0, 209]",209,a,0.3931856098352,1,colour,0.5,3.7
59,20,0,1,14,34,684,1479.7506691431627,1480.7647424173774,"[82, 0, 172]",172,l,0.4909080812940374,1,colour,0.5,3.7
59,20,0,1,14,35,685,1481.281722663669,1483.2848352229921,"[92, 0, 162]",162,l,1.479758320725523,1,colour,0.5,3.7
59,20,0,1,14,36,686,1483.79733075283,1484.6687469575554,"[63, 0, 191]",191,a,0.34796508005820215,0,colour,0.5,3.7
59,20,0,1,14,37,687,1485.188069401891,1486.4127542075003,"[80, 0, 174]",174,l,0.7020835991716012,1,colour,0.5,3.7
59,20,0,1,14,38,688,1486.922311257571,1487.7727169969585,"[18, 0, 236]",236,a,0.3272633895976469,1,colour,0.5,3.7
59,20,0,1,14,39,689,1488.2817269959487,1489.1087548659416,"[72, 0, 182]",182,l,0.3037500373320654,1,colour,0.5,3.7
59,20,0,1,14,40,690,1489.6254586328287,1490.1887432711665,"[8, 0, 246]",246,a,0.040195063687860966,1,colour,0.5,3.7
59,20,0,1,14,41,691,1490.7035207407316,1491.6927561609773,"[24, 0, 230]",230,a,0.4662265839288011,1,colour,0.5,3.7
59,20,0,1,14,42,692,1492.2035108945565,1493.100722784875,"[66, 0, 188]",188,l,0.3741794233210385,1,colour,0.5,3.7
59,20,0,1,14,43,693,1493.6097430238733,1494.5407157272566,"[15, 0, 239]",239,a,0.4082860324997455,1,colour,0.5,3.7
59,20,0,1,14,44,694,1495.0472941253101,1495.8607559939846,"[85, 0, 169]",169,l,0.2908685392467305,1,colour,0.5,3.7
59,20,0,1,14,45,695,1496.375392860733,1497.2047038519522,"[49, 0, 205]",205,a,0.3061903028283268,1,colour,0.5,3.7
59,20,0,1,14,46,696,1497.7190807808656,1498.5247665678617,"[36, 0, 218]",218,a,0.28259148623328656,1,colour,0.5,3.7
59,20,0,1,14,47,697,1499.0315946638584,1499.8527310021454,"[59, 0, 195]",195,a,0.29785102256573737,0,colour,0.5,3.7
59,20,0,1,14,48,698,1500.3597725622822,1501.348796487553,"[97, 0, 157]",157,l,0.46603438747115433,1,colour,0.5,3.7
59,20,0,1,14,49,699,1501.8597957991296,1502.628767327289,"[6, 0, 248]",248,a,0.2463411771459505,1,colour,0.5,3.7
59,20,0,1,14,50,700,1503.141050180653,1503.9806909464533,"[38, 0, 216]",216,a,0.3171368391485885,1,colour,0.5,3.7
59,20,0,1,15,1,701,1542.6400218505878,1543.9006674890406,"[87, 0, 167]",167,l,0.7369637205265462,1,colour,0.5,3.7
59,20,0,1,15,2,702,1544.4220851903083,1545.1166195628466,"[23, 0, 231]",231,a,0.17147118551656604,1,colour,0.5,3.7
59,20,0,1,15,3,703,1545.6252179933945,1546.4286513791885,"[42, 0, 212]",212,a,0.28069748426787555,1,colour,0.5,3.7
59,20,0,1,15,4,704,1546.9377362087835,1547.7727457477013,"[61, 0, 193]",193,l,0.3124618955189362,1,colour,0.5,3.7
59,20,0,1,15,5,705,1548.2814178273547,1549.172620819998,"[38, 0, 216]",216,a,0.3679582430049777,1,colour,0.5,3.7
59,20,0,1,15,6,706,1549.6877074580407,1550.4926142190816,"[16, 0, 238]",238,a,0.2825946370139718,1,colour,0.5,3.7
59,20,0,1,15,7,707,1551.000152024324,1551.8446524472674,"[31, 0, 223]",223,a,0.3217550691915676,1,colour,0.5,3.7
59,20,0,1,15,8,708,1552.3594803289743,1553.1326427650638,"[46, 0, 208]",208,a,0.25022449193056673,1,colour,0.5,3.7
59,20,0,1,15,9,709,1553.6407772458624,1554.5405987551203,"[97, 0, 157]",157,l,0.37712223536800593,1,colour,0.5,3.7
59,20,0,1,15,10,710,1555.0470211905194,1555.9806452604244,"[93, 0, 161]",161,l,0.41066800884436816,1,colour,0.5,3.7
59,20,0,1,15,11,711,1556.5002323687077,1557.3965801624581,"[78, 0, 176]",176,l,0.37368790432810783,1,colour,0.5,3.7
59,20,0,1,15,12,712,1557.9063676120713,1558.6845657540252,"[67, 0, 187]",187,a,0.25558433250989765,0,colour,0.5,3.7
59,20,0,1,15,13,713,1559.2032541073859,1559.988597390824,"[58, 0, 196]",196,a,0.262244256446138,0,colour,0.5,3.7
59,20,0,1,15,14,714,1560.500126424362,1561.2206112636486,"[90, 0, 164]",164,l,0.19744843384250998,1,colour,0.5,3.7
59,20,0,1,15,15,715,1561.7345297565917,1562.8045849894406,"[74, 0, 180]",180,l,0.5472259899834171,1,colour,0.5,3.7
59,20,0,1,15,16,716,1563.3132992106257,1564.1246492807986,"[89, 0, 165]",165,l,0.2891348322154954,1,colour,0.5,3.7
59,20,0,1,15,17,717,1564.6408729503164,1565.3965841010213,"[1, 0, 253]",253,a,0.23288072634022683,1,colour,0.5,3.7
59,20,0,1,15,18,718,1565.9064243257744,1566.7725838773185,"[62, 0, 192]",192,a,0.3436611386714503,0,colour,0.5,3.7
59,20,0,1,15,19,719,1567.2814800549531,1568.0525562923867,"[98, 0, 156]",156,l,0.24815247172955424,1,colour,0.5,3.7
59,20,0,1,15,20,720,1568.5627434948692,1569.3565832029562,"[40, 0, 214]",214,a,0.27155436552129686,1,colour,0.5,3.7
59,20,0,1,15,21,721,1569.8752274457365,1570.7006086485926,"[92, 0, 162]",162,l,0.30273115960881114,1,colour,0.5,3.7
59,20,0,1,15,22,722,1571.2189409657149,1572.1085449464153,"[55, 0, 199]",199,a,0.36630960647016764,0,colour,0.5,3.7
59,20,0,1,15,23,723,1572.625209722668,1573.44501171296,"[30, 0, 224]",224,a,0.2966879972955212,1,colour,0.5,3.7
59,20,0,1,15,24,724,1573.953314365819,1574.7485431662062,"[18, 0, 236]",236,a,0.2727532306453213,1,colour,0.5,3.7
59,20,0,1,15,25,725,1575.2658050119644,1576.0525306924246,"[84, 0, 170]",170,l,0.263558124541305,1,colour,0.5,3.7
59,20,0,1,15,26,726,1576.5627253779676,1577.324619112187,"[80, 0, 174]",174,l,0.23958279169164598,1,colour,0.5,3.7
59,20,0,1,15,27,727,1577.8439112304477,1578.628557801596,"[20, 0, 234]",234,a,0.2623175118351355,1,colour,0.5,3.7
59,20,0,1,15,28,728,1579.1408646794735,1579.8605744312517,"[68, 0, 186]",186,l,0.1970356839010492,1,colour,0.5,3.7
59,20,0,1,15,29,729,1580.3753503253683,1581.0365484501235,"[71, 0, 183]",183,l,0.13863315200433135,1,colour,0.5,3.7
59,20,0,1,15,30,730,1581.5470786918886,1582.2525993790478,"[39, 0, 215]",215,a,0.18269026279449463,1,colour,0.5,3.7
59,20,0,1,15,31,731,1582.7659278917126,1583.5325202003587,"[52, 0, 202]",202,a,0.24399188999086618,0,colour,0.5,3.7
59,20,0,1,15,32,732,1584.047013707459,1584.820578259416,"[94, 0, 160]",160,l,0.25022685481235385,1,colour,0.5,3.7
59,20,0,1,15,33,733,1585.328260605922,1586.1485513582593,"[9, 0, 245]",245,a,0.2978596871253103,1,colour,0.5,3.7
59,20,0,1,15,34,734,1586.6564455934567,1587.4765248509357,"[10, 0, 244]",244,a,0.29745166341308504,1,colour,0.5,3.7
59,20,0,1,15,35,735,1587.9845553565538,1588.804534971132,"[49, 0, 205]",205,a,0.2972673437325284,1,colour,0.5,3.7
59,20,0,1,15,36,736,1589.3126139197266,1590.2445629657013,"[32, 0, 222]",222,a,0.4090528493979946,1,colour,0.5,3.7
59,20,0,1,15,37,737,1590.750166202779,1591.5324997203425,"[6, 0, 248]",248,a,0.2595877699786797,1,colour,0.5,3.7
59,20,0,1,15,38,738,1592.0470121320104,1592.6686351054814,"[91, 0, 163]",163,l,0.09821320266928524,1,colour,0.5,3.7
59,20,0,1,15,39,739,1593.1875908798538,1593.8765318613732,"[22, 0, 232]",232,a,0.165047962567769,1,colour,0.5,3.7
59,20,0,1,15,40,740,1594.3907721259166,1595.1245181303238,"[13, 0, 241]",241,a,0.21080569725017995,1,colour,0.5,3.7
59,20,0,1,15,41,741,1595.6407579474617,1596.4524896537187,"[35, 0, 219]",219,a,0.2891576752299443,1,colour,0.5,3.7
59,20,0,1,15,42,742,1596.9688555013854,1597.9405943440506,"[3, 0, 251]",251,a,0.449093131814152,1,colour,0.5,3.7
59,20,0,1,15,43,743,1598.453258833615,1599.300495693693,"[82, 0, 172]",172,l,0.32419375923927873,1,colour,0.5,3.7
59,20,0,1,15,44,744,1599.812614313676,1600.6205087851267,"[8, 0, 246]",246,a,0.28540944948326796,1,colour,0.5,3.7
59,20,0,1,15,45,745,1601.1407327413326,1601.9324771924876,"[14, 0, 240]",240,a,0.26919759542215616,1,colour,0.5,3.7
59,20,0,1,15,46,746,1602.4532525320537,1603.7964780777693,"[53, 0, 201]",201,a,0.8204215089790523,0,colour,0.5,3.7
59,20,0,1,15,47,747,1604.3125512984116,1605.1005317699164,"[44, 0, 210]",210,a,0.26503583195153624,1,colour,0.5,3.7
59,20,0,1,15,48,748,1605.6094882059842,1606.356587141403,"[85, 0, 169]",169,l,0.22443274455145001,1,colour,0.5,3.7
59,20,0,1,15,49,749,1606.8750104369828,1607.6124830056215,"[4, 0, 250]",250,a,0.2145625875564292,1,colour,0.5,3.7
59,20,0,1,15,50,750,1608.1250486399513,1608.8444886076031,"[86, 0, 168]",168,l,0.19665877392981201,1,colour,0.5,3.7
59,20,0,1,16,1,751,1653.5771802882664,1654.956389116007,"[16, 0, 238]",238,a,0.8554264792473987,1,colour,0.5,3.7
59,20,0,1,16,2,752,1655.4686392802978,1656.3404253056506,"[10, 0, 244]",244,a,0.34862910327501595,1,colour,0.5,3.7
59,20,0,1,16,3,753,1656.8591955788434,1657.668398010661,"[29, 0, 225]",225,a,0.2860896203201264,1,colour,0.5,3.7
59,20,0,1,16,4,754,1658.1874487017049,1658.988454031176,"[71, 0, 183]",183,l,0.2779775885865092,1,colour,0.5,3.7
59,20,0,1,16,5,755,1659.4999027202139,1660.3164019238902,"[41, 0, 213]",213,a,0.29365578235592693,1,colour,0.5,3.7
59,20,0,1,16,6,756,1660.8279191419715,1661.5245763406856,"[22, 0, 232]",232,a,0.1734325351426378,1,colour,0.5,3.7
59,20,0,1,16,7,757,1662.0310554896714,1662.764339907444,"[24, 0, 230]",230,a,0.21050440554972738,1,colour,0.5,3.7
59,20,0,1,16,8,758,1663.281048006611,1664.0045418239897,"[36, 0, 218]",218,a,0.2007736696396023,1,colour,0.5,3.7
59,20,0,1,16,9,759,1664.5154537019553,1665.9643432156881,"[75, 0, 179]",179,l,0.9256900562904775,1,colour,0.5,3.7
59,20,0,1,16,10,760,1666.4842284650076,1667.3003850232344,"[70, 0, 184]",184,l,0.2928385534323752,1,colour,0.5,3.7
59,20,0,1,16,11,761,1667.8123264127644,1668.5963885174133,"[11, 0, 243]",243,a,0.26145499059930444,1,colour,0.5,3.7
59,20,0,1,16,12,762,1669.1092223603046,1669.9805385282962,"[32, 0, 222]",222,a,0.34877640136983246,1,colour,0.5,3.7
59,20,0,1,16,13,763,1670.4998141049873,1671.3483380515827,"[13, 0, 241]",241,a,0.3251665571006015,1,colour,0.5,3.7
59,20,0,1,16,14,764,1671.8592991601909,1672.7003227168461,"[3, 0, 251]",251,a,0.31799542193766683,1,colour,0.5,3.7
59,20,0,1,16,15,765,1673.2185211266624,1673.9565631956793,"[85, 0, 169]",169,l,0.21427350514568388,1,colour,0.5,3.7
59,20,0,1,16,16,766,1674.468585717259,1675.28438269475,"[84, 0, 170]",170,l,0.2923789358465001,1,colour,0.5,3.7
59,20,0,1,16,17,767,1675.796679726569,1676.604324500193,"[91, 0, 163]",163,l,0.28419640590436757,1,colour,0.5,3.7
59,20,0,1,16,18,768,1677.1248643202707,1678.0443229563534,"[67, 0, 187]",187,l,0.396285172435455,1,colour,0.5,3.7
59,20,0,1,16,19,769,1678.5623992740875,1679.324357992853,"[53, 0, 201]",201,a,0.23872696596663445,0,colour,0.5,3.7
59,20,0,1,16,20,770,1679.843637507991,1680.668327906169,"[74, 0, 180]",180,l,0.30056501051876694,1,colour,0.5,3.7
59,20,0,1,16,21,771,1681.1874416124774,1682.0203393528936,"[87, 0, 167]",167,l,0.3104288660688326,1,colour,0.5,3.7
59,20,0,1,16,22,772,1682.5309956251876,1683.4203794463538,"[19, 0, 235]",235,a,0.3662485604872927,1,colour,0.5,3.7
59,20,0,1,16,23,773,1683.9373809603276,1684.756306250929,"[89, 0, 165]",165,l,0.29571165482047945,1,colour,0.5,3.7
59,20,0,1,16,24,774,1685.2653343668208,1686.0763583331136,"[6, 0, 248]",248,a,0.288590537966229,1,colour,0.5,3.7
59,20,0,1,16,25,775,1686.5935169913573,1687.676351716509,"[58, 0, 196]",196,a,0.560342613956891,0,colour,0.5,3.7
59,20,0,1,16,26,776,1688.1873423634097,1689.2442990893032,"[43, 0, 211]",211,a,0.5338289482751861,1,colour,0.5,3.7
59,20,0,1,16,27,777,1689.7497061914764,1690.5163556076586,"[34, 0, 220]",220,a,0.2435303032398224,1,colour,0.5,3.7
59,20,0,1,16,28,778,1691.0309341853717,1691.7722743148915,"[15, 0, 239]",239,a,0.21879209228791296,1,colour,0.5,3.7
59,20,0,1,16,29,779,1692.2809593913844,1693.0763055578573,"[38, 0, 216]",216,a,0.27243224682752043,1,colour,0.5,3.7
59,20,0,1,16,30,780,1693.5934370406903,1694.365077264607,"[80, 0, 174]",174,l,0.24838168965652585,1,colour,0.5,3.7
59,20,0,1,16,31,781,1694.8746540069114,1695.6764946823241,"[73, 0, 181]",181,l,0.2792122936807573,1,colour,0.5,3.7
59,20,0,1,16,32,782,1696.1872383882292,1696.9723993213847,"[81, 0, 173]",173,l,0.26283029839396477,1,colour,0.5,3.7
59,20,0,1,16,33,783,1697.4840205146465,1698.2205328884302,"[86, 0, 168]",168,l,0.2128564496524632,1,colour,0.5,3.7
59,20,0,1,16,34,784,1698.7340386315482,1699.532319733058,"[63, 0, 191]",191,a,0.27557237539440393,0,colour,0.5,3.7
59,20,0,1,16,35,785,1700.0465662991628,1700.8922931563575,"[94, 0, 160]",160,l,0.3225959287956357,1,colour,0.5,3.7
59,20,0,1,16,36,786,1701.4058859392535,1702.1882608106826,"[25, 0, 229]",229,a,0.25961100682616234,1,colour,0.5,3.7
59,20,0,1,16,37,787,1702.7028035484254,1703.7322820815025,"[62, 0, 192]",192,a,0.5064677275950089,0,colour,0.5,3.7
59,20,0,1,16,38,788,1704.249658536166,1705.4763204451883,"[18, 0, 236]",236,a,0.7038279400439933,1,colour,0.5,3.7
59,20,0,1,16,39,789,1705.983996490133,1706.940260363277,"[27, 0, 227]",227,a,0.4334543226286769,1,colour,0.5,3.7
59,20,0,1,16,40,790,1707.4527184778126,1708.1243026969023,"[99, 0, 155]",155,l,0.14900270488578826,1,colour,0.5,3.7
59,20,0,1,16,41,791,1708.6403700098163,1709.3962568155257,"[1, 0, 253]",253,a,0.23337933444418013,1,colour,0.5,3.7
59,20,0,1,16,42,792,1709.9058611270739,1710.7562830140814,"[76, 0, 178]",178,l,0.3271991927176714,1,colour,0.5,3.7
59,20,0,1,16,43,793,1711.265686464496,1712.1243428691523,"[93, 0, 161]",161,l,0.3365656217793003,1,colour,0.5,3.7
59,20,0,1,16,44,794,1712.6403715851484,1713.5482783446787,"[47, 0, 207]",207,a,0.38484475400764495,1,colour,0.5,3.7
59,20,0,1,16,45,795,1714.0620440256316,1714.8682516576955,"[5, 0, 249]",249,a,0.28357452421914786,1,colour,0.5,3.7
59,20,0,1,16,46,796,1715.3746169854421,1716.1802460588515,"[77, 0, 177]",177,l,0.2829853316070512,1,colour,0.5,3.7
59,20,0,1,16,47,797,1716.6871978222625,1717.7642717722338,"[30, 0, 224]",224,a,0.5545400910777971,1,colour,0.5,3.7
59,20,0,1,16,48,798,1718.280851477757,1719.244455052074,"[60, 0, 194]",194,l,0.44098031253088266,1,colour,0.5,3.7
59,20,0,1,16,49,799,1719.7651862809435,1720.6282206699252,"[65, 0, 189]",189,l,0.34054070233833045,1,colour,0.5,3.7
59,20,0,1,16,50,800,1721.1401569395093,1721.868273713044,"[17, 0, 237]",237,a,0.20506461418699473,1,colour,0.5,3.7
