id,age,condition,counterbalance,block,trialinblock,trial,tstart,tend,trialstim,trialintensity,response,RT,accuracy,trialtype,colourfreq,credits
58,21,0,1,Practice,1,NA,5.907611921429634e-06,1.557714484166354,"[54, 0, 200]",200,a,0.9240394507069141,0,colour,0.5,4
58,21,0,1,Practice,2,NA,2.0790065488545224,3.293678231537342,"[81, 0, 173]",173,a,0.691415905370377,0,colour,0.5,4
58,21,0,1,Practice,3,NA,3.8133011797908694,4.42964032466989,"[45, 0, 209]",209,a,0.09305855527054518,1,colour,0.5,4
58,21,0,1,Practice,4,NA,4.9382127615390345,5.637648144853301,"[78, 0, 176]",176,l,0.1762233228655532,1,colour,0.5,4
58,21,0,1,Practice,5,NA,6.157320323865861,6.973659232375212,"[75, 0, 179]",179,l,0.29341593047138304,1,colour,0.5,4
58,21,0,1,Practice,6,NA,7.485083109233528,13.029656944912858,"[41, 0, 213]",213,a,5.021254255436361,1,colour,0.5,4
58,21,0,1,Practice,7,NA,13.54760447528679,14.629593220772222,"[35, 0, 219]",219,a,0.5587246973300353,1,colour,0.5,4
58,21,0,1,Practice,8,NA,15.141271521686576,16.0216366793029,"[48, 0, 206]",206,a,0.3569865005556494,1,colour,0.5,4
58,21,0,1,Practice,9,NA,16.531904226285405,17.12567682308145,"[25, 0, 229]",229,a,0.07040693669114262,1,colour,0.5,4
58,21,0,1,Practice,10,NA,17.641269946238026,18.165766336256638,"[58, 0, 196]",196,a,0.0010897698812186718,0,colour,0.5,4
58,21,0,1,1,1,1,4.820558173349127,5.447992334258743,"[9, 0, 245]",245,a,0.10326308710500598,1,colour,0.5,4.0
58,21,0,1,1,2,2,5.961966359289363,6.583950095111504,"[77, 0, 177]",177,l,0.09871732466854155,1,colour,0.5,4.0
58,21,0,1,1,3,3,7.102573464042507,7.727972626220435,"[68, 0, 186]",186,l,0.10032578883692622,1,colour,0.5,4.0
58,21,0,1,1,4,4,8.245191148947924,9.927981448359787,"[80, 0, 174]",174,l,1.1625352294649929,1,colour,0.5,4.0
58,21,0,1,1,5,5,10.445438247406855,11.255933673353866,"[43, 0, 211]",211,a,0.2872179871192202,1,colour,0.5,4.0
58,21,0,1,1,6,6,11.773575185914524,13.663977097137831,"[35, 0, 219]",219,a,1.3672166322357953,1,colour,0.5,4.0
58,21,0,1,1,7,7,14.179758872138336,15.447966340463609,"[1, 0, 253]",253,a,0.7448725280119106,1,colour,0.5,4.0
58,21,0,1,1,8,8,15.96101640444249,16.935956421890296,"[89, 0, 165]",165,l,0.4516499756136909,1,colour,0.5,4.0
58,21,0,1,1,9,9,17.44539925677236,18.39997117058374,"[47, 0, 207]",207,a,0.4312389427796006,1,colour,0.5,4.0
58,21,0,1,1,10,10,18.904843824566342,19.935954452608712,"[63, 0, 191]",191,l,0.5077485124347731,1,colour,0.5,4.0
58,21,0,1,1,11,11,20.451898491941392,21.46401711180806,"[67, 0, 187]",187,l,0.4887218459043652,1,colour,0.5,4.0
58,21,0,1,1,12,12,21.983201710274443,22.895938194706105,"[75, 0, 179]",179,l,0.3894586517708376,1,colour,0.5,4.0
58,21,0,1,1,13,13,23.40508525178302,24.383989322115667,"[16, 0, 238]",238,a,0.4555896100355312,1,colour,0.5,4.0
58,21,0,1,1,14,14,24.905118728638627,25.82394169829786,"[10, 0, 244]",244,a,0.3955262324307114,1,colour,0.5,4.0
58,21,0,1,1,15,15,26.342535528820008,27.223948314902373,"[98, 0, 156]",156,l,0.3582365654874593,1,colour,0.5,4.0
58,21,0,1,1,16,16,27.728445240529254,28.60792779084295,"[73, 0, 181]",181,l,0.3561676961835474,1,colour,0.5,4.0
58,21,0,1,1,17,17,29.119011779199354,29.94391564151738,"[23, 0, 231]",231,a,0.3015378083800897,1,colour,0.5,4.0
58,21,0,1,1,18,18,30.462845028261654,31.247912619961426,"[74, 0, 180]",180,l,0.26186340814456344,1,colour,0.5,4.0
58,21,0,1,1,19,19,31.75957674230449,32.51992345228791,"[5, 0, 249]",249,a,0.2371114125708118,1,colour,0.5,4.0
58,21,0,1,1,20,20,33.041390384198166,33.744064357480966,"[69, 0, 185]",185,l,0.1793890513945371,1,colour,0.5,4.0
58,21,0,1,1,21,21,34.260203350218944,35.047947908518836,"[85, 0, 169]",169,l,0.26438795658759773,1,colour,0.5,4.0
58,21,0,1,1,22,22,35.557019741158,36.17595668963622,"[2, 0, 252]",252,a,0.0958481616107747,1,colour,0.5,4.0
58,21,0,1,1,23,23,36.68205262720585,37.53586000856012,"[61, 0, 193]",193,l,0.33046180731616914,1,colour,0.5,4.0
58,21,0,1,1,24,24,38.057320638909005,38.807934643817134,"[36, 0, 218]",218,a,0.22726606775540859,1,colour,0.5,4.0
58,21,0,1,1,25,25,39.32301458646543,40.11996803549118,"[26, 0, 228]",228,a,0.2736330811167136,1,colour,0.5,4.0
58,21,0,1,1,26,26,40.63551035267301,41.391919003333896,"[41, 0, 213]",213,a,0.2331052180379629,1,colour,0.5,4.0
58,21,0,1,1,27,27,41.90109835576732,42.43250751856249,"[25, 0, 229]",229,a,0.008036413346417248,1,colour,0.5,4.0
58,21,0,1,1,28,28,42.96354292205069,44.69589077564888,"[28, 0, 226]",226,a,1.2076474516652524,1,colour,0.5,4.0
58,21,0,1,1,29,29,45.21499581739772,46.287876890273765,"[31, 0, 223]",223,a,0.549557160353288,1,colour,0.5,4.0
58,21,0,1,1,30,30,46.808731392840855,47.82391334150452,"[33, 0, 221]",221,a,0.4919564974261448,1,colour,0.5,4.0
58,21,0,1,1,31,31,48.3399554482894,49.287881616386585,"[8, 0, 246]",246,a,0.424877553479746,1,colour,0.5,4.0
58,21,0,1,1,32,32,49.80873099900782,50.5758837495232,"[81, 0, 173]",173,l,0.24390406243037432,1,colour,0.5,4.0
58,21,0,1,1,33,33,51.089988531311974,52.35988362657372,"[93, 0, 161]",161,l,0.7466448318446055,1,colour,0.5,4.0
58,21,0,1,1,34,34,52.871161780669354,53.84788946178742,"[76, 0, 178]",178,l,0.45333996566478163,1,colour,0.5,4.0
58,21,0,1,1,35,35,54.355537149938755,55.30386858491693,"[49, 0, 205]",205,a,0.42493151035159826,1,colour,0.5,4.0
58,21,0,1,1,36,36,55.824268983793445,56.75186328217387,"[0, 0, 254]",254,a,0.40425896435044706,1,colour,0.5,4.0
58,21,0,1,1,37,37,57.26189688500017,58.09584028471727,"[91, 0, 163]",163,l,0.3106726562837139,1,colour,0.5,4.0
58,21,0,1,1,38,38,58.6055288790958,59.4078732826747,"[32, 0, 222]",222,a,0.2789047004189342,1,colour,0.5,4.0
58,21,0,1,1,39,39,59.91805536521133,60.727909610955976,"[11, 0, 243]",243,a,0.28658310847822577,1,colour,0.5,4.0
58,21,0,1,1,40,40,61.247058369452134,62.040034374804236,"[94, 0, 160]",160,l,0.2695965606253594,1,colour,0.5,4.0
58,21,0,1,1,41,41,62.55395877547562,63.543904298800044,"[60, 0, 194]",194,l,0.4665428417501971,1,colour,0.5,4.0
58,21,0,1,1,42,42,64.05399894772563,64.82382945239078,"[44, 0, 210]",210,a,0.2465361305512488,1,colour,0.5,4.0
58,21,0,1,1,43,43,65.32843074703123,66.16785804869141,"[39, 0, 215]",215,a,0.31417787936516106,1,colour,0.5,4.0
58,21,0,1,1,44,44,66.67447425588034,67.47986308368854,"[54, 0, 200]",200,a,0.2820932720787823,0,colour,0.5,4.0
58,21,0,1,1,45,45,67.98693930217996,68.6878425469622,"[86, 0, 168]",168,l,0.17827958916313946,1,colour,0.5,4.0
58,21,0,1,1,46,46,69.2056671975879,69.90383715601638,"[84, 0, 170]",170,l,0.18292775144800544,1,colour,0.5,4.0
58,21,0,1,1,47,47,70.41620744310785,71.26383972389158,"[30, 0, 224]",224,a,0.32504919124767184,1,colour,0.5,4.0
58,21,0,1,1,48,48,71.77555347082671,72.6318062376231,"[72, 0, 182]",182,l,0.33313483535312116,1,colour,0.5,4.0
58,21,0,1,1,49,49,73.15299196401611,74.06383917247877,"[52, 0, 202]",202,l,0.3875292035518214,1,colour,0.5,4.0
58,21,0,1,1,50,50,74.57483966555446,75.56782685616054,"[95, 0, 159]",159,l,0.469753862475045,1,colour,0.5,4.0
58,21,0,1,2,1,51,82.57484045333695,84.35183461022098,"[50, 0, 204]",204,a,1.253088534809649,1,colour,0.5,4.0
58,21,0,1,2,2,52,84.87250873155426,85.95176694763359,"[4, 0, 250]",250,a,0.5559295773273334,1,colour,0.5,4.0
58,21,0,1,2,3,53,86.46623524860479,87.16791397472844,"[36, 0, 218]",218,a,0.17842216114513576,1,colour,0.5,4.0
58,21,0,1,2,4,54,87.68502812844235,88.39985341078136,"[90, 0, 164]",164,l,0.19153799733612686,1,colour,0.5,4.0
58,21,0,1,2,5,55,88.91933457471896,90.02378746855538,"[84, 0, 170]",170,l,0.5814940758282319,1,colour,0.5,4.0
58,21,0,1,2,6,56,90.54690343071707,91.43182262161281,"[79, 0, 175]",175,l,0.3616326936753467,1,colour,0.5,4.0
58,21,0,1,2,7,57,91.95317612611689,92.75979808345437,"[74, 0, 180]",180,l,0.29450412513688207,1,colour,0.5,4.0
58,21,0,1,2,8,58,93.27008177805692,94.47981345909648,"[95, 0, 159]",159,l,0.6863266363507137,1,colour,0.5,4.0
58,21,0,1,2,9,59,94.98888095945586,95.88775960321072,"[5, 0, 249]",249,a,0.37562601710669696,1,colour,0.5,4.0
58,21,0,1,2,10,60,96.39511190727353,97.34375132923014,"[47, 0, 207]",207,a,0.4252383157145232,1,colour,0.5,4.0
58,21,0,1,2,11,61,97.86381499038544,98.69581791432574,"[49, 0, 205]",205,a,0.30860457464586943,1,colour,0.5,4.0
58,21,0,1,2,12,62,99.20752339053433,99.99175484862644,"[54, 0, 200]",200,a,0.26091266551520675,0,colour,0.5,4.0
58,21,0,1,2,13,63,100.50628892180976,101.4398042904213,"[32, 0, 222]",222,a,0.41026313591282815,1,colour,0.5,4.0
58,21,0,1,2,14,64,101.95947489398532,102.78377144690603,"[81, 0, 173]",173,l,0.30121367366518825,1,colour,0.5,4.0
58,21,0,1,2,15,65,103.30322149710264,104.1117614810355,"[21, 0, 233]",233,a,0.2852440344868228,1,colour,0.5,4.0
58,21,0,1,2,16,66,104.63144114299212,105.3917630406795,"[75, 0, 179]",179,l,0.23711928946431726,1,colour,0.5,4.0
58,21,0,1,2,17,67,105.91258209710941,106.66376599611249,"[2, 0, 252]",252,a,0.22798286622855812,1,colour,0.5,4.0
58,21,0,1,2,18,68,107.17818742943928,107.94376204186119,"[59, 0, 195]",195,l,0.24226330290548503,1,colour,0.5,4.0
58,21,0,1,2,19,69,108.45946426014416,109.24785314931069,"[39, 0, 215]",215,a,0.2653800528496504,1,colour,0.5,4.0
58,21,0,1,2,20,70,109.75631530943792,110.5757179405773,"[61, 0, 193]",193,l,0.29604721092619,1,colour,0.5,4.0
58,21,0,1,2,21,71,111.08446642628405,111.83970850729384,"[57, 0, 197]",197,a,0.23195085756015033,0,colour,0.5,4.0
58,21,0,1,2,22,72,112.35001858952455,112.9117888926994,"[85, 0, 169]",169,l,0.03851728281006217,1,colour,0.5,4.0
58,21,0,1,2,23,73,113.42814174341038,114.20782901439816,"[72, 0, 182]",182,l,0.2563889584271237,1,colour,0.5,4.0
58,21,0,1,2,24,74,114.72503926639911,115.50371593039017,"[68, 0, 186]",186,l,0.25551462185103446,1,colour,0.5,4.0
58,21,0,1,2,25,75,116.02188046951778,116.7757594519062,"[9, 0, 245]",245,a,0.24353699863422662,1,colour,0.5,4.0
58,21,0,1,2,26,76,117.29071533342358,118.04778840113431,"[11, 0, 243]",243,a,0.2337412782944739,1,colour,0.5,4.0
58,21,0,1,2,27,77,118.5563458717661,119.17574165016413,"[65, 0, 189]",189,l,0.09636173595208675,1,colour,0.5,4.0
58,21,0,1,2,28,78,119.69695849029813,120.3117151648039,"[24, 0, 230]",230,a,0.09151113720145077,1,colour,0.5,4.0
58,21,0,1,2,29,79,120.81510932359379,121.51978048635647,"[60, 0, 194]",194,l,0.18151739134918898,1,colour,0.5,4.0
58,21,0,1,2,30,80,122.0338045299286,122.75172346702311,"[19, 0, 235]",235,a,0.19515074032824486,1,colour,0.5,4.0
58,21,0,1,2,31,81,123.2682334621204,123.99174067017157,"[78, 0, 176]",176,l,0.19879380927886814,1,colour,0.5,4.0
58,21,0,1,2,32,82,124.50403494515922,125.2477263311157,"[46, 0, 208]",208,a,0.22038047027308494,1,colour,0.5,4.0
58,21,0,1,2,33,83,125.75398847134784,126.61581217998173,"[16, 0, 238]",238,a,0.33844544540625066,1,colour,0.5,4.0
58,21,0,1,2,34,84,127.13066881231498,127.86370156297926,"[44, 0, 210]",210,a,0.20955563220195472,1,colour,0.5,4.0
58,21,0,1,2,35,85,128.38067314471118,129.15971332788467,"[41, 0, 213]",213,a,0.2556162339169532,1,colour,0.5,4.0
58,21,0,1,2,36,86,129.67761005216744,131.16768790758215,"[3, 0, 251]",251,a,0.966806324198842,1,colour,0.5,4.0
58,21,0,1,2,37,87,131.67841428436805,132.47172978438903,"[51, 0, 203]",203,a,0.27000143367331475,0,colour,0.5,4.0
58,21,0,1,2,38,88,132.99083797680214,133.76770334632602,"[71, 0, 183]",183,l,0.25351191859226674,1,colour,0.5,4.0
58,21,0,1,2,39,89,134.28773116751108,135.03978743380867,"[70, 0, 184]",184,l,0.22867839690297842,1,colour,0.5,4.0
58,21,0,1,2,40,90,135.5533727336442,136.2797109017847,"[67, 0, 187]",187,l,0.20301819406449795,1,colour,0.5,4.0
58,21,0,1,2,41,91,136.78770084143616,137.5597278213827,"[23, 0, 231]",231,a,0.24866053205914795,1,colour,0.5,4.0
58,21,0,1,2,42,92,138.0689315922791,138.8476819053758,"[10, 0, 244]",244,a,0.25526965013705194,1,colour,0.5,4.0
58,21,0,1,2,43,93,139.36572002014145,140.10373845836148,"[98, 0, 156]",156,l,0.21312387066427618,1,colour,0.5,4.0
58,21,0,1,2,44,94,140.613252973184,141.35972136235796,"[73, 0, 181]",181,l,0.2233933868119493,1,colour,0.5,4.0
58,21,0,1,2,45,95,141.88062312628608,142.82371208653785,"[1, 0, 253]",253,a,0.4199044689303264,1,colour,0.5,4.0
58,21,0,1,2,46,96,143.3345038415864,144.14368146110792,"[52, 0, 202]",202,a,0.2859517744509503,0,colour,0.5,4.0
58,21,0,1,2,47,97,144.66262699547224,145.47170575975906,"[22, 0, 232]",232,a,0.2857733624987304,1,colour,0.5,4.0
58,21,0,1,2,48,98,145.97848304966465,146.75968229293358,"[48, 0, 206]",206,a,0.2578713921830058,1,colour,0.5,4.0
58,21,0,1,2,49,99,147.2753596989205,148.0556873624446,"[45, 0, 209]",209,l,0.2571731044445187,0,colour,0.5,4.0
58,21,0,1,2,50,100,148.5721910559805,149.39168348384555,"[38, 0, 216]",216,a,0.2961350384866819,1,colour,0.5,4.0
58,21,0,1,3,1,101,155.680096003809,157.02374335785862,"[58, 0, 196]",196,l,0.8194085388677195,1,colour,0.5,4.0
58,21,0,1,3,2,102,157.54033999878448,158.33562669460662,"[31, 0, 223]",223,a,0.2720269800629467,1,colour,0.5,4.0
58,21,0,1,3,3,103,158.8532461518189,159.53563079051673,"[89, 0, 165]",165,l,0.15886498510371894,1,colour,0.5,4.0
58,21,0,1,3,4,104,160.05652270838618,160.599644830334,"[2, 0, 252]",252,a,0.019745828001759946,1,colour,0.5,4.0
58,21,0,1,3,5,105,161.1190401359927,162.1276499881642,"[43, 0, 211]",211,a,0.49841949879191816,1,colour,0.5,4.0
58,21,0,1,3,6,106,162.63788602745626,164.1996137953829,"[78, 0, 176]",176,l,1.0389253065222874,1,colour,0.5,4.0
58,21,0,1,3,7,107,164.7160103628412,165.70360935595818,"[33, 0, 221]",221,a,0.464084459352307,1,colour,0.5,4.0
58,21,0,1,3,8,108,166.2160603812663,167.02361693349667,"[34, 0, 220]",220,a,0.28429841191973537,1,colour,0.5,4.0
58,21,0,1,3,9,109,167.5441232767189,168.34364696021657,"[36, 0, 218]",218,a,0.276165506336838,1,colour,0.5,4.0
58,21,0,1,3,10,110,168.85667457513046,169.735607317416,"[6, 0, 248]",248,a,0.355628915829584,1,colour,0.5,4.0
58,21,0,1,3,11,111,170.24729349510744,171.0236283550039,"[32, 0, 222]",222,a,0.2530148858204484,1,colour,0.5,4.0
58,21,0,1,3,12,112,171.5441287906142,172.19962679222226,"[76, 0, 178]",178,l,0.13215321523603052,1,colour,0.5,4.0
58,21,0,1,3,13,113,172.716007999843,173.47959881345741,"[44, 0, 210]",210,a,0.2403212517965585,1,colour,0.5,4.0
58,21,0,1,3,14,114,173.99793191836216,174.83962934429292,"[38, 0, 216]",216,a,0.3190942503279075,1,colour,0.5,4.0
58,21,0,1,3,15,115,175.35661116603296,176.9996199393645,"[97, 0, 157]",157,l,1.1196939192013815,1,colour,0.5,4.0
58,21,0,1,3,16,116,177.51285117224324,178.92758917843457,"[0, 0, 254]",254,a,0.8918000620324165,1,colour,0.5,4.0
58,21,0,1,3,17,117,179.43471265840344,180.2716110793408,"[94, 0, 160]",160,l,0.3135682068532333,1,colour,0.5,4.0
58,21,0,1,3,18,118,180.7784486276796,182.1436054490041,"[71, 0, 183]",183,l,0.8418293641880155,1,colour,0.5,4.0
58,21,0,1,3,19,119,182.6534720613854,183.59167379525024,"[30, 0, 224]",224,a,0.4149128735298291,1,colour,0.5,4.0
58,21,0,1,3,20,120,184.10653082153294,184.97558434831444,"[22, 0, 232]",232,a,0.3457441864302382,1,colour,0.5,4.0
58,21,0,1,3,21,121,185.49715249845758,186.29559428896755,"[72, 0, 182]",182,l,0.27511551487259567,1,colour,0.5,4.0
58,21,0,1,3,22,122,186.80960060935467,187.75955508090556,"[80, 0, 174]",174,l,0.4267632848350331,1,colour,0.5,4.0
58,21,0,1,3,23,123,188.27843917533755,189.04769781674258,"[17, 0, 237]",237,a,0.2459796272451058,1,colour,0.5,4.0
58,21,0,1,3,24,124,189.5595986401895,190.3276115488261,"[88, 0, 166]",166,l,0.24525180109776556,1,colour,0.5,4.0
58,21,0,1,3,25,125,190.82842956553213,191.55155277450103,"[46, 0, 208]",208,a,0.19985049637034535,1,colour,0.5,4.0
58,21,0,1,3,26,126,192.06279942090623,193.0635890807025,"[16, 0, 238]",238,a,0.47753348865080625,1,colour,0.5,4.0
58,21,0,1,3,27,127,193.57834725186694,194.72754648560658,"[9, 0, 245]",245,a,0.625841056695208,1,colour,0.5,4.0
58,21,0,1,3,28,128,195.23463688255288,195.95155939110555,"[18, 0, 236]",236,a,0.1936048975912854,1,colour,0.5,4.0
58,21,0,1,3,29,129,196.46900673792697,197.23163184290752,"[77, 0, 177]",177,l,0.2394236782565713,1,colour,0.5,4.0
58,21,0,1,3,30,130,197.75025127327535,198.30362952081487,"[69, 0, 185]",185,l,0.030098445597104728,1,colour,0.5,4.0
58,21,0,1,3,31,131,198.81277303327806,199.5675566783175,"[8, 0, 246]",246,a,0.23157552303746343,1,colour,0.5,4.0
58,21,0,1,3,32,132,200.0783157441765,200.87155720137525,"[68, 0, 186]",186,l,0.2699092738330364,1,colour,0.5,4.0
58,21,0,1,3,33,133,201.3908985501621,202.18362564535346,"[93, 0, 161]",161,l,0.26949101011268795,1,colour,0.5,4.0
58,21,0,1,3,34,134,202.70556282857433,203.46357049129438,"[75, 0, 179]",179,l,0.23469280858989805,1,colour,0.5,4.0
58,21,0,1,3,35,135,203.9712492930703,204.6235362739535,"[15, 0, 239]",239,a,0.12900245282799006,1,colour,0.5,4.0
58,21,0,1,3,36,136,205.14309148082975,206.4875556700863,"[83, 0, 171]",171,l,0.8212395256850868,1,colour,0.5,4.0
58,21,0,1,3,37,137,207.00245483778417,207.8635337848682,"[54, 0, 200]",200,l,0.33778693596832454,1,colour,0.5,4.0
58,21,0,1,3,38,138,208.3774451885838,209.29551197530236,"[65, 0, 189]",189,l,0.39471372961997986,1,colour,0.5,4.0
58,21,0,1,3,39,139,209.8149714777246,210.62349295103922,"[7, 0, 247]",247,a,0.2852688467828557,1,colour,0.5,4.0
58,21,0,1,3,40,140,211.14484921237454,211.88754968356807,"[48, 0, 206]",206,l,0.21942500153090805,0,colour,0.5,4.0
58,21,0,1,3,41,141,212.3948074647924,213.27954824373592,"[92, 0, 162]",162,l,0.36139008484315127,1,colour,0.5,4.0
58,21,0,1,3,42,142,213.80117310769856,214.54358016408514,"[98, 0, 156]",156,l,0.21914458379615098,1,colour,0.5,4.0
58,21,0,1,3,43,143,215.05108724941965,215.83148422965314,"[99, 0, 155]",155,l,0.25711481529287994,1,colour,0.5,4.0
58,21,0,1,3,44,144,216.3480084030889,217.03156591323204,"[85, 0, 169]",169,l,0.16027219442185014,1,colour,0.5,4.0
58,21,0,1,3,45,145,217.55133103963453,218.3115001252154,"[37, 0, 217]",217,a,0.2368282376555726,1,colour,0.5,4.0
58,21,0,1,3,46,146,218.83261850418057,219.6555184816243,"[52, 0, 202]",202,a,0.2995051727630198,0,colour,0.5,4.0
58,21,0,1,3,47,147,220.17672862648033,221.00749211921357,"[84, 0, 170]",170,l,0.30751480464823544,1,colour,0.5,4.0
58,21,0,1,3,48,148,221.52043623884674,222.95957847533282,"[3, 0, 251]",251,a,0.9158789761131629,1,colour,0.5,4.0
58,21,0,1,3,49,149,223.4714521233691,224.42354281176813,"[29, 0, 225]",225,a,0.44142456992994994,1,colour,0.5,4.0
58,21,0,1,3,50,150,224.94340049184393,225.76751193753444,"[61, 0, 193]",193,l,0.3007193978410214,1,colour,0.5,4.0
58,21,0,1,4,1,151,231.44254033372272,232.25564616627526,"[4, 0, 250]",250,a,0.28890325117390603,1,colour,0.5,4.0
58,21,0,1,4,2,152,232.77139210142195,233.5515090576373,"[49, 0, 205]",205,l,0.2568217944353819,0,colour,0.5,4.0
58,21,0,1,4,3,153,234.07023640174884,234.79148608865216,"[34, 0, 220]",220,a,0.1969655795255676,1,colour,0.5,4.0
58,21,0,1,4,4,154,235.30560819956008,236.07948152627796,"[36, 0, 218]",218,a,0.2505041219992563,1,colour,0.5,4.0
58,21,0,1,4,5,155,236.59073329274543,237.3674694809597,"[43, 0, 211]",211,a,0.25340833724476397,1,colour,0.5,4.0
58,21,0,1,4,6,156,237.8875756773632,238.57544303662144,"[40, 0, 214]",214,a,0.16453556972555816,1,colour,0.5,4.0
58,21,0,1,4,7,157,239.09072265890427,239.7514761321945,"[90, 0, 164]",164,l,0.1375575604615733,1,colour,0.5,4.0
58,21,0,1,4,8,158,240.263942517573,240.91943146067206,"[72, 0, 182]",182,l,0.132114224601537,1,colour,0.5,4.0
58,21,0,1,4,9,159,241.43577131454367,242.1514488781104,"[56, 0, 198]",198,a,0.1923595586558804,0,colour,0.5,4.0
58,21,0,1,4,10,160,242.6701793728862,243.47145369881764,"[35, 0, 219]",219,a,0.27795671485364437,1,colour,0.5,4.0
58,21,0,1,4,11,161,243.9702134799445,245.18345274729654,"[18, 0, 236]",236,a,0.6899393793428317,1,colour,0.5,4.0
58,21,0,1,4,12,162,245.70455891697202,246.50346623256337,"[55, 0, 199]",199,a,0.2755487447138876,0,colour,0.5,4.0
58,21,0,1,4,13,163,247.01894277741667,247.81548426428344,"[70, 0, 184]",184,l,0.27220460411626846,1,colour,0.5,4.0
58,21,0,1,4,14,164,248.33250035054516,249.71151461882982,"[84, 0, 170]",170,l,0.8556497896788642,1,colour,0.5,4.0
58,21,0,1,4,15,165,250.21071708202362,251.2154767025495,"[67, 0, 187]",187,l,0.48146091401576996,1,colour,0.5,4.0
58,21,0,1,4,16,166,251.72631493129302,252.53541850787587,"[7, 0, 247]",247,a,0.28590254369191825,1,colour,0.5,4.0
58,21,0,1,4,17,167,253.05445383896586,253.82341158250347,"[52, 0, 202]",202,l,0.24568030470982194,1,colour,0.5,4.0
58,21,0,1,4,18,168,254.3357180666644,255.10345528367907,"[95, 0, 159]",159,l,0.24440148915164173,1,colour,0.5,4.0
58,21,0,1,4,19,169,255.61695196828805,256.42342032596935,"[21, 0, 233]",233,a,0.2830377131467685,1,colour,0.5,4.0
58,21,0,1,4,20,170,256.9307600269094,257.47943891223986,"[76, 0, 178]",178,l,0.02531125594396144,1,colour,0.5,4.0
58,21,0,1,4,21,171,257.99403718218673,258.79144788568374,"[22, 0, 232]",232,a,0.27412223699502647,1,colour,0.5,4.0
58,21,0,1,4,22,172,259.30655460979324,260.03140995046124,"[92, 0, 162]",162,l,0.20160074485465884,1,colour,0.5,4.0
58,21,0,1,4,23,173,260.54278026428074,261.4074380835518,"[73, 0, 181]",181,l,0.34145402954891324,1,colour,0.5,4.0
58,21,0,1,4,24,174,261.9178281164495,262.73541866545565,"[15, 0, 239]",239,a,0.29473925079219043,1,colour,0.5,4.0
58,21,0,1,4,25,175,263.24595560261514,264.1834700764157,"[54, 0, 200]",200,a,0.414312259410508,0,colour,0.5,4.0
58,21,0,1,4,26,176,264.6990257842699,265.54338205989916,"[58, 0, 196]",196,l,0.3210240922635421,1,colour,0.5,4.0
58,21,0,1,4,27,177,266.0584777564509,266.84751452109776,"[97, 0, 157]",157,l,0.2657971349544823,1,colour,0.5,4.0
58,21,0,1,4,28,178,267.35530320578255,268.16736928676255,"[37, 0, 217]",217,a,0.2887815529247746,1,colour,0.5,4.0
58,21,0,1,4,29,179,268.68336964584887,269.46347675612196,"[89, 0, 165]",165,l,0.2555268311407417,1,colour,0.5,4.0
58,21,0,1,4,30,180,269.9817685071612,270.7673922085669,"[25, 0, 229]",229,a,0.2621111369226128,1,colour,0.5,4.0
58,21,0,1,4,31,181,271.2787396792555,272.07943662791513,"[24, 0, 230]",230,a,0.27735216228757054,1,colour,0.5,4.0
58,21,0,1,4,32,182,272.5940380486427,273.343408683897,"[86, 0, 168]",168,l,0.2259159660898149,1,colour,0.5,4.0
58,21,0,1,4,33,183,273.85980485752225,274.67147985007614,"[47, 0, 207]",207,a,0.2855579290771857,1,colour,0.5,4.0
58,21,0,1,4,34,184,275.1784832072444,275.9274225818226,"[99, 0, 155]",155,l,0.22568399109877646,1,colour,0.5,4.0
58,21,0,1,4,35,185,276.44546069658827,277.2313908095239,"[12, 0, 242]",242,a,0.26261250185780227,1,colour,0.5,4.0
58,21,0,1,4,36,186,277.7425244223559,278.63937515660655,"[62, 0, 192]",192,l,0.3737261074129492,1,colour,0.5,4.0
58,21,0,1,4,37,187,279.14870929019526,280.0153792651836,"[44, 0, 210]",210,l,0.34325114567764103,0,colour,0.5,4.0
58,21,0,1,4,38,188,280.52372917940374,281.31936876056716,"[8, 0, 246]",246,a,0.272316062473692,1,colour,0.5,4.0
58,21,0,1,4,39,189,281.8362005271483,282.5994034031173,"[94, 0, 160]",160,l,0.2383126406930387,1,colour,0.5,4.0
58,21,0,1,4,40,190,283.118981059175,283.84735501371324,"[31, 0, 223]",223,a,0.20506303885485977,1,colour,0.5,4.0
58,21,0,1,4,41,191,284.36905549594667,285.1753726170864,"[30, 0, 224]",224,a,0.2831345989834517,1,colour,0.5,4.0
58,21,0,1,4,42,192,285.67838435212616,286.28738340211567,"[83, 0, 171]",171,l,0.08567434980068356,1,colour,0.5,4.0
58,21,0,1,4,43,193,286.8034381120233,287.5274136022199,"[79, 0, 175]",175,l,0.20076224824879318,1,colour,0.5,4.0
58,21,0,1,4,44,194,288.0377650381997,288.6873959264485,"[20, 0, 234]",234,a,0.1263621139805764,1,colour,0.5,4.0
58,21,0,1,4,45,195,289.1940597889479,289.85536110098474,"[50, 0, 204]",204,l,0.1380589255131781,0,colour,0.5,4.0
58,21,0,1,4,46,196,290.3659011889249,291.03939595166594,"[74, 0, 180]",180,l,0.15016218554228544,1,colour,0.5,4.0
58,21,0,1,4,47,197,291.5533534352435,292.23134039738216,"[80, 0, 174]",174,l,0.15458940051030368,1,colour,0.5,4.0
58,21,0,1,4,48,198,292.740899022785,293.38337295420934,"[27, 0, 227]",227,a,0.11953047337010503,1,colour,0.5,4.0
58,21,0,1,4,49,199,293.8971370597137,296.92735405277926,"[9, 0, 245]",245,a,2.5068592097377405,1,colour,0.5,4.0
58,21,0,1,4,50,200,297.4440475796582,298.2474053471815,"[42, 0, 212]",212,a,0.2799464212730527,1,colour,0.5,4.0
58,21,0,1,5,1,201,310.1307345845271,311.00735506101046,"[33, 0, 221]",221,l,0.35258212860208005,0,colour,0.5,4.0
58,21,0,1,5,2,202,311.52218176121823,312.2633198481053,"[42, 0, 212]",212,a,0.2179279956035316,1,colour,0.5,4.0
58,21,0,1,5,3,203,312.77207739220466,313.5033342943061,"[41, 0, 213]",213,a,0.20791250956244767,1,colour,0.5,4.0
58,21,0,1,5,4,204,314.02215734275524,314.6553180143237,"[18, 0, 236]",236,a,0.10986393433995545,1,colour,0.5,4.0
58,21,0,1,5,5,205,315.16285227495246,315.69532324466854,"[91, 0, 163]",163,l,0.009220312349498272,1,colour,0.5,4.0
58,21,0,1,5,6,206,316.20976594567765,316.98328756855335,"[21, 0, 233]",233,a,0.2508644904009998,1,colour,0.5,4.0
58,21,0,1,5,7,207,317.47842042834964,318.2712956093019,"[30, 0, 224]",224,a,0.269538271590136,1,colour,0.5,4.0
58,21,0,1,5,8,208,318.79088074842,319.42332028923556,"[13, 0, 241]",241,a,0.10909239144530147,1,colour,0.5,4.0
58,21,0,1,5,9,209,319.93160718819126,320.65529044519644,"[51, 0, 203]",203,l,0.20046647044364363,1,colour,0.5,4.0
58,21,0,1,5,10,210,321.16586125304457,321.9674498675158,"[83, 0, 171]",171,l,0.27827572962269187,1,colour,0.5,4.0
58,21,0,1,5,11,211,322.4783251177287,323.2473679318791,"[14, 0, 240]",240,a,0.24553970200940967,1,colour,0.5,4.0
58,21,0,1,5,12,212,323.7627168709878,324.43927141767927,"[60, 0, 194]",194,l,0.1532633233582601,1,colour,0.5,4.0
58,21,0,1,5,13,213,324.95205642387737,326.8552433412988,"[38, 0, 216]",216,a,1.3798917555250227,1,colour,0.5,4.0
58,21,0,1,5,14,214,327.3738824640168,328.15931987646036,"[35, 0, 219]",219,a,0.26210995530709624,1,colour,0.5,4.0
58,21,0,1,5,15,215,328.6713325519813,329.27939621941186,"[98, 0, 156]",156,l,0.08478425943758339,1,colour,0.5,4.0
58,21,0,1,5,16,216,329.796354804188,330.4232671201462,"[52, 0, 202]",202,a,0.10368332010693848,0,colour,0.5,4.0
58,21,0,1,5,17,217,330.9368776259944,331.66323312337045,"[81, 0, 173]",173,l,0.20301346795167774,1,colour,0.5,4.0
58,21,0,1,5,18,218,332.1712931673974,332.83129360852763,"[84, 0, 170]",170,l,0.1367111869622022,1,colour,0.5,4.0
58,21,0,1,5,19,219,333.3440171747934,333.9512829117011,"[55, 0, 199]",199,a,0.08471415494568646,0,colour,0.5,4.0
58,21,0,1,5,20,220,334.4690606947988,335.119275261648,"[75, 0, 179]",179,l,0.12682251911610365,1,colour,0.5,4.0
58,21,0,1,5,21,221,335.62525422719773,336.3754279129207,"[95, 0, 159]",159,l,0.22695532371290028,1,colour,0.5,4.0
58,21,0,1,5,22,222,336.89090563938953,337.60723580466583,"[11, 0, 243]",243,a,0.19301334186457098,1,colour,0.5,4.0
58,21,0,1,5,23,223,338.12525777181145,338.9512202902697,"[29, 0, 225]",225,l,0.30276739329565316,0,colour,0.5,4.0
58,21,0,1,5,24,224,339.46900988870766,340.6712167614605,"[80, 0, 174]",174,l,0.6788455449277535,1,colour,0.5,4.0
58,21,0,1,5,25,225,341.1878260055091,341.91131942905486,"[56, 0, 198]",198,a,0.20027191075496376,0,colour,0.5,4.0
58,21,0,1,5,26,226,342.4221233933931,343.1672672807472,"[31, 0, 223]",223,a,0.22179949493147433,1,colour,0.5,4.0
58,21,0,1,5,27,227,343.68773699644953,344.3512580207316,"[20, 0, 234]",234,a,0.14017663174308836,1,colour,0.5,4.0
58,21,0,1,5,28,228,344.8596961562289,345.5672167898156,"[71, 0, 183]",183,l,0.18441333586815745,1,colour,0.5,4.0
58,21,0,1,5,29,229,346.0804622011492,346.7992483857088,"[90, 0, 164]",164,l,0.19551859190687537,1,colour,0.5,4.0
58,21,0,1,5,30,230,347.31482575496193,347.98319501488004,"[0, 0, 254]",254,a,0.14518910087645054,1,colour,0.5,4.0
58,21,0,1,5,31,231,348.50230084429495,349.1432226313045,"[49, 0, 205]",205,a,0.11756951757706702,1,colour,0.5,4.0
58,21,0,1,5,32,232,349.65854557661805,350.24731043050997,"[2, 0, 252]",252,a,0.0654795381706208,1,colour,0.5,4.0
58,21,0,1,5,33,233,350.76789751206525,352.0472882175818,"[34, 0, 220]",220,a,0.7560407991986722,1,colour,0.5,4.0
58,21,0,1,5,34,234,352.5648978287354,353.37527667637914,"[57, 0, 197]",197,a,0.28737591905519366,0,colour,0.5,4.0
58,21,0,1,5,35,235,353.8933695355663,354.68730612972286,"[4, 0, 250]",250,a,0.2706099246861413,1,colour,0.5,4.0
58,21,0,1,5,36,236,355.2064757619519,356.0392628319096,"[48, 0, 206]",206,a,0.3095242034178227,1,colour,0.5,4.0
58,21,0,1,5,37,237,356.5502298481297,357.343241693452,"[54, 0, 200]",200,a,0.26964657905045897,0,colour,0.5,4.0
58,21,0,1,5,38,238,357.86270001437515,358.46320500283036,"[76, 0, 178]",178,l,0.07709206687286496,1,colour,0.5,4.0
58,21,0,1,5,39,239,358.973164562718,359.6871864007553,"[92, 0, 162]",162,l,0.19070462079253048,1,colour,0.5,4.0
58,21,0,1,5,40,240,360.2075584427221,360.9671997757396,"[36, 0, 218]",218,a,0.2363745280308649,1,colour,0.5,4.0
58,21,0,1,5,41,241,361.47318937501404,362.23121200385503,"[58, 0, 196]",196,a,0.2346573625691235,0,colour,0.5,4.0
58,21,0,1,5,42,242,362.73871711990796,363.5351857453352,"[39, 0, 215]",215,a,0.2730895745335147,1,colour,0.5,4.0
58,21,0,1,5,43,243,364.05128771660384,364.7991841888288,"[26, 0, 228]",228,a,0.22464935947209597,1,colour,0.5,4.0
58,21,0,1,5,44,244,365.3169060458895,366.0551714251051,"[53, 0, 201]",201,a,0.214960765093565,0,colour,0.5,4.0
58,21,0,1,5,45,245,366.56680679682177,367.351231239154,"[9, 0, 245]",245,a,0.26123719406314194,1,colour,0.5,4.0
58,21,0,1,5,46,246,367.8637098337058,368.92717997310683,"[89, 0, 165]",165,l,0.5400020794477314,1,colour,0.5,4.0
58,21,0,1,5,47,247,369.44176760921255,370.18319792929105,"[94, 0, 160]",160,l,0.21808120142668486,1,colour,0.5,4.0
58,21,0,1,5,48,248,370.6919720149599,371.4872780091828,"[32, 0, 222]",222,a,0.27216088748537004,1,colour,0.5,4.0
58,21,0,1,5,49,249,372.0043389936909,372.85520986444317,"[70, 0, 184]",184,l,0.3400822663679719,1,colour,0.5,4.0
58,21,0,1,5,50,250,373.366902737529,374.20719295425806,"[68, 0, 186]",186,l,0.3169584271963686,1,colour,0.5,4.0
58,21,0,1,6,1,251,381.0848134040134,382.0311267756624,"[40, 0, 214]",214,a,0.4221509624039754,1,colour,0.5,3.9
58,21,0,1,6,2,252,382.53876658680383,383.2713003354147,"[57, 0, 197]",197,a,0.20916966383811086,0,colour,0.5,3.9
58,21,0,1,6,3,253,383.7887016023742,384.7271691818023,"[24, 0, 230]",230,a,0.415089710149914,1,colour,0.5,3.9
58,21,0,1,6,4,254,385.24186827614903,385.95113600743935,"[63, 0, 191]",191,a,0.186274255043827,0,colour,0.5,3.9
58,21,0,1,6,5,255,386.46059499005787,387.0711954149883,"[86, 0, 168]",168,l,0.08720404491759837,1,colour,0.5,3.9
58,21,0,1,6,6,256,387.5855967622483,388.2791256477358,"[12, 0, 242]",242,a,0.18262055213563144,1,colour,0.5,3.9
58,21,0,1,6,7,257,388.7919165615458,389.5591772256885,"[7, 0, 247]",247,a,0.2441226466326043,1,colour,0.5,3.9
58,21,0,1,6,8,258,390.0731213185936,390.8231768507976,"[42, 0, 212]",212,a,0.22665206296369433,1,colour,0.5,3.9
58,21,0,1,6,9,259,391.3387459493242,391.95917360228486,"[98, 0, 156]",156,l,0.0970899558160454,1,colour,0.5,3.9
58,21,0,1,6,10,260,392.4793770785909,393.1352106364211,"[23, 0, 231]",231,a,0.13250806997530162,1,colour,0.5,3.9
58,21,0,1,6,11,261,393.65128897689283,394.2472194521688,"[88, 0, 166]",166,l,0.07257781201042235,1,colour,0.5,3.9
58,21,0,1,6,12,262,394.76068108459003,395.92709332716186,"[73, 0, 181]",181,l,0.6430560346925631,1,colour,0.5,3.9
58,21,0,1,6,13,263,396.4481845307164,397.13508303044364,"[89, 0, 165]",165,l,0.16366202081553638,1,colour,0.5,3.9
58,21,0,1,6,14,264,397.651253137039,398.3830929301912,"[55, 0, 199]",199,a,0.20856550510507077,0,colour,0.5,3.9
58,21,0,1,6,15,265,398.901308669243,399.54311030660756,"[80, 0, 174]",174,l,0.11853995244018734,1,colour,0.5,3.9
58,21,0,1,6,16,266,400.0574194941437,401.2151202724781,"[82, 0, 172]",172,l,0.6343307859497145,1,colour,0.5,3.9
58,21,0,1,6,17,267,401.7293156386586,402.55909766897094,"[56, 0, 198]",198,a,0.30408795666880906,0,colour,0.5,3.9
58,21,0,1,6,18,268,403.0784815531224,403.9111252633156,"[58, 0, 196]",196,a,0.3093698159791529,0,colour,0.5,3.9
58,21,0,1,6,19,269,404.41283533966634,406.0151244472945,"[20, 0, 234]",234,a,1.0789368383120745,1,colour,0.5,3.9
58,21,0,1,6,20,270,406.51910070946906,407.43907291966025,"[71, 0, 183]",183,l,0.40585758234374225,1,colour,0.5,3.9
58,21,0,1,6,21,271,407.94924791308586,408.83109668595716,"[38, 0, 216]",216,a,0.3585969340056181,1,colour,0.5,3.9
58,21,0,1,6,22,272,409.3398861314636,410.11109273170587,"[93, 0, 161]",161,l,0.24796578905079514,1,colour,0.5,3.9
58,21,0,1,6,23,273,410.621115306858,411.43910954729654,"[29, 0, 225]",225,a,0.29360537009779364,1,colour,0.5,3.9
58,21,0,1,6,24,274,411.95029751071706,413.07115760585293,"[6, 0, 248]",248,a,0.5975133394822478,1,colour,0.5,3.9
58,21,0,1,6,25,275,413.5909113107482,414.94314094784204,"[28, 0, 226]",226,a,0.8289254168048501,1,colour,0.5,3.9
58,21,0,1,6,26,276,415.45028490771074,416.3190706196474,"[16, 0, 238]",238,a,0.34543935023248196,1,colour,0.5,3.9
58,21,0,1,6,27,277,416.8252791969571,417.6390931633068,"[21, 0, 233]",233,a,0.29065310570877045,1,colour,0.5,3.9
58,21,0,1,6,28,278,418.1560840434395,418.87908319116104,"[67, 0, 187]",187,l,0.20077327580656856,1,colour,0.5,3.9
58,21,0,1,6,29,279,419.38965399900917,420.5110583883943,"[59, 0, 195]",195,l,0.5980107662035152,1,colour,0.5,3.9
58,21,0,1,6,30,280,421.03031860513147,422.3590632468695,"[47, 0, 207]",207,a,0.805443178396672,1,colour,0.5,3.9
58,21,0,1,6,31,281,422.8648819173686,423.7270722958492,"[37, 0, 217]",217,a,0.3409589660586789,1,colour,0.5,3.9
58,21,0,1,6,32,282,424.2377139958553,425.16706641972996,"[18, 0, 236]",236,a,0.4060545051470399,1,colour,0.5,3.9
58,21,0,1,6,33,283,425.67526746040676,426.78308536834083,"[54, 0, 200]",200,l,0.5847318780142814,1,colour,0.5,3.9
58,21,0,1,6,34,284,427.2910221389029,428.1670479089953,"[9, 0, 245]",245,a,0.3528719987953082,1,colour,0.5,3.9
58,21,0,1,6,35,285,428.6815930097364,429.4790194670204,"[95, 0, 159]",159,l,0.2741289323894307,1,colour,0.5,3.9
58,21,0,1,6,36,286,429.9941072866786,430.7991014813306,"[35, 0, 219]",219,a,0.2816186883719638,1,colour,0.5,3.9
58,21,0,1,6,37,287,431.3066814279882,432.2630803901702,"[4, 0, 250]",250,a,0.4331546063767746,1,colour,0.5,3.9
58,21,0,1,6,38,288,432.7753604865866,433.6391006463673,"[5, 0, 249]",249,a,0.34065216046292335,1,colour,0.5,3.9
58,21,0,1,6,39,289,434.15030987747014,434.92702085967176,"[77, 0, 177]",177,l,0.2533228727988899,1,colour,0.5,3.9
58,21,0,1,6,40,290,435.4472436342621,436.35103904269636,"[52, 0, 202]",202,a,0.3805203326046467,0,colour,0.5,3.9
58,21,0,1,6,41,291,436.8690602221759,437.67104110645596,"[66, 0, 188]",188,l,0.27861876878887415,1,colour,0.5,3.9
58,21,0,1,6,42,292,438.1784509118879,438.99902129441034,"[76, 0, 178]",178,l,0.29727167601231486,1,colour,0.5,3.9
58,21,0,1,6,43,293,439.50651853356976,440.31110864307266,"[30, 0, 224]",224,a,0.2812516246922314,1,colour,0.5,3.9
58,21,0,1,6,44,294,440.82156641734764,441.3510662179906,"[70, 0, 184]",184,l,0.00624205416534096,1,colour,0.5,3.9
58,21,0,1,6,45,295,441.8684473988833,442.4150542640127,"[44, 0, 210]",210,a,0.023356207879260182,1,colour,0.5,3.9
58,21,0,1,6,46,296,442.9308911773842,443.61509419989306,"[62, 0, 192]",192,l,0.1610657925484702,1,colour,0.5,3.9
58,21,0,1,6,47,297,444.1339818390552,445.9190175293479,"[8, 0, 246]",246,a,1.2616865716408938,1,colour,0.5,3.9
58,21,0,1,6,48,298,446.4309313496342,447.36714928469155,"[41, 0, 213]",213,a,0.4129330131690949,1,colour,0.5,3.9
58,21,0,1,6,49,299,447.8840200420236,448.77506628423,"[2, 0, 252]",252,a,0.3677963725058362,1,colour,0.5,3.9
58,21,0,1,6,50,300,449.29021396825556,450.07100518781226,"[90, 0, 164]",164,l,0.25753504829481244,1,colour,0.5,3.9
58,21,0,1,7,1,301,455.4307174916612,456.28697537840344,"[91, 0, 163]",163,l,0.33222505263984203,1,colour,0.5,3.9
58,21,0,1,7,2,302,456.80657705897465,457.8309860153822,"[54, 0, 200]",200,a,0.5011586928740144,0,colour,0.5,3.9
58,21,0,1,7,3,303,458.33775267144665,459.58302810322493,"[37, 0, 217]",217,a,0.7222602939000353,1,colour,0.5,3.9
58,21,0,1,7,4,304,460.1033824222395,461.09509040322155,"[31, 0, 223]",223,a,0.46843723754864186,1,colour,0.5,3.9
58,21,0,1,7,5,305,461.6033820284065,462.99899136216845,"[25, 0, 229]",229,l,0.8722673043375835,0,colour,0.5,3.9
58,21,0,1,7,6,306,463.50959407154005,464.1589961355785,"[81, 0, 173]",173,l,0.1262471111258492,1,colour,0.5,3.9
58,21,0,1,7,7,307,464.6658825207269,465.47899111011066,"[66, 0, 188]",188,l,0.2898220921633765,1,colour,0.5,3.9
58,21,0,1,7,8,308,465.9939580193022,466.7110341275111,"[43, 0, 211]",211,a,0.19374431879259646,1,colour,0.5,3.9
58,21,0,1,7,9,309,467.2283530808054,468.01500668749213,"[7, 0, 247]",247,a,0.26337853097356856,1,colour,0.5,3.9
58,21,0,1,7,10,310,468.5252060992643,469.3509657874238,"[12, 0, 242]",242,a,0.30107031390070915,1,colour,0.5,3.9
58,21,0,1,7,11,311,469.8703847238794,470.5829587865155,"[20, 0, 234]",234,a,0.18931198376230896,1,colour,0.5,3.9
58,21,0,1,7,12,312,471.0890763854841,471.75902142049745,"[64, 0, 190]",190,l,0.1465986731927842,1,colour,0.5,3.9
58,21,0,1,7,13,313,472.2641284124693,472.94296292972285,"[33, 0, 221]",221,a,0.15550075855571777,1,colour,0.5,3.9
58,21,0,1,7,14,314,473.45156963111367,474.0949383790139,"[94, 0, 160]",160,l,0.12003932148218155,1,colour,0.5,3.9
58,21,0,1,7,15,315,474.6077867941931,475.9189572709147,"[42, 0, 212]",212,a,0.788129345048219,1,colour,0.5,3.9
58,21,0,1,7,16,316,476.4359178249724,477.1829557145247,"[99, 0, 155]",155,l,0.2236793185584247,1,colour,0.5,3.9
58,21,0,1,7,17,317,477.7015719941119,478.4709105860675,"[74, 0, 180]",180,l,0.24589928262867033,1,colour,0.5,3.9
58,21,0,1,7,18,318,478.97840388678014,479.81493642553687,"[38, 0, 216]",216,a,0.31322201690636575,1,colour,0.5,3.9
58,21,0,1,7,19,319,480.3221418253379,481.1029334386112,"[90, 0, 164]",164,l,0.25749093759804964,1,colour,0.5,3.9
58,21,0,1,7,20,320,481.61906297900714,482.41491523664445,"[58, 0, 196]",196,l,0.2729560610605404,1,colour,0.5,3.9
58,21,0,1,7,21,321,482.93299037287943,483.59902925009374,"[95, 0, 159]",159,l,0.14278113062027842,1,colour,0.5,3.9
58,21,0,1,7,22,322,484.1205977941863,484.7828868703218,"[85, 0, 169]",169,l,0.13900769886095077,1,colour,0.5,3.9
58,21,0,1,7,23,323,485.29243407421745,485.9589345381828,"[28, 0, 226]",226,a,0.14352983061689883,1,colour,0.5,3.9
58,21,0,1,7,24,324,486.4798268498853,487.2229404648533,"[40, 0, 214]",214,a,0.21971447800751776,1,colour,0.5,3.9
58,21,0,1,7,25,325,487.73009584622923,488.35888995497953,"[65, 0, 189]",189,l,0.1056840542005375,1,colour,0.5,3.9
58,21,0,1,7,26,326,488.87054147431627,490.74295331991743,"[29, 0, 225]",225,a,1.3491316499421373,1,colour,0.5,3.9
58,21,0,1,7,27,327,491.2612407387933,491.9749608911807,"[71, 0, 183]",183,l,0.19046004279516637,1,colour,0.5,3.9
58,21,0,1,7,28,328,492.4955207974417,493.2949066350702,"[1, 0, 253]",253,a,0.27607295277994126,1,colour,0.5,3.9
58,21,0,1,7,29,329,493.80802601587493,494.5989284256939,"[44, 0, 210]",210,a,0.26766081096138805,1,colour,0.5,3.9
58,21,0,1,7,30,330,495.1055769282393,495.79892622015905,"[98, 0, 156]",156,l,0.17989986867178231,1,colour,0.5,3.9
58,21,0,1,7,31,331,496.3144756265683,497.0388867096044,"[61, 0, 193]",193,l,0.20146014203783125,1,colour,0.5,3.9
58,21,0,1,7,32,332,497.54871551296674,498.93492218409665,"[11, 0, 243]",243,a,0.8626964697614312,1,colour,0.5,3.9
58,21,0,1,7,33,333,499.4550524051301,500.36690076836385,"[97, 0, 157]",157,l,0.4012302940245718,1,colour,0.5,3.9
58,21,0,1,7,34,334,500.88008670904674,501.6708689960651,"[46, 0, 208]",208,a,0.267416626913473,1,colour,0.5,3.9
58,21,0,1,7,35,335,502.1645146959927,503.14288195513655,"[77, 0, 177]",177,l,0.45499569131061435,1,colour,0.5,3.9
58,21,0,1,7,36,336,503.66512673161924,504.3429151957389,"[18, 0, 236]",236,a,0.15509194717742503,1,colour,0.5,3.9
58,21,0,1,7,37,337,504.85207958193496,505.6868835337227,"[55, 0, 199]",199,a,0.31163994036614895,0,colour,0.5,3.9
58,21,0,1,7,38,338,506.1957694713492,506.85489439440425,"[41, 0, 213]",213,a,0.1358466965612024,1,colour,0.5,3.9
58,21,0,1,7,39,339,507.36766482819803,508.1908727927366,"[22, 0, 232]",232,a,0.29993997793644667,1,colour,0.5,3.9
58,21,0,1,7,40,340,508.7114464835031,509.8149124009069,"[32, 0, 222]",222,a,0.5926127224229276,1,colour,0.5,3.9
58,21,0,1,7,41,341,510.3239129476715,511.08693032246083,"[78, 0, 176]",176,l,0.23980885895434767,1,colour,0.5,3.9
58,21,0,1,7,42,342,511.6062610375229,512.3908843718236,"[86, 0, 168]",168,l,0.2612438895739615,1,colour,0.5,3.9
58,21,0,1,7,43,343,512.9031215391587,513.5748924409272,"[17, 0, 237]",237,a,0.14835325407329947,1,colour,0.5,3.9
58,21,0,1,7,44,344,514.0906974527752,514.7348818542669,"[62, 0, 192]",192,l,0.12088963342830539,1,colour,0.5,3.9
58,21,0,1,7,45,345,515.2468831082806,516.4309278050205,"[23, 0, 231]",231,l,0.6607298426097259,0,colour,0.5,3.9
58,21,0,1,7,46,346,516.9500923174201,518.3988593452377,"[96, 0, 158]",158,l,0.9255439396947622,1,colour,0.5,3.9
58,21,0,1,7,47,347,518.9187670437386,519.9109200699022,"[84, 0, 170]",170,l,0.468830295256339,1,colour,0.5,3.9
58,21,0,1,7,48,348,520.418724114541,521.1748594366945,"[2, 0, 252]",252,a,0.23274563741870224,1,colour,0.5,3.9
58,21,0,1,7,49,349,521.6843999451958,522.4468442752259,"[76, 0, 178]",178,l,0.2391026944387704,1,colour,0.5,3.9
58,21,0,1,7,50,350,522.9656007637968,523.918876532698,"[26, 0, 228]",228,a,0.4298978995066136,1,colour,0.5,3.9
58,21,0,1,8,1,351,532.6679446947528,534.1988391015911,"[31, 0, 223]",223,a,1.0068064344814047,1,colour,0.5,3.9
58,21,0,1,8,2,352,534.7031028708443,535.5508359760279,"[18, 0, 236]",236,a,0.3242898575263098,1,colour,0.5,3.9
58,21,0,1,8,3,353,536.0625363322906,536.9348532611039,"[11, 0, 243]",243,a,0.3489296071929857,1,colour,0.5,3.9
58,21,0,1,8,4,354,537.4538251830963,538.078815927729,"[82, 0, 172]",172,l,0.10234582133125514,1,colour,0.5,3.9
58,21,0,1,8,5,355,538.5976397639606,539.2868426524801,"[69, 0, 185]",185,l,0.16580729617271572,1,colour,0.5,3.9
58,21,0,1,8,6,356,539.8008312499151,540.7829416148597,"[50, 0, 204]",204,l,0.4595166415674612,0,colour,0.5,3.9
58,21,0,1,8,7,357,541.3007828069385,542.0227831630036,"[99, 0, 155]",155,l,0.19862878823187202,1,colour,0.5,3.9
58,21,0,1,8,8,358,542.5284249968827,543.2148768760962,"[55, 0, 199]",199,a,0.16316301887854934,0,colour,0.5,3.9
58,21,0,1,8,9,359,543.7314290126087,544.4227866288275,"[67, 0, 187]",187,a,0.16799392527900636,0,colour,0.5,3.9
58,21,0,1,8,10,360,544.9346378277987,545.9908293122426,"[29, 0, 225]",225,a,0.5329152272315696,1,colour,0.5,3.9
58,21,0,1,8,11,361,546.4971544677392,547.1427850691834,"[45, 0, 209]",209,a,0.12222988903522491,1,colour,0.5,3.9
58,21,0,1,8,12,362,547.653347606305,548.5908475078177,"[53, 0, 201]",201,a,0.4141192751703784,0,colour,0.5,3.9
58,21,0,1,8,13,363,549.1069632637082,549.7508254997665,"[77, 0, 177]",177,l,0.1205611665500328,1,colour,0.5,3.9
58,21,0,1,8,14,364,550.2631363162072,550.9828255879693,"[92, 0, 162]",162,l,0.1963992299279198,1,colour,0.5,3.9
58,21,0,1,8,15,365,551.4975372853223,552.2547875834862,"[19, 0, 235]",235,a,0.23390275484416634,1,colour,0.5,3.9
58,21,0,1,8,16,366,552.7631347407587,553.4067594881635,"[30, 0, 224]",224,a,0.12030280404724181,1,colour,0.5,3.9
58,21,0,1,8,17,367,553.9193893192569,554.5587983465521,"[14, 0, 240]",240,a,0.11607290548272431,1,colour,0.5,3.9
58,21,0,1,8,18,368,555.0756663469365,555.9427699454827,"[52, 0, 202]",202,l,0.3441550206625834,1,colour,0.5,3.9
58,21,0,1,8,19,369,556.452424669289,557.4387932895916,"[13, 0, 241]",241,a,0.4629694833420217,1,colour,0.5,3.9
58,21,0,1,8,20,370,557.9524250631221,558.7907681086799,"[57, 0, 197]",197,a,0.31498801929410547,0,colour,0.5,3.9
58,21,0,1,8,21,371,559.3118254415458,559.9748135930859,"[90, 0, 164]",164,l,0.1397437957348302,1,colour,0.5,3.9
58,21,0,1,8,22,372,560.4784570558695,561.1427996414714,"[21, 0, 233]",233,a,0.14178824669215828,1,colour,0.5,3.9
58,21,0,1,8,23,373,561.6503224805929,562.3347858348861,"[39, 0, 215]",215,a,0.16119497397448868,1,colour,0.5,3.9
58,21,0,1,8,24,374,562.8534560713451,563.9748364361003,"[22, 0, 232]",232,a,0.5984514791052788,1,colour,0.5,3.9
58,21,0,1,8,25,375,564.4940616005333,565.3427269376116,"[56, 0, 198]",198,a,0.3253918366972357,0,colour,0.5,3.9
58,21,0,1,8,26,376,565.8533969945274,566.622767094057,"[85, 0, 169]",169,l,0.24607336230110377,1,colour,0.5,3.9
58,21,0,1,8,27,377,567.1346541329985,568.6227773340652,"[32, 0, 222]",222,a,0.9648244946729392,1,colour,0.5,3.9
58,21,0,1,8,28,378,569.1345879669534,569.9828102280153,"[3, 0, 251]",251,a,0.3248609332367778,1,colour,0.5,3.9
58,21,0,1,8,29,379,570.4939911023248,571.3107368530473,"[25, 0, 229]",229,a,0.29341396130621433,1,colour,0.5,3.9
58,21,0,1,8,30,380,571.8222009020392,572.5667729261331,"[80, 0, 174]",174,l,0.22136390197556466,1,colour,0.5,3.9
58,21,0,1,8,31,381,573.0876900501316,574.0147329650354,"[33, 0, 221]",221,a,0.403761537745595,1,colour,0.5,3.9
58,21,0,1,8,32,382,574.5251580501208,575.3106982562458,"[7, 0, 247]",247,a,0.2623659548116848,1,colour,0.5,3.9
58,21,0,1,8,33,383,575.8220866869669,576.606714353431,"[58, 0, 196]",196,l,0.2613139939494431,1,colour,0.5,3.9
58,21,0,1,8,34,384,577.1065658738371,577.7667088869493,"[68, 0, 186]",186,l,0.13693607260938734,1,colour,0.5,3.9
58,21,0,1,8,35,385,578.2784206646029,578.8547380378004,"[42, 0, 212]",212,a,0.053054112824611366,1,colour,0.5,3.9
58,21,0,1,8,36,386,579.3721416677581,580.1827469764976,"[51, 0, 203]",203,a,0.28737946366891265,0,colour,0.5,3.9
58,21,0,1,8,37,387,580.7002309509553,581.6147161084227,"[62, 0, 192]",192,l,0.3911935403011739,1,colour,0.5,3.9
58,21,0,1,8,38,388,582.1222105906345,582.8627362481784,"[4, 0, 250]",250,a,0.21731399081181735,1,colour,0.5,3.9
58,21,0,1,8,39,389,583.37213142775,583.9347709474387,"[73, 0, 181]",181,l,0.039399496163241565,1,colour,0.5,3.9
58,21,0,1,8,40,390,584.4502541878028,585.61476770218,"[10, 0, 244]",244,a,0.6411384019302204,1,colour,0.5,3.9
58,21,0,1,8,41,391,586.1221282769693,586.9187150561484,"[35, 0, 219]",219,a,0.27395879116375,1,colour,0.5,3.9
58,21,0,1,8,42,392,587.4345846587094,588.2946801739745,"[37, 0, 217]",217,a,0.33676963357720524,1,colour,0.5,3.9
58,21,0,1,8,43,393,588.8096340862103,590.2147441502893,"[40, 0, 214]",214,a,0.8819184835301712,1,colour,0.5,3.9
58,21,0,1,8,44,394,590.7313963234192,591.3427001561504,"[75, 0, 179]",179,l,0.08797873870935291,1,colour,0.5,3.9
58,21,0,1,8,45,395,591.8564315725816,592.5268066865392,"[1, 0, 253]",253,a,0.14701693691313267,1,colour,0.5,3.9
58,21,0,1,8,46,396,593.0439629816683,593.7826883723028,"[61, 0, 193]",193,l,0.21543337951879948,1,colour,0.5,3.9
58,21,0,1,8,47,397,594.2940035477513,595.0866932276404,"[87, 0, 167]",167,l,0.2695028254529461,1,colour,0.5,3.9
58,21,0,1,8,48,398,595.6065123107983,596.3587139060255,"[74, 0, 180]",180,l,0.22894621174782515,1,colour,0.5,3.9
58,21,0,1,8,49,399,596.8628331341315,597.6547150372062,"[63, 0, 191]",191,l,0.2685379044851288,1,colour,0.5,3.9
58,21,0,1,8,50,400,598.17603270174,598.8546852625441,"[23, 0, 231]",231,a,0.15552911546546966,1,colour,0.5,3.9
58,21,0,1,9,1,401,604.120839221403,607.0146778266644,"[87, 0, 167]",167,l,2.3696860421914607,1,colour,0.5,3.9
58,21,0,1,9,2,402,607.5279724686407,609.0547165338648,"[57, 0, 197]",197,l,1.0042224155040458,1,colour,0.5,3.9
58,21,0,1,9,3,403,609.5748128840933,610.478687061579,"[90, 0, 164]",164,l,0.38074797519948334,1,colour,0.5,3.9
58,21,0,1,9,4,404,610.9967031209962,611.7906905211275,"[51, 0, 203]",203,a,0.26938703493215144,0,colour,0.5,3.9
58,21,0,1,9,5,405,612.3105147243477,613.0866739292396,"[2, 0, 252]",252,a,0.25285340927075595,1,colour,0.5,3.9
58,21,0,1,9,6,406,613.6081255011959,614.3106762008974,"[92, 0, 162]",162,l,0.17937014682684094,1,colour,0.5,3.9
58,21,0,1,9,7,407,614.8269557964522,615.6386989242164,"[36, 0, 218]",218,a,0.28840779373422265,1,colour,0.5,3.9
58,21,0,1,9,8,408,616.1550785563886,618.3986683302792,"[62, 0, 192]",192,a,1.7202351413434371,0,colour,0.5,3.9
58,21,0,1,9,9,409,618.9050915533444,619.9106687966269,"[53, 0, 201]",201,a,0.48224899847991765,0,colour,0.5,3.9
58,21,0,1,9,10,410,620.4206960980082,621.2306968541816,"[26, 0, 228]",228,a,0.2867115020053461,1,colour,0.5,3.9
58,21,0,1,9,11,411,621.7488444579067,622.5346316050272,"[68, 0, 186]",186,l,0.2624285761266947,1,colour,0.5,3.9
58,21,0,1,9,12,412,623.0457274087239,623.8226494918345,"[99, 0, 155]",155,l,0.2536974196555093,1,colour,0.5,3.9
58,21,0,1,9,13,413,624.3427190607181,626.5986810908653,"[84, 0, 170]",170,l,1.732911840081215,1,colour,0.5,3.9
58,21,0,1,9,14,414,627.108253107057,628.1986685666488,"[35, 0, 219]",219,a,0.5672033991431817,1,colour,0.5,3.9
58,21,0,1,9,15,415,628.717506975052,629.6786242038943,"[55, 0, 199]",199,a,0.4377590517979115,0,colour,0.5,3.9
58,21,0,1,9,16,416,630.1862573196413,631.1506304675713,"[12, 0, 242]",242,a,0.4410295430570841,1,colour,0.5,3.9
58,21,0,1,9,17,417,631.6707090948476,632.4626264440594,"[28, 0, 226]",226,a,0.268696230254136,1,colour,0.5,3.9
58,21,0,1,9,18,418,632.9829240493709,633.73480544833,"[23, 0, 231]",231,a,0.2290139531251043,1,colour,0.5,3.9
58,21,0,1,9,19,419,634.2486179969274,634.8706643540645,"[4, 0, 250]",250,a,0.0985034666955471,1,colour,0.5,3.9
58,21,0,1,9,20,420,635.3895783807384,636.0146073283395,"[80, 0, 174]",174,l,0.10224814771208912,1,colour,0.5,3.9
58,21,0,1,9,21,421,636.5303079712903,637.302630335209,"[97, 0, 157]",157,l,0.25006852904334664,1,colour,0.5,3.9
58,21,0,1,9,22,422,637.8135638746899,638.590589932981,"[73, 0, 181]",181,l,0.2519022728083655,1,colour,0.5,3.9
58,21,0,1,9,23,423,639.0965417232364,639.8626200638246,"[14, 0, 240]",240,a,0.24276309262495488,1,colour,0.5,3.9
58,21,0,1,9,24,424,640.3777827139711,641.1186297491658,"[13, 0, 241]",241,a,0.2175262733362615,1,colour,0.5,3.9
58,21,0,1,9,25,425,641.6302245549159,642.4066314884694,"[1, 0, 253]",253,a,0.2530790825840086,1,colour,0.5,3.9
58,21,0,1,9,26,426,642.927118927124,643.6466313623823,"[20, 0, 234]",234,a,0.19614401820581406,1,colour,0.5,3.9
58,21,0,1,9,27,427,644.161456881091,644.830624465365,"[98, 0, 156]",156,l,0.1459909698460251,1,colour,0.5,3.9
58,21,0,1,9,28,428,645.3490331885405,645.9265840852167,"[85, 0, 169]",169,l,0.05426518712192774,1,colour,0.5,3.9
58,21,0,1,9,29,429,646.4427230779547,648.2786014396697,"[42, 0, 212]",212,a,1.3127328611444682,1,colour,0.5,3.9
58,21,0,1,9,30,430,648.7864488072228,649.6545653759968,"[45, 0, 209]",209,a,0.34578160173259676,1,colour,0.5,3.9
58,21,0,1,9,31,431,650.149054298643,650.9185807548929,"[52, 0, 202]",202,a,0.24615803908091038,0,colour,0.5,3.9
58,21,0,1,9,32,432,651.4302897755988,652.0945504413685,"[18, 0, 236]",236,a,0.14087176870089024,1,colour,0.5,3.9
58,21,0,1,9,33,433,652.6021953724558,653.398617130355,"[48, 0, 206]",206,a,0.27311320521403104,1,colour,0.5,3.9
58,21,0,1,9,34,434,653.9147080740659,654.5265794378938,"[19, 0, 235]",235,a,0.08962816279381514,1,colour,0.5,3.9
58,21,0,1,9,35,435,655.0403758387547,655.6786620130297,"[82, 0, 172]",172,l,0.1156900878995657,1,colour,0.5,3.9
58,21,0,1,9,36,436,656.1979738235241,656.9985652215546,"[33, 0, 221]",221,a,0.2780665976461023,1,colour,0.5,3.9
58,21,0,1,9,37,437,657.5103939713445,658.1106047573267,"[21, 0, 233]",233,a,0.07678526127710938,1,colour,0.5,3.9
58,21,0,1,9,38,438,658.6126393622253,660.1746731478488,"[39, 0, 215]",215,a,1.0387528022984043,1,colour,0.5,3.9
58,21,0,1,9,39,439,660.6928160254611,661.9505416948814,"[76, 0, 178]",178,l,0.7345833196304739,1,colour,0.5,3.9
58,21,0,1,9,40,440,662.4584178131772,663.0225216497201,"[74, 0, 180]",180,l,0.040933917509391904,1,colour,0.5,3.9
58,21,0,1,9,41,441,663.5364476257237,664.3985667182133,"[65, 0, 189]",189,l,0.3388168414821848,1,colour,0.5,3.9
58,21,0,1,9,42,442,664.9114671209827,666.7585736183682,"[93, 0, 161]",161,l,1.3237506833393127,1,colour,0.5,3.9
58,21,0,1,9,43,443,667.2708789209137,668.038548396551,"[78, 0, 176]",176,l,0.24442236288450658,1,colour,0.5,3.9
58,21,0,1,9,44,444,668.5520679241745,669.3105801026104,"[64, 0, 190]",190,l,0.23587552597746253,1,colour,0.5,3.9
58,21,0,1,9,45,445,669.808662076015,670.4866124105174,"[3, 0, 251]",251,a,0.15473197249229997,1,colour,0.5,3.9
58,21,0,1,9,46,446,670.9961556760827,671.5905233732192,"[79, 0, 175]",175,l,0.07109892298467457,1,colour,0.5,3.9
58,21,0,1,9,47,447,672.105626552715,673.734519910533,"[15, 0, 239]",239,a,1.1180637935176492,1,colour,0.5,3.9
58,21,0,1,9,48,448,674.2493745737011,675.0625052184332,"[16, 0, 238]",238,a,0.290130079141818,1,colour,0.5,3.9
58,21,0,1,9,49,449,675.577545382781,676.8064817484701,"[27, 0, 227]",227,a,0.7063847837271169,1,colour,0.5,3.9
58,21,0,1,9,50,450,677.3274421953829,678.2064903342398,"[7, 0, 247]",247,a,0.3557254078332335,1,colour,0.5,3.9
58,21,0,1,10,1,451,689.8266320555704,690.7025416413089,"[2, 0, 252]",252,a,0.36322579777333885,1,colour,0.5,3.9
58,21,0,1,10,2,452,691.2244311692193,692.0946398442611,"[4, 0, 250]",250,a,0.3475176718784496,1,colour,0.5,3.9
58,21,0,1,10,3,453,692.6161048070062,693.8065916312626,"[12, 0, 242]",242,a,0.667863562470302,1,colour,0.5,3.9
58,21,0,1,10,4,454,694.3223635602044,695.0544881034875,"[87, 0, 167]",167,l,0.20884986140299588,1,colour,0.5,3.9
58,21,0,1,10,5,455,695.5723541078623,696.1984787331894,"[30, 0, 224]",224,a,0.10275975277181715,1,colour,0.5,3.9
58,21,0,1,10,6,456,696.7128292743582,697.4785106189083,"[29, 0, 225]",225,a,0.2425886191194877,1,colour,0.5,3.9
58,21,0,1,10,7,457,697.994121071184,698.7345718980068,"[91, 0, 163]",163,l,0.21725136938039213,1,colour,0.5,3.9
58,21,0,1,10,8,458,699.2440840497147,699.8785168416798,"[26, 0, 228]",228,a,0.11159882287029177,1,colour,0.5,3.9
58,21,0,1,10,9,459,700.3743456261,700.9985092955176,"[85, 0, 169]",169,l,0.10098469199147075,1,colour,0.5,3.9
58,21,0,1,10,10,460,701.5149298877222,702.198487791582,"[3, 0, 251]",251,a,0.16830191237386316,1,colour,0.5,3.9
58,21,0,1,10,11,461,702.7098797669169,703.3345759152435,"[84, 0, 170]",170,l,0.10155970614869148,1,colour,0.5,3.9
58,21,0,1,10,12,462,703.8505108961836,704.4464449160732,"[7, 0, 247]",247,a,0.07261798426043242,1,colour,0.5,3.9
58,21,0,1,10,13,463,704.9598711023573,705.8304960718378,"[37, 0, 217]",217,a,0.34730302612297237,1,colour,0.5,3.9
58,21,0,1,10,14,464,706.3505258623045,707.1024950888241,"[47, 0, 207]",207,a,0.22894818102940917,1,colour,0.5,3.9
58,21,0,1,10,15,465,707.61612449924,708.2064021129627,"[22, 0, 232]",232,a,0.06705098098609596,1,colour,0.5,3.9
58,21,0,1,10,16,466,708.7129080434097,709.6945020771818,"[97, 0, 157]",157,l,0.45831698877736926,1,colour,0.5,3.9
58,21,0,1,10,17,467,710.2128848065622,710.9825235086028,"[43, 0, 211]",211,a,0.24632699869107455,1,colour,0.5,3.9
58,21,0,1,10,18,468,711.4957220524084,712.2865027639782,"[58, 0, 196]",196,a,0.26744577137287706,0,colour,0.5,3.9
58,21,0,1,10,19,469,712.794046870782,713.5984979528002,"[9, 0, 245]",245,a,0.28119057859294116,1,colour,0.5,3.9
58,21,0,1,10,20,470,714.1065997445257,714.830451173475,"[10, 0, 244]",244,a,0.20062400854658335,1,colour,0.5,3.9
58,21,0,1,10,21,471,715.3409065846354,716.0788222292904,"[32, 0, 222]",222,a,0.2149387097451836,1,colour,0.5,3.9
58,21,0,1,10,22,472,716.5908593231579,717.1984113856452,"[81, 0, 173]",173,l,0.0835436467314139,1,colour,0.5,3.9
58,21,0,1,10,23,473,717.7168220781023,718.8224324830808,"[19, 0, 235]",235,l,0.5822762524476275,0,colour,0.5,3.9
58,21,0,1,10,24,474,719.3417659550905,720.3824332393706,"[24, 0, 230]",230,a,0.517593463533558,1,colour,0.5,3.9
58,21,0,1,10,25,475,720.8886504812399,721.5343795439694,"[72, 0, 182]",182,l,0.12247643619775772,1,colour,0.5,3.9
58,21,0,1,10,26,476,722.0449145119637,722.8224576892098,"[74, 0, 180]",180,l,0.2542373816249892,1,colour,0.5,3.9
58,21,0,1,10,27,477,723.342098360532,724.150419366546,"[41, 0, 213]",213,a,0.28515463159419596,1,colour,0.5,3.9
58,21,0,1,10,28,478,724.670247902046,725.2704768049298,"[67, 0, 187]",187,l,0.07723109424114227,1,colour,0.5,3.9
58,21,0,1,10,29,479,725.7796167727793,726.6304494405631,"[35, 0, 219]",219,a,0.32744337688200176,1,colour,0.5,3.9
58,21,0,1,10,30,480,727.139063624898,727.9343873421894,"[6, 0, 248]",248,a,0.2720198908355087,1,colour,0.5,3.9
58,21,0,1,10,31,481,728.4515160680749,729.2064060514094,"[73, 0, 181]",181,l,0.23143846483435482,1,colour,0.5,3.9
58,21,0,1,10,32,482,729.7171304589137,730.5189857066143,"[31, 0, 223]",223,a,0.2785273967310786,1,colour,0.5,3.9
58,21,0,1,10,33,483,731.0315505532781,731.6304427451687,"[75, 0, 179]",179,l,0.07565689459443092,1,colour,0.5,3.9
58,21,0,1,10,34,484,732.1409355716314,732.8464499572292,"[69, 0, 185]",185,l,0.18230193119961768,1,colour,0.5,3.9
58,21,0,1,10,35,485,733.3684564572759,734.0784138117451,"[86, 0, 168]",168,l,0.1953752322588116,1,colour,0.5,3.9
58,21,0,1,10,36,486,734.5940305655822,735.326372117619,"[63, 0, 191]",191,a,0.20905938709620386,0,colour,0.5,3.9
58,21,0,1,10,37,487,735.8440226886887,736.6623595744604,"[60, 0, 194]",194,l,0.29510631458833814,1,colour,0.5,3.9
58,21,0,1,10,38,488,737.1721816824283,737.7663721492281,"[1, 0, 253]",253,a,0.0708122035721317,1,colour,0.5,3.9
58,21,0,1,10,39,489,738.2814528795425,740.7024037954397,"[23, 0, 231]",231,a,1.897578560281545,1,colour,0.5,3.9
58,21,0,1,10,40,490,741.2190764485858,742.4383675428107,"[82, 0, 172]",172,l,0.6960750953294337,1,colour,0.5,3.9
58,21,0,1,10,41,491,742.9533809255809,744.2863964257995,"[59, 0, 195]",195,l,0.8076719489181414,1,colour,0.5,3.9
58,21,0,1,10,42,492,744.7999466733309,745.7103504120605,"[25, 0, 229]",229,a,0.38794707343913615,1,colour,0.5,3.9
58,21,0,1,10,43,493,746.2210279520368,746.9584166316781,"[95, 0, 159]",159,l,0.21409194241277874,1,colour,0.5,3.9
58,21,0,1,10,44,494,747.4709617859917,748.3824076394085,"[64, 0, 190]",190,l,0.3859286163933575,1,colour,0.5,3.9
58,21,0,1,10,45,495,748.8969082356198,749.6863841378363,"[40, 0, 214]",214,a,0.2786258580163121,1,colour,0.5,3.9
58,21,0,1,10,46,496,750.1969903918216,750.9983698743163,"[50, 0, 204]",204,a,0.27805045002605766,1,colour,0.5,3.9
58,21,0,1,10,47,497,751.5125227052486,752.3103906631004,"[83, 0, 171]",171,l,0.27460784825962037,1,colour,0.5,3.9
58,21,0,1,10,48,498,752.8251389880897,753.6783776567318,"[93, 0, 161]",161,l,0.3300935619045049,1,colour,0.5,3.9
58,21,0,1,10,49,499,754.1909243864939,754.9744012369774,"[54, 0, 200]",200,a,0.2604593496071175,0,colour,0.5,3.9
58,21,0,1,10,50,500,755.4877868572949,756.0383215416223,"[90, 0, 164]",164,l,0.02729978086426854,1,colour,0.5,3.9
58,21,0,1,11,1,501,772.736893222318,773.6303096254123,"[92, 0, 162]",162,l,0.369335126131773,1,colour,0.5,3.9
58,21,0,1,11,2,502,774.1439244636567,774.9904425560962,"[31, 0, 223]",223,a,0.32314613077323884,1,colour,0.5,3.9
58,21,0,1,11,3,503,775.5033146020724,776.2863637366099,"[18, 0, 236]",236,a,0.25978311721701175,1,colour,0.5,3.9
58,21,0,1,11,4,504,776.8001294175629,777.4863560172962,"[79, 0, 175]",175,a,0.16289284103550017,0,colour,0.5,3.9
58,21,0,1,11,5,505,778.0032949098386,779.3503100350499,"[49, 0, 205]",205,l,0.8237372925505042,0,colour,0.5,3.9
58,21,0,1,11,6,506,779.8628910293337,780.7822811362566,"[83, 0, 171]",171,l,0.3963722122134641,1,colour,0.5,3.9
58,21,0,1,11,7,507,781.3001432021847,782.1183115221793,"[56, 0, 198]",198,a,0.2948861550539732,0,colour,0.5,3.9
58,21,0,1,11,8,508,782.6282313037664,783.6862880395493,"[33, 0, 221]",221,a,0.5346788663882762,1,colour,0.5,3.9
58,21,0,1,11,9,509,784.2063938422361,785.10228674463,"[99, 0, 155]",155,l,0.3725815929938108,1,colour,0.5,3.9
58,21,0,1,11,10,510,785.6127134050475,786.4703745626612,"[30, 0, 224]",224,a,0.33444200782105327,1,colour,0.5,3.9
58,21,0,1,11,11,511,786.9876265622443,787.7663055893499,"[61, 0, 193]",193,l,0.25538189604412764,1,colour,0.5,3.9
58,21,0,1,11,12,512,788.2845362944063,789.0943554879632,"[54, 0, 200]",200,a,0.2865468746749684,0,colour,0.5,3.9
58,21,0,1,11,13,513,789.6126622052398,790.3823497440899,"[15, 0, 239]",239,a,0.24640537390951067,1,colour,0.5,3.9
58,21,0,1,11,14,514,790.8938732637325,791.7022773710778,"[35, 0, 219]",219,a,0.28517589916009456,1,colour,0.5,3.9
58,21,0,1,11,15,515,792.222005869844,792.9583366810111,"[43, 0, 211]",211,a,0.2130065046949312,1,colour,0.5,3.9
58,21,0,1,11,16,516,793.4719975991175,794.1662350122351,"[88, 0, 166]",166,l,0.16931015625596046,1,colour,0.5,3.9
58,21,0,1,11,17,517,794.6766612789361,795.3023353450699,"[1, 0, 253]",253,a,0.10233124904334545,1,colour,0.5,3.9
58,21,0,1,11,18,518,795.8097731135786,796.5503255525837,"[32, 0, 222]",222,a,0.2173006001394242,1,colour,0.5,3.9
58,21,0,1,11,19,519,797.0616383649176,797.7342583972495,"[0, 0, 254]",254,a,0.1494028518209234,1,colour,0.5,3.9
58,21,0,1,11,20,520,798.2491544141667,798.7822322994471,"[94, 0, 160]",160,l,0.02218924427870661,1,colour,0.5,3.9
58,21,0,1,11,21,521,799.2991266874596,800.0702694847714,"[74, 0, 180]",180,l,0.247838577022776,1,colour,0.5,3.9
58,21,0,1,11,22,522,800.5804866194958,801.1662862121593,"[3, 0, 251]",251,a,0.06250561226624995,1,colour,0.5,3.9
58,21,0,1,11,23,523,801.6742044718703,802.2702928791987,"[76, 0, 178]",178,l,0.0728227838408202,1,colour,0.5,3.9
58,21,0,1,11,24,524,802.7835071766749,803.4142393980874,"[84, 0, 170]",170,l,0.10746817337349057,1,colour,0.5,3.9
58,21,0,1,11,25,525,803.9241788719082,804.5582225447288,"[22, 0, 232]",232,a,0.11060869588982314,1,colour,0.5,3.9
58,21,0,1,11,26,526,805.064947059378,805.6542786565842,"[13, 0, 241]",241,a,0.06641689001116902,1,colour,0.5,3.9
58,21,0,1,11,27,527,806.1741347613279,806.950225830893,"[26, 0, 228]",228,a,0.2528116615721956,1,colour,0.5,3.9
58,21,0,1,11,28,528,807.4586777511286,808.3182817475172,"[96, 0, 158]",158,l,0.33644234819803387,1,colour,0.5,3.9
58,21,0,1,11,29,529,808.8336838557152,809.4622148757335,"[93, 0, 161]",161,l,0.10528115043416619,1,colour,0.5,3.9
58,21,0,1,11,30,530,809.9742708741687,810.7902777711861,"[40, 0, 214]",214,a,0.29277671955060214,1,colour,0.5,3.9
58,21,0,1,11,31,531,811.3023971788352,814.4862221098738,"[73, 0, 181]",181,l,2.6604742370545864,1,colour,0.5,3.9
58,21,0,1,11,32,532,815.0055461295415,815.8862397541525,"[62, 0, 192]",192,l,0.35746541642583907,1,colour,0.5,3.9
58,21,0,1,11,33,533,816.396070920513,817.174248188734,"[27, 0, 227]",227,a,0.25481554644647986,1,colour,0.5,3.9
58,21,0,1,11,34,534,817.6929274837021,818.6781996386126,"[81, 0, 173]",173,l,0.4626327455043793,1,colour,0.5,3.9
58,21,0,1,11,35,535,819.1929381174268,821.1982128876261,"[9, 0, 245]",245,a,1.4818941438570619,1,colour,0.5,3.9
58,21,0,1,11,36,536,821.7085363606457,822.8621765939752,"[5, 0, 249]",249,a,0.6304868558654562,1,colour,0.5,3.9
58,21,0,1,11,37,537,823.3805459326832,824.2143869325519,"[58, 0, 196]",196,l,0.308792044990696,1,colour,0.5,3.9
58,21,0,1,11,38,538,824.7261613316368,825.5421871332219,"[10, 0, 244]",244,a,0.29290078091435134,1,colour,0.5,3.9
58,21,0,1,11,39,539,826.0542242272059,826.822245012736,"[75, 0, 179]",179,l,0.24464764236472547,1,colour,0.5,3.9
58,21,0,1,11,40,540,827.3355605285615,828.1581852080999,"[37, 0, 217]",217,a,0.2993480284931138,1,colour,0.5,3.9
58,21,0,1,11,41,541,828.6792244240642,829.5182480342919,"[24, 0, 230]",230,a,0.31560635624919087,1,colour,0.5,3.9
58,21,0,1,11,42,542,830.0387791899266,830.7901525284396,"[51, 0, 203]",203,l,0.22826013329904526,1,colour,0.5,3.9
58,21,0,1,11,43,543,831.3042301348178,832.1662231968949,"[82, 0, 172]",172,l,0.3386553649324924,1,colour,0.5,3.9
58,21,0,1,11,44,544,832.6801483852323,833.6221716,"[63, 0, 191]",191,l,0.41709123190958053,1,colour,0.5,3.9
58,21,0,1,11,45,545,834.1348589324625,834.910170976189,"[64, 0, 190]",190,l,0.25186564517207444,1,colour,0.5,3.9
58,21,0,1,11,46,546,835.4317269171588,836.1982463644817,"[86, 0, 168]",168,l,0.24313960876315832,1,colour,0.5,3.9
58,21,0,1,11,47,547,836.7129978401354,837.5742512607248,"[8, 0, 246]",246,a,0.3379153296118602,1,colour,0.5,3.9
58,21,0,1,11,48,548,838.0878830342554,838.9902349996846,"[28, 0, 226]",226,a,0.3789181699976325,1,colour,0.5,3.9
58,21,0,1,11,49,549,839.5099571968894,840.3662072067382,"[57, 0, 197]",197,l,0.3329587863991037,1,colour,0.5,3.9
58,21,0,1,11,50,550,840.884835301782,841.8461309425766,"[45, 0, 209]",209,l,0.4380028420127928,0,colour,0.5,3.9
58,21,0,1,12,1,551,847.884010589798,848.59819232882,"[69, 0, 185]",185,l,0.1900925850495696,1,colour,0.5,3.9
58,21,0,1,12,2,552,849.11924454174,849.7741423230618,"[96, 0, 158]",158,l,0.13162546255625784,1,colour,0.5,3.9
58,21,0,1,12,3,553,850.2940582922893,850.8381768428953,"[35, 0, 219]",219,a,0.02088049636222422,1,colour,0.5,3.9
58,21,0,1,12,4,554,851.3565682368353,851.9981087548658,"[14, 0, 240]",240,a,0.1186297491658479,1,colour,0.5,3.9
58,21,0,1,12,5,555,852.5127731908578,853.8780934578972,"[91, 0, 163]",163,l,0.8420231359777972,1,colour,0.5,3.9
58,21,0,1,12,6,556,854.387731246301,855.1661058310419,"[16, 0, 238]",238,a,0.25532478850800544,1,colour,0.5,3.9
58,21,0,1,12,7,557,855.6846547630848,856.4941139819566,"[97, 0, 157]",157,l,0.2861983214970678,1,colour,0.5,3.9
58,21,0,1,12,8,558,857.0128011538181,857.6861474368488,"[80, 0, 174]",174,l,0.15002827811986208,1,colour,0.5,3.9
58,21,0,1,12,9,559,858.2002341016196,858.8301624848973,"[30, 0, 224]",224,a,0.10659659374505281,1,colour,0.5,3.9
58,21,0,1,12,10,560,859.3408644432202,860.0061467436608,"[62, 0, 192]",192,l,0.1420430646976456,1,colour,0.5,3.9
58,21,0,1,12,11,561,860.5127385323867,861.2781162222382,"[73, 0, 181]",181,l,0.2420218758052215,1,colour,0.5,3.9
58,21,0,1,12,12,562,861.7940315108281,862.4941376127535,"[27, 0, 227]",227,a,0.17686017078813165,1,colour,0.5,3.9
58,21,0,1,12,13,563,863.0127365632216,863.6541325399885,"[90, 0, 164]",164,l,0.11803346744272858,1,colour,0.5,3.9
58,21,0,1,12,14,564,864.1689596340293,864.9421267961152,"[59, 0, 195]",195,l,0.2597437327494845,1,colour,0.5,3.9
58,21,0,1,12,15,565,865.4564383466495,866.1421202583006,"[45, 0, 209]",209,l,0.1625537401996553,0,colour,0.5,3.9
58,21,0,1,12,16,566,866.6593312979676,868.614126915927,"[19, 0, 235]",235,a,1.4316272742580622,1,colour,0.5,3.9
58,21,0,1,12,17,567,869.1281808916247,869.7900918762898,"[88, 0, 166]",166,l,0.13868435192853212,1,colour,0.5,3.9
58,21,0,1,12,18,568,870.3000136270421,870.9741369668627,"[38, 0, 216]",216,a,0.15084905177354813,1,colour,0.5,3.9
58,21,0,1,12,19,569,871.4875548824202,872.2060834920267,"[18, 0, 236]",236,a,0.19536774908192456,1,colour,0.5,3.9
58,21,0,1,12,20,570,872.721903863945,873.3901108596474,"[4, 0, 250]",250,a,0.14494570449460298,1,colour,0.5,3.9
58,21,0,1,12,21,571,873.9093828917248,874.6381495100213,"[32, 0, 222]",222,a,0.20553919789381325,1,colour,0.5,3.9
58,21,0,1,12,22,572,875.1437432947569,875.82212725305,"[83, 0, 171]",171,l,0.15504429186694324,1,colour,0.5,3.9
58,21,0,1,12,23,573,876.3312530424446,876.9980567672756,"[81, 0, 173]",173,l,0.14348847686778754,1,colour,0.5,3.9
58,21,0,1,12,24,574,877.5187462486792,878.2461296822876,"[76, 0, 178]",178,l,0.2044395818375051,1,colour,0.5,3.9
58,21,0,1,12,25,575,878.7531015317654,879.5260946142953,"[52, 0, 202]",202,a,0.24973100365605205,0,colour,0.5,3.9
58,21,0,1,12,26,576,880.0343027441995,880.758100216277,"[3, 0, 251]",251,a,0.20045229187235236,1,colour,0.5,3.9
58,21,0,1,12,27,577,881.2687285256106,882.0940640424378,"[21, 0, 233]",233,a,0.30199624435044825,1,colour,0.5,3.9
58,21,0,1,12,28,578,882.6124609502731,883.2700695688836,"[78, 0, 176]",176,l,0.13425122923217714,1,colour,0.5,3.9
58,21,0,1,12,29,579,883.778359224787,884.4701032032026,"[92, 0, 162]",162,l,0.16834050917532295,1,colour,0.5,3.9
58,21,0,1,12,30,580,884.9814806062495,885.6940779057331,"[2, 0, 252]",252,a,0.18920288851950318,1,colour,0.5,3.9
58,21,0,1,12,31,581,886.2002388278488,886.8460242104484,"[33, 0, 221]",221,a,0.1224752546986565,1,colour,0.5,3.9
58,21,0,1,12,32,582,887.3583933160407,888.1421072614612,"[54, 0, 200]",200,a,0.26065036468207836,0,colour,0.5,3.9
58,21,0,1,12,33,583,888.6552215222036,889.3101417528233,"[40, 0, 214]",214,l,0.13161719182971865,0,colour,0.5,3.9
58,21,0,1,12,34,584,889.8271066391608,890.5581146311015,"[41, 0, 213]",213,l,0.2076513902284205,0,colour,0.5,3.9
58,21,0,1,12,35,585,891.0770956114866,891.8460257858969,"[95, 0, 159]",159,l,0.24598592869006097,1,colour,0.5,3.9
58,21,0,1,12,36,586,892.3583838636987,893.1180657627992,"[48, 0, 206]",206,a,0.23648598627187312,1,colour,0.5,3.9
58,21,0,1,12,37,587,893.6396528175101,894.3900742320111,"[65, 0, 189]",189,l,0.2271439756732434,1,colour,0.5,3.9
58,21,0,1,12,38,588,894.9052360944916,895.5261060358025,"[56, 0, 198]",198,l,0.09760037937667221,1,colour,0.5,3.9
58,21,0,1,12,39,589,896.0458735253196,896.6781110235024,"[43, 0, 211]",211,a,0.10764107154682279,1,colour,0.5,3.9
58,21,0,1,12,40,590,897.1877559010172,897.8940623095259,"[77, 0, 177]",177,l,0.183017548173666,1,colour,0.5,3.9
58,21,0,1,12,41,591,898.4064889164874,899.0860752844019,"[9, 0, 245]",245,a,0.1563168060965836,1,colour,0.5,3.9
58,21,0,1,12,42,592,899.5939982702257,900.4540752748726,"[51, 0, 203]",203,a,0.33677435969002545,0,colour,0.5,3.9
58,21,0,1,12,43,593,900.9624783581821,901.7100384866353,"[28, 0, 226]",226,a,0.22433388943318278,1,colour,0.5,3.9
58,21,0,1,12,44,594,902.2299942341633,903.0620471764123,"[60, 0, 194]",194,l,0.31168680789414793,1,colour,0.5,3.9
58,21,0,1,12,45,595,903.5708606465487,904.4300077824155,"[0, 0, 254]",254,a,0.3358338571852073,1,colour,0.5,3.9
58,21,0,1,12,46,596,904.9458801419241,905.6541459307773,"[98, 0, 156]",156,l,0.18497023324016482,1,colour,0.5,3.9
58,21,0,1,12,47,597,906.1646426956868,906.8220973208081,"[89, 0, 165]",165,l,0.13424374617170542,1,colour,0.5,3.9
58,21,0,1,12,48,598,907.3364742496051,907.9980685827322,"[34, 0, 220]",220,a,0.1382471836404875,1,colour,0.5,3.9
58,21,0,1,12,49,599,908.5083770896308,909.2940055170329,"[42, 0, 212]",212,a,0.2626550372224301,1,colour,0.5,3.9
58,21,0,1,12,50,600,909.8052135666367,910.5339703387581,"[44, 0, 210]",210,l,0.20550532720517367,0,colour,0.5,3.9
58,21,0,1,13,1,601,920.5699973376468,921.3099893346662,"[93, 0, 161]",161,l,0.2152313367696479,1,colour,0.5,3.8
58,21,0,1,13,2,602,921.8222442250699,922.4300479546655,"[24, 0, 230]",230,a,0.08454716461710632,1,colour,0.5,3.8
58,21,0,1,13,3,603,922.9472515111556,923.5500396208372,"[70, 0, 184]",184,l,0.07958116917870939,1,colour,0.5,3.8
58,21,0,1,13,4,604,924.0565463390667,924.6939530568197,"[29, 0, 225]",225,a,0.11415802966803312,1,colour,0.5,3.8
58,21,0,1,13,5,605,925.2127115146723,925.9899884525221,"[28, 0, 226]",226,a,0.2541720033623278,1,colour,0.5,3.8
58,21,0,1,13,6,606,926.5096299115103,927.1499884997029,"[50, 0, 204]",204,l,0.11704058339819312,0,colour,0.5,3.8
58,21,0,1,13,7,607,927.6678426887374,928.3339485197794,"[45, 0, 209]",209,a,0.14285477984230965,1,colour,0.5,3.8
58,21,0,1,13,8,608,928.855311082676,929.486020067241,"[5, 0, 249]",249,a,0.10742721345741302,1,colour,0.5,3.8
58,21,0,1,13,9,609,929.9958079106873,930.605991647346,"[77, 0, 177]",177,l,0.08678971964400262,1,colour,0.5,3.8
58,21,0,1,13,10,610,931.1208813628182,931.7579387397273,"[94, 0, 160]",160,l,0.11370156286284328,1,colour,0.5,3.8
58,21,0,1,13,11,611,932.2775912263896,932.9099626319949,"[96, 0, 158]",158,l,0.10949056898243725,1,colour,0.5,3.8
58,21,0,1,13,12,612,933.4177635258529,933.9739853363717,"[80, 0, 174]",174,l,0.033018414629623294,1,colour,0.5,3.8
58,21,0,1,13,13,613,934.4802132120822,935.2059499785537,"[26, 0, 228]",228,a,0.20239710004534572,1,colour,0.5,3.8
58,21,0,1,13,14,614,935.7145413198741,936.3259530662326,"[49, 0, 205]",205,a,0.08797283098101616,1,colour,0.5,3.8
58,21,0,1,13,15,615,936.8379712556489,937.5899404821685,"[69, 0, 185]",185,l,0.228672489291057,1,colour,0.5,3.8
58,21,0,1,13,16,616,938.1035828895401,938.8059602972353,"[7, 0, 247]",247,a,0.17906688596121967,1,colour,0.5,3.8
58,21,0,1,13,17,617,939.3223375664093,940.0539745292626,"[98, 0, 156]",156,l,0.20827839185949415,1,colour,0.5,3.8
58,21,0,1,13,18,618,940.5723363849102,941.2059369815979,"[99, 0, 155]",155,l,0.12002356769517064,1,colour,0.5,3.8
58,21,0,1,13,19,619,941.7190567562357,942.4139928509248,"[54, 0, 200]",200,a,0.17170709883794188,0,colour,0.5,3.8
58,21,0,1,13,20,620,942.922153719468,943.6460106621962,"[33, 0, 221]",221,a,0.20021598471794277,1,colour,0.5,3.8
58,21,0,1,13,21,621,944.1575239418307,944.9339808938093,"[85, 0, 169]",169,l,0.2531558823538944,1,colour,0.5,3.8
58,21,0,1,13,22,622,945.4544687262969,946.2300257417373,"[75, 0, 179]",179,l,0.25228075811173767,1,colour,0.5,3.8
58,21,0,1,13,23,623,946.7513154433109,947.4059205976082,"[21, 0, 233]",233,a,0.13133244158234447,1,colour,0.5,3.8
58,21,0,1,13,24,624,947.9232017417671,948.6219041789882,"[48, 0, 206]",206,a,0.17612289229873568,1,colour,0.5,3.8
58,21,0,1,13,25,625,949.141873317305,949.9499020901276,"[31, 0, 223]",223,a,0.28451738983858377,1,colour,0.5,3.8
58,21,0,1,13,26,626,950.4700008034706,951.1899417424574,"[36, 0, 218]",218,a,0.19668319239281118,1,colour,0.5,3.8
58,21,0,1,13,27,627,951.7044293418294,952.525940226973,"[0, 0, 254]",254,a,0.2991113275056705,1,colour,0.5,3.8
58,21,0,1,13,28,628,953.0325343788136,953.8699487370905,"[51, 0, 203]",203,a,0.3141770916990936,0,colour,0.5,3.8
58,21,0,1,13,29,629,954.3769867526134,955.2138985643396,"[35, 0, 219]",219,a,0.314345657476224,1,colour,0.5,3.8
58,21,0,1,13,30,630,955.7356171634747,956.5179900656221,"[9, 0, 245]",245,a,0.26199416478630155,1,colour,0.5,3.8
58,21,0,1,13,31,631,957.0295962928794,957.8379023326561,"[13, 0, 241]",241,a,0.2850522317457944,1,colour,0.5,3.8
58,21,0,1,13,32,632,958.3577923080884,959.1499136690982,"[3, 0, 251]",251,a,0.26897152804303914,1,colour,0.5,3.8
58,21,0,1,13,33,633,959.6702782281209,960.3739021562506,"[92, 0, 162]",162,l,0.18041816912591457,1,colour,0.5,3.8
58,21,0,1,13,34,634,960.8889588620514,961.6379584950628,"[37, 0, 217]",217,a,0.22569777572061867,1,colour,0.5,3.8
58,21,0,1,13,35,635,962.154633117374,962.9019313385943,"[27, 0, 227]",227,a,0.22402117622550577,1,colour,0.5,3.8
58,21,0,1,13,36,636,963.4201967021218,964.3659067028202,"[57, 0, 197]",197,l,0.4223195282975212,1,colour,0.5,3.8
58,21,0,1,13,37,637,964.8733283235924,965.5018723405665,"[78, 0, 176]",176,l,0.10523822123650461,1,colour,0.5,3.8
58,21,0,1,13,38,638,966.0140212866245,966.7418820606545,"[16, 0, 238]",238,a,0.20357548515312374,1,colour,0.5,3.8
58,21,0,1,13,39,639,967.2493875705404,967.9338714048499,"[79, 0, 175]",175,l,0.16111187252681702,1,colour,0.5,3.8
58,21,0,1,13,40,640,968.452598355012,969.1738649772014,"[89, 0, 165]",165,l,0.19793325732462108,1,colour,0.5,3.8
58,21,0,1,13,41,641,969.6869599396596,970.4058674285188,"[74, 0, 180]",180,l,0.19560484390240163,1,colour,0.5,3.8
58,21,0,1,13,42,642,970.9213431858225,971.7018799812067,"[40, 0, 214]",214,a,0.2572770796250552,1,colour,0.5,3.8
58,21,0,1,13,43,643,972.218158395146,973.0298641076079,"[12, 0, 242]",242,a,0.2883597445907071,1,colour,0.5,3.8
58,21,0,1,13,44,644,973.5463169950526,974.237884530914,"[62, 0, 192]",192,l,0.16823298949748278,1,colour,0.5,3.8
58,21,0,1,13,45,645,974.7493832382606,975.485892855213,"[56, 0, 198]",198,l,0.21322587656322867,1,colour,0.5,3.8
58,21,0,1,13,46,646,975.9994442843599,976.6538576360326,"[42, 0, 212]",212,l,0.13123713119421154,0,colour,0.5,3.8
58,21,0,1,13,47,647,977.1720473811729,977.8059118542587,"[47, 0, 207]",207,l,0.11077292927075177,0,colour,0.5,3.8
58,21,0,1,13,48,648,978.3124642585171,979.1099399464438,"[58, 0, 196]",196,l,0.274152169120498,1,colour,0.5,3.8
58,21,0,1,13,49,649,979.6249675077852,980.7738752959995,"[90, 0, 164]",164,l,0.625776072149165,1,colour,0.5,3.8
58,21,0,1,13,50,650,981.2812346892897,982.0538496803492,"[59, 0, 195]",195,a,0.249284383142367,0,colour,0.5,3.8
58,21,0,1,14,1,651,987.5772314880742,988.3418104596203,"[85, 0, 169]",169,l,0.2404969068011269,1,colour,0.5,3.8
58,21,0,1,14,2,652,988.8592771048425,989.6298645802308,"[68, 0, 186]",186,l,0.24741204245947301,1,colour,0.5,3.8
58,21,0,1,14,3,653,990.1405086433515,991.4298466996988,"[55, 0, 199]",199,l,0.766079128254205,1,colour,0.5,3.8
58,21,0,1,14,4,654,991.9374234955758,992.6698477552272,"[3, 0, 251]",251,a,0.20982620399445295,1,colour,0.5,3.8
58,21,0,1,14,5,655,993.1873549665324,993.9978180970065,"[20, 0, 234]",234,a,0.2877516474109143,1,colour,0.5,3.8
58,21,0,1,14,6,656,994.5155060833786,995.3498539621942,"[79, 0, 175]",175,l,0.3109936402179301,1,colour,0.5,3.8
58,21,0,1,14,7,657,995.8592365387594,996.6138591010822,"[14, 0, 240]",240,a,0.23140813875943422,1,colour,0.5,3.8
58,21,0,1,14,8,658,997.1248840126209,997.8618083485635,"[97, 0, 157]",157,l,0.21373275539372116,1,colour,0.5,3.8
58,21,0,1,14,9,659,998.3748343880288,999.373767067329,"[25, 0, 229]",229,a,0.47583640925586224,1,colour,0.5,3.8
58,21,0,1,14,10,660,999.8904381450266,1000.7738548160996,"[30, 0, 224]",224,a,0.36014238302595913,1,colour,0.5,3.8
58,21,0,1,14,11,661,1001.281129138777,1002.0937662953511,"[35, 0, 219]",219,a,0.28930024709552526,1,colour,0.5,3.8
58,21,0,1,14,12,662,1002.6093168832595,1003.9578215313377,"[52, 0, 202]",202,l,0.8253548152279109,1,colour,0.5,3.8
58,21,0,1,14,13,663,1004.4687022955623,1005.5417842295719,"[8, 0, 246]",246,a,0.5497434491990134,1,colour,0.5,3.8
58,21,0,1,14,14,664,1006.0623736741254,1006.8778236738872,"[90, 0, 164]",164,l,0.29211348411627114,1,colour,0.5,3.8
58,21,0,1,14,15,665,1007.390500372625,1008.1911004353315,"[18, 0, 236]",236,a,0.27736437146086246,1,colour,0.5,3.8
58,21,0,1,14,16,666,1008.7030126802856,1010.1978540945565,"[15, 0, 239]",239,a,0.9715127756353468,1,colour,0.5,3.8
58,21,0,1,14,17,667,1010.7186522771372,1011.7497818097472,"[48, 0, 206]",206,l,0.5078450045548379,0,colour,0.5,3.8
58,21,0,1,14,18,668,1012.2655344401719,1013.0777769638225,"[21, 0, 233]",233,a,0.2890686660539359,1,colour,0.5,3.8
58,21,0,1,14,19,669,1013.5954491962912,1014.3098144673277,"[50, 0, 204]",204,l,0.19109334598761052,0,colour,0.5,3.8
58,21,0,1,14,20,670,1014.8298332301201,1015.6378375844797,"[7, 0, 247]",247,a,0.284675715607591,1,colour,0.5,3.8
58,21,0,1,14,21,671,1016.157957171672,1016.8857624136144,"[80, 0, 174]",174,l,0.20452228921931237,1,colour,0.5,3.8
58,21,0,1,14,22,672,1017.3922734641237,1018.1737468236824,"[11, 0, 243]",243,a,0.2581683516036719,1,colour,0.5,3.8
58,21,0,1,14,23,673,1018.694878199487,1019.4377929224866,"[60, 0, 194]",194,l,0.22517041687387973,1,colour,0.5,3.8
58,21,0,1,14,24,674,1019.9549039254198,1020.7177484021522,"[5, 0, 249]",249,a,0.23953513649757951,1,colour,0.5,3.8
58,21,0,1,14,25,675,1021.2361606700579,1021.9657480618916,"[81, 0, 173]",173,l,0.2062764762667939,1,colour,0.5,3.8
58,21,0,1,14,26,676,1022.4870184650645,1023.2297925853636,"[99, 0, 155]",155,l,0.2194226385327056,1,colour,0.5,3.8
58,21,0,1,14,27,677,1023.7370598188136,1024.509792963392,"[16, 0, 238]",238,a,0.24950217944569886,1,colour,0.5,3.8
58,21,0,1,14,28,678,1025.008973371354,1025.7737882562215,"[43, 0, 211]",211,a,0.23871003068052232,1,colour,0.5,3.8
58,21,0,1,14,29,679,1026.2930665898602,1027.1177932218416,"[29, 0, 225]",225,a,0.3014964546309784,1,colour,0.5,3.8
58,21,0,1,14,30,680,1027.6367576606572,1028.309790048981,"[49, 0, 205]",205,l,0.14870929019525647,0,colour,0.5,3.8
58,21,0,1,14,31,681,1028.825579700875,1029.533747422276,"[0, 0, 254]",254,a,0.1850458513945341,1,colour,0.5,3.8
58,21,0,1,14,32,682,1030.0442280395655,1030.7737075178884,"[87, 0, 167]",167,l,0.20628789777401835,1,colour,0.5,3.8
58,21,0,1,14,33,683,1031.2944363837596,1032.133747894899,"[65, 0, 189]",189,l,0.3162695917999372,1,colour,0.5,3.8
58,21,0,1,14,34,684,1032.653783199261,1033.4857388617238,"[71, 0, 183]",183,l,0.3089113801252097,1,colour,0.5,3.8
58,21,0,1,14,35,685,1033.9973706888268,1034.6697319647064,"[74, 0, 180]",180,l,0.14907714177388698,1,colour,0.5,3.8
58,21,0,1,14,36,686,1035.1848540488863,1035.9417349201394,"[36, 0, 218]",218,a,0.2335821648593992,1,colour,0.5,3.8
58,21,0,1,14,37,687,1036.4504314181395,1037.2377588942181,"[2, 0, 252]",252,a,0.264071304933168,1,colour,0.5,3.8
58,21,0,1,14,38,688,1037.7473549350398,1038.5097417635843,"[39, 0, 215]",215,a,0.23911884205881506,1,colour,0.5,3.8
58,21,0,1,14,39,689,1039.0286057719495,1039.8857123953057,"[33, 0, 221]",221,l,0.33378034771885723,0,colour,0.5,3.8
58,21,0,1,14,40,690,1040.403570128954,1041.2057030375581,"[84, 0, 170]",170,l,0.27888540213461965,1,colour,0.5,3.8
58,21,0,1,14,41,691,1041.7160808611661,1042.7577737185638,"[67, 0, 187]",187,l,0.5188537683570758,1,colour,0.5,3.8
58,21,0,1,14,42,692,1043.2807128442219,1044.0696917136665,"[98, 0, 156]",156,l,0.26562541839666665,1,colour,0.5,3.8
58,21,0,1,14,43,693,1044.577625727281,1045.3017067679903,"[76, 0, 178]",178,l,0.20085243869107217,1,colour,0.5,3.8
58,21,0,1,14,44,694,1045.8127647625515,1046.7018094828818,"[47, 0, 207]",207,l,0.3658807090250775,0,colour,0.5,3.8
58,21,0,1,14,45,695,1047.2201162001584,1047.9497217088938,"[66, 0, 188]",188,l,0.20629223005380481,1,colour,0.5,3.8
58,21,0,1,14,46,696,1048.470103597152,1049.2297945545288,"[40, 0, 214]",214,a,0.2346392455510795,1,colour,0.5,3.8
58,21,0,1,14,47,697,1049.7380720012588,1050.4297029461013,"[89, 0, 165]",165,l,0.16826764773577452,1,colour,0.5,3.8
58,21,0,1,14,48,698,1050.9412244965788,1051.7336904723197,"[58, 0, 196]",196,l,0.26931732438970357,1,colour,0.5,3.8
58,21,0,1,14,49,699,1052.2537245950662,1052.981740938034,"[92, 0, 162]",162,l,0.2046916427789256,1,colour,0.5,3.8
58,21,0,1,14,50,700,1053.4880546720233,1054.1177270557964,"[72, 0, 182]",182,l,0.10637997882440686,1,colour,0.5,3.8
58,21,0,1,15,1,701,1059.3309419046855,1060.1976737133227,"[54, 0, 200]",200,a,0.34251268568914384,0,colour,0.5,3.8
58,21,0,1,15,2,702,1060.7067723275395,1061.3096561415587,"[87, 0, 167]",167,l,0.07957407995127141,1,colour,0.5,3.8
58,21,0,1,15,3,703,1061.8161723121302,1062.5817418044899,"[21, 0, 233]",233,a,0.242317259660922,1,colour,0.5,3.8
58,21,0,1,15,4,704,1063.0989319703076,1063.7577977431938,"[83, 0, 171]",171,l,0.13609600067138672,1,colour,0.5,3.8
58,21,0,1,15,5,705,1064.2708363856655,1064.9096877279226,"[39, 0, 215]",215,a,0.1154852882027626,1,colour,0.5,3.8
58,21,0,1,15,6,706,1065.4271126255626,1066.045712836436,"[12, 0, 242]",242,a,0.0952089506899938,1,colour,0.5,3.8
58,21,0,1,15,7,707,1066.5521529947873,1067.1656918996014,"[99, 0, 155]",155,l,0.09025437687523663,1,colour,0.5,3.8
58,21,0,1,15,8,708,1067.6779873559717,1068.2457031478407,"[76, 0, 178]",178,l,0.044452925329096615,1,colour,0.5,3.8
58,21,0,1,15,9,709,1068.756056553102,1069.4057476995513,"[49, 0, 205]",205,l,0.12641252612229437,0,colour,0.5,3.8
58,21,0,1,15,10,710,1069.912900324096,1070.5736565543339,"[9, 0, 245]",245,a,0.13749927142634988,1,colour,0.5,3.8
58,21,0,1,15,11,711,1071.0754702119157,1071.789712997037,"[36, 0, 218]",218,a,0.19105593068525195,1,colour,0.5,3.8
58,21,0,1,15,12,712,1072.3098317965632,1073.0297077511204,"[52, 0, 202]",202,a,0.1964669714216143,0,colour,0.5,3.8
58,21,0,1,15,13,713,1073.5461669400102,1074.1336380121065,"[72, 0, 182]",182,l,0.06409911043010652,1,colour,0.5,3.8
58,21,0,1,15,14,714,1074.6400313028134,1075.2696580005577,"[68, 0, 186]",186,l,0.10641266801394522,1,colour,0.5,3.8
58,21,0,1,15,15,715,1075.7712471663253,1076.557710545836,"[63, 0, 191]",191,l,0.26305439637508243,1,colour,0.5,3.8
58,21,0,1,15,16,716,1077.0681624123827,1077.7736913702684,"[45, 0, 209]",209,a,0.18221764836926013,1,colour,0.5,3.8
58,21,0,1,15,17,717,1078.286897397018,1078.8376455456018,"[66, 0, 188]",188,l,0.027495522052049637,1,colour,0.5,3.8
58,21,0,1,15,18,718,1079.3494089170126,1080.0617380078183,"[53, 0, 201]",201,a,0.18916035327129066,0,colour,0.5,3.8
58,21,0,1,15,19,719,1080.5680741909891,1081.2616385224974,"[10, 0, 244]",244,a,0.17056100897025317,1,colour,0.5,3.8
58,21,0,1,15,20,720,1081.7712294432567,1082.4776425838936,"[40, 0, 214]",214,a,0.18303527124226093,1,colour,0.5,3.8
58,21,0,1,15,21,721,1082.989993572468,1083.6376406619092,"[22, 0, 232]",232,a,0.12443109054584056,1,colour,0.5,3.8
58,21,0,1,15,22,722,1084.1462497262983,1084.7896728249034,"[74, 0, 180]",180,l,0.11997197405435145,1,colour,0.5,3.8
58,21,0,1,15,23,723,1085.3023885142757,1085.8936310488498,"[78, 0, 176]",176,l,0.06792098516598344,1,colour,0.5,3.8
58,21,0,1,15,24,724,1086.4118176433258,1087.221634867601,"[43, 0, 211]",211,a,0.2865090655395761,1,colour,0.5,3.8
58,21,0,1,15,25,725,1087.7399435541593,1088.5015868027695,"[96, 0, 158]",158,l,0.2383161853067577,1,colour,0.5,3.8
58,21,0,1,15,26,726,1089.0212897015736,1089.757602002006,"[88, 0, 166]",166,l,0.21311520598828793,1,colour,0.5,3.8
58,21,0,1,15,27,727,1090.2712396832649,1090.981614513672,"[61, 0, 193]",193,a,0.1870241364231333,0,colour,0.5,3.8
58,21,0,1,15,28,728,1091.4899707294535,1092.0456600611797,"[4, 0, 250]",250,a,0.03239850222598761,1,colour,0.5,3.8
58,21,0,1,15,29,729,1092.5524534987053,1093.1496237990214,"[75, 0, 179]",179,l,0.07384560001082718,1,colour,0.5,3.8
58,21,0,1,15,30,730,1093.6619062585523,1094.3736776644364,"[27, 0, 227]",227,a,0.1884211057331413,1,colour,0.5,3.8
58,21,0,1,15,31,731,1094.8806014647707,1095.5816433432046,"[50, 0, 204]",204,a,0.17772938730195165,1,colour,0.5,3.8
58,21,0,1,15,32,732,1096.099344326416,1096.6376162434462,"[17, 0, 237]",237,a,0.01500235521234572,1,colour,0.5,3.8
58,21,0,1,15,33,733,1097.146198920207,1097.8696269654902,"[1, 0, 253]",253,a,0.20005135738756508,1,colour,0.5,3.8
58,21,0,1,15,34,734,1098.3806656616507,1099.0055748802843,"[3, 0, 251]",251,a,0.10171763820108026,1,colour,0.5,3.8
58,21,0,1,15,35,735,1099.5212117201881,1100.2298264560523,"[25, 0, 229]",229,a,0.18623644579201937,1,colour,0.5,3.8
58,21,0,1,15,36,736,1100.7399191356963,1101.4215980037116,"[42, 0, 212]",212,a,0.15870705316774547,1,colour,0.5,3.8
58,21,0,1,15,37,737,1101.9430617849575,1103.125606324873,"[77, 0, 177]",177,l,0.6598956782836467,1,colour,0.5,3.8
58,21,0,1,15,38,738,1103.6462867477676,1104.3655979280593,"[81, 0, 173]",173,l,0.1960754890460521,1,colour,0.5,3.8
58,21,0,1,15,39,739,1104.8813202325255,1105.485582111287,"[35, 0, 219]",219,a,0.08175913372542709,1,colour,0.5,3.8
58,21,0,1,15,40,740,1106.0055559757166,1106.7817037591012,"[65, 0, 189]",189,l,0.2529585659503937,1,colour,0.5,3.8
58,21,0,1,15,41,741,1107.3024215972982,1108.0615670789266,"[59, 0, 195]",195,l,0.23589718737639487,1,colour,0.5,3.8
58,21,0,1,15,42,742,1108.5680954586715,1109.2935628348496,"[94, 0, 160]",160,l,0.2024805952096358,1,colour,0.5,3.8
58,21,0,1,15,43,743,1109.8023251051782,1110.3736339475727,"[56, 0, 198]",198,a,0.04790773615241051,0,colour,0.5,3.8
58,21,0,1,15,44,744,1110.880520726554,1111.6215835890034,"[38, 0, 216]",216,a,0.21780590363778174,1,colour,0.5,3.8
58,21,0,1,15,45,745,1112.1306814154377,1112.877588942065,"[67, 0, 187]",187,l,0.2237309121992439,1,colour,0.5,3.8
58,21,0,1,15,46,746,1113.3961004589219,1114.1976091227261,"[28, 0, 226]",226,a,0.278182388166897,1,colour,0.5,3.8
58,21,0,1,15,47,747,1114.7086336404318,1115.4537397186505,"[46, 0, 208]",208,a,0.22201886668335646,1,colour,0.5,3.8
58,21,0,1,15,48,748,1115.9743287694873,1116.8055999288335,"[0, 0, 254]",254,a,0.3081536217359826,1,colour,0.5,3.8
58,21,0,1,15,49,749,1117.3180044804467,1118.2215541293845,"[30, 0, 224]",224,a,0.38026709016412497,1,colour,0.5,3.8
58,21,0,1,15,50,750,1118.7408194660675,1119.5335705857724,"[31, 0, 223]",223,a,0.2694917977787554,1,colour,0.5,3.8
58,21,0,1,16,1,751,1125.052496821736,1127.5335512873717,"[26, 0, 228]",228,a,1.9573729415424168,1,colour,0.5,3.8
58,21,0,1,16,2,752,1128.0533491029637,1128.8294984616805,"[45, 0, 209]",209,a,0.2536284967791289,1,colour,0.5,3.8
58,21,0,1,16,3,753,1129.350199364475,1130.005523286527,"[32, 0, 222]",222,a,0.13197716639842838,1,colour,0.5,3.8
58,21,0,1,16,4,754,1130.522068333812,1131.3335389206186,"[37, 0, 217]",217,a,0.28821638494264334,1,colour,0.5,3.8
58,21,0,1,16,5,755,1131.850233629113,1132.5415042055538,"[9, 0, 245]",245,a,0.1680971127934754,1,colour,0.5,3.8
58,21,0,1,16,6,756,1133.0532860876992,1133.8615539245075,"[42, 0, 212]",212,a,0.28565048275049776,1,colour,0.5,3.8
58,21,0,1,16,7,757,1134.3813552847132,1135.125510226586,"[95, 0, 159]",159,l,0.22078258637338877,1,colour,0.5,3.8
58,21,0,1,16,8,758,1135.6313548908802,1136.4615299787838,"[18, 0, 236]",236,a,0.3068133662454784,1,colour,0.5,3.8
58,21,0,1,16,9,759,1136.9751369400183,1137.637578828144,"[85, 0, 169]",169,l,0.13938382116612047,1,colour,0.5,3.8
58,21,0,1,16,10,760,1138.1346643728903,1138.8295260308078,"[16, 0, 238]",238,a,0.1715188407106325,1,colour,0.5,3.8
58,21,0,1,16,11,761,1139.337774332962,1139.9895343488315,"[61, 0, 193]",193,l,0.12842862028628588,1,colour,0.5,3.8
58,21,0,1,16,12,762,1140.509705529781,1141.2136772233061,"[52, 0, 202]",202,l,0.18132086261175573,1,colour,0.5,3.8
58,21,0,1,16,13,763,1141.7283889206592,1142.365475048311,"[41, 0, 213]",213,l,0.11374212894588709,0,colour,0.5,3.8
58,21,0,1,16,14,764,1142.8846974559128,1143.6855200412683,"[14, 0, 240]",240,a,0.277618401683867,1,colour,0.5,3.8
58,21,0,1,16,15,765,1144.1972062189598,1144.7975615462055,"[92, 0, 162]",162,l,0.07786400360055268,1,colour,0.5,3.8
58,21,0,1,16,16,766,1145.3065325544449,1145.9495811061934,"[74, 0, 180]",180,l,0.1198041959432885,1,colour,0.5,3.8
58,21,0,1,16,17,767,1146.462802492897,1147.1016073614592,"[69, 0, 185]",185,l,0.11559832189232111,1,colour,0.5,3.8
58,21,0,1,16,18,768,1147.6190239883726,1148.2855835291557,"[79, 0, 175]",175,l,0.14321002829819918,1,colour,0.5,3.8
58,21,0,1,16,19,769,1148.806455754675,1149.4935468448093,"[12, 0, 242]",242,a,0.16380774369463325,1,colour,0.5,3.8
58,21,0,1,16,20,770,1150.0096310930094,1150.701510160463,"[64, 0, 190]",190,l,0.16869851457886398,1,colour,0.5,3.8
58,21,0,1,16,21,771,1151.2126867023762,1151.94150491443,"[89, 0, 165]",165,l,0.20550611487124115,1,colour,0.5,3.8
58,21,0,1,16,22,772,1152.447161320597,1153.045506461407,"[82, 0, 172]",172,l,0.0751059049507603,1,colour,0.5,3.8
58,21,0,1,16,23,773,1153.5565593360225,1154.4295603741193,"[77, 0, 177]",177,l,0.35011074924841523,1,colour,0.5,3.8
58,21,0,1,16,24,774,1154.9472444220446,1155.6614923271118,"[72, 0, 182]",182,l,0.19117250898852944,1,colour,0.5,3.8
58,21,0,1,16,25,775,1156.1814000254963,1156.765448581893,"[68, 0, 186]",186,l,0.060671868501231074,1,colour,0.5,3.8
58,21,0,1,16,26,776,1157.2752620253013,1157.9974872670136,"[93, 0, 161]",161,l,0.1991620546905324,1,colour,0.5,3.8
58,21,0,1,16,27,777,1158.5095326317241,1159.149491466931,"[94, 0, 160]",160,l,0.1165860858745873,1,colour,0.5,3.8
58,21,0,1,16,28,778,1159.6657789393794,1160.2935927670915,"[33, 0, 221]",221,a,0.10450921359006315,1,colour,0.5,3.8
58,21,0,1,16,29,779,1160.806424640934,1161.453472297755,"[30, 0, 224]",224,a,0.12373831658624113,1,colour,0.5,3.8
58,21,0,1,16,30,780,1161.9626244748943,1162.717492796597,"[44, 0, 210]",210,a,0.23158536909613758,1,colour,0.5,3.8
58,21,0,1,16,31,781,1163.2282999115996,1163.861484213965,"[73, 0, 181]",181,l,0.10984306060709059,1,colour,0.5,3.8
58,21,0,1,16,32,782,1164.3688979578437,1165.0774729152909,"[46, 0, 208]",208,a,0.18087778671178967,1,colour,0.5,3.8
58,21,0,1,16,33,783,1165.5919908407377,1166.1814551638672,"[87, 0, 167]",167,l,0.06631764094345272,1,colour,0.5,3.8
58,21,0,1,16,34,784,1166.7021887558512,1167.4214211672079,"[67, 0, 187]",187,l,0.19702701945789158,1,colour,0.5,3.8
58,21,0,1,16,35,785,1167.935807548347,1168.52544870798,"[21, 0, 233]",233,a,0.06639640999492258,1,colour,0.5,3.8
58,21,0,1,16,36,786,1169.0451476683374,1169.677468267968,"[90, 0, 164]",164,l,0.10912074835505337,1,colour,0.5,3.8
58,21,0,1,16,37,787,1170.1857031793334,1170.8295441477094,"[84, 0, 170]",170,l,0.12059070495888591,1,colour,0.5,3.8
58,21,0,1,16,38,788,1171.3421019051457,1171.9735269004013,"[1, 0, 253]",253,a,0.10871705680619925,1,colour,0.5,3.8
58,21,0,1,16,39,789,1172.4826062162174,1173.2694445364177,"[40, 0, 214]",214,a,0.2636097182985395,1,colour,0.5,3.8
58,21,0,1,16,40,790,1173.7795769944787,1174.5414262241684,"[7, 0, 247]",247,a,0.2385186217725277,1,colour,0.5,3.8
58,21,0,1,16,41,791,1175.0617801492335,1175.8135233086068,"[19, 0, 235]",235,a,0.22900686401408166,1,colour,0.5,3.8
58,21,0,1,16,42,792,1176.315121138934,1177.0134636015864,"[43, 0, 211]",211,a,0.1749374179635197,1,colour,0.5,3.8
58,21,0,1,16,43,793,1177.5339585234178,1178.2535509092268,"[53, 0, 201]",201,a,0.19630470708943903,0,colour,0.5,3.8
58,21,0,1,16,44,794,1178.7682941142702,1179.5414061379852,"[15, 0, 239]",239,a,0.24982198188081384,1,colour,0.5,3.8
58,21,0,1,16,45,795,1180.04952880356,1180.7254161763703,"[75, 0, 179]",179,l,0.1527233615051955,1,colour,0.5,3.8
58,21,0,1,16,46,796,1181.2370294927387,1181.9814144403208,"[91, 0, 163]",163,l,0.22107481956481934,1,colour,0.5,3.8
58,21,0,1,16,47,797,1182.5026434897445,1183.2534240910318,"[54, 0, 200]",200,a,0.22747401800006628,0,colour,0.5,3.8
58,21,0,1,16,48,798,1183.7682874188758,1184.4614102498163,"[24, 0, 230]",230,a,0.1697949799709022,1,colour,0.5,3.8
58,21,0,1,16,49,799,1184.971476147999,1185.6854475736618,"[49, 0, 205]",205,a,0.19059434405062348,1,colour,0.5,3.8
58,21,0,1,16,50,800,1186.206937348703,1186.9494452294894,"[38, 0, 216]",216,a,0.2191725467564538,1,colour,0.5,3.8
