id,age,condition,counterbalance,block,trialinblock,trial,tstart,tend,trialstim,trialintensity,response,RT,accuracy,trialtype,colourfreq,credits
43,20,1,2,Practice,1,NA,7.876893505454063e-06,0.6308146804803982,"[58, 0, 196]",196,a,0.0601279444526881,0,colour,0.5,4
43,20,1,2,Practice,2,NA,1.1416294713271782,2.00678792106919,"[7, 0, 247]",247,a,0.3427496455842629,1,colour,0.5,4
43,20,1,2,Practice,3,NA,2.5220886081224307,3.358829555218108,"[75, 0, 179]",179,l,0.31850808300077915,1,colour,0.5,4
43,20,1,2,Practice,4,NA,3.8772203512489796,5.510843935306184,"[38, 0, 216]",216,a,1.1104117296636105,1,colour,0.5,4
43,20,1,2,Practice,5,NA,6.019249181495979,6.782871595816687,"[2, 0, 252]",252,a,0.24240774859208614,1,colour,0.5,4
43,20,1,2,Practice,6,NA,7.29979059251491,8.030912511632778,"[63, 0, 191]",191,l,0.20838976802770048,1,colour,0.5,4
43,20,1,2,Practice,7,NA,8.549692426691763,9.294786790036596,"[27, 0, 227]",227,a,0.22266350383870304,1,colour,0.5,4
43,20,1,2,Practice,8,NA,9.815211008419283,11.406805801670998,"[94, 0, 160]",160,l,1.0688512206543237,1,colour,0.5,4
43,20,1,2,Practice,9,NA,11.912465947214514,12.76671685569454,"[88, 0, 166]",166,l,0.33432096568867564,1,colour,0.5,4
43,20,1,2,Practice,10,NA,13.274380097631365,14.030792388832197,"[29, 0, 225]",225,a,0.23307676939293742,1,colour,0.5,4
43,20,1,2,1,1,1,4.520456119906157,5.407943620346487,"[54, 0, 200]",200,a,0.3634875618154183,0,colour,0.5,4.0
43,20,1,2,1,2,2,5.927565576275811,6.839974415837787,"[56, 0, 198]",198,a,0.38900951493997127,0,colour,0.5,4.0
43,20,1,2,1,3,3,7.349552532890812,8.279908108059317,"[32, 0, 222]",222,a,0.41261738061439246,1,colour,0.5,4.0
43,20,1,2,1,4,4,8.78725863690488,9.647920950548723,"[41, 0, 213]",213,a,0.33745321608148515,1,colour,0.5,4.0
43,20,1,2,1,5,5,10.162418587249704,10.967900832998566,"[8, 0, 246]",246,a,0.2823723971378058,1,colour,0.5,4.0
43,20,1,2,1,6,6,11.475208826595917,12.311886364710517,"[87, 0, 167]",167,l,0.3134755298960954,1,colour,0.5,4.0
43,20,1,2,1,7,7,12.816975040826946,13.759933266905136,"[71, 0, 183]",183,l,0.4256300242850557,1,colour,0.5,4.0
43,20,1,2,1,8,8,14.272817713906989,15.07996119838208,"[81, 0, 173]",173,l,0.28383080568164587,1,colour,0.5,4.0
43,20,1,2,1,9,9,15.600907261716202,16.35994216776453,"[12, 0, 242]",242,a,0.23584431933704764,1,colour,0.5,4.0
43,20,1,2,1,10,10,16.866696808952838,17.63187412393745,"[80, 0, 174]",174,l,0.2419757004827261,1,colour,0.5,4.0
43,20,1,2,1,11,11,18.15324947843328,18.99192262988072,"[77, 0, 177]",177,l,0.3153321157442406,1,colour,0.5,4.0
43,20,1,2,1,12,12,19.509615532355383,20.343919759616256,"[50, 0, 204]",204,a,0.3121329117566347,1,colour,0.5,4.0
43,20,1,2,1,13,13,20.852278925827704,21.679849582724273,"[36, 0, 218]",218,a,0.30420677817892283,1,colour,0.5,4.0
43,20,1,2,1,14,14,22.196123067173176,22.95185006794054,"[10, 0, 244]",244,a,0.23734644474461675,1,colour,0.5,4.0
43,20,1,2,1,15,15,23.461103656562045,24.21584722585976,"[3, 0, 251]",251,a,0.22413451538886875,1,colour,0.5,4.0
43,20,1,2,1,16,16,24.72486529510934,25.559916252736002,"[64, 0, 190]",190,l,0.31645299901720136,1,colour,0.5,4.0
43,20,1,2,1,17,17,26.080763460951857,26.92788025853224,"[59, 0, 195]",195,l,0.31532778358086944,1,colour,0.5,4.0
43,20,1,2,1,18,18,27.438188564381562,28.24788101471495,"[73, 0, 181]",181,l,0.2913524602772668,1,colour,0.5,4.0
43,20,1,2,1,19,19,28.768328863894567,29.535833409870975,"[20, 0, 234]",234,a,0.24881088314577937,1,colour,0.5,4.0
43,20,1,2,1,20,20,30.05649235995952,30.64782524621114,"[40, 0, 214]",214,a,0.0743394527817145,1,colour,0.5,4.0
43,20,1,2,1,21,21,31.170274616451934,31.959810072090477,"[19, 0, 235]",235,a,0.2578697152202949,1,colour,0.5,4.0
43,20,1,2,1,22,22,32.46807865402661,33.2238182578003,"[4, 0, 250]",250,a,0.23293813597410917,1,colour,0.5,4.0
43,20,1,2,1,23,23,33.742698997142725,34.51190731720999,"[68, 0, 186]",186,l,0.24249124387279153,1,colour,0.5,4.0
43,20,1,2,1,24,24,35.03524441446643,35.759821414831094,"[47, 0, 207]",207,a,0.20722989412024617,1,colour,0.5,4.0
43,20,1,2,1,25,25,36.27341557084583,37.03985397797078,"[15, 0, 239]",239,a,0.24989671411458403,1,colour,0.5,4.0
43,20,1,2,1,26,26,37.555938416859135,38.26379235857166,"[48, 0, 206]",206,a,0.1901874269824475,1,colour,0.5,4.0
43,20,1,2,1,27,27,38.779660182539374,39.519854718470015,"[22, 0, 232]",232,a,0.2204540326492861,1,colour,0.5,4.0
43,20,1,2,1,28,28,40.035542948986404,40.74382893892471,"[85, 0, 169]",169,l,0.1885041327914223,1,colour,0.5,4.0
43,20,1,2,1,29,29,41.28580554528162,42.00783042924013,"[39, 0, 215]",215,a,0.19035953737329692,1,colour,0.5,4.0
43,20,1,2,1,30,30,42.51839434064459,43.3198132859543,"[23, 0, 231]",231,a,0.28400252223946154,1,colour,0.5,4.0
43,20,1,2,1,31,31,43.84060890041292,44.57581499358639,"[27, 0, 227]",227,a,0.20576912246178836,1,colour,0.5,4.0
43,20,1,2,1,32,32,45.089251611498185,45.831850965856574,"[61, 0, 193]",193,l,0.21533089492004365,1,colour,0.5,4.0
43,20,1,2,1,33,33,46.351016061380506,47.04781792068388,"[1, 0, 253]",253,a,0.1648501872550696,1,colour,0.5,4.0
43,20,1,2,1,34,34,47.563675110810436,48.311787903425284,"[9, 0, 245]",245,a,0.230476210010238,1,colour,0.5,4.0
43,20,1,2,1,35,35,48.833150654798374,49.56779945723247,"[34, 0, 220]",220,a,0.2015100810676813,1,colour,0.5,4.0
43,20,1,2,1,36,36,50.084068609401584,50.79979315260425,"[0, 0, 254]",254,a,0.19599743059370667,1,colour,0.5,4.0
43,20,1,2,1,37,37,51.32340082130395,52.08820477116387,"[91, 0, 163]",163,l,0.24614258215297014,1,colour,0.5,4.0
43,20,1,2,1,38,38,52.60235109797213,53.311785540310666,"[28, 0, 226]",226,a,0.18479332386050373,1,colour,0.5,4.0
43,20,1,2,1,39,39,53.83166664629243,54.55178216903005,"[55, 0, 199]",199,l,0.2015927885659039,1,colour,0.5,4.0
43,20,1,2,1,40,40,55.06129096925724,55.807866584160365,"[97, 0, 157]",157,l,0.231007507070899,1,colour,0.5,4.0
43,20,1,2,1,41,41,56.319487182074226,57.05573538958561,"[60, 0, 194]",194,l,0.21016482810955495,1,colour,0.5,4.0
43,20,1,2,1,42,42,57.57257167890202,58.28773066040594,"[92, 0, 162]",162,l,0.1997326579876244,1,colour,0.5,4.0
43,20,1,2,1,43,43,58.799355196766555,59.487789422040805,"[98, 0, 156]",156,l,0.1649817314464599,1,colour,0.5,4.0
43,20,1,2,1,44,44,60.008329824893735,60.991789116407745,"[53, 0, 201]",201,l,0.46027658169623464,1,colour,0.5,4.0
43,20,1,2,1,45,45,61.508262280374765,62.22380801779218,"[75, 0, 179]",179,l,0.19222439406439662,1,colour,0.5,4.0
43,20,1,2,1,46,46,62.742778947693296,63.48776815435849,"[70, 0, 184]",184,l,0.2229218662250787,1,colour,0.5,4.0
43,20,1,2,1,47,47,63.99979362520389,64.65574113978073,"[94, 0, 160]",160,l,0.13839757803361863,1,colour,0.5,4.0
43,20,1,2,1,48,48,65.16590254148468,65.81587463757023,"[44, 0, 210]",210,a,0.1266310604987666,1,colour,0.5,4.0
43,20,1,2,1,49,49,66.3221562707331,67.06375250138808,"[25, 0, 229]",229,a,0.21884163049980998,1,colour,0.5,4.0
43,20,1,2,1,50,50,67.57510843547061,68.23178495746106,"[66, 0, 188]",188,l,0.1337529622251168,1,colour,0.5,4.0
43,20,1,2,2,1,51,79.37768922385294,80.01600507902913,"[15, 0, 239]",239,a,0.11845325981266797,1,colour,0.5,4.0
43,20,1,2,2,2,52,80.53180201095529,81.16790012398269,"[73, 0, 181]",181,l,0.11699957738164812,1,colour,0.5,4.0
43,20,1,2,2,3,53,81.67989999486599,82.30373416398652,"[14, 0, 240]",240,a,0.10428192385006696,1,colour,0.5,4.0
43,20,1,2,2,4,54,82.82459476287477,83.51175568683539,"[2, 0, 252]",252,a,0.17650760966353118,1,colour,0.5,4.0
43,20,1,2,2,5,55,84.0260686102556,84.67184310476296,"[6, 0, 248]",248,a,0.08990933292079717,1,colour,0.5,4.0
43,20,1,2,2,6,56,85.18423012527637,85.80775236908812,"[91, 0, 163]",163,l,0.10875521693378687,1,colour,0.5,4.0
43,20,1,2,2,7,57,86.31658454344142,87.0077343309531,"[58, 0, 196]",196,l,0.1685133408755064,1,colour,0.5,4.0
43,20,1,2,2,8,58,87.51995751203503,88.12773855298292,"[57, 0, 197]",197,a,0.08568179910071194,0,colour,0.5,4.0
43,20,1,2,2,9,59,88.6480087779928,89.28774995880667,"[79, 0, 175]",175,l,0.1163899052189663,1,colour,0.5,4.0
43,20,1,2,2,10,60,89.80437632848043,90.4796348583186,"[63, 0, 191]",191,a,0.15256064326968044,0,colour,0.5,4.0
43,20,1,2,2,11,61,90.98986124445219,91.57572480314411,"[28, 0, 226]",226,a,0.07545442844275385,1,colour,0.5,4.0
43,20,1,2,2,12,62,92.08709767239634,92.79171026858967,"[17, 0, 237]",237,a,0.18112308089621365,1,colour,0.5,4.0
43,20,1,2,2,13,63,93.3062563482672,94.01569197210483,"[93, 0, 161]",161,l,0.18921344785485417,1,colour,0.5,4.0
43,20,1,2,2,14,64,94.53759074688423,95.22369655966759,"[41, 0, 213]",213,a,0.16387975274119526,1,colour,0.5,4.0
43,20,1,2,2,15,65,95.740934177069,96.46365853003226,"[36, 0, 218]",218,a,0.19997132814023644,1,colour,0.5,4.0
43,20,1,2,2,16,66,96.97500461782329,97.67181947396602,"[86, 0, 168]",168,l,0.17452656850218773,1,colour,0.5,4.0
43,20,1,2,2,17,67,98.17841066943947,98.75170662952587,"[88, 0, 166]",166,l,0.05305054725613445,1,colour,0.5,4.0
43,20,1,2,2,18,68,99.26951374695636,99.97570487449411,"[59, 0, 195]",195,l,0.18340344436001033,1,colour,0.5,4.0
43,20,1,2,2,19,69,100.47604456590489,101.1996688550571,"[38, 0, 216]",216,a,0.20085314742755145,1,colour,0.5,4.0
43,20,1,2,2,20,70,101.70824739302043,102.3197486953577,"[3, 0, 251]",251,a,0.08858995174523443,1,colour,0.5,4.0
43,20,1,2,2,21,71,102.83337002655026,103.50371573201846,"[67, 0, 187]",187,l,0.14801055029965937,1,colour,0.5,4.0
43,20,1,2,2,22,72,104.01950006082188,104.67165366525296,"[9, 0, 245]",245,a,0.13127685780636966,1,colour,0.5,4.0
43,20,1,2,2,23,73,105.1829741531983,107.46369948983192,"[68, 0, 186]",186,l,1.7494959766045213,1,colour,0.5,4.0
43,20,1,2,2,24,74,107.97947003412992,108.71976027439814,"[53, 0, 201]",201,l,0.22387575928587466,1,colour,0.5,4.0
43,20,1,2,2,25,75,109.23357065126766,110.1516579502495,"[61, 0, 193]",193,l,0.3990927382837981,1,colour,0.5,4.0
43,20,1,2,2,26,76,110.6756177166244,112.11163028655574,"[98, 0, 156]",156,l,0.9185551869450137,1,colour,0.5,4.0
43,20,1,2,2,27,77,112.62913138640579,113.34364485566039,"[21, 0, 233]",233,a,0.19787961652036756,1,colour,0.5,4.0
43,20,1,2,2,28,78,113.85751430934761,114.6076762782177,"[23, 0, 231]",231,a,0.2321027903817594,1,colour,0.5,4.0
43,20,1,2,2,29,79,115.11482476454694,115.83969636121765,"[80, 0, 174]",174,l,0.20069048937875777,1,colour,0.5,4.0
43,20,1,2,2,30,80,116.35065766237676,116.94361634133384,"[49, 0, 205]",205,a,0.07020289730280638,1,colour,0.5,4.0
43,20,1,2,2,31,81,117.46086892485619,118.13564814510755,"[22, 0, 232]",232,a,0.1526023909682408,1,colour,0.5,4.0
43,20,1,2,2,32,82,118.64945970359258,119.22366426431108,"[50, 0, 204]",204,a,0.05085013434290886,1,colour,0.5,4.0
43,20,1,2,2,33,83,119.74332639249042,120.45570128259715,"[26, 0, 228]",228,a,0.1890921435551718,1,colour,0.5,4.0
43,20,1,2,2,34,84,120.96270483394619,121.6956140223192,"[99, 0, 155]",155,l,0.21100647514685988,1,colour,0.5,4.0
43,20,1,2,2,35,85,122.21135542204138,122.91963629191741,"[29, 0, 225]",225,a,0.18233139789663255,1,colour,0.5,4.0
43,20,1,2,2,36,86,123.43347029958386,124.07164949038997,"[97, 0, 157]",157,l,0.11705629108473659,1,colour,0.5,4.0
43,20,1,2,2,37,87,124.62568760442082,125.63157165085431,"[81, 0, 173]",173,l,0.4822255716426298,1,colour,0.5,4.0
43,20,1,2,2,38,88,126.15011919720564,126.87958342209458,"[35, 0, 219]",219,a,0.20616926904767752,1,colour,0.5,4.0
43,20,1,2,2,39,89,127.40005253895652,128.03968777530827,"[70, 0, 184]",184,l,0.11830084177199751,1,colour,0.5,4.0
43,20,1,2,2,40,90,128.55484431504738,129.25558186881244,"[5, 0, 249]",249,a,0.1815559167880565,1,colour,0.5,4.0
43,20,1,2,2,41,91,129.76969747571275,130.5275988954818,"[43, 0, 211]",211,a,0.23496013693511486,1,colour,0.5,4.0
43,20,1,2,2,42,92,131.0373396705836,131.74358633032534,"[0, 0, 254]",254,a,0.19543501967564225,1,colour,0.5,4.0
43,20,1,2,2,43,93,132.25945060967933,133.00764807895757,"[37, 0, 217]",217,a,0.22520459280349314,1,colour,0.5,4.0
43,20,1,2,2,44,94,133.5224426748464,134.271569618606,"[46, 0, 208]",208,a,0.22717696917243302,1,colour,0.5,4.0
43,20,1,2,2,45,95,134.79408082261216,135.53561797656585,"[30, 0, 224]",224,a,0.21997944917529821,1,colour,0.5,4.0
43,20,1,2,2,46,96,136.05256060394458,136.81554695835803,"[48, 0, 206]",206,a,0.2398587828502059,1,colour,0.5,4.0
43,20,1,2,2,47,97,137.33383023459464,138.3996019801125,"[82, 0, 172]",172,l,0.5426941922632977,1,colour,0.5,4.0
43,20,1,2,2,48,98,138.90621562476736,139.65559226635378,"[66, 0, 188]",188,l,0.23552530480083078,1,colour,0.5,4.0
43,20,1,2,2,49,99,140.16279904171824,140.8795712129213,"[84, 0, 170]",170,l,0.19394667888991535,1,colour,0.5,4.0
43,20,1,2,2,50,100,141.39812466700096,142.1355406253133,"[85, 0, 169]",169,l,0.21546637755818665,1,colour,0.5,4.0
43,20,1,2,3,1,101,150.24205840809736,151.01556160941254,"[46, 0, 208]",208,l,0.2494886905187741,0,colour,0.5,4.0
43,20,1,2,3,2,102,151.52417756279465,152.1516134457197,"[36, 0, 218]",218,a,0.10393849085085094,1,colour,0.5,4.0
43,20,1,2,3,3,103,152.6649842915358,153.38357090728823,"[81, 0, 173]",173,l,0.1952900846954435,1,colour,0.5,4.0
43,20,1,2,3,4,104,153.892410564702,154.63965611020103,"[86, 0, 168]",168,l,0.2304411578224972,1,colour,0.5,4.0
43,20,1,2,3,5,105,155.1993600804126,155.91150260192808,"[31, 0, 223]",223,a,0.19319876690860838,1,colour,0.5,4.0
43,20,1,2,3,6,106,156.4209893469233,157.17555292905308,"[0, 0, 254]",254,a,0.2235661968588829,1,colour,0.5,4.0
43,20,1,2,3,7,107,157.6862444463186,158.4315258860588,"[59, 0, 195]",195,l,0.21349912113510072,1,colour,0.5,4.0
43,20,1,2,3,8,108,158.9506972831441,159.64756570220925,"[90, 0, 164]",164,l,0.17851661366876215,1,colour,0.5,4.0
43,20,1,2,3,9,109,160.16644959233236,160.91151126660407,"[61, 0, 193]",193,l,0.21529623656533659,1,colour,0.5,4.0
43,20,1,2,3,10,110,161.42855353676714,162.09556061693002,"[37, 0, 217]",217,a,0.15002506820019335,1,colour,0.5,4.0
43,20,1,2,3,11,111,162.6191513503436,163.61556420882698,"[51, 0, 203]",203,a,0.47663730289787054,0,colour,0.5,4.0
43,20,1,2,3,12,112,164.12250395712908,164.98352348839398,"[78, 0, 176]",176,l,0.3401522369822487,1,colour,0.5,4.0
43,20,1,2,3,13,113,165.50026919320226,166.23951889458112,"[8, 0, 246]",246,a,0.21258540044073015,1,colour,0.5,4.0
43,20,1,2,3,14,114,166.75556197960395,167.39156635757536,"[10, 0, 244]",244,a,0.11221042042598128,1,colour,0.5,4.0
43,20,1,2,3,15,115,167.9118885701755,168.63153935561422,"[65, 0, 189]",189,l,0.19683750229887664,1,colour,0.5,4.0
43,20,1,2,3,16,116,169.14434975967743,169.85547261615284,"[58, 0, 196]",196,l,0.188076023128815,1,colour,0.5,4.0
43,20,1,2,3,17,117,170.36330718069803,171.10345366748516,"[13, 0, 241]",241,a,0.21724143775645643,1,colour,0.5,4.0
43,20,1,2,3,18,118,171.61342169123236,172.31145746726543,"[98, 0, 156]",156,l,0.17559625196736306,1,colour,0.5,4.0
43,20,1,2,3,19,119,172.83205812843516,173.58345204486977,"[48, 0, 206]",206,a,0.2284183690790087,1,colour,0.5,4.0
43,20,1,2,3,20,120,174.1007668558741,174.71957437950186,"[23, 0, 231]",231,a,0.10141118662431836,1,colour,0.5,4.0
43,20,1,2,3,21,121,175.24042985832784,175.9834667746909,"[25, 0, 229]",229,a,0.2115098093636334,1,colour,0.5,4.0
43,20,1,2,3,22,122,176.5066329430556,177.1914867220912,"[87, 0, 167]",167,l,0.16546261636540294,1,colour,0.5,4.0
43,20,1,2,3,23,123,177.7135646963725,178.43144829862285,"[53, 0, 201]",201,a,0.20049553597345948,0,colour,0.5,4.0
43,20,1,2,3,24,124,178.95464794384316,179.76748170296196,"[18, 0, 236]",236,a,0.2840529343811795,1,colour,0.5,4.0
43,20,1,2,3,25,125,180.2811294218991,181.00767092197202,"[82, 0, 172]",172,l,0.2084984693210572,1,colour,0.5,4.0
43,20,1,2,3,26,126,181.5207920698449,182.22343189571984,"[95, 0, 159]",159,l,0.18518913816660643,1,colour,0.5,4.0
43,20,1,2,3,27,127,182.74550593155436,183.66344750777353,"[33, 0, 221]",221,a,0.4001088588265702,1,colour,0.5,4.0
43,20,1,2,3,28,128,184.1758195622824,184.88764582609292,"[71, 0, 183]",183,l,0.1881874812534079,1,colour,0.5,4.0
43,20,1,2,3,29,129,185.39784070465248,186.13553471770138,"[83, 0, 171]",171,l,0.21450460783671588,1,colour,0.5,4.0
43,20,1,2,3,30,130,186.64877716987394,187.19148593442515,"[21, 0, 233]",233,a,0.021110887522809207,1,colour,0.5,4.0
43,20,1,2,3,31,131,187.71045331971254,188.40744304307736,"[43, 0, 211]",211,a,0.17336984537541866,1,colour,0.5,4.0
43,20,1,2,3,32,132,188.91382865142077,189.60748408176005,"[66, 0, 188]",188,l,0.1820068694651127,1,colour,0.5,4.0
43,20,1,2,3,33,133,190.12085295829456,190.81566786882468,"[62, 0, 192]",192,l,0.17446749180089682,1,colour,0.5,4.0
43,20,1,2,3,34,134,191.33696090965532,192.09551768784877,"[49, 0, 205]",205,a,0.23537682520691305,1,colour,0.5,4.0
43,20,1,2,3,35,135,192.60278235841542,193.34348298527766,"[45, 0, 209]",209,a,0.21724655770231038,1,colour,0.5,4.0
43,20,1,2,3,36,136,193.85259360820055,194.56753597478382,"[41, 0, 213]",213,a,0.20156088704243302,1,colour,0.5,4.0
43,20,1,2,3,37,137,195.0874103854876,195.79156415211037,"[91, 0, 163]",163,l,0.18782632530201226,1,colour,0.5,4.0
43,20,1,2,3,38,138,196.3003656064393,196.95145110273734,"[24, 0, 230]",230,a,0.12538217741530389,1,colour,0.5,4.0
43,20,1,2,3,39,139,197.45902966801077,198.18343416426796,"[27, 0, 227]",227,a,0.20210006111301482,1,colour,0.5,4.0
43,20,1,2,3,40,140,198.6937278979458,199.39938772830646,"[11, 0, 243]",243,a,0.1797548629110679,1,colour,0.5,4.0
43,20,1,2,3,41,141,199.91345056006685,200.62374831095804,"[80, 0, 174]",174,l,0.18719302234239876,1,colour,0.5,4.0
43,20,1,2,3,42,142,201.14463844825514,201.87145603366662,"[35, 0, 219]",219,a,0.2039527086308226,1,colour,0.5,4.0
43,20,1,2,3,43,143,202.36736811802257,203.10339459066745,"[94, 0, 160]",160,l,0.21203165408223867,1,colour,0.5,4.0
43,20,1,2,3,44,144,203.6176188988611,204.35141108813696,"[6, 0, 248]",248,a,0.2114905109629035,1,colour,0.5,4.0
43,20,1,2,3,45,145,204.86636125284713,205.59943900699727,"[29, 0, 225]",225,a,0.2117961347103119,1,colour,0.5,4.0
43,20,1,2,3,46,146,206.1139681513887,206.83943799871486,"[76, 0, 178]",178,l,0.201961821410805,1,colour,0.5,4.0
43,20,1,2,3,47,147,207.34858682460617,208.09536251286045,"[84, 0, 170]",170,l,0.22393010987434536,1,colour,0.5,4.0
43,20,1,2,3,48,148,208.61427751672454,209.3834090369055,"[12, 0, 242]",242,a,0.24633871705736965,1,colour,0.5,4.0
43,20,1,2,3,49,149,209.8966148615582,210.67936357774306,"[85, 0, 169]",169,l,0.2605423483764753,1,colour,0.5,4.0
43,20,1,2,3,50,150,211.19354023074266,211.98335177183617,"[60, 0, 194]",194,l,0.2673412971198559,1,colour,0.5,4.0
43,20,1,2,4,1,151,218.2341117945034,219.12742662767414,"[49, 0, 205]",205,a,0.3736145020229742,1,colour,0.5,4.0
43,20,1,2,4,2,152,219.64529715420213,220.3914911331376,"[13, 0, 241]",241,a,0.22692333289887756,1,colour,0.5,4.0
43,20,1,2,4,3,153,220.90946366568096,221.6235383914318,"[34, 0, 220]",220,a,0.19460558181162924,1,colour,0.5,4.0
43,20,1,2,4,4,154,222.1349218946416,222.87958342209458,"[7, 0, 247]",247,a,0.22549288731534034,1,colour,0.5,4.0
43,20,1,2,4,5,155,223.39142142259516,224.06348389899358,"[98, 0, 156]",156,l,0.15286744863260537,1,colour,0.5,4.0
43,20,1,2,4,6,156,224.5660889877472,225.32125948532484,"[94, 0, 160]",160,l,0.23711368220392615,1,colour,0.5,4.0
43,20,1,2,4,7,157,225.8344739745371,226.53538403252605,"[46, 0, 208]",208,a,0.1782740051858127,1,colour,0.5,4.0
43,20,1,2,4,8,158,227.05307654105127,227.79938197822776,"[47, 0, 207]",207,a,0.22318928712047637,1,colour,0.5,4.0
43,20,1,2,4,9,159,228.31878062395845,228.97539885679726,"[95, 0, 159]",159,l,0.13365056237671524,1,colour,0.5,4.0
43,20,1,2,4,10,160,229.4907688605599,230.25531129713636,"[58, 0, 196]",196,a,0.23748310888186097,0,colour,0.5,4.0
43,20,1,2,4,11,161,230.77276356017683,231.447808232042,"[66, 0, 188]",188,l,0.15208960440941155,1,colour,0.5,4.0
43,20,1,2,4,12,162,231.9603543661069,232.70331566419918,"[33, 0, 221]",221,a,0.22031106683425605,1,colour,0.5,4.0
43,20,1,2,4,13,163,233.2106870667776,233.83140395162627,"[11, 0, 243]",243,a,0.09743847057688981,1,colour,0.5,4.0
43,20,1,2,4,14,164,234.35154696472455,235.07947952579707,"[75, 0, 179]",179,l,0.19734438101295382,1,colour,0.5,4.0
43,20,1,2,4,15,165,235.61031267757062,236.33543318440206,"[83, 0, 171]",171,l,0.2019452799577266,1,colour,0.5,4.0
43,20,1,2,4,16,166,236.8453791528009,237.72733549191616,"[59, 0, 195]",195,l,0.3596708085387945,1,colour,0.5,4.0
43,20,1,2,4,17,167,238.23589827609248,239.0073487565387,"[50, 0, 204]",204,a,0.2402573541039601,1,colour,0.5,4.0
43,20,1,2,4,18,168,239.5178114498267,240.27944337076042,"[5, 0, 249]",249,a,0.23227883921936154,1,colour,0.5,4.0
43,20,1,2,4,19,169,240.78957484022249,241.55127607798204,"[36, 0, 218]",218,a,0.23870048427488655,1,colour,0.5,4.0
43,20,1,2,4,20,170,242.07093899382744,242.83972511184402,"[99, 0, 155]",155,l,0.24554078676737845,1,colour,0.5,4.0
43,20,1,2,4,21,171,243.3522141383728,244.1113400226459,"[4, 0, 250]",250,a,0.23573601187672466,1,colour,0.5,4.0
43,20,1,2,4,22,172,244.61796390730888,245.32727625756525,"[6, 0, 248]",248,a,0.18602015147916973,1,colour,0.5,4.0
43,20,1,2,4,23,173,245.83863337314688,246.5672669785563,"[82, 0, 172]",172,l,0.21183079306501895,1,colour,0.5,4.0
43,20,1,2,4,24,174,247.0892906022491,247.86332313145977,"[9, 0, 245]",245,a,0.2548138707643375,1,colour,0.5,4.0
43,20,1,2,4,25,175,248.38156781089492,249.1272848433582,"[68, 0, 186]",186,l,0.2142923251958564,1,colour,0.5,4.0
43,20,1,2,4,26,176,249.64707930351142,250.4313907972537,"[28, 0, 226]",226,a,0.26606523897498846,1,colour,0.5,4.0
43,20,1,2,4,27,177,250.95167953299824,251.65534493152518,"[96, 0, 158]",158,l,0.18133654491975904,1,colour,0.5,4.0
43,20,1,2,4,28,178,252.1787418932654,252.98328678740654,"[77, 0, 177]",177,l,0.2859867140650749,1,colour,0.5,4.0
43,20,1,2,4,29,179,253.49863749276847,254.2712718717521,"[18, 0, 236]",236,a,0.23932354734279215,1,colour,0.5,4.0
43,20,1,2,4,30,180,254.79186623136047,255.887283488526,"[53, 0, 201]",201,l,0.5762750046560541,1,colour,0.5,4.0
43,20,1,2,4,31,181,256.38973143312614,257.18330340774264,"[39, 0, 215]",215,a,0.2702021882869303,1,colour,0.5,4.0
43,20,1,2,4,32,182,257.69604488892946,258.4712585597299,"[93, 0, 161]",161,l,0.2518521551974118,1,colour,0.5,4.0
43,20,1,2,4,33,183,258.97751774371136,259.7432594387792,"[31, 0, 223]",223,a,0.24245816085021943,1,colour,0.5,4.0
43,20,1,2,4,34,184,260.2519478596514,260.9993312509032,"[29, 0, 225]",225,a,0.22398642962798476,1,colour,0.5,4.0
43,20,1,2,4,35,185,261.5177031423664,262.207289758604,"[14, 0, 240]",240,a,0.1664377769920975,1,colour,0.5,4.0
43,20,1,2,4,36,186,262.72855129186064,263.5592707406031,"[78, 0, 176]",176,l,0.3078199134906754,1,colour,0.5,4.0
43,20,1,2,4,37,187,264.0807481009979,264.6393311879365,"[10, 0, 244]",244,a,0.03532475873362273,1,colour,0.5,4.0
43,20,1,2,4,38,188,265.14417725556996,265.86327980842907,"[84, 0, 170]",170,l,0.17294764332473278,1,colour,0.5,4.0
43,20,1,2,4,39,189,266.3736527049914,267.1912445073249,"[57, 0, 197]",197,l,0.2860997475218028,1,colour,0.5,4.0
43,20,1,2,4,40,190,267.701708775945,268.4232531688176,"[27, 0, 227]",227,a,0.20334815641399473,1,colour,0.5,4.0
43,20,1,2,4,41,191,268.9387826798484,269.7191994388122,"[21, 0, 233]",233,a,0.25972393807023764,1,colour,0.5,4.0
43,20,1,2,4,42,192,270.2416409321595,271.0152469271561,"[1, 0, 253]",253,a,0.25453030224889517,1,colour,0.5,4.0
43,20,1,2,4,43,193,271.5378991275793,272.27929449733347,"[72, 0, 182]",182,l,0.22310342884156853,1,colour,0.5,4.0
43,20,1,2,4,44,194,272.7922612580005,273.5592640452087,"[38, 0, 216]",216,a,0.24760059686377645,1,colour,0.5,4.0
43,20,1,2,4,45,195,274.07730904524215,274.78322684415616,"[35, 0, 219]",219,a,0.1825196557911113,1,colour,0.5,4.0
43,20,1,2,4,46,196,275.29419326537754,276.03122758772224,"[91, 0, 163]",163,l,0.21564282022882253,1,colour,0.5,4.0
43,20,1,2,4,47,197,276.55046908929944,277.45525308686774,"[70, 0, 184]",184,l,0.3816410660510883,1,colour,0.5,4.0
43,20,1,2,4,48,198,277.9724966119975,278.70315930759534,"[73, 0, 181]",181,l,0.20811407640576363,1,colour,0.5,4.0
43,20,1,2,4,49,199,279.2226233315887,280.0072538398672,"[55, 0, 199]",199,l,0.2613674539607018,1,colour,0.5,4.0
43,20,1,2,4,50,200,280.5225911544403,281.17516893008724,"[79, 0, 175]",175,l,0.12928045680746436,1,colour,0.5,4.0
43,20,1,2,5,1,201,289.62929916440044,290.3432104444364,"[32, 0, 222]",222,a,0.1956638436531648,1,colour,0.4,4.0
43,20,1,2,5,2,202,290.86263547779527,291.5991774938302,"[42, 0, 212]",212,a,0.2176470982376486,1,colour,0.4,4.0
43,20,1,2,5,3,203,292.11786327988375,292.7511910862522,"[74, 0, 180]",180,l,0.11494213039986789,1,colour,0.4,4.0
43,20,1,2,5,4,204,293.26341426721774,293.9031188203953,"[3, 0, 251]",251,a,0.12038191955070943,1,colour,0.4,4.0
43,20,1,2,5,5,205,294.42360487254336,295.15117233921774,"[93, 0, 161]",161,l,0.21264644642360508,1,colour,0.4,4.0
43,20,1,2,5,6,206,295.67515888705384,296.3991939565167,"[85, 0, 169]",169,l,0.19591708609368652,1,colour,0.4,4.0
43,20,1,2,5,7,207,296.92139796121046,297.5911521113012,"[18, 0, 236]",236,a,0.14105839584954083,1,colour,0.4,4.0
43,20,1,2,5,8,208,298.108980496414,298.7271696830867,"[66, 0, 188]",188,l,0.0938607812859118,1,colour,0.4,4.0
43,20,1,2,5,9,209,299.24367553624325,300.40712521004025,"[12, 0, 242]",242,a,0.6457390483701602,1,colour,0.4,4.0
43,20,1,2,5,10,210,300.9259539619088,301.7111882347381,"[80, 0, 174]",174,l,0.2671313777100295,1,colour,0.4,4.0
43,20,1,2,5,11,211,302.22523885720875,303.01516697660554,"[23, 0, 231]",231,a,0.26830346090719104,1,colour,0.4,4.0
43,20,1,2,5,12,212,303.5291884545004,304.2871706126025,"[59, 0, 195]",195,l,0.23953661764971912,1,colour,0.4,4.0
43,20,1,2,5,13,213,304.8028738092398,305.5751753890654,"[78, 0, 176]",176,l,0.25199197023175657,1,colour,0.4,4.0
43,20,1,2,5,14,214,306.09226964693516,306.85519534919877,"[63, 0, 191]",191,l,0.24796096526551992,1,colour,0.4,4.0
43,20,1,2,5,15,215,307.36560132866725,308.0631629152922,"[51, 0, 203]",203,a,0.17427056934684515,0,colour,0.4,4.0
43,20,1,2,5,16,216,308.5844197223196,309.3031398516614,"[24, 0, 230]",230,a,0.1956756591098383,1,colour,0.4,4.0
43,20,1,2,5,17,217,309.8188355653547,310.5351351223653,"[57, 0, 197]",197,l,0.20476836198940873,1,colour,0.4,4.0
43,20,1,2,5,18,218,311.05088833742775,311.7991696957033,"[54, 0, 200]",200,a,0.23548158793710172,0,colour,0.4,4.0
43,20,1,2,5,19,219,312.3060231920099,313.0471204209607,"[86, 0, 168]",168,l,0.21780187939293683,1,colour,0.4,4.0
43,20,1,2,5,20,220,313.5584936841624,314.14318437187467,"[60, 0, 194]",194,a,0.06135477207135409,0,colour,0.4,4.0
43,20,1,2,5,21,221,314.6454964398872,315.3751142643159,"[61, 0, 193]",193,a,0.20630317647010088,0,colour,0.4,4.0
43,20,1,2,5,22,222,315.89412654796615,316.63916459144093,"[9, 0, 245]",245,a,0.22867279301863164,1,colour,0.4,4.0
43,20,1,2,5,23,223,317.16013861773536,317.8791454663733,"[17, 0, 237]",237,a,0.2004644222324714,1,colour,0.4,4.0
43,20,1,2,5,24,224,318.3984976382926,319.15910280507524,"[68, 0, 186]",186,l,0.24127465626224875,1,colour,0.4,4.0
43,20,1,2,5,25,225,319.6688530324027,320.5271109213354,"[13, 0, 241]",241,a,0.32695724291261286,1,colour,0.4,4.0
43,20,1,2,5,26,226,321.0507760915207,321.9510726175504,"[58, 0, 196]",196,l,0.3814508388750255,1,colour,0.4,4.0
43,20,1,2,5,27,227,322.4609457246261,323.3031319747679,"[69, 0, 185]",185,l,0.3239774105604738,1,colour,0.4,4.0
43,20,1,2,5,28,228,323.8273359250743,324.5990762755973,"[1, 0, 253]",253,a,0.25378751032985747,1,colour,0.4,4.0
43,20,1,2,5,29,229,325.1117614370305,325.8470592962112,"[41, 0, 213]",213,a,0.22052728780545294,1,colour,0.4,4.0
43,20,1,2,5,30,230,326.3608468300663,327.1031531636836,"[2, 0, 252]",252,a,0.2220628900686279,1,colour,0.4,4.0
43,20,1,2,5,31,231,327.6155185227981,328.3830904162023,"[31, 0, 223]",223,a,0.23520077636931092,1,colour,0.4,4.0
43,20,1,2,5,32,232,328.9030538358493,329.6871258717729,"[56, 0, 198]",198,a,0.2519104443490505,0,colour,0.4,4.0
43,20,1,2,5,33,233,330.199674762669,330.8791131710168,"[94, 0, 160]",160,l,0.1608538405271247,1,colour,0.4,4.0
43,20,1,2,5,34,234,331.39224258973263,332.0950419228757,"[30, 0, 224]",224,a,0.18440893094521016,1,colour,0.4,4.0
43,20,1,2,5,35,235,332.6146662418032,333.2550801100442,"[95, 0, 159]",159,l,0.12170051306020468,1,colour,0.4,4.0
43,20,1,2,5,36,236,333.77591471525375,334.487073805416,"[72, 0, 182]",182,l,0.1930388658074662,1,colour,0.4,4.0
43,20,1,2,5,37,237,335.0108965137042,335.68705419194885,"[36, 0, 218]",218,a,0.15774246386718005,1,colour,0.4,4.0
43,20,1,2,5,38,238,336.2019003815949,336.8710298932856,"[39, 0, 215]",215,a,0.14260935806669295,1,colour,0.4,4.0
43,20,1,2,5,39,239,337.395652894862,338.11902354762424,"[44, 0, 210]",210,a,0.19992564199492335,1,colour,0.4,4.0
43,20,1,2,5,40,240,338.63022115593776,339.3510582027957,"[52, 0, 202]",202,a,0.19760077411774546,0,colour,0.4,4.0
43,20,1,2,5,41,241,339.8645373560721,340.58305504894815,"[73, 0, 181]",181,l,0.19511364202480763,1,colour,0.4,4.0
43,20,1,2,5,42,242,341.0914161844412,341.7990401206771,"[92, 0, 162]",162,l,0.190688791917637,1,colour,0.4,4.0
43,20,1,2,5,43,243,342.3194489791058,343.0150184970116,"[96, 0, 158]",158,l,0.1722076084697619,1,colour,0.4,4.0
43,20,1,2,5,44,244,343.52277114172466,344.2631330618169,"[87, 0, 167]",167,l,0.21705593669321388,1,colour,0.4,4.0
43,20,1,2,5,45,245,344.77275607711636,345.4950881602708,"[76, 0, 178]",178,l,0.19900246895849705,1,colour,0.4,4.0
43,20,1,2,5,46,246,346.0121323997155,346.71098422294017,"[67, 0, 187]",187,l,0.1802841906901449,1,colour,0.4,4.0
43,20,1,2,5,47,247,347.2220802191878,347.9350344556151,"[82, 0, 172]",172,l,0.1892292017582804,1,colour,0.4,4.0
43,20,1,2,5,48,248,348.44996335275937,349.1190188215114,"[15, 0, 239]",239,a,0.13614399614743888,1,colour,0.4,4.0
43,20,1,2,5,49,249,349.6399018695811,350.3589784287615,"[8, 0, 246]",246,a,0.20110284525435418,1,colour,0.4,4.0
43,20,1,2,5,50,250,350.87675640173256,351.5670164930634,"[71, 0, 183]",183,l,0.17138880433049053,1,colour,0.4,4.0
43,20,1,2,6,1,251,360.6365762411151,361.2950018293923,"[79, 0, 175]",175,l,0.13903600093908608,1,colour,0.28,4.0
43,20,1,2,6,2,252,361.812686461024,362.8471727236174,"[80, 0, 174]",174,l,0.5168158093001693,1,colour,0.28,4.0
43,20,1,2,6,3,253,363.35624396183994,364.1429839048069,"[92, 0, 162]",162,l,0.2639561981195584,1,colour,0.28,4.0
43,20,1,2,6,4,254,364.6602195529267,365.3509699815186,"[48, 0, 206]",206,a,0.17289959429763258,1,colour,0.28,4.0
43,20,1,2,6,5,255,365.8525695835706,366.56999278080184,"[94, 0, 160]",160,l,0.20027734572067857,1,colour,0.28,4.0
43,20,1,2,6,6,256,367.0840654586209,367.80696113419253,"[83, 0, 171]",171,l,0.21194579591974616,1,colour,0.28,4.0
43,20,1,2,6,7,257,368.32163639506325,369.03903320466634,"[2, 0, 252]",252,a,0.18813234299886972,1,colour,0.28,4.0
43,20,1,2,6,8,258,369.5463199306978,370.28693706239574,"[56, 0, 198]",198,a,0.21729854529257864,0,colour,0.28,4.0
43,20,1,2,6,9,259,370.7975824997993,371.51095933199394,"[86, 0, 168]",168,l,0.1900318581610918,1,colour,0.28,4.0
43,20,1,2,6,10,260,372.03194438596256,372.7269680344034,"[76, 0, 178]",178,l,0.17171451426111162,1,colour,0.28,4.0
43,20,1,2,6,11,261,373.23519014252815,373.95100172550883,"[82, 0, 172]",172,l,0.19241974130272865,1,colour,0.28,4.0
43,20,1,2,6,12,262,374.46964182541706,375.17493262293283,"[90, 0, 164]",164,l,0.18198717711493373,1,colour,0.28,4.0
43,20,1,2,6,13,263,375.68845312984195,376.38300140725914,"[61, 0, 193]",193,a,0.1716830066870898,0,colour,0.28,4.0
43,20,1,2,6,14,264,376.8964864681475,377.6949574825121,"[73, 0, 181]",181,l,0.27910899627022445,1,colour,0.28,4.0
43,20,1,2,6,15,265,378.21147318172734,378.79890503175557,"[30, 0, 224]",224,a,0.06885161448735744,1,colour,0.28,4.0
43,20,1,2,6,16,266,379.3089033815777,380.01492397417314,"[95, 0, 159]",159,l,0.184552684542723,1,colour,0.28,4.0
43,20,1,2,6,17,267,380.5349106306676,381.1669229941908,"[54, 0, 200]",200,a,0.10908644064329565,0,colour,0.28,4.0
43,20,1,2,6,18,268,381.6853519931901,382.45500220754184,"[98, 0, 156]",156,l,0.24013880675192922,1,colour,0.28,4.0
43,20,1,2,6,19,269,382.96544638997875,383.6149190904107,"[31, 0, 223]",223,a,0.13115358422510326,1,colour,0.28,4.0
43,20,1,2,6,20,270,384.1260844033677,384.87097475491464,"[72, 0, 182]",182,l,0.2235027877613902,1,colour,0.28,4.0
43,20,1,2,6,21,271,385.39684624562506,386.1188959417632,"[25, 0, 229]",229,a,0.21137353882659227,1,colour,0.28,4.0
43,20,1,2,6,22,272,386.63296980119776,387.29496362642385,"[21, 0, 233]",233,a,0.142586121102795,1,colour,0.28,4.0
43,20,1,2,6,23,273,387.8083651921479,388.52698764787056,"[84, 0, 170]",170,l,0.18634507374372333,1,colour,0.28,4.0
43,20,1,2,6,24,274,389.0486540539423,389.77492065005936,"[57, 0, 197]",197,a,0.20073066151235253,0,colour,0.28,4.0
43,20,1,2,6,25,275,390.29150251531973,391.0549319455167,"[67, 0, 187]",187,l,0.24621820042375475,1,colour,0.28,4.0
43,20,1,2,6,26,276,391.56726225244347,392.26298615755513,"[38, 0, 216]",216,a,0.1771999894408509,1,colour,0.28,4.0
43,20,1,2,6,27,277,392.7766330887098,393.542902536341,"[35, 0, 219]",219,a,0.24755648628342897,1,colour,0.28,4.0
43,20,1,2,6,28,278,394.06169584207237,394.7830724568339,"[55, 0, 199]",199,a,0.1980182499391958,0,colour,0.28,4.0
43,20,1,2,6,29,279,395.3034206632292,396.03092196397483,"[93, 0, 161]",161,l,0.20929836889263242,1,colour,0.28,4.0
43,20,1,2,6,30,280,396.54539793916047,397.62288894085214,"[64, 0, 190]",190,l,0.5489397885976359,1,colour,0.28,4.0
43,20,1,2,6,31,281,398.1333457262954,398.92693739326205,"[58, 0, 196]",196,a,0.27626582817174494,0,colour,0.28,4.0
43,20,1,2,6,32,282,399.4474817344453,400.15892793773673,"[77, 0, 177]",177,l,0.1803708366351202,1,colour,0.28,4.0
43,20,1,2,6,33,283,400.67067692929413,401.2948970666621,"[23, 0, 231]",231,a,0.09895280515775084,1,colour,0.28,4.0
43,20,1,2,6,34,284,401.81538311881013,402.53486100619193,"[7, 0, 247]",247,a,0.2007184523390606,1,colour,0.28,4.0
43,20,1,2,6,35,285,403.05504340375774,403.71887333504856,"[97, 0, 157]",157,l,0.1462343087187037,1,colour,0.28,4.0
43,20,1,2,6,36,286,404.23034466570243,404.96697332768235,"[66, 0, 188]",188,a,0.2100391915300861,0,colour,0.28,4.0
43,20,1,2,6,37,287,405.4766510875197,406.17486251855735,"[85, 0, 169]",169,l,0.19155761424917728,1,colour,0.28,4.0
43,20,1,2,6,38,288,406.6881837397814,407.43089337076526,"[51, 0, 203]",203,a,0.22165368485730141,0,colour,0.28,4.0
43,20,1,2,6,39,289,407.95150230266154,408.6548801943427,"[12, 0, 242]",242,a,0.17218240234069526,1,colour,0.28,4.0
43,20,1,2,6,40,290,409.16985674668103,409.8548759407131,"[88, 0, 166]",166,l,0.1672404333949089,1,colour,0.28,4.0
43,20,1,2,6,41,291,410.37500950158574,411.0308782471111,"[81, 0, 173]",173,l,0.1389513242756948,1,colour,0.28,4.0
43,20,1,2,6,42,292,411.54883502575103,412.4388955164468,"[52, 0, 202]",202,a,0.35730301146395504,0,colour,0.28,4.0
43,20,1,2,6,43,293,412.95994594867807,413.6948405104922,"[74, 0, 180]",180,l,0.21704215207137167,1,colour,0.28,4.0
43,20,1,2,6,44,294,414.21404577826615,414.9668693525018,"[75, 0, 179]",179,l,0.2344524705549702,1,colour,0.28,4.0
43,20,1,2,6,45,295,415.48388090287335,416.25490406132303,"[59, 0, 195]",195,a,0.24358928413130343,0,colour,0.28,4.0
43,20,1,2,6,46,296,416.7662674783496,417.3749031632906,"[89, 0, 165]",165,l,0.07770013331901282,1,colour,0.28,4.0
43,20,1,2,6,47,297,417.8925318690017,418.54282967501786,"[6, 0, 248]",248,a,0.1271926836343482,1,colour,0.28,4.0
43,20,1,2,6,48,298,419.0571855275193,419.70290724677034,"[18, 0, 236]",236,a,0.12820250261574984,1,colour,0.28,4.0
43,20,1,2,6,49,299,420.2175939291483,420.9988688767189,"[19, 0, 235]",235,a,0.24867736955638975,1,colour,0.28,4.0
43,20,1,2,6,50,300,421.5151262135478,422.1988807708258,"[60, 0, 194]",194,l,0.1505705437157303,1,colour,0.28,4.0
43,20,1,2,7,1,301,442.1903997095069,443.55880521563813,"[18, 0, 236]",236,a,0.8446111547527835,1,colour,0.14,3.9
43,20,1,2,7,2,302,444.0663711777888,444.8707624723902,"[8, 0, 246]",246,a,0.2812629353720695,1,colour,0.14,3.9
43,20,1,2,7,3,303,445.37898221751675,446.1427456284873,"[62, 0, 192]",192,l,0.24044718756340444,1,colour,0.14,3.9
43,20,1,2,7,4,304,446.65004928968847,447.3747775267111,"[70, 0, 184]",184,l,0.2073508045868948,1,colour,0.14,3.9
43,20,1,2,7,5,305,447.88768639217597,448.5347247357713,"[93, 0, 161]",161,l,0.13075028685852885,1,colour,0.14,3.9
43,20,1,2,7,6,306,449.0524570225971,449.7748198256595,"[5, 0, 249]",249,a,0.19892527535557747,1,colour,0.14,3.9
43,20,1,2,7,7,307,450.28690516087227,450.9748120275326,"[83, 0, 171]",171,l,0.16453156643547118,1,colour,0.14,3.9
43,20,1,2,7,8,308,451.4898602598114,452.206736800028,"[92, 0, 162]",162,l,0.19762243563309312,1,colour,0.14,3.9
43,20,1,2,7,9,309,452.7256325054914,453.4547576296609,"[84, 0, 170]",170,l,0.20578920852858573,1,colour,0.14,3.9
43,20,1,2,7,10,310,453.97576198203024,455.33475773991086,"[56, 0, 198]",198,a,0.8357000143732876,0,colour,0.14,3.9
43,20,1,2,7,11,311,455.85091070784256,456.63872466643807,"[79, 0, 175]",175,l,0.26470883621368557,1,colour,0.14,3.9
43,20,1,2,7,12,312,457.1555948263267,457.91875486646313,"[99, 0, 155]",155,l,0.23311260936316103,1,colour,0.14,3.9
43,20,1,2,7,13,313,458.4279099937994,459.19875552807935,"[33, 0, 221]",221,a,0.2534641633974388,1,colour,0.14,3.9
43,20,1,2,7,14,314,459.70973652158864,460.5827269759029,"[97, 0, 157]",157,l,0.3548221808159724,1,colour,0.14,3.9
43,20,1,2,7,15,315,461.1007869420573,461.91871508816257,"[80, 0, 174]",174,l,0.3010016664629802,1,colour,0.14,3.9
43,20,1,2,7,16,316,462.43200086336583,463.2307692307513,"[65, 0, 189]",189,a,0.2795686135068536,0,colour,0.14,3.9
43,20,1,2,7,17,317,463.74809428176377,464.4627184215933,"[98, 0, 156]",156,l,0.19683947146404535,1,colour,0.14,3.9
43,20,1,2,7,18,318,464.9865356159862,465.90280610730406,"[71, 0, 183]",183,l,0.39922940265387297,1,colour,0.14,3.9
43,20,1,2,7,19,319,466.41382530366536,467.2547331325477,"[57, 0, 197]",197,a,0.3110529883997515,0,colour,0.14,3.9
43,20,1,2,7,20,320,467.7778638548916,468.4147264213534,"[60, 0, 194]",194,a,0.11933389748446643,0,colour,0.14,3.9
43,20,1,2,7,21,321,468.93600489001255,469.6467358705122,"[50, 0, 204]",204,a,0.19383443298283964,1,colour,0.14,3.9
43,20,1,2,7,22,322,470.156144240289,470.9266758799786,"[67, 0, 187]",187,a,0.25414433400146663,0,colour,0.14,3.9
43,20,1,2,7,23,323,471.44226801244076,472.21475154871587,"[52, 0, 202]",202,a,0.2542353122262284,0,colour,0.14,3.9
43,20,1,2,7,24,324,472.72733194730245,473.4867158001289,"[94, 0, 160]",160,l,0.24077762360684574,1,colour,0.14,3.9
43,20,1,2,7,25,325,473.9965668518562,474.9666826699395,"[68, 0, 186]",186,l,0.45123941102065146,1,colour,0.14,3.9
43,20,1,2,7,26,326,475.48232285142876,476.3907030490227,"[54, 0, 200]",200,a,0.37502879987005144,0,colour,0.14,3.9
43,20,1,2,7,27,327,476.9052274673013,477.5987769532949,"[73, 0, 181]",181,l,0.17664230475202203,1,colour,0.14,3.9
43,20,1,2,7,28,328,478.11196938727517,478.814677348244,"[0, 0, 254]",254,a,0.17936062382068485,1,colour,0.14,3.9
43,20,1,2,7,29,329,479.3308937252732,480.73474844521843,"[59, 0, 195]",195,a,0.8805719733936712,0,colour,0.14,3.9
43,20,1,2,7,30,330,481.2528840295272,482.00671387824696,"[86, 0, 168]",168,l,0.23045100388117135,1,colour,0.14,3.9
43,20,1,2,7,31,331,482.52286566456314,483.4547253344208,"[88, 0, 166]",166,l,0.40870295371860266,1,colour,0.14,3.9
43,20,1,2,7,32,332,483.9759663876612,485.2626695060171,"[66, 0, 188]",188,a,0.7633238796843216,0,colour,0.14,3.9
43,20,1,2,7,33,333,485.7742298457306,486.5426922229817,"[96, 0, 158]",158,l,0.24934099859092385,1,colour,0.14,3.9
43,20,1,2,7,34,334,487.0420843230095,487.7906484621344,"[85, 0, 169]",169,l,0.2309531564824283,1,colour,0.14,3.9
43,20,1,2,7,35,335,488.3038889451418,489.0627115686657,"[81, 0, 173]",173,l,0.2402305726427585,1,colour,0.14,3.9
43,20,1,2,7,36,336,489.572096701595,490.3107060107868,"[90, 0, 164]",164,l,0.22060369374230504,1,colour,0.14,3.9
43,20,1,2,7,37,337,490.830870685284,492.07067826832645,"[74, 0, 180]",180,l,0.7188126828987151,1,colour,0.14,3.9
43,20,1,2,7,38,338,492.59000247728545,493.50266534707043,"[55, 0, 199]",199,a,0.39508497016504407,0,colour,0.14,3.9
43,20,1,2,7,39,339,494.01376606943086,494.76666014199145,"[91, 0, 163]",163,l,0.2278532013297081,1,colour,0.14,3.9
43,20,1,2,7,40,340,495.2899869992398,496.0306844753213,"[77, 0, 177]",177,l,0.22284112800844014,1,colour,0.14,3.9
43,20,1,2,7,41,341,496.55215474648867,497.29467257484794,"[58, 0, 196]",196,a,0.21615206194110215,0,colour,0.14,3.9
43,20,1,2,7,42,342,497.81333473022096,498.5826367853442,"[53, 0, 201]",201,a,0.24015771131962538,0,colour,0.14,3.9
43,20,1,2,7,43,343,499.0922810684424,499.83065919042565,"[51, 0, 203]",203,a,0.22054619225673378,0,colour,0.14,3.9
43,20,1,2,7,44,344,500.34407887305133,501.0386326642474,"[61, 0, 193]",193,a,0.1722970112459734,0,colour,0.14,3.9
43,20,1,2,7,45,345,501.5551790833706,502.26263642311096,"[13, 0, 241]",241,a,0.18990267696790397,1,colour,0.14,3.9
43,20,1,2,7,46,346,502.7780064267572,503.47863882395905,"[89, 0, 165]",165,l,0.1818780821049586,1,colour,0.14,3.9
43,20,1,2,7,47,347,503.9871949128574,504.6146016512066,"[11, 0, 243]",243,a,0.10962325159925967,1,colour,0.14,3.9
43,20,1,2,7,48,348,505.13295739504974,505.87861535081174,"[63, 0, 191]",191,l,0.2129835778614506,1,colour,0.14,3.9
43,20,1,2,7,49,349,506.3986847148044,507.1186340347631,"[78, 0, 176]",176,l,0.20091576874256134,1,colour,0.14,3.9
43,20,1,2,7,50,350,507.63883927534334,508.41460748016834,"[75, 0, 179]",179,l,0.2541947461431846,1,colour,0.14,3.9
43,20,1,2,8,1,351,520.2150871048216,521.0306096447166,"[65, 0, 189]",189,l,0.2961644602473825,1,colour,0.06,3.9
43,20,1,2,8,2,352,521.5437812048476,522.2385913892649,"[77, 0, 177]",177,l,0.16259660536888987,1,colour,0.06,3.9
43,20,1,2,8,3,353,522.7491423037136,523.4067175803939,"[54, 0, 200]",200,a,0.12437235855031759,0,colour,0.06,3.9
43,20,1,2,8,4,354,523.9245723531349,524.4625892404001,"[96, 0, 158]",158,l,0.020815503667108715,1,colour,0.06,3.9
43,20,1,2,8,5,355,524.9762617715169,525.6546297087334,"[56, 0, 198]",198,a,0.15917999856173992,0,colour,0.06,3.9
43,20,1,2,8,6,356,526.1715274378657,527.038570042816,"[70, 0, 184]",184,a,0.34104547766037285,0,colour,0.06,3.9
43,20,1,2,8,7,357,527.5577623136342,528.3745250720531,"[82, 0, 172]",172,l,0.2987669890280813,1,colour,0.06,3.9
43,20,1,2,8,8,358,528.8819984805305,529.5106052651536,"[66, 0, 188]",188,a,0.10557019128464162,0,colour,0.06,3.9
43,20,1,2,8,9,359,530.0224645333365,530.5825552594615,"[60, 0, 194]",194,a,0.036829641088843346,0,colour,0.06,3.9
43,20,1,2,8,10,360,531.0964648853987,531.7666014590068,"[79, 0, 175]",175,l,0.1466458768118173,1,colour,0.06,3.9
43,20,1,2,8,11,361,532.2822274621576,532.8705494021997,"[52, 0, 202]",202,a,0.05862700066063553,0,colour,0.06,3.9
43,20,1,2,8,12,362,533.3827174449107,534.0465477700345,"[39, 0, 215]",215,a,0.14057987392880023,1,colour,0.06,3.9
43,20,1,2,8,13,363,534.5546580262017,535.1986547037959,"[90, 0, 164]",164,l,0.1207241709344089,1,colour,0.06,3.9
43,20,1,2,8,14,364,535.7109275092371,536.3745593365747,"[81, 0, 173]",173,l,0.1443643319653347,1,colour,0.06,3.9
43,20,1,2,8,15,365,536.8841669919202,537.5745605968405,"[97, 0, 157]",157,l,0.17026989022269845,1,colour,0.06,3.9
43,20,1,2,8,16,366,538.0913354462245,538.670523723471,"[91, 0, 163]",163,l,0.0587979294359684,1,colour,0.06,3.9
43,20,1,2,8,17,367,539.1821825243533,539.8305603353074,"[34, 0, 220]",220,a,0.13064631167799234,1,colour,0.06,3.9
43,20,1,2,8,18,368,540.3488845714601,540.9825077616842,"[99, 0, 155]",155,l,0.11029869609046727,1,colour,0.06,3.9
43,20,1,2,8,19,369,541.4895601498429,542.0944956596941,"[85, 0, 169]",169,l,0.08164370490703732,1,colour,0.06,3.9
43,20,1,2,8,20,370,542.6069476646371,543.2865719678812,"[94, 0, 160]",160,l,0.1562482153531164,1,colour,0.06,3.9
43,20,1,2,8,21,371,543.7944774245843,544.9825176078593,"[72, 0, 182]",182,l,0.6647058429662138,1,colour,0.06,3.9
43,20,1,2,8,22,372,545.4906258947449,546.2305029914714,"[86, 0, 168]",168,l,0.21634504618123174,1,colour,0.06,3.9
43,20,1,2,8,23,373,546.7407888482558,547.4945040879538,"[71, 0, 183]",183,a,0.2303761732764542,0,colour,0.06,3.9
43,20,1,2,8,24,374,548.0118783696089,548.7505684170173,"[28, 0, 226]",226,a,0.21459676756057888,1,colour,0.06,3.9
43,20,1,2,8,25,375,549.2695310761919,549.9825215463061,"[87, 0, 167]",167,l,0.1804117966676131,1,colour,0.06,3.9
43,20,1,2,8,26,376,550.5060835290933,551.174476944143,"[63, 0, 191]",191,a,0.15099865349475294,0,colour,0.06,3.9
43,20,1,2,8,27,377,551.6956510437885,552.2625155126443,"[55, 0, 199]",199,a,0.0498737923335284,0,colour,0.06,3.9
43,20,1,2,8,28,378,552.7775026988238,553.3985346597619,"[67, 0, 187]",187,a,0.1037210882641375,0,colour,0.06,3.9
43,20,1,2,8,29,379,553.9097019420005,554.7024830755545,"[73, 0, 181]",181,l,0.27397049870342016,1,colour,0.06,3.9
43,20,1,2,8,30,380,555.21076465433,555.9104774229927,"[93, 0, 161]",161,l,0.18182176223490387,1,colour,0.06,3.9
43,20,1,2,8,31,381,556.4270399898523,557.1105034955544,"[75, 0, 179]",179,a,0.16078728064894676,0,colour,0.06,3.9
43,20,1,2,8,32,382,557.6200532558141,558.3184557016939,"[83, 0, 171]",171,l,0.17957566340919584,1,colour,0.06,3.9
43,20,1,2,8,33,383,558.8258881503716,559.3664697572822,"[76, 0, 178]",178,a,0.017179919173941016,0,colour,0.06,3.9
43,20,1,2,8,34,384,559.873034565011,560.5425019958057,"[61, 0, 193]",193,a,0.15267840295564383,0,colour,0.06,3.9
43,20,1,2,8,35,385,561.054558186559,561.7184814591892,"[68, 0, 186]",186,a,0.14634064689744264,0,colour,0.06,3.9
43,20,1,2,8,36,386,562.2366201942787,562.918437033426,"[57, 0, 197]",197,a,0.15772434696555138,0,colour,0.06,3.9
43,20,1,2,8,37,387,563.4247927095275,564.0304615589557,"[69, 0, 185]",185,a,0.08225062023848295,0,colour,0.06,3.9
43,20,1,2,8,38,388,564.5500008073868,565.206475286861,"[59, 0, 195]",195,a,0.13331697566900402,0,colour,0.06,3.9
43,20,1,2,8,39,389,565.7219157888321,566.3024967025267,"[62, 0, 192]",192,a,0.05718631506897509,0,colour,0.06,3.9
43,20,1,2,8,40,390,566.8157419117633,567.470439755707,"[74, 0, 180]",180,l,0.13139698060695082,1,colour,0.06,3.9
43,20,1,2,8,41,391,567.9868534490233,568.606479776674,"[53, 0, 201]",201,a,0.09695955482311547,0,colour,0.06,3.9
43,20,1,2,8,42,392,569.1258280102629,569.7184913052479,"[50, 0, 204]",204,a,0.07109850097913295,1,colour,0.06,3.9
43,20,1,2,8,43,393,570.2418697562534,570.9505212344229,"[95, 0, 159]",159,l,0.1914823898114264,1,colour,0.06,3.9
43,20,1,2,8,44,394,571.4684602899943,572.1664779492421,"[89, 0, 165]",165,l,0.17963080166373402,1,colour,0.06,3.9
43,20,1,2,8,45,395,572.6760678816354,573.3904549266445,"[78, 0, 176]",176,l,0.1965326661011204,1,colour,0.06,3.9
43,20,1,2,8,46,396,573.9136242457898,574.5345770438435,"[84, 0, 170]",170,l,0.10236153495498002,1,colour,0.06,3.9
43,20,1,2,8,47,397,575.0446002058452,575.6864362489432,"[58, 0, 196]",196,a,0.1100438783178106,0,colour,0.06,3.9
43,20,1,2,8,48,398,576.2066509417491,576.8544895786326,"[80, 0, 174]",174,l,0.13001615938264877,1,colour,0.06,3.9
43,20,1,2,8,49,399,577.3639806559077,578.08651675086,"[64, 0, 190]",190,a,0.20400902850087732,0,colour,0.06,3.9
43,20,1,2,8,50,400,578.6034830089193,579.1344953603111,"[92, 0, 162]",162,l,0.003133038175292313,1,colour,0.06,3.9
43,20,1,2,9,1,401,595.1131993655581,595.8703654764686,"[78, 0, 176]",176,l,0.2387682256521657,1,colour,0.06,3.9
43,20,1,2,9,2,402,596.3862250297097,597.0704202997731,"[84, 0, 170]",170,l,0.1657906894106418,1,colour,0.06,3.9
43,20,1,2,9,3,403,597.5920654381625,598.2464631721377,"[52, 0, 202]",202,a,0.1417236002162099,0,colour,0.06,3.9
43,20,1,2,9,4,404,598.7640138964634,599.414396379143,"[92, 0, 162]",162,l,0.12423057423438877,1,colour,0.06,3.9
43,20,1,2,9,5,405,599.9315733443946,600.6784337094286,"[67, 0, 187]",187,a,0.21506032336037606,0,colour,0.06,3.9
43,20,1,2,9,6,406,601.2007846182678,601.9103986540576,"[43, 0, 211]",211,a,0.18596855783835053,1,colour,0.06,3.9
43,20,1,2,9,7,407,602.4287666069577,603.2063669794006,"[72, 0, 182]",182,a,0.26009848492685705,0,colour,0.06,3.9
43,20,1,2,9,8,408,603.7291633272544,604.3504276567837,"[90, 0, 164]",164,l,0.08856632094830275,1,colour,0.06,3.9
43,20,1,2,9,9,409,604.8724331634585,605.51035162888,"[65, 0, 189]",189,a,0.1197576749837026,0,colour,0.06,3.9
43,20,1,2,9,10,410,606.0328265990829,606.6704634651542,"[87, 0, 167]",167,l,0.11942054354585707,1,colour,0.06,3.9
43,20,1,2,9,11,411,607.1925260794815,607.7823332095286,"[83, 0, 171]",171,l,0.0661462921416387,1,colour,0.06,3.9
43,20,1,2,9,12,412,608.2941397024551,608.878342022188,"[32, 0, 222]",222,a,0.05387998512014747,1,colour,0.06,3.9
43,20,1,2,9,13,413,609.3942063016584,610.0143194218399,"[56, 0, 198]",198,a,0.0970343854278326,0,colour,0.06,3.9
43,20,1,2,9,14,414,610.5370913512306,611.2143624296878,"[68, 0, 186]",186,l,0.15392177214380354,1,colour,0.06,3.9
43,20,1,2,9,15,415,611.7359091069084,612.3183627541875,"[69, 0, 185]",185,l,0.05057404888793826,1,colour,0.06,3.9
43,20,1,2,9,16,416,612.8384750473779,613.4543090400985,"[34, 0, 220]",220,a,0.09509272885043174,1,colour,0.06,3.9
43,20,1,2,9,17,417,613.961004210636,614.8623109494802,"[61, 0, 193]",193,a,0.37795270630158484,0,colour,0.06,3.9
43,20,1,2,9,18,418,615.3829966810299,615.9263222070877,"[81, 0, 173]",173,l,0.02015856991056353,1,colour,0.06,3.9
43,20,1,2,9,19,419,616.4454325581901,617.0463311552303,"[58, 0, 196]",196,a,0.0774531924398616,0,colour,0.06,3.9
43,20,1,2,9,20,420,617.5557875741506,618.4543114030967,"[64, 0, 190]",190,l,0.38557557901367545,1,colour,0.06,3.9
43,20,1,2,9,21,421,618.9845656026155,619.6943115764298,"[77, 0, 177]",177,l,0.17920663044787943,1,colour,0.06,3.9
43,20,1,2,9,22,422,620.204081495991,620.9342956020264,"[97, 0, 157]",157,l,0.20591366360895336,1,colour,0.06,3.9
43,20,1,2,9,23,423,621.4479397763498,621.998357271892,"[82, 0, 172]",172,l,0.03241818165406585,1,colour,0.06,3.9
43,20,1,2,9,24,424,622.5140384132974,623.0622940928442,"[89, 0, 165]",165,l,0.03018074738793075,1,colour,0.06,3.9
43,20,1,2,9,25,425,623.5824394689407,624.310353519395,"[70, 0, 184]",184,l,0.20924283668864518,1,colour,0.06,3.9
43,20,1,2,9,26,426,624.8227066692198,625.5423227963038,"[63, 0, 191]",191,a,0.20043803460430354,0,colour,0.06,3.9
43,20,1,2,9,27,427,626.0619333307259,627.7423311457969,"[74, 0, 180]",180,l,1.1532085185172036,1,colour,0.06,3.9
43,20,1,2,9,28,428,628.2455017961329,628.9903244063025,"[79, 0, 175]",175,l,0.2149201143765822,1,colour,0.06,3.9
43,20,1,2,9,29,429,629.4993798908545,630.1823518777965,"[80, 0, 174]",174,l,0.15966127743013203,1,colour,0.06,3.9
43,20,1,2,9,30,430,630.7025756291114,631.3262975524412,"[54, 0, 200]",200,a,0.10032929398585111,0,colour,0.06,3.9
43,20,1,2,9,31,431,631.844038897776,632.6623825504212,"[95, 0, 159]",159,l,0.295621347730048,1,colour,0.06,3.9
43,20,1,2,9,32,432,633.1598589876667,634.0303012640215,"[98, 0, 156]",156,l,0.3471221145009622,1,colour,0.06,3.9
43,20,1,2,9,33,433,634.5505758213112,635.2863108485471,"[86, 0, 168]",168,l,0.21264093252830207,1,colour,0.06,3.9
43,20,1,2,9,34,434,635.8006564611569,636.5662977256579,"[93, 0, 161]",161,l,0.2425196006661281,1,colour,0.06,3.9
43,20,1,2,9,35,435,637.0819702025037,637.7982610949548,"[88, 0, 166]",166,l,0.19286045397166163,1,colour,0.06,3.9
43,20,1,2,9,36,436,638.305424941238,639.190266589867,"[66, 0, 188]",188,l,0.36688880843576044,1,colour,0.06,3.9
43,20,1,2,9,37,437,639.6997789347079,640.2943157511763,"[62, 0, 192]",192,a,0.07115994091145694,0,colour,0.06,3.9
43,20,1,2,9,38,438,640.8021833987441,641.5263732494786,"[51, 0, 203]",203,a,0.20207249198574573,0,colour,0.06,3.9
43,20,1,2,9,39,439,642.0401123403572,642.6782824728871,"[75, 0, 179]",179,l,0.11474638932850212,1,colour,0.06,3.9
43,20,1,2,9,40,440,643.1964680755045,643.7822922496125,"[59, 0, 195]",195,a,0.07116191007662565,0,colour,0.06,3.9
43,20,1,2,9,41,441,644.2975681243697,644.8702957659261,"[53, 0, 201]",201,a,0.044910949654877186,0,colour,0.06,3.9
43,20,1,2,9,42,442,645.3802811187925,646.0062589871231,"[55, 0, 199]",199,a,0.10302122554276139,0,colour,0.06,3.9
43,20,1,2,9,43,443,646.5209507894469,647.1662542452104,"[50, 0, 204]",204,a,0.12199235230218619,1,colour,0.06,3.9
43,20,1,2,9,44,444,647.6772269678768,648.2942755789263,"[96, 0, 158]",158,l,0.09431685390882194,1,colour,0.06,3.9
43,20,1,2,9,45,445,648.8122004561592,649.5742648191517,"[60, 0, 194]",194,a,0.23134030622895807,0,colour,0.06,3.9
43,20,1,2,9,46,446,650.0928820760455,650.7582877818495,"[94, 0, 160]",160,l,0.13777175801806152,1,colour,0.06,3.9
43,20,1,2,9,47,447,651.2708898419514,651.9022476348327,"[91, 0, 163]",163,l,0.11344985105097294,1,colour,0.06,3.9
43,20,1,2,9,48,448,652.4129332444863,653.7824627845548,"[71, 0, 183]",183,l,0.8527255462249741,1,colour,0.06,3.9
43,20,1,2,9,49,449,654.3010674385587,655.20628702885,"[73, 0, 181]",181,l,0.38623526971787214,1,colour,0.06,3.9
43,20,1,2,9,50,450,655.7237392918905,656.3822030831361,"[85, 0, 169]",169,l,0.13950034440495074,1,colour,0.06,3.9
43,20,1,2,10,1,451,674.0039128515637,674.5582140540937,"[71, 0, 183]",183,l,0.030183110502548516,1,colour,0.06,3.8
43,20,1,2,10,2,452,675.0674302274128,675.7981866581831,"[69, 0, 185]",185,l,0.20775331428740174,1,colour,0.06,3.8
43,20,1,2,10,3,453,676.317406498245,676.9102391466731,"[80, 0, 174]",174,l,0.06968932307790965,1,colour,0.06,3.8
43,20,1,2,10,4,454,677.4268513380084,678.0781471476657,"[81, 0, 173]",173,l,0.12803629995323718,1,colour,0.06,3.8
43,20,1,2,10,5,455,678.5887181482976,679.2301859461004,"[93, 0, 161]",161,l,0.12315262004267424,1,colour,0.06,3.8
43,20,1,2,10,6,456,679.7441388950683,680.430210049497,"[91, 0, 163]",163,l,0.1543034081114456,1,colour,0.06,3.8
43,20,1,2,10,7,457,680.9520241474966,681.6461758227088,"[98, 0, 156]",156,l,0.16673040390014648,1,colour,0.06,3.8
43,20,1,2,10,8,458,682.1670789569616,682.7821859114338,"[65, 0, 189]",189,a,0.0866762581281364,0,colour,0.06,3.8
43,20,1,2,10,9,459,683.3051126219798,683.958333152812,"[72, 0, 182]",182,a,0.13430001307278872,0,colour,0.06,3.8
43,20,1,2,10,10,460,684.4814800227759,685.1101691210642,"[67, 0, 187]",187,a,0.10980993427801877,0,colour,0.06,3.8
43,20,1,2,10,11,461,685.6275989349233,686.2781464387663,"[89, 0, 165]",165,l,0.13308381929527968,1,colour,0.06,3.8
43,20,1,2,10,12,462,686.8003843141487,687.4142254503677,"[75, 0, 179]",179,l,0.09573154570534825,1,colour,0.06,3.8
43,20,1,2,10,13,463,687.9301078466233,688.5741285487311,"[62, 0, 192]",192,a,0.12184938660357147,0,colour,0.06,3.8
43,20,1,2,10,14,464,689.0952026116429,689.6701476013986,"[61, 0, 193]",193,a,0.013508494710549712,0,colour,0.06,3.8
43,20,1,2,10,15,465,690.1888806488132,690.8462046522181,"[68, 0, 186]",186,a,0.139066327130422,0,colour,0.06,3.8
43,20,1,2,10,16,466,691.3639806559077,691.9902038896689,"[90, 0, 164]",164,l,0.10423781315330416,1,colour,0.06,3.8
43,20,1,2,10,17,467,692.5135283838026,693.1421544668265,"[64, 0, 190]",190,a,0.11097020201850682,0,colour,0.06,3.8
43,20,1,2,10,18,468,693.6559553915868,694.2460992592387,"[99, 0, 155]",155,l,0.07149786001536995,1,colour,0.06,3.8
43,20,1,2,10,19,469,694.7678361636354,695.294144428568,"[44, 0, 210]",210,a,0.009241576306521893,1,colour,0.06,3.8
43,20,1,2,10,20,470,695.8063554003602,696.3741150791757,"[96, 0, 158]",158,l,0.04908255743794143,1,colour,0.06,3.8
43,20,1,2,10,21,471,696.8896414394258,697.470138464123,"[66, 0, 188]",188,a,0.06323026272002608,0,colour,0.06,3.8
43,20,1,2,10,22,472,697.9869070119457,698.5981137180934,"[8, 0, 246]",246,a,0.08203439926728606,1,colour,0.06,3.8
43,20,1,2,10,23,473,699.1055193853099,699.7102166188415,"[88, 0, 166]",166,l,0.0875663481419906,1,colour,0.06,3.8
43,20,1,2,10,24,474,700.2221483543981,700.8381509127794,"[76, 0, 178]",178,l,0.10195626819040626,1,colour,0.06,3.8
43,20,1,2,10,25,475,701.3535788117442,701.9661320743617,"[74, 0, 180]",180,l,0.08890384621918201,1,colour,0.06,3.8
43,20,1,2,10,26,476,702.4787999065593,703.1180984054226,"[63, 0, 191]",191,a,0.1159306816989556,0,colour,0.06,3.8
43,20,1,2,10,27,477,703.6294992377516,704.7740860922495,"[97, 0, 157]",157,l,0.6193423653021455,1,colour,0.06,3.8
43,20,1,2,10,28,478,705.2880248626461,705.9740940479096,"[50, 0, 204]",204,a,0.16277304792311043,1,colour,0.06,3.8
43,20,1,2,10,29,479,706.4806781541556,707.4061236619018,"[59, 0, 195]",195,a,0.4020725707523525,0,colour,0.06,3.8
43,20,1,2,10,30,480,707.9134513477329,708.6060788423056,"[56, 0, 198]",198,a,0.16925495129544288,0,colour,0.06,3.8
43,20,1,2,10,31,481,709.11738436413,709.6620918927947,"[57, 0, 197]",197,a,0.02667749486863613,0,colour,0.06,3.8
43,20,1,2,10,32,482,710.1685290947789,710.7980771692237,"[79, 0, 175]",175,l,0.10581240605097264,1,colour,0.06,3.8
43,20,1,2,10,33,483,711.3095295953099,711.8941293049138,"[60, 0, 194]",194,a,0.061367375194095075,0,colour,0.06,3.8
43,20,1,2,10,34,484,712.3982629065868,714.3422148039099,"[82, 0, 172]",172,l,1.421022823662497,1,colour,0.06,3.8
43,20,1,2,10,35,485,714.8613578442018,715.6301542022265,"[95, 0, 159]",159,l,0.245787727762945,1,colour,0.06,3.8
43,20,1,2,10,36,486,716.1613878945354,716.9345492383,"[94, 0, 160]",160,l,0.24541908863466233,1,colour,0.06,3.8
43,20,1,2,10,37,487,717.444988300791,718.1581363090081,"[53, 0, 201]",201,a,0.18986841232981533,0,colour,0.06,3.8
43,20,1,2,10,38,488,718.6793277378893,719.3501031283522,"[52, 0, 202]",202,a,0.151378320180811,0,colour,0.06,3.8
43,20,1,2,10,39,489,719.8600282230182,720.4862876904663,"[77, 0, 177]",177,l,0.10702387371566147,1,colour,0.06,3.8
43,20,1,2,10,40,490,721.0066508629825,721.6861318065785,"[58, 0, 196]",196,a,0.1578598297201097,0,colour,0.06,3.8
43,20,1,2,10,41,491,722.1993289666716,722.734069850063,"[54, 0, 200]",200,a,0.010678323451429605,0,colour,0.06,3.8
43,20,1,2,10,42,492,723.2564124881756,723.8860948638758,"[51, 0, 203]",203,a,0.0979961552657187,0,colour,0.06,3.8
43,20,1,2,10,43,493,724.3953527848935,725.0943101586308,"[73, 0, 181]",181,l,0.17947995907161385,1,colour,0.06,3.8
43,20,1,2,10,44,494,725.6165074679302,726.3020886789309,"[92, 0, 162]",162,l,0.16741845139767975,1,colour,0.06,3.8
43,20,1,2,10,45,495,726.8240146290045,727.5423562731594,"[30, 0, 224]",224,a,0.20036399166565388,1,colour,0.06,3.8
43,20,1,2,10,46,496,728.0639750239206,728.7101331235608,"[84, 0, 170]",170,l,0.11990851757582277,1,colour,0.06,3.8
43,20,1,2,10,47,497,729.2184643269284,729.9500328664435,"[70, 0, 184]",184,l,0.2130028762621805,1,colour,0.06,3.8
43,20,1,2,10,48,498,730.4466995580588,731.078088070848,"[55, 0, 199]",199,a,0.10806559410411865,0,colour,0.06,3.8
43,20,1,2,10,49,499,731.5784880205756,732.2380770274904,"[78, 0, 176]",176,l,0.13664929941296577,1,colour,0.06,3.8
43,20,1,2,10,50,500,732.7504215127556,733.3020327530103,"[87, 0, 167]",167,l,0.028599459095858037,1,colour,0.06,3.8
43,20,1,2,11,1,501,739.6069161570631,740.1980525145773,"[74, 0, 180]",180,l,0.06947704066988081,1,colour,0.06,3.8
43,20,1,2,11,2,502,740.7225723286392,741.4780594777549,"[98, 0, 156]",156,l,0.2376922407420352,1,colour,0.06,3.8
43,20,1,2,11,3,503,741.9939584154636,742.79003327596,"[82, 0, 172]",172,l,0.2639814041322097,1,colour,0.06,3.8
43,20,1,2,11,4,504,743.305526947137,744.007978908834,"[88, 0, 166]",166,l,0.184549139929004,1,colour,0.06,3.8
43,20,1,2,11,5,505,744.5296776101459,745.1500794189051,"[56, 0, 198]",198,a,0.10265888797584921,0,colour,0.06,3.8
43,20,1,2,11,6,506,745.6594090196304,746.3420375736896,"[53, 0, 201]",201,a,0.16367495339363813,0,colour,0.06,3.8
43,20,1,2,11,7,507,746.8640934925061,747.5019926595269,"[93, 0, 161]",161,l,0.1188482865691185,1,colour,0.06,3.8
43,20,1,2,11,8,508,748.0245716047939,748.7100578992395,"[97, 0, 157]",157,l,0.1646520831855014,1,colour,0.06,3.8
43,20,1,2,11,9,509,749.2115740061272,749.8539708845783,"[59, 0, 195]",195,a,0.12403050088323653,0,colour,0.06,3.8
43,20,1,2,11,10,510,750.3637809763895,751.0380548933754,"[94, 0, 160]",160,l,0.15679566015023738,1,colour,0.06,3.8
43,20,1,2,11,11,511,751.5517447537277,752.1419673904311,"[71, 0, 183]",183,a,0.07267506315838546,0,colour,0.06,3.8
43,20,1,2,11,12,512,752.6606775948312,753.2539852205664,"[80, 0, 174]",174,l,0.06173522653989494,1,colour,0.06,3.8
43,20,1,2,11,13,513,753.7712118102936,754.5660090371966,"[79, 0, 175]",175,a,0.2780298605794087,0,colour,0.06,3.8
43,20,1,2,11,14,514,755.0754434007686,755.710066563799,"[63, 0, 191]",191,a,0.11605986289214343,0,colour,0.06,3.8
43,20,1,2,11,15,515,756.2217107923934,756.9660091947298,"[67, 0, 187]",187,a,0.22264262998942286,0,colour,0.06,3.8
43,20,1,2,11,16,516,757.4817462621722,758.0219596237876,"[6, 0, 248]",248,a,0.0216512429760769,1,colour,0.06,3.8
43,20,1,2,11,17,517,758.5375320638996,759.2220085393637,"[77, 0, 177]",177,l,0.1567011373117566,1,colour,0.06,3.8
43,20,1,2,11,18,518,759.732734714984,760.3819825298851,"[46, 0, 208]",208,a,0.11892548017203808,1,colour,0.06,3.8
43,20,1,2,11,19,519,760.9042330082739,761.5899091360625,"[66, 0, 188]",188,l,0.1667256779037416,1,colour,0.06,3.8
43,20,1,2,11,20,520,762.1118342983536,762.7259235570673,"[60, 0, 194]",194,a,0.09698082250542939,0,colour,0.06,3.8
43,20,1,2,11,21,521,763.2399663026445,763.7980003694538,"[54, 0, 200]",200,a,0.03853853524196893,0,colour,0.06,3.8
43,20,1,2,11,22,522,764.3083732660161,765.038017478073,"[73, 0, 181]",181,l,0.20280110544990748,1,colour,0.06,3.8
43,20,1,2,11,23,523,765.5551849910989,766.1899617536692,"[58, 0, 196]",196,a,0.11585742642637342,0,colour,0.06,3.8
43,20,1,2,11,24,524,766.7046669468982,768.3979887904134,"[85, 0, 169]",169,l,1.174714826629497,1,colour,0.06,3.8
43,20,1,2,11,25,525,768.9143851546105,769.4699529630598,"[78, 0, 176]",176,l,0.03753659315407276,1,colour,0.06,3.8
43,20,1,2,11,26,526,769.9812691187253,770.8459340805421,"[90, 0, 164]",164,l,0.3403022919083014,1,colour,0.06,3.8
43,20,1,2,11,27,527,771.3629554769723,772.293946324382,"[83, 0, 171]",171,l,0.413384590880014,1,colour,0.06,3.8
43,20,1,2,11,28,528,772.8164866728475,773.7819531490095,"[65, 0, 189]",189,a,0.44856362708378583,0,colour,0.06,3.8
43,20,1,2,11,29,529,774.3049995884066,775.022022245219,"[86, 0, 168]",168,l,0.19934472045861185,1,colour,0.06,3.8
43,20,1,2,11,30,530,775.5388136360561,776.2379194893874,"[91, 0, 163]",163,l,0.18140074179973453,1,colour,0.06,3.8
43,20,1,2,11,31,531,776.7500111261616,777.4939302555285,"[50, 0, 204]",204,a,0.22523531259503216,1,colour,0.06,3.8
43,20,1,2,11,32,532,778.0040069805691,778.6939669619314,"[99, 0, 155]",155,l,0.1724313123850152,1,colour,0.06,3.8
43,20,1,2,11,33,533,779.205534784589,779.933903726167,"[25, 0, 229]",229,a,0.2140004860702902,1,colour,0.06,3.8
43,20,1,2,11,34,534,780.4489125738619,781.117937322706,"[51, 0, 203]",203,a,0.13604789786040783,0,colour,0.06,3.8
43,20,1,2,11,35,535,781.626779736951,782.3499381073052,"[75, 0, 179]",179,l,0.20505271817091852,1,colour,0.06,3.8
43,20,1,2,11,36,536,782.8726292983629,783.8219256743323,"[57, 0, 197]",197,a,0.4324860805645585,0,colour,0.06,3.8
43,20,1,2,11,37,537,784.3405760142487,785.2138756371569,"[76, 0, 178]",178,a,0.34479882195591927,0,colour,0.06,3.8
43,20,1,2,11,38,538,785.7283874523127,786.4699116093107,"[55, 0, 199]",199,a,0.22346616024151444,0,colour,0.06,3.8
43,20,1,2,11,39,539,786.9817582743708,787.7099905516952,"[70, 0, 184]",184,l,0.20565766433719546,1,colour,0.06,3.8
43,20,1,2,11,40,540,788.2244405330857,788.9579302492784,"[69, 0, 185]",185,l,0.21580862905830145,1,colour,0.06,3.8
43,20,1,2,11,41,541,789.4690301839728,790.1658619754016,"[84, 0, 170]",170,l,0.1688445647014305,1,colour,0.06,3.8
43,20,1,2,11,42,542,790.6777732310584,791.3898417097516,"[62, 0, 192]",192,a,0.1945130282547325,0,colour,0.06,3.8
43,20,1,2,11,43,543,791.9054657436209,792.6218684880296,"[52, 0, 202]",202,a,0.19914897938724607,0,colour,0.06,3.8
43,20,1,2,11,44,544,793.1415191947017,793.9498835990671,"[72, 0, 182]",182,l,0.28896182018797845,1,colour,0.06,3.8
43,20,1,2,11,45,545,794.47298320767,795.1179755256744,"[68, 0, 186]",186,l,0.12628014443907887,1,colour,0.06,3.8
43,20,1,2,11,46,546,795.6305830995552,796.2299035592005,"[96, 0, 158]",158,l,0.08150940365158021,1,colour,0.06,3.8
43,20,1,2,11,47,547,796.7454433101229,797.3259068579646,"[81, 0, 173]",173,l,0.0621995700057596,1,colour,0.06,3.8
43,20,1,2,11,48,548,797.8456241243985,798.4940232030349,"[87, 0, 167]",167,l,0.12981884309556335,1,colour,0.06,3.8
43,20,1,2,11,49,549,799.0058474189136,799.653904639883,"[89, 0, 165]",165,l,0.12889921467285603,1,colour,0.06,3.8
43,20,1,2,11,50,550,800.1705018650973,800.893839041004,"[61, 0, 193]",193,a,0.19563824380747974,0,colour,0.06,3.8
43,20,1,2,12,1,551,808.603060806985,809.2778939839918,"[91, 0, 163]",163,l,0.1562159201130271,1,colour,0.06,3.7
43,20,1,2,12,2,552,809.7819421213353,810.521774319699,"[59, 0, 195]",195,a,0.22111451090313494,0,colour,0.06,3.7
43,20,1,2,12,3,553,811.0343468412757,811.7418872823473,"[75, 0, 179]",179,l,0.18432307278271765,1,colour,0.06,3.7
43,20,1,2,12,4,554,812.2532219487475,812.8458809114527,"[57, 0, 197]",197,a,0.06928366259671748,0,colour,0.06,3.7
43,20,1,2,12,5,555,813.3626648193458,814.0698929410428,"[88, 0, 166]",166,l,0.18393277213908732,1,colour,0.06,3.7
43,20,1,2,12,6,556,814.5815647388808,815.2778089134954,"[66, 0, 188]",188,a,0.1686456729657948,0,colour,0.06,3.7
43,20,1,2,12,7,557,815.7893727977062,816.3658321219264,"[87, 0, 167]",167,l,0.05306196876335889,1,colour,0.06,3.7
43,20,1,2,12,8,558,816.8832316097105,817.5738272571471,"[98, 0, 156]",156,l,0.16734598390758038,1,colour,0.06,3.7
43,20,1,2,12,9,559,818.086485243286,818.7018769477727,"[51, 0, 203]",203,a,0.09205578884575516,0,colour,0.06,3.7
43,20,1,2,12,10,560,819.2115121723618,819.9018010144355,"[10, 0, 244]",244,a,0.1667977514443919,1,colour,0.06,3.7
43,20,1,2,12,11,561,820.4148012519581,821.0938013106352,"[97, 0, 157]",157,l,0.15398911957163364,1,colour,0.06,3.7
43,20,1,2,12,12,562,821.6162376840366,822.4298516503768,"[73, 0, 181]",181,l,0.2821542068850249,1,colour,0.06,3.7
43,20,1,2,12,13,563,822.9438963652356,823.6058165414724,"[53, 0, 201]",201,a,0.14474124182015657,0,colour,0.06,3.7
43,20,1,2,12,14,564,824.1169117499376,824.725824701949,"[92, 0, 162]",162,l,0.08743795461487025,1,colour,0.06,3.7
43,20,1,2,12,15,565,825.248987719533,825.9818748525577,"[93, 0, 161]",161,l,0.19928209902718663,1,colour,0.06,3.7
43,20,1,2,12,16,566,826.5025570396101,827.277793553425,"[80, 0, 174]",174,l,0.2568996745394543,1,colour,0.06,3.7
43,20,1,2,12,17,567,827.7994690180058,828.4378455253318,"[77, 0, 177]",177,l,0.1209900164976716,1,colour,0.06,3.7
43,20,1,2,12,18,568,828.9586474412354,829.6858285458293,"[65, 0, 189]",189,l,0.20371837075799704,1,colour,0.06,3.7
43,20,1,2,12,19,569,830.1947008923162,830.9501915860455,"[64, 0, 190]",190,l,0.23697701806668192,1,colour,0.06,3.7
43,20,1,2,12,20,570,831.4628869873704,832.1817489009118,"[74, 0, 180]",180,l,0.1954740104265511,1,colour,0.06,3.7
43,20,1,2,12,21,571,832.6949117964832,833.3578102840111,"[78, 0, 176]",176,l,0.1395192489726469,1,colour,0.06,3.7
43,20,1,2,12,22,572,833.8669984943699,834.5577961843228,"[94, 0, 160]",160,l,0.16769020445644855,1,colour,0.06,3.7
43,20,1,2,12,23,573,835.0632278997218,835.677790954127,"[50, 0, 204]",204,a,0.0911869666306302,1,colour,0.06,3.7
43,20,1,2,12,24,574,836.1882497088518,836.8058252847986,"[95, 0, 159]",159,l,0.11445612541865557,1,colour,0.06,3.7
43,20,1,2,12,25,575,837.3243476250209,838.0057678621961,"[56, 0, 198]",198,a,0.15808747219853103,0,colour,0.06,3.7
43,20,1,2,12,26,576,838.5036401137477,839.1177927815588,"[6, 0, 248]",248,a,0.09082226594910026,1,colour,0.06,3.7
43,20,1,2,12,27,577,839.6287513257703,840.32575522759,"[54, 0, 200]",200,a,0.17206976260058582,0,colour,0.06,3.7
43,20,1,2,12,28,578,840.8414513351163,841.5018122784095,"[70, 0, 184]",184,l,0.14093000220600516,1,colour,0.06,3.7
43,20,1,2,12,29,579,842.0133706488414,842.6457713437267,"[79, 0, 175]",175,l,0.11749503458850086,1,colour,0.06,3.7
43,20,1,2,12,30,580,843.1613418146735,843.869772739592,"[67, 0, 187]",187,l,0.18525215343106538,1,colour,0.06,3.7
43,20,1,2,12,31,581,844.3800747439964,845.0617927280255,"[81, 0, 173]",173,l,0.15831314551178366,1,colour,0.06,3.7
43,20,1,2,12,32,582,845.5773923434317,846.3177176358877,"[69, 0, 185]",185,l,0.21687870635651052,1,colour,0.06,3.7
43,20,1,2,12,33,583,846.8274883432314,847.4619586942717,"[89, 0, 165]",165,a,0.11113837384618819,0,colour,0.06,3.7
43,20,1,2,12,34,584,847.9750877191545,848.7018032987835,"[45, 0, 209]",209,a,0.2033304333453998,1,colour,0.06,3.7
43,20,1,2,12,35,585,849.2096217157086,849.8617509016767,"[52, 0, 202]",202,a,0.12879366416018456,0,colour,0.06,3.7
43,20,1,2,12,36,586,850.375462423428,851.0617710665101,"[83, 0, 171]",171,l,0.16855705773923546,1,colour,0.06,3.7
43,20,1,2,12,37,587,851.5780221017776,852.3577681425959,"[55, 0, 199]",199,a,0.25631008844356984,0,colour,0.06,3.7
43,20,1,2,12,38,588,852.8749868554296,853.4617365656886,"[76, 0, 178]",178,l,0.06357881566509604,1,colour,0.06,3.7
43,20,1,2,12,39,589,853.9688035260187,854.6617472782964,"[71, 0, 183]",183,l,0.18155631062109023,1,colour,0.06,3.7
43,20,1,2,12,40,590,855.1646548400167,855.8937417612178,"[63, 0, 191]",191,l,0.20582268538419157,1,colour,0.06,3.7
43,20,1,2,12,41,591,856.4147063352866,857.0297341269907,"[68, 0, 186]",186,l,0.08472987543791533,1,colour,0.06,3.7
43,20,1,2,12,42,592,857.5496069622459,858.2217478138627,"[99, 0, 155]",155,l,0.14907156908884645,1,colour,0.06,3.7
43,20,1,2,12,43,593,858.7371489313664,859.4617149041733,"[58, 0, 196]",196,a,0.20132300455588847,0,colour,0.06,3.7
43,20,1,2,12,44,594,859.9789068355458,860.6297024618834,"[72, 0, 182]",182,l,0.136665053316392,1,colour,0.06,3.7
43,20,1,2,12,45,595,861.1687461034162,861.8137179415207,"[84, 0, 170]",170,l,0.12053591292351484,1,colour,0.06,3.7
43,20,1,2,12,46,596,862.3354560274165,862.9417191891698,"[82, 0, 172]",172,l,0.08867108367849141,1,colour,0.06,3.7
43,20,1,2,12,47,597,863.4629370056791,864.077724945615,"[60, 0, 194]",194,a,0.09684376430232078,0,colour,0.06,3.7
43,20,1,2,12,48,598,864.5909303764347,865.2137117974926,"[90, 0, 164]",164,l,0.09166036837268621,1,colour,0.06,3.7
43,20,1,2,12,49,599,865.7236483136658,866.5257167095551,"[61, 0, 193]",193,a,0.2842726999660954,0,colour,0.06,3.7
43,20,1,2,12,50,600,867.0428692564601,867.957677400671,"[86, 0, 168]",168,l,0.39538823091425,1,colour,0.06,3.7
43,20,1,2,13,1,601,878.6683772674296,879.5496376821538,"[64, 0, 190]",190,l,0.36253642570227385,1,colour,0.06,3.7
43,20,1,2,13,2,602,880.0577337598661,880.8297021467006,"[85, 0, 169]",169,l,0.25578194204717875,1,colour,0.06,3.7
43,20,1,2,13,3,603,881.3506501793163,881.9896316326922,"[58, 0, 196]",196,a,0.10888361046090722,0,colour,0.06,3.7
43,20,1,2,13,4,604,882.5063009315636,883.5096939074574,"[67, 0, 187]",187,a,0.4861309400293976,0,colour,0.06,3.7
43,20,1,2,13,5,605,884.0296120350249,884.7576509342762,"[72, 0, 182]",182,l,0.19840421818662435,1,colour,0.06,3.7
43,20,1,2,13,6,606,885.2780401005875,885.9576553453226,"[84, 0, 170]",170,l,0.16149580804631114,1,colour,0.06,3.7
43,20,1,2,13,7,607,886.472501535085,887.1976673339959,"[87, 0, 167]",167,l,0.20259394287131727,1,colour,0.06,3.7
43,20,1,2,13,8,608,887.7140365228988,888.4457771726884,"[90, 0, 164]",164,l,0.21343492437154055,1,colour,0.06,3.7
43,20,1,2,13,9,609,888.9674837510101,889.5896503797267,"[59, 0, 195]",195,a,0.09385093511082232,0,colour,0.06,3.7
43,20,1,2,13,10,610,890.1042271793121,890.6856572232209,"[56, 0, 198]",198,a,0.06717107724398375,0,colour,0.06,3.7
43,20,1,2,13,11,611,891.1976480355952,891.7816435866989,"[80, 0, 174]",174,l,0.02695003559347242,1,colour,0.06,3.7
43,20,1,2,13,12,612,892.3029110276839,892.9016781348037,"[60, 0, 194]",194,a,0.08118448138702661,0,colour,0.06,3.7
43,20,1,2,13,13,613,893.4175372942118,894.093640621868,"[79, 0, 175]",175,l,0.15821389656048268,1,colour,0.06,3.7
43,20,1,2,13,14,614,894.6076955766184,895.3655914826086,"[83, 0, 171]",171,l,0.22593399393372238,1,colour,0.06,3.7
43,20,1,2,13,15,615,895.8769726227038,896.4776293988107,"[75, 0, 179]",179,l,0.08252709952648729,1,colour,0.06,3.7
43,20,1,2,13,16,616,896.9909281709697,897.6375836969819,"[74, 0, 180]",180,l,0.12784134654793888,1,colour,0.06,3.7
43,20,1,2,13,17,617,898.152162859682,898.7976104627596,"[95, 0, 159]",159,l,0.11612287815660238,1,colour,0.06,3.7
43,20,1,2,13,18,618,899.3070129248081,899.9816448469646,"[88, 0, 166]",166,l,0.152589000063017,1,colour,0.06,3.7
43,20,1,2,13,19,619,900.5001175628277,901.1576593625359,"[73, 0, 181]",181,l,0.13928136648610234,1,colour,0.06,3.7
43,20,1,2,13,20,620,901.6730128248455,902.2536205200013,"[31, 0, 223]",223,l,0.04837599920574576,0,colour,0.06,3.7
43,20,1,2,13,21,621,902.7702039605938,903.3495773450704,"[86, 0, 168]",168,l,0.0629340911982581,1,colour,0.06,3.7
43,20,1,2,13,22,622,903.8665014618309,904.5576410093345,"[61, 0, 193]",193,l,0.16692456952296197,1,colour,0.06,3.7
43,20,1,2,13,23,623,905.0793338030344,905.773643410299,"[94, 0, 160]",160,l,0.1663089896319434,1,colour,0.06,3.7
43,20,1,2,13,24,624,906.2826339103049,906.8376385202864,"[66, 0, 188]",188,a,0.03668273682706058,0,colour,0.06,3.7
43,20,1,2,13,25,625,907.351892760722,907.9579649076331,"[92, 0, 162]",162,l,0.08636275737080723,1,colour,0.06,3.7
43,20,1,2,13,26,626,908.4682420997415,909.1256625952665,"[69, 0, 185]",185,a,0.13928806188050658,0,colour,0.06,3.7
43,20,1,2,13,27,627,909.642625308712,910.1895757854218,"[50, 0, 204]",204,a,0.021943476051092148,1,colour,0.06,3.7
43,20,1,2,13,28,628,910.7005843480583,911.4244898426114,"[76, 0, 178]",178,l,0.20641384704504162,1,colour,0.06,3.7
43,20,1,2,13,29,629,911.9371883947169,912.6056590033695,"[71, 0, 183]",183,l,0.15641835646238178,1,colour,0.06,3.7
43,20,1,2,13,30,630,913.1133864420699,913.7816341344733,"[57, 0, 197]",197,a,0.1447451802669093,0,colour,0.06,3.7
43,20,1,2,13,31,631,914.3017318552593,914.8776110456092,"[21, 0, 233]",233,a,0.050636670319363475,1,colour,0.06,3.7
43,20,1,2,13,32,632,915.3974047180964,916.045576547971,"[70, 0, 184]",184,l,0.12723915732931346,1,colour,0.06,3.7
43,20,1,2,13,33,633,916.5669562347466,917.2535968893208,"[96, 0, 158]",158,l,0.163591064279899,1,colour,0.06,3.7
43,20,1,2,13,34,634,917.7701886006398,918.3896546332398,"[82, 0, 172]",172,l,0.0960919139906764,1,colour,0.06,3.7
43,20,1,2,13,35,635,918.9110008432763,919.645547639695,"[78, 0, 176]",176,l,0.2112975267227739,1,colour,0.06,3.7
43,20,1,2,13,36,636,920.1609538772609,920.6935297937598,"[54, 0, 200]",200,a,0.003873466979712248,0,colour,0.06,3.7
43,20,1,2,13,37,637,921.2233956619166,921.9095652776305,"[65, 0, 189]",189,a,0.15466101944912225,0,colour,0.06,3.7
43,20,1,2,13,38,638,922.4265350804199,923.0775804044679,"[51, 0, 203]",203,a,0.13351074745878577,0,colour,0.06,3.7
43,20,1,2,13,39,639,923.5965214021271,924.2375524257077,"[9, 0, 245]",245,a,0.1084287193370983,1,colour,0.06,3.7
43,20,1,2,13,40,640,924.7543481489411,925.3975902191596,"[97, 0, 157]",157,l,0.11124156147707254,1,colour,0.06,3.7
43,20,1,2,13,41,641,925.9080489738844,926.557539397385,"[81, 0, 173]",173,l,0.13173489971086383,1,colour,0.06,3.7
43,20,1,2,13,42,642,927.0787839952391,927.6935270369286,"[93, 0, 161]",161,l,0.09589420375414193,1,colour,0.06,3.7
43,20,1,2,13,43,643,928.2095023805741,928.8215928751742,"[98, 0, 156]",156,l,0.09348268993198872,1,colour,0.06,3.7
43,20,1,2,13,44,644,929.3392826268682,930.0615898977267,"[89, 0, 165]",165,l,0.2015238655731082,1,colour,0.06,3.7
43,20,1,2,13,45,645,930.571047104313,931.2695039008977,"[63, 0, 191]",191,a,0.18005260988138616,0,colour,0.06,3.7
43,20,1,2,13,46,646,931.786691106041,932.4455333824735,"[99, 0, 155]",155,l,0.14073465508408844,1,colour,0.06,3.7
43,20,1,2,13,47,647,932.9614677663194,933.6135036109481,"[91, 0, 163]",163,l,0.13576078473124653,1,colour,0.06,3.7
43,20,1,2,13,48,648,934.136295626522,935.1254983617691,"[68, 0, 186]",186,l,0.4634966595331207,1,colour,0.06,3.7
43,20,1,2,13,49,649,935.644063237356,936.6775656746468,"[62, 0, 192]",192,a,0.5009781144326553,0,colour,0.06,3.7
43,20,1,2,13,50,650,937.1910586124286,937.813508809777,"[52, 0, 202]",202,a,0.10357221483718604,0,colour,0.06,3.7
43,20,1,2,14,1,651,945.7085652260575,946.9334641949972,"[77, 0, 177]",177,l,0.6967601117212325,1,colour,0.06,3.7
43,20,1,2,14,2,652,947.4458590925205,948.3419922814937,"[81, 0, 173]",173,l,0.3727098397212103,1,colour,0.06,3.7
43,20,1,2,14,3,653,948.8522143352311,950.0535330076236,"[9, 0, 245]",245,a,0.6780059935990721,1,colour,0.06,3.7
43,20,1,2,14,4,654,950.5711211471353,951.3494816407328,"[63, 0, 191]",191,l,0.26363009435590357,1,colour,0.06,3.7
43,20,1,2,14,5,655,951.8661131304689,952.6855028358987,"[59, 0, 195]",195,a,0.3112132833339274,0,colour,0.06,3.7
43,20,1,2,14,6,656,953.1970856246771,953.9574678750942,"[94, 0, 160]",160,l,0.23730863560922444,1,colour,0.06,3.7
43,20,1,2,14,7,657,954.4781859020004,955.189540339401,"[57, 0, 197]",197,a,0.18795314349699765,0,colour,0.06,3.7
43,20,1,2,14,8,658,955.7072816847358,956.4534685745602,"[50, 0, 204]",204,a,0.21996684616897255,1,colour,0.06,3.7
43,20,1,2,14,9,659,956.9604685811792,957.621472279774,"[87, 0, 167]",167,l,0.13762761070393026,1,colour,0.06,3.7
43,20,1,2,14,10,660,958.1324304302689,958.8454717063578,"[85, 0, 169]",169,l,0.18999562435783446,1,colour,0.06,3.7
43,20,1,2,14,11,661,959.3668561193626,960.0774910016917,"[83, 0, 171]",171,l,0.18787004216574132,1,colour,0.06,3.7
43,20,1,2,14,12,662,960.5857387097785,961.3094795770012,"[91, 0, 163]",163,l,0.20959414658136666,1,colour,0.06,3.7
43,20,1,2,14,13,663,961.8326197515707,962.6134772233199,"[55, 0, 199]",199,a,0.22189274884294719,0,colour,0.06,3.7
43,20,1,2,14,14,664,963.1338931710925,963.8854501394089,"[62, 0, 192]",192,a,0.22892879240680486,0,colour,0.06,3.7
43,20,1,2,14,15,665,964.3893115941901,965.1494524173904,"[35, 0, 219]",219,a,0.23676119081210345,1,colour,0.06,3.7
43,20,1,2,14,16,666,965.6599659166532,966.3975067239953,"[97, 0, 157]",157,l,0.21255980047862977,1,colour,0.06,3.7
43,20,1,2,14,17,667,966.9117010999471,967.6294204687001,"[61, 0, 193]",193,a,0.1943799084983766,0,colour,0.06,3.7
43,20,1,2,14,18,668,968.1462264318252,968.9014800307341,"[65, 0, 189]",189,a,0.23201771988533437,0,colour,0.06,3.7
43,20,1,2,14,19,669,969.4118509580148,970.1014237896306,"[92, 0, 162]",162,l,0.16621170996222645,1,colour,0.06,3.7
43,20,1,2,14,20,670,970.6150975022465,971.5894341587555,"[70, 0, 184]",184,l,0.4462143407436088,1,colour,0.06,3.7
43,20,1,2,14,21,671,972.1081148247467,972.9094494872261,"[67, 0, 187]",187,a,0.26977250329218805,0,colour,0.06,3.7
43,20,1,2,14,22,672,973.4280958886957,974.1094385383185,"[96, 0, 158]",158,l,0.14945753733627498,1,colour,0.06,3.7
43,20,1,2,14,23,673,974.6332033512881,975.485430683475,"[86, 0, 168]",168,l,0.33509053906891495,1,colour,0.06,3.7
43,20,1,2,14,24,674,976.0084842120996,976.7494183891686,"[76, 0, 178]",178,l,0.22391002369113266,1,colour,0.06,3.7
43,20,1,2,14,25,675,977.2631519663846,977.9494216187159,"[47, 0, 207]",207,a,0.16712976293638349,1,colour,0.06,3.7
43,20,1,2,14,26,676,978.4721462867456,979.1573939109221,"[93, 0, 161]",161,l,0.16636294638738036,1,colour,0.06,3.7
43,20,1,2,14,27,677,979.673936785548,980.3973602135666,"[90, 0, 164]",164,l,0.20420043729245663,1,colour,0.06,3.7
43,20,1,2,14,28,678,980.9109413726255,981.581410745508,"[84, 0, 170]",170,l,0.1461874411907047,1,colour,0.06,3.7
43,20,1,2,14,29,679,982.0941908234963,982.7974627708318,"[88, 0, 166]",166,l,0.18264411087147892,1,colour,0.06,3.7
43,20,1,2,14,30,680,983.310353913228,984.0053614139324,"[53, 0, 201]",201,a,0.17160069290548563,0,colour,0.06,3.7
43,20,1,2,14,31,681,984.5135787960608,985.1813637203304,"[52, 0, 202]",202,a,0.1444470394635573,0,colour,0.06,3.7
43,20,1,2,14,32,682,985.7009939469863,986.3973779366352,"[68, 0, 186]",186,l,0.17294449266046286,1,colour,0.06,3.7
43,20,1,2,14,33,683,986.9049537448445,987.6533824012149,"[73, 0, 181]",181,l,0.2250856515020132,1,colour,0.06,3.7
43,20,1,2,14,34,684,988.1707027261145,988.9013953539543,"[58, 0, 196]",196,a,0.20724249712657183,0,colour,0.06,3.7
43,20,1,2,14,35,685,989.4207703690045,990.0853635722306,"[82, 0, 172]",172,l,0.14113322633784264,1,colour,0.06,3.7
43,20,1,2,14,36,686,990.5927664824994,991.2774213697994,"[64, 0, 190]",190,a,0.16148320503998548,0,colour,0.06,3.7
43,20,1,2,14,37,687,991.7940059920074,992.4774446854135,"[78, 0, 176]",176,l,0.12129091401584446,1,colour,0.06,3.7
43,20,1,2,14,38,688,992.9982182445237,993.7333987378515,"[69, 0, 185]",185,a,0.21750925236847252,0,colour,0.06,3.7
43,20,1,2,14,39,689,994.2496627700748,994.8613416964654,"[89, 0, 165]",165,l,0.08870810514781624,1,colour,0.06,3.7
43,20,1,2,14,40,690,995.3823807073059,996.0533632603474,"[74, 0, 180]",180,l,0.13990364188794047,1,colour,0.06,3.7
43,20,1,2,14,41,691,996.5649531383533,997.2453509534243,"[95, 0, 159]",159,l,0.1611401658738032,1,colour,0.06,3.7
43,20,1,2,14,42,692,997.760649277363,998.4693582569016,"[98, 0, 156]",156,l,0.19103261863347143,1,colour,0.06,3.7
43,20,1,2,14,43,693,998.9866254127119,999.6373698391253,"[72, 0, 182]",182,l,0.13398808776400983,1,colour,0.06,3.7
43,20,1,2,14,44,694,1000.1614965958288,1000.7973540695384,"[99, 0, 155]",155,l,0.11829060176387429,1,colour,0.06,3.7
43,20,1,2,14,45,695,1001.3092913189903,1001.9414659468457,"[56, 0, 198]",198,a,0.1061452052090317,0,colour,0.06,3.7
43,20,1,2,14,46,696,1002.4538565119728,1003.0933668994112,"[80, 0, 174]",174,l,0.11915430414956063,1,colour,0.06,3.7
43,20,1,2,14,47,697,1003.6150234594243,1004.3013202870497,"[71, 0, 183]",183,l,0.1526476830476895,1,colour,0.06,3.7
43,20,1,2,14,48,698,1004.8220347694587,1005.4453549706377,"[79, 0, 175]",175,l,0.10585966741200536,1,colour,0.06,3.7
43,20,1,2,14,49,699,1005.9666933037806,1006.6053553487873,"[75, 0, 179]",179,l,0.1205244914162904,1,colour,0.06,3.7
43,20,1,2,14,50,700,1007.1242002482759,1007.7653305208078,"[60, 0, 194]",194,a,0.12055481760762632,0,colour,0.06,3.7
43,20,1,2,15,1,701,1012.0765375025803,1012.8533812984824,"[73, 0, 181]",181,l,0.2587806790834293,1,colour,0.06,3.6
43,20,1,2,15,2,702,1013.3617062001722,1013.9733591328841,"[54, 0, 200]",200,a,0.09176473738625646,0,colour,0.06,3.6
43,20,1,2,15,3,703,1014.4911008720519,1015.0693951208377,"[92, 0, 162]",162,l,0.06046665133908391,1,colour,0.06,3.6
43,20,1,2,15,4,704,1015.5893632665975,1016.2613213740988,"[93, 0, 161]",161,l,0.13969175319653004,1,colour,0.06,3.6
43,20,1,2,15,5,705,1016.7789807997178,1017.3973688781261,"[99, 0, 155]",155,l,0.09987794735934585,1,colour,0.06,3.6
43,20,1,2,15,6,706,1017.9088260303251,1018.6133539498551,"[87, 0, 167]",167,l,0.1873572557233274,1,colour,0.06,3.6
43,20,1,2,15,7,707,1019.1314710234292,1020.3893218340818,"[61, 0, 193]",193,a,0.7396675710333511,0,colour,0.06,3.6
43,20,1,2,15,8,708,1020.9119866376277,1021.837355345604,"[97, 0, 157]",157,l,0.40712560387328267,1,colour,0.06,3.6
43,20,1,2,15,9,709,1022.3564148906153,1023.0933015211485,"[88, 0, 166]",166,l,0.21930046007037163,1,colour,0.06,3.6
43,20,1,2,15,10,710,1023.6014610079583,1024.6693189512007,"[72, 0, 182]",182,a,0.544556685956195,0,colour,0.06,3.6
43,20,1,2,15,11,711,1025.1796339524444,1025.8692741316045,"[84, 0, 170]",170,l,0.16627078666351736,1,colour,0.06,3.6
43,20,1,2,15,12,712,1026.3828836475732,1027.1333150063874,"[98, 0, 156]",156,l,0.23951810679864138,1,colour,0.06,3.6
43,20,1,2,15,13,713,1027.6492237902712,1028.3733659856953,"[86, 0, 168]",168,l,0.20100556535180658,1,colour,0.06,3.6
43,20,1,2,15,14,714,1028.883706193068,1029.5572593734832,"[58, 0, 196]",196,a,0.15033266134560108,0,colour,0.06,3.6
43,20,1,2,15,15,715,1030.071309602121,1030.7973544633714,"[89, 0, 165]",165,l,0.2025647982954979,1,colour,0.06,3.6
43,20,1,2,15,16,716,1031.3058290262707,1032.0132729752222,"[26, 0, 228]",228,a,0.19164741085842252,1,colour,0.06,3.6
43,20,1,2,15,17,717,1032.5254815840162,1033.245306449011,"[74, 0, 180]",180,l,0.19328738213516772,1,colour,0.06,3.6
43,20,1,2,15,18,718,1033.7603227797663,1034.373267130577,"[65, 0, 189]",189,a,0.08984828693792224,0,colour,0.06,3.6
43,20,1,2,15,19,719,1034.8850629896624,1035.5812866842607,"[68, 0, 186]",186,a,0.17281570530030876,0,colour,0.06,3.6
43,20,1,2,15,20,720,1036.0884706166107,1036.7012629432138,"[59, 0, 195]",195,a,0.10065303463488817,0,colour,0.06,3.6
43,20,1,2,15,21,721,1037.211932405131,1037.9335390254855,"[67, 0, 187]",187,a,0.19831442146096379,0,colour,0.06,3.6
43,20,1,2,15,22,722,1038.4463675465668,1039.0612574924016,"[55, 0, 199]",199,a,0.09152055333834141,0,colour,0.06,3.6
43,20,1,2,15,23,723,1039.571513416944,1040.2132423340809,"[64, 0, 190]",190,a,0.11834692163392901,0,colour,0.06,3.6
43,20,1,2,15,24,724,1040.7287580606062,1041.389239914366,"[62, 0, 192]",192,a,0.13718729186803102,0,colour,0.06,3.6
43,20,1,2,15,25,725,1041.9057008691598,1042.599135352415,"[76, 0, 178]",178,l,0.1749357737135142,1,colour,0.06,3.6
43,20,1,2,15,26,726,1043.1110217957757,1043.797228039126,"[71, 0, 183]",183,l,0.1630231395829469,1,colour,0.06,3.6
43,20,1,2,15,27,727,1044.3141903587384,1044.9653455656953,"[56, 0, 198]",198,a,0.12798116158228368,0,colour,0.06,3.6
43,20,1,2,15,28,728,1045.4861293648137,1046.1732434211299,"[90, 0, 164]",164,l,0.16415505053009838,1,colour,0.06,3.6
43,20,1,2,15,29,729,1046.6892735093134,1047.3413310154574,"[60, 0, 194]",194,a,0.12447987822815776,0,colour,0.06,3.6
43,20,1,2,15,30,730,1047.8498819842935,1048.4934237706475,"[63, 0, 191]",191,a,0.12041106401011348,0,colour,0.06,3.6
43,20,1,2,15,31,731,1049.0059860523324,1049.6772970722523,"[52, 0, 202]",202,a,0.14843629684764892,0,colour,0.06,3.6
43,20,1,2,15,32,732,1050.1948923011078,1050.8852756660199,"[50, 0, 204]",204,a,0.16827782150357962,1,colour,0.06,3.6
43,20,1,2,15,33,733,1051.3990958890645,1052.1172319460893,"[66, 0, 188]",188,l,0.18978924956172705,1,colour,0.06,3.6
43,20,1,2,15,34,734,1052.6292798659997,1053.3092365745688,"[79, 0, 175]",175,l,0.15955218230374157,1,colour,0.06,3.6
43,20,1,2,15,35,735,1053.8294989226852,1054.4852436070796,"[95, 0, 159]",159,l,0.13240049802698195,1,colour,0.06,3.6
43,20,1,2,15,36,736,1054.991461437312,1055.6612687563756,"[96, 0, 158]",158,l,0.14727602910716087,1,colour,0.06,3.6
43,20,1,2,15,37,737,1056.1790656339144,1056.7812154770363,"[69, 0, 185]",185,l,0.08189064578618854,1,colour,0.06,3.6
43,20,1,2,15,38,738,1057.3021347589092,1057.8852540045045,"[57, 0, 197]",197,a,0.05995740951038897,0,colour,0.06,3.6
43,20,1,2,15,39,739,1058.3837004823145,1058.9812486388255,"[77, 0, 177]",177,l,0.07476480561308563,1,colour,0.06,3.6
43,20,1,2,15,40,740,1059.493123660679,1060.0852316340897,"[80, 0, 174]",174,l,0.06873424863442779,1,colour,0.06,3.6
43,20,1,2,15,41,741,1060.6027579400688,1061.2292147240369,"[83, 0, 171]",171,l,0.10348556900862604,1,colour,0.06,3.6
43,20,1,2,15,42,742,1061.739346587332,1062.357185645611,"[85, 0, 169]",169,l,0.09128897241316736,1,colour,0.06,3.6
43,20,1,2,15,43,743,1062.8778008789523,1063.445273444755,"[81, 0, 173]",173,l,0.05252949020359665,1,colour,0.06,3.6
43,20,1,2,15,44,744,1063.963814689545,1064.5892002147157,"[29, 0, 225]",225,a,0.10305509611498564,1,colour,0.06,3.6
43,20,1,2,15,45,745,1065.1037210883806,1065.6291829800466,"[75, 0, 179]",179,l,0.0024670459097251296,1,colour,0.06,3.6
43,20,1,2,15,46,746,1066.150688303518,1066.7571854093112,"[53, 0, 201]",201,a,0.08811142982449383,0,colour,0.06,3.6
43,20,1,2,15,47,747,1067.2653830990894,1067.8131689213915,"[78, 0, 176]",176,l,0.024546398664824665,1,colour,0.06,3.6
43,20,1,2,15,48,748,1068.327930040541,1068.8691886671586,"[94, 0, 160]",160,l,0.018288199324160814,1,colour,0.06,3.6
43,20,1,2,15,49,749,1069.3904927357798,1069.9652593135834,"[42, 0, 212]",212,a,0.05148658819962293,1,colour,0.06,3.6
43,20,1,2,15,50,750,1070.4842975910287,1071.0211616934976,"[91, 0, 163]",163,l,0.013523066882044077,1,colour,0.06,3.6
43,20,1,2,16,1,751,1078.162787620211,1079.1332173328847,"[15, 0, 239]",239,a,0.45112243900075555,1,colour,0.06,3.6
43,20,1,2,16,2,752,1079.6511941975914,1080.7011975649511,"[52, 0, 202]",202,a,0.5312396000372246,0,colour,0.06,3.6
43,20,1,2,16,3,753,1081.216476590489,1081.7491556945024,"[96, 0, 158]",158,l,0.0022161667002364993,1,colour,0.06,3.6
43,20,1,2,16,4,754,1082.2670947500737,1082.9731547272531,"[79, 0, 175]",175,l,0.18838558543939143,1,colour,0.06,3.6
43,20,1,2,16,5,755,1083.4866842925549,1084.0850894560572,"[73, 0, 181]",181,l,0.07509012159425765,1,colour,0.06,3.6
43,20,1,2,16,6,756,1084.596155913896,1085.4130935394205,"[61, 0, 193]",193,a,0.2935339685063809,0,colour,0.06,3.6
43,20,1,2,16,7,757,1085.924383701291,1086.5251239726786,"[14, 0, 240]",240,a,0.0773251928621903,1,colour,0.06,3.6
43,20,1,2,16,8,758,1087.0367910442874,1087.8931982549839,"[70, 0, 184]",184,a,0.3297054944559932,0,colour,0.06,3.6
43,20,1,2,16,9,759,1088.3942760122009,1089.0290976732504,"[76, 0, 178]",178,l,0.11111316783353686,1,colour,0.06,3.6
43,20,1,2,16,10,760,1089.5350149995647,1090.1891551588196,"[88, 0, 166]",166,l,0.1308144835056737,1,colour,0.06,3.6
43,20,1,2,16,11,761,1090.6978577581467,1091.309145990177,"[95, 0, 159]",159,l,0.08796807017643005,1,colour,0.06,3.6
43,20,1,2,16,12,762,1091.8228669642704,1092.4131604931317,"[51, 0, 203]",203,a,0.07741223264019936,0,colour,0.06,3.6
43,20,1,2,16,13,763,1092.929922739393,1093.565074836486,"[63, 0, 191]",191,a,0.11409142485354096,0,colour,0.06,3.6
43,20,1,2,16,14,764,1094.0838909852318,1094.6131353657693,"[97, 0, 157]",157,l,0.006311762263067067,1,colour,0.06,3.6
43,20,1,2,16,15,765,1095.130901129567,1095.8451633256627,"[72, 0, 182]",182,l,0.1912649873411283,1,colour,0.06,3.6
43,20,1,2,16,16,766,1096.3653390278341,1096.8931143659865,"[86, 0, 168]",168,l,0.0044870778219774365,1,colour,0.06,3.6
43,20,1,2,16,17,767,1097.4135933289072,1097.9971351703862,"[53, 0, 201]",201,a,0.06035637471359223,0,colour,0.06,3.6
43,20,1,2,16,18,768,1098.5074166948907,1099.0371277818922,"[93, 0, 161]",161,l,0.006508291000500321,1,colour,0.06,3.6
43,20,1,2,16,19,769,1099.5542897810228,1100.2690852434607,"[75, 0, 179]",179,l,0.19138707930687815,1,colour,0.06,3.6
43,20,1,2,16,20,770,1100.788809599122,1101.6371244735783,"[84, 0, 170]",170,l,0.3249702942557633,1,colour,0.06,3.6
43,20,1,2,16,21,771,1102.1482555220136,1103.0290988547495,"[91, 0, 163]",163,l,0.35908397915773094,1,colour,0.06,3.6
43,20,1,2,16,22,772,1103.5400534605142,1104.4451332358876,"[62, 0, 192]",192,a,0.38855541148222983,0,colour,0.06,3.6
43,20,1,2,16,23,773,1104.9632073803805,1105.7410818689968,"[59, 0, 195]",195,a,0.260746754007414,0,colour,0.06,3.6
43,20,1,2,16,24,774,1106.2611386299832,1106.9731401549652,"[50, 0, 204]",204,a,0.18066306982655078,1,colour,0.06,3.6
43,20,1,2,16,25,775,1107.495621426613,1108.2771267736098,"[85, 0, 169]",169,l,0.262071255245246,1,colour,0.06,3.6
43,20,1,2,16,26,776,1108.798895973363,1109.5090645429445,"[92, 0, 162]",162,l,0.19174311531241983,1,colour,0.06,3.6
43,20,1,2,16,27,777,1110.0216169785708,1110.9730779273668,"[71, 0, 183]",183,a,0.43333166604861617,0,colour,0.06,3.6
43,20,1,2,16,28,778,1111.4876133733196,1112.1891019897303,"[90, 0, 164]",164,l,0.17114068183582276,1,colour,0.06,3.6
43,20,1,2,16,29,779,1112.7060792755801,1113.4451344173867,"[60, 0, 194]",194,a,0.209129803115502,0,colour,0.06,3.6
43,20,1,2,16,30,780,1113.9614500433672,1114.6450840840116,"[58, 0, 196]",196,a,0.1602701620431617,0,colour,0.06,3.6
43,20,1,2,16,31,781,1115.1646414493443,1115.861026226543,"[89, 0, 165]",165,l,0.1730212924303487,1,colour,0.06,3.6
43,20,1,2,16,32,782,1116.3678600306157,1117.085118994466,"[67, 0, 187]",187,l,0.19430192722938955,1,colour,0.06,3.6
43,20,1,2,16,33,783,1117.5904869068181,1118.2290406444808,"[80, 0, 174]",174,l,0.11532061558682472,1,colour,0.06,3.6
43,20,1,2,16,34,784,1118.7446032384178,1119.3810290307738,"[99, 0, 155]",155,l,0.113059944473207,1,colour,0.06,3.6
43,20,1,2,16,35,785,1119.900972758187,1120.589053310454,"[56, 0, 198]",198,a,0.16403965384233743,0,colour,0.06,3.6
43,20,1,2,16,36,786,1121.104809676297,1121.8130653401604,"[83, 0, 171]",171,l,0.18234715168364346,1,colour,0.06,3.6
43,20,1,2,16,37,787,1122.3262376879575,1122.981042263913,"[78, 0, 176]",176,l,0.13231463974807411,1,colour,0.06,3.6
43,20,1,2,16,38,788,1123.501906801248,1124.1969887388404,"[98, 0, 156]",156,l,0.17787188931833953,1,colour,0.06,3.6
43,20,1,2,16,39,789,1124.7060875463067,1125.453068034025,"[81, 0, 173]",173,l,0.22994058055337518,1,colour,0.06,3.6
43,20,1,2,16,40,790,1125.971870791982,1126.6930548165692,"[66, 0, 188]",188,a,0.19401560176629573,0,colour,0.06,3.6
43,20,1,2,16,41,791,1127.2109749675728,1127.8530351085356,"[28, 0, 226]",226,a,0.12052567291539162,1,colour,0.06,3.6
43,20,1,2,16,42,792,1128.3770370163256,1128.9650426987791,"[77, 0, 177]",177,l,0.06988860876299441,1,colour,0.06,3.6
43,20,1,2,16,43,793,1129.4753888137639,1130.213093460654,"[65, 0, 189]",189,l,0.21903619007207453,1,colour,0.06,3.6
43,20,1,2,16,44,794,1130.7233383575222,1131.4530952093191,"[74, 0, 180]",180,l,0.21092691842932254,1,colour,0.06,3.6
43,20,1,2,16,45,795,1131.9646027736599,1132.605066660326,"[87, 0, 167]",167,l,0.1197163212345913,1,colour,0.06,3.6
43,20,1,2,16,46,796,1133.1155581042403,1133.7730246795109,"[94, 0, 160]",160,l,0.13002797483932227,1,colour,0.06,3.6
43,20,1,2,16,47,797,1134.285321115749,1135.2931401234819,"[57, 0, 197]",197,a,0.4903974646003917,0,colour,0.06,3.6
43,20,1,2,16,48,798,1135.8167907213792,1136.572980883997,"[68, 0, 186]",186,l,0.23910063097719103,1,colour,0.06,3.6
43,20,1,2,16,49,799,1137.0911979941884,1137.7090090896236,"[82, 0, 172]",172,l,0.10074598214123398,1,colour,0.06,3.6
43,20,1,2,16,50,800,1138.2206517428858,1138.973144487245,"[69, 0, 185]",185,l,0.22480365831870586,1,colour,0.06,3.6
