id,age,condition,counterbalance,block,trialinblock,trial,tstart,tend,trialstim,trialintensity,response,RT,trialtype,colourfreq
18,21,0,1,Practice,1,NA,5.5138953030109406e-06,3.0089627446141094,"[53, 0, 201]",201,a,2.4532804582268,colour,0.5
18,21,0,1,Practice,2,NA,5.016914487467147,6.224927197676152,"[38, 0, 216]",216,a,0.6847506130579859,colour,0.5
18,21,0,1,Practice,3,NA,8.23590682563372,13.320945969899185,"[16, 0, 238]",238,a,4.561898745363578,colour,0.5
18,21,0,1,Practice,4,NA,15.330119421938434,17.256900372100063,"[7, 0, 247]",247,a,1.4034345700638369,colour,0.5
18,21,0,1,Practice,5,NA,19.262780487071723,19.936943742330186,"[60, 0, 194]",194,a,0.15111147169955075,colour,0.5
18,21,0,1,Practice,6,NA,21.950796867837198,23.232918718946166,"[26, 0, 228]",228,a,0.7590960612287745,colour,0.5
18,21,0,1,Practice,7,NA,25.24763515405357,26.11290450906381,"[83, 0, 171]",171,l,0.34223017445765436,colour,0.5
18,21,0,1,Practice,8,NA,28.122850292245857,28.91285063093528,"[8, 0, 246]",246,a,0.2666307216277346,colour,0.5
18,21,0,1,Practice,9,NA,30.919937488855794,31.632924469187856,"[67, 0, 187]",187,l,0.18969849543645978,colour,0.5
18,21,0,1,Practice,10,NA,33.65451626700815,34.608882951550186,"[73, 0, 181]",181,l,0.4295169956749305,colour,0.5
18,21,0,1,1,1,1,5.836032619816251,7.200002284254879,"[22, 0, 232]",232,a,0.840116404928267,colour,0.5
18,21,0,1,1,2,2,9.212094132206403,10.504154283436947,"[45, 0, 209]",209,l,0.7693915793206543,colour,0.5
18,21,0,1,1,3,3,12.524867411819287,13.743953091441654,"[89, 0, 165]",165,l,0.6958070409018546,colour,0.5
18,21,0,1,1,4,4,15.75948163610883,16.85600334929768,"[23, 0, 231]",231,a,0.5731686376966536,colour,0.5
18,21,0,1,1,5,5,18.869107774225995,19.927936887019314,"[93, 0, 161]",161,l,0.5355296002235264,colour,0.5
18,21,0,1,1,6,6,21.947490927763283,22.9679901979398,"[98, 0, 156]",156,l,0.4971682500327006,colour,0.5
18,21,0,1,1,7,7,24.978883967502043,26.031966479029506,"[67, 0, 187]",187,l,0.5296148268971592,colour,0.5
18,21,0,1,1,8,8,28.04170746251475,28.967933090403676,"[34, 0, 220]",220,a,0.4039363294141367,colour,0.5
18,21,0,1,1,9,9,30.97944007755723,31.95194729079958,"[65, 0, 189]",189,l,0.4491624084766954,colour,0.5
18,21,0,1,1,10,10,33.964009994175285,34.65596207417548,"[94, 0, 160]",160,l,0.16855804447550327,colour,0.5
18,21,0,1,1,11,11,36.66738595999777,38.07993175438605,"[50, 0, 204]",204,l,0.8894499000161886,colour,0.5
18,21,0,1,1,12,12,40.08951480581891,41.26396320539061,"[68, 0, 186]",186,l,0.6513958282303065,colour,0.5
18,21,0,1,1,13,13,43.278476416133344,44.34391662129201,"[29, 0, 225]",225,a,0.5421237573027611,colour,0.5
18,21,0,1,1,14,14,46.35759172856342,48.53591714426875,"[42, 0, 212]",212,l,1.6556529053486884,colour,0.5
18,21,0,1,1,15,15,50.544712504488416,51.80794670165051,"[54, 0, 200]",200,l,0.7399169616401196,colour,0.5
18,21,0,1,1,16,16,53.82620341493748,54.9119530566968,"[61, 0, 193]",193,l,0.5662838224088773,colour,0.5
18,21,0,1,1,17,17,56.93175915861502,57.99191907572094,"[20, 0, 234]",234,a,0.5464280960150063,colour,0.5
18,21,0,1,1,18,18,60.00353555206675,60.999921230832115,"[62, 0, 192]",192,l,0.4729077542433515,colour,0.5
18,21,0,1,1,19,19,63.01940792403184,64.12794783595018,"[44, 0, 210]",210,l,0.5851706888061017,colour,0.5
18,21,0,1,1,20,20,66.14465870521963,66.71190863091033,"[90, 0, 164]",164,l,0.043877551797777414,colour,0.5
18,21,0,1,1,21,21,68.72292331117205,69.87186863203533,"[14, 0, 240]",240,a,0.6254610947798938,colour,0.5
18,21,0,1,1,22,22,71.87949387682602,73.055892599863,"[26, 0, 228]",228,a,0.6529322199057788,colour,0.5
18,21,0,1,1,23,23,75.06725307647139,76.03189243597444,"[64, 0, 190]",190,l,0.44156355131417513,colour,0.5
18,21,0,1,1,24,24,78.05200219294056,79.19985971215647,"[47, 0, 207]",207,l,0.62458754517138,colour,0.5
18,21,0,1,1,25,25,81.21926291007549,83.79187898221426,"[39, 0, 215]",215,a,2.0494315625401214,colour,0.5
18,21,0,1,1,26,26,85.81370629987214,86.88793635135517,"[48, 0, 206]",206,l,0.5508407421875745,colour,0.5
18,21,0,1,1,27,27,88.9077192164259,89.99190056498628,"[11, 0, 243]",243,a,0.5608912883326411,colour,0.5
18,21,0,1,1,28,28,92.00176639750134,92.83193465624936,"[57, 0, 197]",197,l,0.3068750477395952,colour,0.5
18,21,0,1,1,29,29,94.84567080962006,95.99987475713715,"[6, 0, 248]",248,a,0.631119868485257,colour,0.5
18,21,0,1,1,30,30,98.01785932306666,99.04783254943322,"[27, 0, 227]",227,l,0.5068804827751592,colour,0.5
18,21,0,1,1,31,31,101.06494592886884,102.09584114782047,"[7, 0, 247]",247,a,0.5075082726543769,colour,0.5
18,21,0,1,1,32,32,104.11372488935012,105.11184467037674,"[51, 0, 203]",203,l,0.47511053271591663,colour,0.5
18,21,0,1,1,33,33,107.12946532305796,108.08793863572646,"[69, 0, 185]",185,l,0.4354561874642968,colour,0.5
18,21,0,1,1,34,34,110.10125928197522,111.0879780203104,"[82, 0, 172]",172,l,0.46348105964716524,colour,0.5
18,21,0,1,1,35,35,113.10146880778484,114.1598977734102,"[99, 0, 155]",155,l,0.5354437419446185,colour,0.5
18,21,0,1,1,36,36,116.1799429396633,117.02381702559069,"[4, 0, 250]",250,a,0.3206364072393626,colour,0.5
18,21,0,1,1,37,37,119.03950350242667,119.8158822968835,"[81, 0, 173]",173,l,0.2528906299266964,colour,0.5
18,21,0,1,1,38,38,121.83657415758353,122.71983319846913,"[5, 0, 249]",249,a,0.36022182961460203,colour,0.5
18,21,0,1,1,39,39,124.72735052963253,125.6718269630801,"[18, 0, 236]",236,a,0.4210319857811555,colour,0.5
18,21,0,1,1,40,40,127.68074362771586,128.34381500910968,"[13, 0, 241]",241,a,0.13965095824096352,colour,0.5
18,21,0,1,1,41,41,130.35289433202706,131.03180579002947,"[72, 0, 182]",182,l,0.15566826541908085,colour,0.5
18,21,0,1,1,42,42,133.04090519901365,133.98391022521537,"[84, 0, 170]",170,l,0.41921556973829865,colour,0.5
18,21,0,1,1,43,43,135.99426363862585,136.9998432494467,"[3, 0, 251]",251,a,0.4827763437060639,colour,0.5
18,21,0,1,1,44,44,139.01010725984816,139.5678206080338,"[16, 0, 238]",238,a,0.03428622963838279,colour,0.5
18,21,0,1,1,45,45,141.57872658688575,142.35976851324085,"[88, 0, 166]",166,l,0.25764986022841185,colour,0.5
18,21,0,1,1,46,46,144.3758606511401,145.10385078610852,"[21, 0, 233]",233,a,0.20466344710439444,colour,0.5
18,21,0,1,1,47,47,147.11041343549732,147.6242704994511,"[78, 0, 176]",176,l,0.003199995611794293,colour,0.5
18,21,0,1,1,48,48,149.64509114762768,150.27176449925173,"[31, 0, 223]",223,a,0.10407094575930387,colour,0.5
18,21,0,1,1,49,49,152.2859354581451,152.9838149145944,"[52, 0, 202]",202,l,0.17459215316921473,colour,0.5
18,21,0,1,1,50,50,154.98495588533115,155.87177253363188,"[87, 0, 167]",167,l,0.3634107974357903,colour,0.5
18,21,0,1,2,1,51,163.894643935957,165.19176579103805,"[14, 0, 240]",240,a,0.7732748971320689,colour,0.5
18,21,0,1,2,2,52,167.19570818555076,168.66381929419003,"[40, 0, 214]",214,a,0.9446832024259493,colour,0.5
18,21,0,1,2,3,53,170.68043012660928,171.81581573700532,"[47, 0, 207]",207,l,0.6123350082198158,colour,0.5
18,21,0,1,2,4,54,173.8368975048652,174.8957344944356,"[61, 0, 193]",193,l,0.5357296738075092,colour,0.5
18,21,0,1,2,5,55,176.91526293521747,177.79177894548047,"[26, 0, 228]",228,a,0.3531739624449983,colour,0.5
18,21,0,1,2,6,56,179.806176365586,180.98373535776045,"[38, 0, 216]",216,a,0.6542488457635045,colour,0.5
18,21,0,1,2,7,57,182.99381819926202,183.79974801756907,"[1, 0, 253]",253,a,0.2825097889872268,colour,0.5
18,21,0,1,2,8,58,185.803630547598,187.07176575949416,"[31, 0, 223]",223,l,0.7447691394481808,colour,0.5
18,21,0,1,2,9,59,189.08517029485665,190.15185583988205,"[73, 0, 181]",181,l,0.5408717221580446,colour,0.5
18,21,0,1,2,10,60,192.15356828062795,193.2637548610801,"[23, 0, 231]",231,a,0.5868244465673342,colour,0.5
18,21,0,1,2,11,61,195.27864143741317,196.3757216236554,"[93, 0, 161]",161,l,0.5735006495378911,colour,0.5
18,21,0,1,2,12,62,198.38842826453038,199.51971276046243,"[37, 0, 217]",217,a,0.6078640727791935,colour,0.5
18,21,0,1,2,13,63,201.52933519647922,202.30369868292473,"[89, 0, 165]",165,l,0.2510462509235367,colour,0.5
18,21,0,1,2,14,64,204.3131072607357,205.57569870178122,"[60, 0, 194]",194,l,0.7389914244413376,colour,0.5
18,21,0,1,2,15,65,207.59461707575247,208.73568469670136,"[88, 0, 166]",166,l,0.6176980040036142,colour,0.5
18,21,0,1,2,16,66,210.75358222273644,211.7676917418139,"[82, 0, 172]",172,l,0.4908076435094699,colour,0.5
18,21,0,1,2,17,67,213.7850107086124,214.7196792048635,"[21, 0, 233]",233,a,0.41127012844663113,colour,0.5
18,21,0,1,2,18,68,216.7384282251587,217.32769963447936,"[85, 0, 169]",169,l,0.06587461696472019,colour,0.5
18,21,0,1,2,19,69,219.34797362494282,219.9117025709711,"[5, 0, 249]",249,a,0.04038926132488996,colour,0.5
18,21,0,1,2,20,70,221.92624453245662,224.11970346572343,"[2, 0, 252]",252,a,1.6700219686608762,colour,0.5
18,21,0,1,2,21,71,226.1297449534759,226.76766771718394,"[90, 0, 164]",164,l,0.11454960214905441,colour,0.5
18,21,0,1,2,22,72,228.78616152552422,230.18373094673734,"[46, 0, 208]",208,l,0.874143484281376,colour,0.5
18,21,0,1,2,23,73,232.19343451492023,233.43966600310523,"[72, 0, 182]",182,l,0.7213695901446044,colour,0.5
18,21,0,1,2,24,74,235.4485350124305,236.2396652941825,"[17, 0, 237]",237,a,0.26779571699444205,colour,0.5
18,21,0,1,2,25,75,238.2611858061282,239.3277012098115,"[4, 0, 250]",250,a,0.5431607528589666,colour,0.5
18,21,0,1,2,26,76,241.33955635654274,242.1836360299494,"[6, 0, 248]",248,a,0.32074904709588736,colour,0.5
18,21,0,1,2,27,77,244.19913936860394,244.9756709750509,"[19, 0, 235]",235,a,0.25310960796196014,colour,0.5
18,21,0,1,2,28,78,246.99626555596478,247.69562035799026,"[36, 0, 218]",218,a,0.17605489573907107,colour,0.5
18,21,0,1,2,29,79,249.7153307554545,250.56765558675397,"[81, 0, 173]",173,l,0.32900995877571404,colour,0.5
18,21,0,1,2,30,80,252.57849500561133,253.4636728623882,"[75, 0, 179]",179,l,0.3617645228514448,colour,0.5
18,21,0,1,2,31,81,255.48498030379415,256.5836398107931,"[84, 0, 170]",170,l,0.575403711409308,colour,0.5
18,21,0,1,2,32,82,258.59651974390727,260.0636556907557,"[49, 0, 205]",205,l,0.9438364343950525,colour,0.5
18,21,0,1,2,33,83,262.0817702257773,263.16761714743916,"[52, 0, 202]",202,l,0.5625438645947725,colour,0.5
18,21,0,1,2,34,84,265.1756823178148,266.3276279545389,"[30, 0, 224]",224,a,0.6288623454747722,colour,0.5
18,21,0,1,2,35,85,268.33510117500555,269.34364565555006,"[50, 0, 204]",204,a,0.48527017422020435,colour,0.5
18,21,0,1,2,36,86,271.3555516083725,272.23160563770216,"[92, 0, 162]",162,l,0.35271513229236007,colour,0.5
18,21,0,1,2,37,87,274.24639099568594,275.3276342561003,"[63, 0, 191]",191,l,0.5578634033445269,colour,0.5
18,21,0,1,2,38,88,277.34029875556007,278.2876120589208,"[13, 0, 241]",241,a,0.4237172252032906,colour,0.5
18,21,0,1,2,39,89,280.3093440658413,281.19958008185495,"[55, 0, 199]",199,l,0.3654008994344622,colour,0.5
18,21,0,1,2,40,90,283.21724878356326,284.05561966483947,"[66, 0, 188]",188,l,0.3153053129790351,colour,0.5
18,21,0,1,2,41,91,286.076855426305,287.71158922219183,"[7, 0, 247]",247,a,1.1114212864777073,colour,0.5
18,21,0,1,2,42,92,289.733355099801,290.62358599575236,"[80, 0, 174]",174,l,0.3668699434492737,colour,0.5
18,21,0,1,2,43,93,292.6272684521973,293.59159824915696,"[76, 0, 178]",178,l,0.4534249996067956,colour,0.5
18,21,0,1,2,44,94,295.59949288435746,296.4795657143695,"[79, 0, 175]",175,l,0.3567910405108705,colour,0.5
18,21,0,1,2,45,95,298.49029682565015,299.61559092986863,"[91, 0, 163]",163,l,0.6019158225972205,colour,0.5
18,21,0,1,2,46,96,301.6311706745764,302.6475936427014,"[34, 0, 220]",220,a,0.4930478372843936,colour,0.5
18,21,0,1,2,47,97,304.6644529917976,305.78356253833044,"[99, 0, 155]",155,l,0.5957828586688265,colour,0.5
18,21,0,1,2,48,98,307.79638969607186,309.3355513404822,"[58, 0, 196]",196,a,1.0157975412439555,colour,0.5
18,21,0,1,2,49,99,311.34357436944265,312.5517647040542,"[48, 0, 206]",206,a,0.6848384406184778,colour,0.5
18,21,0,1,2,50,100,314.5626809227979,316.35953023668844,"[11, 0, 243]",243,a,1.2736246320419014,colour,0.5
18,21,0,1,3,1,101,325.4989149553003,326.09552725288086,"[90, 0, 164]",164,l,0.07308671763166785,colour,0.5
18,21,0,1,3,2,102,328.10940322151873,329.2155544598354,"[60, 0, 194]",194,l,0.5827918612631038,colour,0.5
18,21,0,1,3,3,103,331.23464100575075,332.2955066942377,"[6, 0, 248]",248,a,0.5376784219406545,colour,0.5
18,21,0,1,3,4,104,334.31312774063554,335.5275124789914,"[41, 0, 213]",213,a,0.6998608937719837,colour,0.5
18,21,0,1,3,5,105,337.53898244467564,338.67954082321376,"[73, 0, 181]",181,l,0.6171749768545851,colour,0.5
18,21,0,1,3,6,106,340.6877103627194,341.7594969961792,"[4, 0, 250]",250,a,0.5487068867078051,colour,0.5
18,21,0,1,3,7,107,343.7660364086041,344.83156641060486,"[54, 0, 200]",200,l,0.5421887418488041,colour,0.5
18,21,0,1,3,8,108,346.8444160175277,347.7835207907483,"[89, 0, 165]",165,l,0.4160781956743449,colour,0.5
18,21,0,1,3,9,109,349.79775594652165,350.44748502003495,"[99, 0, 155]",155,l,0.1262936843559146,colour,0.5
18,21,0,1,3,10,110,352.45427137380466,354.3515016939491,"[30, 0, 224]",224,a,1.3739536507055163,colour,0.5
18,21,0,1,3,11,111,356.36078424111474,357.0075866479892,"[24, 0, 230]",230,a,0.12347414367832243,colour,0.5
18,21,0,1,3,12,112,359.0173646529438,359.8235307786381,"[53, 0, 201]",201,a,0.28307968366425484,colour,0.5
18,21,0,1,3,13,113,361.8300264743157,362.58347912179306,"[92, 0, 162]",162,l,0.2301499842433259,colour,0.5
18,21,0,1,3,14,114,364.5969250110211,365.1354773762869,"[14, 0, 240]",240,a,0.015270575881004333,colour,0.5
18,21,0,1,3,15,115,367.14401358610485,367.91148713743314,"[45, 0, 209]",209,a,0.2441425311844796,colour,0.5
18,21,0,1,3,16,116,369.9253973704763,370.5674602392828,"[96, 0, 158]",158,l,0.11867946712300181,colour,0.5
18,21,0,1,3,17,117,372.5829245871864,373.23151781002525,"[98, 0, 156]",156,l,0.1253945347853005,colour,0.5
18,21,0,1,3,18,118,375.2397763587069,375.78345895698294,"[11, 0, 243]",243,a,0.02026611368637532,colour,0.5
18,21,0,1,3,19,119,377.802533687558,378.6314365203725,"[32, 0, 222]",222,a,0.3055332157528028,colour,0.5
18,21,0,1,3,20,120,380.63469480513595,381.48748831264675,"[80, 0, 174]",174,a,0.3300642834510654,colour,0.5
18,21,0,1,3,21,121,383.49427702941466,384.1434346330352,"[15, 0, 239]",239,a,0.1257710512727499,colour,0.5
18,21,0,1,3,22,122,386.15071289998014,387.2314540070947,"[3, 0, 251]",251,a,0.5575207576621324,colour,0.5
18,21,0,1,3,23,123,389.2450920928968,390.3914864757098,"[79, 0, 175]",175,l,0.6230318549787626,colour,0.5
18,21,0,1,3,24,124,392.4016492678784,393.91142727283295,"[2, 0, 252]",252,a,0.9864717971067876,colour,0.5
18,21,0,1,3,25,125,395.93312028911896,397.0074629804585,"[58, 0, 196]",196,l,0.551076655741781,colour,0.5
18,21,0,1,3,26,126,399.0147022566525,400.39145024190657,"[69, 0, 185]",185,l,0.8533945159288123,colour,0.5
18,21,0,1,3,27,127,402.4055617301492,403.5914663107833,"[33, 0, 221]",221,a,0.6626271234126762,colour,0.5
18,21,0,1,3,28,128,405.6089254867984,406.72751121863257,"[39, 0, 215]",215,a,0.5952259609475732,colour,0.5
18,21,0,1,3,29,129,408.7216862421483,409.7114249885781,"[7, 0, 247]",247,a,0.4663033572724089,colour,0.5
18,21,0,1,3,30,130,411.7126939591253,412.7514629395446,"[12, 0, 242]",242,a,0.5154174803756177,colour,0.5
18,21,0,1,3,31,131,414.76009406603407,415.8714322510641,"[59, 0, 195]",195,l,0.5880847524385899,colour,0.5
18,21,0,1,3,32,132,417.8852786811767,419.23143195174634,"[20, 0, 234]",234,a,0.8213626585202292,colour,0.5
18,21,0,1,3,33,133,421.246600915445,422.4474090078147,"[66, 0, 188]",188,l,0.6778795823920518,colour,0.5
18,21,0,1,3,34,134,424.4655345706269,425.77539772493765,"[43, 0, 211]",211,l,0.7864506081677973,colour,0.5
18,21,0,1,3,35,135,427.7940069300821,429.06341032485943,"[52, 0, 202]",202,l,0.7460526822833344,colour,0.5
18,21,0,1,3,36,136,431.0755974834319,432.2074384832522,"[74, 0, 180]",180,l,0.6085678748786449,colour,0.5
18,21,0,1,3,37,137,434.2182503329823,435.4233781240182,"[67, 0, 187]",187,l,0.6817294232314453,colour,0.5
18,21,0,1,3,38,138,437.4390260040527,438.89543911023065,"[48, 0, 206]",206,l,0.932311330223456,colour,0.5
18,21,0,1,3,39,139,440.9087975657312,442.1674320399761,"[88, 0, 166]",166,l,0.7353054233826697,colour,0.5
18,21,0,1,3,40,140,444.17468706995714,445.7033826612169,"[49, 0, 205]",205,a,1.0051869467133656,colour,0.5
18,21,0,1,3,41,141,447.7127892697463,448.88736448751297,"[68, 0, 186]",186,l,0.6513544743647799,colour,0.5
18,21,0,1,3,42,142,450.90043819264974,452.047404833138,"[75, 0, 179]",179,l,0.6238400262081996,colour,0.5
18,21,0,1,3,43,143,454.0570276628714,455.2473905759398,"[72, 0, 182]",182,l,0.6670318929245695,colour,0.5
18,21,0,1,3,44,144,457.26038748107385,458.25536713108886,"[36, 0, 218]",218,a,0.4719459833577275,colour,0.5
18,21,0,1,3,45,145,460.27620117005426,461.519354360993,"[1, 0, 253]",253,a,0.7198576169321314,colour,0.5
18,21,0,1,3,46,146,463.5264317666879,464.6394130755216,"[44, 0, 210]",210,a,0.5904171061702073,colour,0.5
18,21,0,1,3,47,147,466.6517061785562,467.9673726480687,"[64, 0, 190]",190,l,0.7923984646331519,colour,0.5
18,21,0,1,3,48,148,469.9767961920006,471.40735806000885,"[83, 0, 171]",171,l,0.9073048909194767,colour,0.5
18,21,0,1,3,49,149,473.4145209301496,474.70340353494976,"[29, 0, 225]",225,a,0.7655145631870255,colour,0.5
18,21,0,1,3,50,150,476.7116857143119,478.0873482611496,"[16, 0, 238]",238,a,0.8523957234574482,colour,0.5
18,21,0,1,4,1,151,486.07095246831886,487.0153225634713,"[7, 0, 247]",247,a,0.42014780233148485,colour,0.5
18,21,0,1,4,2,152,489.0250997807598,489.7673203453887,"[95, 0, 159]",159,l,0.21880211075767875,colour,0.5
18,21,0,1,4,3,153,491.7752657866804,492.59131901257206,"[35, 0, 219]",219,a,0.2926808518823236,colour,0.5
18,21,0,1,4,4,154,494.60359321103897,495.47937784995884,"[58, 0, 196]",196,l,0.3524079326307401,colour,0.5
18,21,0,1,4,5,155,497.4948614962632,498.087354956544,"[93, 0, 161]",161,l,0.06910296936985105,colour,0.5
18,21,0,1,4,6,156,500.0931909607025,501.67949159257114,"[45, 0, 209]",209,a,1.063087765360251,colour,0.5
18,21,0,1,4,7,157,503.6870341298636,504.87927174789365,"[67, 0, 187]",187,l,0.6621678994270042,colour,0.5
18,21,0,1,4,8,158,506.8979742944939,507.5432749680476,"[22, 0, 232]",232,a,0.12198619497939944,colour,0.5
18,21,0,1,4,9,159,509.5544223742327,510.35126538656186,"[38, 0, 216]",216,a,0.2734993891790509,colour,0.5
18,21,0,1,4,10,160,512.3578634820879,513.5193161580246,"[81, 0, 173]",173,l,0.6381574957631528,colour,0.5
18,21,0,1,4,11,161,515.5299795279279,516.3992609881097,"[66, 0, 188]",188,l,0.34592562774196267,colour,0.5
18,21,0,1,4,12,162,518.420837032143,519.6553520073649,"[52, 0, 202]",202,a,0.7111079428577796,colour,0.5
18,21,0,1,4,13,163,521.6711011056323,522.4072655063355,"[11, 0, 243]",243,a,0.21143365325406194,colour,0.5
18,21,0,1,4,14,164,524.4226692019729,525.3592506062705,"[55, 0, 199]",199,l,0.41331576253287494,colour,0.5
18,21,0,1,4,15,165,527.3760571801104,528.3272864903556,"[89, 0, 165]",165,l,0.42794791469350457,colour,0.5
18,21,0,1,4,16,166,530.3449315613834,531.1272507292451,"[78, 0, 176]",176,l,0.25897593842819333,colour,0.5
18,21,0,1,4,17,167,533.1328902045498,533.7672537853941,"[0, 0, 254]",254,a,0.11115032061934471,colour,0.5
18,21,0,1,4,18,168,535.7725391935091,536.7512392351637,"[48, 0, 206]",206,a,0.4555084428284317,colour,0.5
18,21,0,1,4,19,169,538.760253179702,539.8152927099727,"[61, 0, 193]",193,l,0.5324461829150096,colour,0.5
18,21,0,1,4,20,170,541.8230597393122,542.5432852080557,"[1, 0, 253]",253,a,0.19689720554742962,colour,0.5
18,21,0,1,4,21,171,544.5576274897903,545.3912170853,"[92, 0, 162]",162,l,0.31024006463121623,colour,0.5
18,21,0,1,4,22,172,547.4015957048396,547.9592480069259,"[86, 0, 168]",168,l,0.03427835274487734,colour,0.5
18,21,0,1,4,23,173,549.9798666123534,550.5832554175286,"[75, 0, 179]",179,l,0.07993766211438924,colour,0.5
18,21,0,1,4,24,174,552.6051398427226,553.4712744764984,"[62, 0, 192]",192,a,0.3429091642610729,colour,0.5
18,21,0,1,4,25,175,555.4710688891355,557.0711954711005,"[46, 0, 208]",208,a,1.0770314753754064,colour,0.5
18,21,0,1,4,26,176,559.0807607994648,559.9672655219911,"[37, 0, 217]",217,a,0.3632764960639179,colour,0.5
18,21,0,1,4,27,177,561.9872961159563,562.8472513121087,"[64, 0, 190]",190,l,0.3366036959923804,colour,0.5
18,21,0,1,4,28,178,564.8641787964152,565.4952139881207,"[56, 0, 198]",198,a,0.10839418903924525,colour,0.5
18,21,0,1,4,29,179,567.4932928092312,569.0151922005462,"[8, 0, 246]",246,a,0.9986585618462414,colour,0.5
18,21,0,1,4,30,180,571.024799670442,571.8552424395457,"[17, 0, 237]",237,a,0.3071617673849687,colour,0.5
18,21,0,1,4,31,181,573.8587516038679,575.1511788192438,"[97, 0, 157]",157,l,0.7690296352375299,colour,0.5
18,21,0,1,4,32,182,577.1715347296558,578.0552179423394,"[23, 0, 231]",231,a,0.36026042653247714,colour,0.5
18,21,0,1,4,33,183,580.0623697848059,581.0712147695012,"[82, 0, 172]",172,l,0.4854308631038293,colour,0.5
18,21,0,1,4,34,184,583.0782874489669,583.9431653213687,"[84, 0, 170]",170,l,0.34147044620476663,colour,0.5
18,21,0,1,4,35,185,585.9535388209624,586.9271645557601,"[9, 0, 245]",245,a,0.450301016215235,colour,0.5
18,21,0,1,4,36,186,588.9381118883612,589.9671635159757,"[59, 0, 195]",195,l,0.5057788966223598,colour,0.5
18,21,0,1,4,37,187,591.985241029528,593.2791936090216,"[12, 0, 242]",242,l,0.7706373131368309,colour,0.5
18,21,0,1,4,38,188,595.2979776815046,596.4551784002688,"[25, 0, 229]",229,a,0.6336519019678235,colour,0.5
18,21,0,1,4,39,189,598.4701335057616,599.4551551633049,"[79, 0, 175]",175,l,0.461977357044816,colour,0.5
18,21,0,1,4,40,190,601.4703591793077,603.143223531777,"[44, 0, 210]",210,a,1.1495301815448329,colour,0.5
18,21,0,1,4,41,191,605.1581412219675,606.9591759331524,"[30, 0, 224]",224,a,1.2777529216837138,colour,0.5
18,21,0,1,4,42,192,608.9709255292546,609.8472040506313,"[65, 0, 189]",189,l,0.35283722437452525,colour,0.5
18,21,0,1,4,43,193,611.8627810383914,612.8551963595673,"[43, 0, 211]",211,a,0.4689535442739725,colour,0.5
18,21,0,1,4,44,194,614.855624075979,615.8871967092855,"[14, 0, 240]",240,a,0.5081667825579643,colour,0.5
18,21,0,1,4,45,195,617.8912198422477,618.7351561558899,"[28, 0, 226]",226,a,0.33009579114150256,colour,0.5
18,21,0,1,4,46,196,620.7569153381046,621.5191345951753,"[83, 0, 171]",171,l,0.23920410103164613,colour,0.5
18,21,0,1,4,47,197,623.5384688699851,624.4392449822044,"[42, 0, 212]",212,a,0.3774391843471676,colour,0.5
18,21,0,1,4,48,198,626.4605260359822,627.311116371071,"[13, 0, 241]",241,a,0.3270706629846245,colour,0.5
18,21,0,1,4,49,199,629.3201011710335,630.23115429061,"[49, 0, 205]",205,a,0.3876685363939032,colour,0.5
18,21,0,1,4,50,200,632.2440023220843,633.0471059043193,"[91, 0, 163]",163,l,0.2797579898033291,colour,0.5
18,21,0,1,5,1,201,641.3532680914504,642.711150084273,"[49, 0, 205]",205,a,0.8339468134799972,colour,0.5
18,21,0,1,5,2,202,644.7293839545455,645.6391751928022,"[94, 0, 160]",160,l,0.38637278438545763,colour,0.5
18,21,0,1,5,3,203,647.6515703018522,648.6071185230976,"[77, 0, 177]",177,l,0.43263940361794084,colour,0.5
18,21,0,1,5,4,204,650.6205415691948,651.4231248813448,"[83, 0, 171]",171,l,0.27923378127161413,colour,0.5
18,21,0,1,5,5,205,653.4334735686425,654.0951160781551,"[5, 0, 249]",249,a,0.13869588274974376,colour,0.5
18,21,0,1,5,6,206,656.1053596086567,657.3750674460316,"[46, 0, 208]",208,a,0.7463331003673375,colour,0.5
18,21,0,1,5,7,207,659.3868162544677,661.4230567460181,"[91, 0, 163]",163,l,1.5100844168337062,colour,0.5
18,21,0,1,5,8,208,663.4369138099719,664.9911577721359,"[4, 0, 250]",250,a,1.0308231451781467,colour,0.5
18,21,0,1,5,9,209,667.000912540243,668.0470988150919,"[66, 0, 188]",188,l,0.5230600544018671,colour,0.5
18,21,0,1,5,10,210,670.0636064599967,671.25508868217,"[68, 0, 186]",186,l,0.6680732206441462,colour,0.5
18,21,0,1,5,11,211,673.266995816608,674.4231063706102,"[52, 0, 202]",202,a,0.6328732691472396,colour,0.5
18,21,0,1,5,12,212,676.4391591238091,677.7030955477385,"[15, 0, 239]",239,a,0.7405774407088757,colour,0.5
18,21,0,1,5,13,213,679.7206590927672,680.8150879102759,"[86, 0, 168]",168,l,0.571132849669084,colour,0.5
18,21,0,1,5,14,214,682.8302139447769,683.8630646072561,"[56, 0, 198]",198,a,0.5095342146232724,colour,0.5
18,21,0,1,5,15,215,685.8773419044446,686.4230236629955,"[9, 0, 245]",245,a,0.02304430049844086,colour,0.5
18,21,0,1,5,16,216,688.4399826549925,689.2870862750569,"[23, 0, 231]",231,a,0.3236245139269158,colour,0.5
18,21,0,1,5,17,217,691.2997491990682,692.0950199797517,"[19, 0, 235]",235,a,0.27200907736551017,colour,0.5
18,21,0,1,5,18,218,694.1123739989707,694.6550837985706,"[45, 0, 209]",209,a,0.019302767235785723,colour,0.5
18,21,0,1,5,19,219,696.6751187246991,698.079034180264,"[75, 0, 179]",179,l,0.8805966445943341,colour,0.5
18,21,0,1,5,20,220,700.0911362682236,701.0310436987784,"[90, 0, 164]",164,l,0.4289522210601717,colour,0.5
18,21,0,1,5,21,221,703.0476903711678,703.9430373215582,"[69, 0, 185]",185,l,0.3719080165028572,colour,0.5
18,21,0,1,5,22,222,705.9541288017062,706.6710203672992,"[61, 0, 193]",193,l,0.19343018252402544,colour,0.5
18,21,0,1,5,23,223,708.6887670505093,709.5030428512255,"[11, 0, 243]",243,a,0.2908766452455893,colour,0.5
18,21,0,1,5,24,224,711.5171933301026,712.487003488699,"[80, 0, 174]",174,l,0.44679382105823606,colour,0.5
18,21,0,1,5,25,225,714.5017337083118,715.5269559751032,"[0, 0, 254]",254,a,0.5018290189327672,colour,0.5
18,21,0,1,5,26,226,717.5332480525831,718.3029905484291,"[27, 0, 227]",227,a,0.24654420162551105,colour,0.5
18,21,0,1,5,27,227,720.3146688585402,721.3269891369855,"[55, 0, 199]",199,a,0.4892054795054719,colour,0.5
18,21,0,1,5,28,228,723.3462135288864,724.006974218064,"[8, 0, 246]",246,a,0.13732845068443567,colour,0.5
18,21,0,1,5,29,229,726.0183437531814,728.9030371798435,"[42, 0, 212]",212,a,2.36159241234418,colour,0.5
18,21,0,1,5,30,230,730.9093402849976,731.758980270708,"[24, 0, 230]",230,a,0.3269926815992221,colour,0.5
18,21,0,1,5,31,231,733.7689555922989,734.5830053255195,"[70, 0, 184]",184,l,0.29082465753890574,colour,0.5
18,21,0,1,5,32,232,736.5972684443695,737.5749952935148,"[32, 0, 222]",222,a,0.4544186720158905,colour,0.5
18,21,0,1,5,33,233,739.5711891695391,740.87095097173,"[81, 0, 173]",173,l,0.7763598897727206,colour,0.5
18,21,0,1,5,34,234,742.8838931323262,743.7430425203638,"[1, 0, 253]",253,a,0.3359128908487037,colour,0.5
18,21,0,1,5,35,235,745.7505838761572,746.7109425276285,"[47, 0, 207]",207,a,0.43725054804235697,colour,0.5
18,21,0,1,5,36,236,748.7074152464047,749.919002499315,"[18, 0, 236]",236,a,0.6885244416771457,colour,0.5
18,21,0,1,5,37,237,751.9264087660704,753.2069572039181,"[35, 0, 219]",219,a,0.7577018478186801,colour,0.5
18,21,0,1,5,38,238,755.2235605533933,756.1429773783311,"[62, 0, 192]",192,l,0.39609250018838793,colour,0.5
18,21,0,1,5,39,239,758.1613101038383,759.110937250196,"[2, 0, 252]",252,a,0.42623468639794737,colour,0.5
18,21,0,1,5,40,240,761.130267192726,762.2069367240183,"[60, 0, 194]",194,l,0.5535811199806631,colour,0.5
18,21,0,1,5,41,241,764.2262221620185,765.1509673241526,"[78, 0, 176]",176,l,0.40134206821676344,colour,0.5
18,21,0,1,5,42,242,767.1566091625718,768.2068973394344,"[89, 0, 165]",165,l,0.5270304119912907,colour,0.5
18,21,0,1,5,43,243,770.2192613346269,771.6709144228371,"[39, 0, 215]",215,a,0.9282732311403379,colour,0.5
18,21,0,1,5,44,244,773.6884322818369,774.5429441377055,"[96, 0, 158]",158,l,0.3314959122799337,colour,0.5
18,21,0,1,5,45,245,776.5636363922385,777.5669230339117,"[74, 0, 180]",180,l,0.4800367536954582,colour,0.5
18,21,0,1,5,46,246,779.567895832588,780.4790753765265,"[13, 0, 241]",241,a,0.3888130517443642,colour,0.5
18,21,0,1,5,47,247,782.4892216271255,783.3029298962792,"[29, 0, 225]",225,a,0.29030556906946003,colour,0.5
18,21,0,1,5,48,248,785.3174557100283,786.2389575536363,"[17, 0, 237]",237,a,0.39838980161584914,colour,0.5
18,21,0,1,5,49,249,788.2552454327233,789.4308997875778,"[54, 0, 200]",200,a,0.6522268424741924,colour,0.5
18,21,0,1,5,50,250,791.4430369277252,792.4789024783531,"[51, 0, 203]",203,l,0.5125049920752645,colour,0.5
18,21,0,1,6,1,251,800.5241848774021,801.5589177280199,"[15, 0, 239]",239,a,0.5106373761082068,colour,0.5
18,21,0,1,6,2,252,803.5720898944419,804.4228629739955,"[35, 0, 219]",219,a,0.32736210874281824,colour,0.5
18,21,0,1,6,3,253,806.4254918934312,807.2788415109972,"[58, 0, 196]",196,l,0.3300272619817406,colour,0.5
18,21,0,1,6,4,254,809.2851115331287,810.0868598925881,"[23, 0, 231]",231,a,0.278354324051179,colour,0.5
18,21,0,1,6,5,255,812.0857386140851,812.8228187058121,"[27, 0, 227]",227,a,0.21376009925734252,colour,0.5
18,21,0,1,6,6,256,814.8359936291818,815.6309142811224,"[18, 0, 236]",236,a,0.27213077573105693,colour,0.5
18,21,0,1,6,7,257,817.648628668976,818.5348683334887,"[77, 0, 177]",177,l,0.36289564752951264,colour,0.5
18,21,0,1,6,8,258,820.555100182537,821.742868834408,"[43, 0, 211]",211,a,0.6643671334022656,colour,0.5
18,21,0,1,6,9,259,823.7493227825034,824.7348422608338,"[87, 0, 167]",167,l,0.46223217505030334,colour,0.5
18,21,0,1,6,10,260,826.7495287636993,827.6548770295922,"[76, 0, 178]",178,l,0.38283644465263933,colour,0.5
18,21,0,1,6,11,261,829.6716241326649,830.8388419206021,"[39, 0, 215]",215,a,0.6439489953918383,colour,0.5
18,21,0,1,6,12,262,832.8455857390072,833.7428491421742,"[72, 0, 182]",182,l,0.37430850556120276,colour,0.5
18,21,0,1,6,13,263,835.7520225940971,836.8468389557675,"[53, 0, 201]",201,l,0.571972134639509,colour,0.5
18,21,0,1,6,14,264,838.8615514524281,840.2550941960653,"[29, 0, 225]",225,a,0.87017864047084,colour,0.5
18,21,0,1,6,15,265,842.2680989780929,843.2388208892662,"[44, 0, 210]",210,l,0.44732433115132153,colour,0.5
18,21,0,1,6,16,266,845.2527000085684,846.6788578949636,"[56, 0, 198]",198,l,0.902764638653025,colour,0.5
18,21,0,1,6,17,267,848.6904058421496,849.6148434109055,"[9, 0, 245]",245,a,0.4009887888096273,colour,0.5
18,21,0,1,6,18,268,851.6282656693365,852.3108367407694,"[6, 0, 248]",248,a,0.15921563282608986,colour,0.5
18,21,0,1,6,19,269,854.3315415983088,854.9108065721812,"[94, 0, 160]",160,l,0.055876452242955565,colour,0.5
18,21,0,1,6,20,270,856.9258073638193,857.4548467822606,"[79, 0, 175]",175,l,0.015366280335001647,colour,0.5
18,21,0,1,6,21,271,859.4633613304468,859.9988558784826,"[33, 0, 221]",221,a,0.012166284723207355,colour,0.5
18,21,0,1,6,22,272,862.0104199732887,863.0788096883334,"[61, 0, 193]",193,a,0.5450551502872258,colour,0.5
18,21,0,1,6,23,273,865.0887003331445,865.9268561747158,"[51, 0, 203]",203,a,0.31499693205114454,colour,0.5
18,21,0,1,6,24,274,867.9232615457149,868.7188387382776,"[84, 0, 170]",170,l,0.2723725967807695,colour,0.5
18,21,0,1,6,25,275,870.7360190715408,871.502795122331,"[10, 0, 244]",244,a,0.24344581831246614,colour,0.5
18,21,0,1,6,26,276,873.5174883204745,874.1427721846849,"[37, 0, 217]",217,a,0.10218560684006661,colour,0.5
18,21,0,1,6,27,277,876.158349566278,876.710789715522,"[85, 0, 169]",169,l,0.02920483355410397,colour,0.5
18,21,0,1,6,28,278,878.7153484785231,880.3427784075029,"[41, 0, 213]",213,a,1.1040453457972035,colour,0.5
18,21,0,1,6,29,279,882.3562498965766,883.4307477631373,"[62, 0, 192]",192,l,0.5510120650287718,colour,0.5
18,21,0,1,6,30,280,885.4503218900645,886.4947728810366,"[83, 0, 171]",171,l,0.5212908998364583,colour,0.5
18,21,0,1,6,31,281,888.5130256558768,890.0147613334702,"[70, 0, 184]",184,l,0.9787677831482142,colour,0.5
18,21,0,1,6,32,282,892.0289043294033,893.1427788800793,"[34, 0, 220]",220,a,0.5904517645249143,colour,0.5
18,21,0,1,6,33,283,895.1541763782734,896.1588343902258,"[54, 0, 200]",200,a,0.48200125549919903,colour,0.5
18,21,0,1,6,34,284,898.1700373287313,899.1749363741837,"[3, 0, 251]",251,a,0.4814963454846293,colour,0.5
18,21,0,1,6,35,285,901.1859557805583,901.9907576250844,"[63, 0, 191]",191,l,0.28156810416840017,colour,0.5
18,21,0,1,6,36,286,903.9898478416726,904.9267896147212,"[93, 0, 161]",161,l,0.41347369458526373,colour,0.5
18,21,0,1,6,37,287,906.9433039550204,909.4387550383108,"[65, 0, 189]",189,l,1.972046413924545,colour,0.5
18,21,0,1,6,38,288,911.4602054456482,912.6467102470342,"[25, 0, 229]",229,a,0.6631659043487161,colour,0.5
18,21,0,1,6,39,289,914.6635676268488,915.4627658359241,"[2, 0, 252]",252,a,0.2758817612193525,colour,0.5
18,21,0,1,6,40,290,917.4763157003326,918.1907583340071,"[89, 0, 165]",165,l,0.19113760732579976,colour,0.5
18,21,0,1,6,41,291,920.2108480046736,920.9347228468396,"[0, 0, 254]",254,a,0.2004426036728546,colour,0.5
18,21,0,1,6,42,292,922.9451546355849,923.6627259787638,"[66, 0, 188]",188,l,0.19432303064968437,colour,0.5
18,21,0,1,6,43,293,925.679736958351,926.4787618754199,"[82, 0, 172]",172,l,0.276117674773559,colour,0.5
18,21,0,1,6,44,294,928.480245491839,929.3987619857071,"[57, 0, 197]",197,a,0.39550330711063,colour,0.5
18,21,0,1,6,45,295,931.4176626366097,932.2787721941713,"[22, 0, 232]",232,a,0.3383838781155646,colour,0.5
18,21,0,1,6,46,296,934.295293623698,935.1267387298867,"[40, 0, 214]",214,a,0.3081298398319632,colour,0.5
18,21,0,1,6,47,297,937.1392760172021,938.0066697754664,"[12, 0, 242]",242,a,0.3440840058028698,colour,0.5
18,21,0,1,6,48,298,940.0144734323258,940.8707339627435,"[16, 0, 238]",238,a,0.3329373871674761,colour,0.5
18,21,0,1,6,49,299,942.8897417397238,943.8067328694742,"[75, 0, 179]",179,l,0.3937014634720981,colour,0.5
18,21,0,1,6,50,300,945.8285550670698,946.6947302669287,"[4, 0, 250]",250,a,0.3428414227673784,colour,0.5
18,21,0,1,7,1,301,954.56303577777,955.5987004670314,"[13, 0, 241]",241,a,0.5115648825885728,colour,0.5
18,21,0,1,7,2,302,957.6110026284587,958.374648394296,"[59, 0, 195]",195,l,0.24039193941280246,colour,0.5
18,21,0,1,7,3,303,960.392409255961,961.2067098688567,"[5, 0, 249]",249,a,0.2908943681977689,colour,0.5
18,21,0,1,7,4,304,963.2221876075491,963.8546745141502,"[34, 0, 220]",220,a,0.10904364043381065,colour,0.5
18,21,0,1,7,5,305,965.8630260103382,966.4946523642866,"[7, 0, 247]",247,a,0.10835401678923517,colour,0.5
18,21,0,1,7,6,306,968.5048643870978,969.3026794104371,"[96, 0, 158]",158,l,0.2747384273679927,colour,0.5
18,21,0,1,7,7,307,971.317578983726,972.2786382866325,"[68, 0, 186]",186,l,0.43788897176273167,colour,0.5
18,21,0,1,7,8,308,974.2866038141074,975.6626539049903,"[99, 0, 155]",155,l,0.8526777168735862,colour,0.5
18,21,0,1,7,9,309,977.6774534415454,978.6706363678677,"[86, 0, 168]",168,l,0.46978337701875716,colour,0.5
18,21,0,1,7,10,310,980.6777251949534,981.4306426063413,"[73, 0, 181]",181,l,0.22951746825128794,colour,0.5
18,21,0,1,7,11,311,983.4442732090829,984.4388117520139,"[41, 0, 213]",213,a,0.47118586127180606,colour,0.5
18,21,0,1,7,12,312,986.460145581048,987.1506487031002,"[64, 0, 190]",190,l,0.1671850987477228,colour,0.5
18,21,0,1,7,13,313,989.1633821255527,990.0146041890839,"[54, 0, 200]",200,a,0.327753197401762,colour,0.5
18,21,0,1,7,14,314,992.0231136173243,992.6866355581442,"[90, 0, 164]",164,l,0.1403000159189105,colour,0.5
18,21,0,1,7,15,315,994.6950729126111,995.414623329998,"[62, 0, 192]",192,a,0.20548264600802213,colour,0.5
18,21,0,1,7,16,316,997.4361095773056,998.1186018795706,"[63, 0, 191]",191,a,0.1592877065995708,colour,0.5
18,21,0,1,7,17,317,1000.1394630939467,1000.6946239286335,"[92, 0, 162]",162,l,0.03189322375692427,colour,0.5
18,21,0,1,7,18,318,1002.7020396476146,1004.158629196696,"[66, 0, 188]",188,l,0.9329812616342679,colour,0.5
18,21,0,1,7,19,319,1006.1726201681886,1007.3826143156039,"[88, 0, 166]",166,l,0.6866068072849885,colour,0.5
18,21,0,1,7,20,320,1009.3915014418308,1010.3185773823643,"[98, 0, 156]",156,l,0.403616132796742,colour,0.5
18,21,0,1,7,21,321,1012.3293533921242,1013.3266071067192,"[19, 0, 235]",235,a,0.47421965398825705,colour,0.5
18,21,0,1,7,22,322,1015.3452336409828,1016.1986254000803,"[10, 0, 244]",244,a,0.3300623142858967,colour,0.5
18,21,0,1,7,23,323,1018.1943100336939,1018.7505819068756,"[24, 0, 230]",230,a,0.032850662362761796,colour,0.5
18,21,0,1,7,24,324,1020.744671071996,1021.4946240073768,"[28, 0, 226]",226,a,0.22663136757910252,colour,0.5
18,21,0,1,7,25,325,1023.510506225517,1024.3985319798812,"[82, 0, 172]",172,l,0.36465850041713566,colour,0.5
18,21,0,1,7,26,326,1026.4169674990699,1030.1585610613693,"[75, 0, 179]",179,l,3.218338160542771,colour,0.5
18,21,0,1,7,27,327,1032.1674292830285,1033.0865589944879,"[81, 0, 173]",173,l,0.39592905424069613,colour,0.5
18,21,0,1,7,28,328,1035.1051540211774,1037.2385644956958,"[43, 0, 211]",211,a,1.6098092762986198,colour,0.5
18,21,0,1,7,29,329,1039.2460471685044,1039.9426170883235,"[30, 0, 224]",224,a,0.17308136145584285,colour,0.5
18,21,0,1,7,30,330,1041.949408168206,1042.6385659135412,"[46, 0, 208]",208,l,0.16579049138817936,colour,0.5
18,21,0,1,7,31,331,1044.6528034324292,1045.68662453047,"[3, 0, 251]",251,a,0.5105097701307386,colour,0.5
18,21,0,1,7,32,332,1047.6899379536044,1048.6385403135791,"[97, 0, 157]",157,l,0.43334517488256097,colour,0.5
18,21,0,1,7,33,333,1050.6506672138348,1051.4385348785436,"[2, 0, 252]",252,a,0.2650084715569392,colour,0.5
18,21,0,1,7,34,334,1053.4385195185896,1054.486532843206,"[70, 0, 184]",184,l,0.5246185015421361,colour,0.5
18,21,0,1,7,35,335,1056.5013150505256,1057.0705653181067,"[20, 0, 234]",234,a,0.04638989293016493,colour,0.5
18,21,0,1,7,36,336,1059.0795627210755,1061.2625189735554,"[47, 0, 207]",207,a,1.6596075092675164,colour,0.5
18,21,0,1,7,37,337,1063.2831596343312,1064.0865117330104,"[94, 0, 160]",160,l,0.28021681983955204,colour,0.5
18,21,0,1,7,38,338,1066.0958076709649,1067.286509685102,"[49, 0, 205]",205,a,0.6673481508623809,colour,0.5
18,21,0,1,7,39,339,1069.288024809095,1070.5104896839475,"[26, 0, 228]",228,a,0.6991196762537584,colour,0.5
18,21,0,1,7,40,340,1072.5226567564532,1073.6705008849967,"[25, 0, 229]",229,a,0.6245272868545726,colour,0.5
18,21,0,1,7,41,341,1075.6790819931775,1076.814527074108,"[17, 0, 237]",237,a,0.6121538392035291,colour,0.5
18,21,0,1,7,42,342,1078.8355603989912,1079.8305164182093,"[84, 0, 170]",170,l,0.4719826108776033,colour,0.5
18,21,0,1,7,43,343,1081.8514237124473,1082.9904992623487,"[29, 0, 225]",225,a,0.6158843449084088,colour,0.5
18,21,0,1,7,44,344,1085.008592135855,1085.9185598168988,"[0, 0, 254]",254,a,0.38657600863371044,colour,0.5
18,21,0,1,7,45,345,1087.9307587908115,1088.7665393494535,"[67, 0, 187]",187,l,0.3128603195073083,colour,0.5
18,21,0,1,7,46,346,1090.7747738735052,1091.68649613671,"[23, 0, 231]",231,a,0.38839399989228696,colour,0.5
18,21,0,1,7,47,347,1093.684421358048,1094.8145034434274,"[33, 0, 221]",221,a,0.6068585850298405,colour,0.5
18,21,0,1,7,48,348,1096.8177558204625,1097.7584789051907,"[22, 0, 232]",232,a,0.4174814675934613,colour,0.5
18,21,0,1,7,49,349,1099.771038641804,1100.974518188974,"[87, 0, 167]",167,l,0.6801587670342997,colour,0.5
18,21,0,1,7,50,350,1102.990013650735,1103.7424879857572,"[80, 0, 174]",174,l,0.2291295303730294,colour,0.5
18,21,0,1,8,1,351,1147.8990219237749,1150.1904381375061,"[64, 0, 190]",190,l,1.7673680006992072,colour,0.5
18,21,0,1,8,2,352,1152.1913270470686,1152.9663880340522,"[68, 0, 186]",186,l,0.251902865129523,colour,0.5
18,21,0,1,8,3,353,1154.9726875945926,1155.606429293286,"[33, 0, 221]",221,a,0.11047723842784762,colour,0.5
18,21,0,1,8,4,354,1157.6134708590107,1158.3904187602457,"[92, 0, 162]",162,l,0.2538496438646689,colour,0.5
18,21,0,1,8,5,355,1160.4104619572172,1162.2624654105166,"[31, 0, 223]",223,a,1.3285593994660303,colour,0.5
18,21,0,1,8,6,356,1164.270214322838,1165.0224334460218,"[84, 0, 170]",170,l,0.22884793067350984,colour,0.5
18,21,0,1,8,7,357,1167.0363432852319,1167.6623715177411,"[76, 0, 178]",178,l,0.10295281815342605,colour,0.5
18,21,0,1,8,8,358,1169.6770280882483,1170.4943896692712,"[75, 0, 179]",179,l,0.29314204514957964,colour,0.5
18,21,0,1,8,9,359,1172.5064893941162,1173.2944023511373,"[93, 0, 161]",161,l,0.2645673645893112,colour,0.5
18,21,0,1,8,10,360,1175.3056214371463,1176.12636890891,"[57, 0, 197]",197,a,0.2973880947101861,colour,0.5
18,21,0,1,8,11,361,1178.1339303507702,1179.8544110314688,"[40, 0, 214]",214,a,1.1974092047894374,colour,0.5
18,21,0,1,8,12,362,1181.8685922303703,1182.5024032458896,"[14, 0, 240]",240,a,0.11044691235292703,colour,0.5
18,21,0,1,8,13,363,1184.5094357531052,1185.2223896504147,"[90, 0, 164]",164,l,0.18959136947523803,colour,0.5
18,21,0,1,8,14,364,1187.2197792415973,1187.9103335635737,"[85, 0, 169]",169,l,0.16723787412047386,colour,0.5
18,21,0,1,8,15,365,1189.9231583582005,1190.7663377005374,"[9, 0, 245]",245,a,0.31986998370848596,colour,0.5
18,21,0,1,8,16,366,1192.7827019856777,1193.4383946695598,"[12, 0, 242]",242,a,0.13240104832220823,colour,0.5
18,21,0,1,8,17,367,1195.4549172805855,1196.6943486304954,"[29, 0, 225]",225,a,0.7162216341821477,colour,0.5
18,21,0,1,8,18,368,1198.694285615231,1199.4063348490745,"[89, 0, 165]",165,l,0.18866149988025427,colour,0.5
18,21,0,1,8,19,369,1201.4133240332594,1202.2063502878882,"[72, 0, 182]",182,l,0.2697259543929249,colour,0.5
18,21,0,1,8,20,370,1204.226020119153,1204.7743816033471,"[39, 0, 215]",215,a,0.024993836414068937,colour,0.5
18,21,0,1,8,21,371,1206.7886581128696,1207.3423451773124,"[2, 0, 252]",252,a,0.030237890663556755,colour,0.5
18,21,0,1,8,22,372,1209.3389659819659,1210.2543187140254,"[47, 0, 207]",207,a,0.39197129965759814,colour,0.5
18,21,0,1,8,23,373,1212.2610180279007,1213.1183194923215,"[15, 0, 239]",239,a,0.3338802536018193,colour,0.5
18,21,0,1,8,24,374,1215.1362501013791,1215.958295294433,"[77, 0, 177]",177,l,0.2986535206437111,colour,0.5
18,21,0,1,8,25,375,1217.9645948549733,1218.7424084289232,"[49, 0, 205]",205,a,0.25454911368433386,colour,0.5
18,21,0,1,8,26,376,1220.761701349984,1221.5743159098784,"[71, 0, 183]",183,l,0.28928235813509673,colour,0.5
18,21,0,1,8,27,377,1223.5900224727811,1224.3823268084088,"[94, 0, 160]",160,l,0.2692537335678935,colour,0.5
18,21,0,1,8,28,378,1226.4055235271808,1227.2223396319896,"[24, 0, 230]",230,a,0.2933913494925946,colour,0.5
18,21,0,1,8,29,379,1229.2338253514608,1230.0103033949854,"[91, 0, 163]",163,l,0.25333921995479614,colour,0.5
18,21,0,1,8,30,380,1232.030948388041,1232.9183479279745,"[56, 0, 198]",198,a,0.3640555228339508,colour,0.5
18,21,0,1,8,31,381,1234.937434867723,1235.76631446369,"[8, 0, 246]",246,a,0.30552336969412863,colour,0.5
18,21,0,1,8,32,382,1237.7813672429183,1238.5743293005507,"[16, 0, 238]",238,a,0.2681978333275765,colour,0.5
18,21,0,1,8,33,383,1240.5954992899206,1241.3823153867852,"[30, 0, 224]",224,a,0.2634681414347142,colour,0.5
18,21,0,1,8,34,384,1243.3926231141668,1244.142296025413,"[28, 0, 226]",226,a,0.22657622920814902,colour,0.5
18,21,0,1,8,35,385,1246.1460221987218,1246.9422630211338,"[74, 0, 180]",180,l,0.2728140978142619,colour,0.5
18,21,0,1,8,36,386,1248.9591558470856,1249.67024803604,"[37, 0, 217]",217,a,0.18779503949917853,colour,0.5
18,21,0,1,8,37,387,1251.678072566865,1252.454267829191,"[32, 0, 222]",222,a,0.25871166796423495,colour,0.5
18,21,0,1,8,38,388,1254.4692772853887,1255.4702559917932,"[51, 0, 203]",203,a,0.4777489044936374,colour,0.5
18,21,0,1,8,39,389,1257.4732283445774,1258.1022738282336,"[41, 0, 213]",213,a,0.10561324516311288,colour,0.5
18,21,0,1,8,40,390,1260.1140529627446,1261.5662617670605,"[60, 0, 194]",194,a,0.9288013781188056,colour,0.5
18,21,0,1,8,41,391,1263.5831085131504,1264.4062954644905,"[3, 0, 251]",251,a,0.2999193404102698,colour,0.5
18,21,0,1,8,42,392,1266.4271208388964,1267.23824981309,"[78, 0, 176]",176,l,0.2877262741094455,colour,0.5
18,21,0,1,8,43,393,1269.2554837093921,1270.1662469585426,"[96, 0, 158]",158,l,0.3873424322810024,colour,0.5
18,21,0,1,8,44,394,1272.1775849859696,1273.0302575828973,"[62, 0, 192]",192,a,0.3292915583588183,colour,0.5
18,21,0,1,8,45,395,1275.0371609088033,1275.8702558341902,"[36, 0, 218]",218,a,0.30968828697223216,colour,0.5
18,21,0,1,8,46,396,1277.8810783177614,1278.7263048696332,"[42, 0, 212]",212,a,0.32213459606282413,colour,0.5
18,21,0,1,8,47,397,1280.7407208004734,1281.5022366491612,"[23, 0, 231]",231,a,0.23802610870916396,colour,0.5
18,21,0,1,8,48,398,1283.5222164370352,1284.6062252812553,"[67, 0, 187]",187,l,0.5605352519778535,colour,0.5
18,21,0,1,8,49,399,1286.6161722460529,1287.5822507173289,"[52, 0, 202]",202,a,0.44276162958703935,colour,0.5
18,21,0,1,8,50,400,1289.600808328716,1290.342442457215,"[13, 0, 241]",241,a,0.2184370158938691,colour,0.5
18,21,0,1,9,1,401,1298.710078430362,1300.5821912466781,"[59, 0, 195]",195,a,1.347995286458172,colour,0.5
18,21,0,1,9,2,402,1302.6018579272786,1303.7661588946357,"[51, 0, 203]",203,a,0.6417568507604301,colour,0.5
18,21,0,1,9,3,403,1305.7738566071494,1306.438291481929,"[58, 0, 196]",196,a,0.14094355946872383,colour,0.5
18,21,0,1,9,4,404,1308.446092381957,1309.5901697711088,"[17, 0, 237]",237,a,0.6192060387693346,colour,0.5
18,21,0,1,9,5,405,1311.6040933949407,1312.1421786594437,"[26, 0, 228]",228,a,0.015372975845821202,colour,0.5
18,21,0,1,9,6,406,1314.1512662529713,1314.9181785742985,"[90, 0, 164]",164,l,0.24365061800926924,colour,0.5
18,21,0,1,9,7,407,1316.9326476743445,1317.7822151924483,"[73, 0, 181]",181,l,0.32620971638243645,colour,0.5
18,21,0,1,9,8,408,1319.7830552652013,1320.8061519472394,"[27, 0, 227]",227,a,0.4999165047192946,colour,0.5
18,21,0,1,9,9,409,1322.8150867287768,1323.702166465926,"[5, 0, 249]",249,a,0.3643024639459327,colour,0.5
18,21,0,1,9,10,410,1325.722538523958,1326.5181956671877,"[42, 0, 212]",212,a,0.2723355753114447,colour,0.5
18,21,0,1,9,11,411,1328.5351920746034,1329.19021246396,"[10, 0, 244]",244,a,0.13187132589519024,colour,0.5
18,21,0,1,9,12,412,1331.2071738190716,1332.0141662327806,"[92, 0, 162]",162,l,0.2834534430876374,colour,0.5
18,21,0,1,9,13,413,1334.0345914600184,1334.8861447477248,"[53, 0, 201]",201,a,0.32833215047139674,colour,0.5
18,21,0,1,9,14,414,1336.894170927466,1337.68615861109,"[30, 0, 224]",224,a,0.26905681064818054,colour,0.5
18,21,0,1,9,15,415,1339.7074837755645,1340.3981542818947,"[4, 0, 250]",250,a,0.16725914168637246,colour,0.5
18,21,0,1,9,16,416,1342.4108837659005,1343.2061254020082,"[24, 0, 230]",230,a,0.27190431440249085,colour,0.5
18,21,0,1,9,17,417,1345.2235479502706,1345.9421393536031,"[11, 0, 243]",243,a,0.19546675821766257,colour,0.5
18,21,0,1,9,18,418,1347.958160599228,1348.5581221599132,"[32, 0, 222]",222,a,0.07645291613880545,colour,0.5
18,21,0,1,9,19,419,1350.5680364354048,1351.5661447949242,"[68, 0, 186]",186,l,0.48020019952673465,colour,0.5
18,21,0,1,9,20,420,1353.5788234728388,1354.4780950947898,"[65, 0, 189]",189,l,0.37590003572404385,colour,0.5
18,21,0,1,9,21,421,1356.4871559069725,1357.2781298320042,"[9, 0, 245]",245,a,0.2675353850936517,colour,0.5
18,21,0,1,9,22,422,1359.2999059496215,1360.1501138607273,"[78, 0, 176]",176,l,0.3269698384683579,colour,0.5
18,21,0,1,9,23,423,1362.1475050274748,1363.4221367227146,"[39, 0, 215]",215,a,0.7512144229840487,colour,0.5
18,21,0,1,9,24,424,1365.4165492350003,1366.2781766996486,"[84, 0, 170]",170,l,0.33842208120040596,colour,0.5
18,21,0,1,9,25,425,1368.279342088732,1369.1901415716857,"[16, 0, 238]",238,a,0.3874038720969111,colour,0.5
18,21,0,1,9,26,426,1371.2044578597415,1372.0621775881154,"[20, 0, 234]",234,a,0.3343032437842339,colour,0.5
18,21,0,1,9,27,427,1374.0796856009401,1374.9820599386003,"[44, 0, 210]",210,a,0.3789417053340003,colour,0.5
18,21,0,1,9,28,428,1377.00186446507,1377.8060771165183,"[91, 0, 163]",163,l,0.28165041795000434,colour,0.5
18,21,0,1,9,29,429,1379.8097772960318,1380.622114982456,"[83, 0, 171]",171,l,0.28897200780920684,colour,0.5
18,21,0,1,9,30,430,1382.638123624958,1383.790088560083,"[99, 0, 155]",155,l,0.6285795642761514,colour,0.5
18,21,0,1,9,31,431,1385.810258969199,1386.6220535425236,"[1, 0, 253]",253,a,0.28845764545258135,colour,0.5
18,21,0,1,9,32,432,1388.6386667380575,1389.638048006571,"[46, 0, 208]",208,a,0.476009288453497,colour,0.5
18,21,0,1,9,33,433,1391.6506613061065,1392.4380441469839,"[48, 0, 206]",206,a,0.2643279064213857,colour,0.5
18,21,0,1,9,34,434,1394.4477075428003,1394.9820768738864,"[8, 0, 246]",246,a,0.010957966442219913,colour,0.5
18,21,0,1,9,35,435,1396.9853024694603,1397.7420594816795,"[56, 0, 198]",198,a,0.23339645366650075,colour,0.5
18,21,0,1,9,36,436,1399.7521620154148,1400.5261155086337,"[82, 0, 172]",172,l,0.25060041761025786,colour,0.5
18,21,0,1,9,37,437,1402.5337045197375,1403.3341642162995,"[86, 0, 168]",168,l,0.277204294805415,colour,0.5
18,21,0,1,9,38,438,1405.3463454671437,1406.1180363172898,"[85, 0, 169]",169,l,0.24836691922973841,colour,0.5
18,21,0,1,9,39,439,1408.1277804515557,1408.87805437122,"[36, 0, 218]",218,a,0.2268212012713775,colour,0.5
18,21,0,1,9,40,440,1410.8848950755782,1411.6940288279438,"[35, 0, 219]",219,a,0.2981556998565793,colour,0.5
18,21,0,1,9,41,441,1413.7008010031423,1414.5660250659566,"[81, 0, 173]",173,l,0.34216755302622914,colour,0.5
18,21,0,1,9,42,442,1416.575911772321,1417.7740228099283,"[62, 0, 192]",192,a,0.674653199268505,colour,0.5
18,21,0,1,9,43,443,1419.7950423501898,1420.5180609719828,"[77, 0, 177]",177,l,0.19965924473945051,colour,0.5
18,21,0,1,9,44,444,1422.5295683530858,1423.5420591665898,"[12, 0, 242]",242,a,0.4891479780199006,colour,0.5
18,21,0,1,9,45,445,1425.561097663478,1426.5500758939888,"[55, 0, 199]",199,a,0.4656495734816417,colour,0.5
18,21,0,1,9,46,446,1428.5613666600548,1429.3180464785546,"[88, 0, 166]",166,l,0.23335076763760298,colour,0.5
18,21,0,1,9,47,447,1431.3271525828168,1432.1980492039584,"[57, 0, 197]",197,a,0.3475250347983092,colour,0.5
18,21,0,1,9,48,448,1434.2122370982543,1434.9820004678331,"[45, 0, 209]",209,a,0.246390208019875,colour,0.5
18,21,0,1,9,49,449,1436.9937189501943,1437.8699876253959,"[0, 0, 254]",254,a,0.35277539072558284,colour,0.5
18,21,0,1,9,50,450,1439.8816111908527,1440.6780170345446,"[94, 0, 160]",160,l,0.27304055890999734,colour,0.5
18,21,0,1,10,1,451,1448.1158185726963,1448.9660119115142,"[82, 0, 172]",172,l,0.32612385821994394,colour,0.5
18,21,0,1,10,2,452,1450.9762680450222,1451.678007976152,"[87, 0, 167]",167,l,0.18242022849153727,colour,0.5
18,21,0,1,10,3,453,1453.6911565118935,1455.0699962112121,"[73, 0, 181]",181,l,0.8556551897199824,colour,0.5
18,21,0,1,10,4,454,1457.0819832962006,1457.9819870771607,"[44, 0, 210]",210,a,0.3769846864743158,colour,0.5
18,21,0,1,10,5,455,1459.9912585966522,1460.8059585690498,"[92, 0, 162]",162,l,0.2913807675940916,colour,0.5
18,21,0,1,10,6,456,1462.8195919286227,1463.5659951335983,"[89, 0, 165]",165,l,0.2230536739807576,colour,0.5
18,21,0,1,10,7,457,1465.5855038821464,1466.2459487071028,"[47, 0, 207]",207,a,0.13709371874574572,colour,0.5
18,21,0,1,10,8,458,1468.2575537619414,1469.4299581026426,"[59, 0, 195]",195,a,0.6490559914382175,colour,0.5
18,21,0,1,10,9,459,1471.4451270663412,1472.3100199049804,"[54, 0, 200]",200,a,0.34138419409282506,colour,0.5
18,21,0,1,10,10,460,1474.3205261304975,1475.509970595478,"[79, 0, 175]",175,l,0.6660843002609909,colour,0.5
18,21,0,1,10,11,461,1477.5238445948344,1478.4379610455362,"[2, 0, 252]",252,a,0.39066058152820915,colour,0.5
18,21,0,1,10,12,462,1480.4467008734355,1481.2139940434135,"[84, 0, 170]",170,l,0.24399050674401224,colour,0.5
18,21,0,1,10,13,463,1483.2284836234758,1484.7980147030903,"[5, 0, 249]",249,a,1.0462016348028556,colour,0.5
18,21,0,1,10,14,464,1486.8087832296733,1488.4139151956188,"[81, 0, 173]",173,l,1.0818265457637608,colour,0.5
18,21,0,1,10,15,465,1490.4340659123845,1491.245934528648,"[90, 0, 164]",164,l,0.28879950346890837,colour,0.5
18,21,0,1,10,16,466,1493.2631369172595,1494.0299385678954,"[15, 0, 239]",239,a,0.24344896897673607,colour,0.5
18,21,0,1,10,17,467,1496.0445868677925,1496.7738936286187,"[32, 0, 222]",222,a,0.20585089165251702,colour,0.5
18,21,0,1,10,18,468,1498.7948099812493,1499.3339113673428,"[67, 0, 187]",187,l,0.016051571699790657,colour,0.5
18,21,0,1,10,19,469,1501.341897768667,1501.909939324134,"[51, 0, 203]",203,a,0.04474086139816791,colour,0.5
18,21,0,1,10,20,470,1503.9211651055375,1504.4619367909618,"[68, 0, 186]",186,l,0.017246105475351214,colour,0.5
18,21,0,1,10,21,471,1506.4682985791005,1507.7819300482515,"[55, 0, 199]",199,a,0.7902610644232482,colour,0.5
18,21,0,1,10,22,472,1509.7986046837177,1510.901908024447,"[43, 0, 211]",211,a,0.5799668066902086,colour,0.5
18,21,0,1,10,23,473,1512.9081370866625,1513.62192514888,"[83, 0, 171]",171,l,0.19047870358917862,colour,0.5
18,21,0,1,10,24,474,1515.6427757292986,1516.3179117833497,"[56, 0, 198]",198,a,0.15180542774032801,colour,0.5
18,21,0,1,10,25,475,1518.3315412044758,1519.1579092469765,"[26, 0, 228]",228,a,0.3030287515139207,colour,0.5
18,21,0,1,10,26,476,1521.1756118194899,1521.9258711667499,"[49, 0, 205]",205,a,0.23949003289453685,colour,0.5
18,21,0,1,10,27,477,1523.9445867101895,1524.581870656344,"[38, 0, 216]",216,a,0.1139103906461969,colour,0.5
18,21,0,1,10,28,478,1526.6010450299364,1527.5258988934802,"[0, 0, 254]",254,a,0.4017725414596498,colour,0.5
18,21,0,1,10,29,479,1529.5388103341684,1530.4698456046171,"[1, 0, 253]",253,a,0.4078153147129342,colour,0.5
18,21,0,1,10,30,480,1532.4644101413433,1533.2059060300235,"[13, 0, 241]",241,a,0.21852602495346218,colour,0.5
18,21,0,1,10,31,481,1535.2173752080416,1535.9498992937151,"[7, 0, 247]",247,a,0.20938723138533533,colour,0.5
18,21,0,1,10,32,482,1537.9676136815688,1538.757873564493,"[88, 0, 166]",166,l,0.26710569951683283,colour,0.5
18,21,0,1,10,33,483,1540.7647083612392,1541.5338900209172,"[14, 0, 240]",240,a,0.24614090367686003,colour,0.5
18,21,0,1,10,34,484,1543.5461941517424,1544.3179295063019,"[36, 0, 218]",218,a,0.24828499928116798,colour,0.5
18,21,0,1,10,35,485,1546.327667732956,1547.0698737251805,"[9, 0, 245]",245,a,0.21877966145984828,colour,0.5
18,21,0,1,10,36,486,1549.0779042372014,1549.6698246520245,"[22, 0, 232]",232,a,0.06857206544373184,colour,0.5
18,21,0,1,10,37,487,1551.6874673600541,1552.3418473564088,"[42, 0, 212]",212,a,0.13098674861248583,colour,0.5
18,21,0,1,10,38,488,1554.3472198044183,1555.6059145370964,"[3, 0, 251]",251,a,0.7353897063294426,colour,0.5
18,21,0,1,10,39,489,1557.6006984458072,1558.4778678459115,"[21, 0, 233]",233,a,0.3540368782123551,colour,0.5
18,21,0,1,10,40,490,1560.4915646146983,1561.4698428476695,"[27, 0, 227]",227,a,0.45501652965322137,colour,0.5
18,21,0,1,10,41,491,1563.4761349251494,1564.8058518368052,"[63, 0, 191]",191,a,0.8063902237918228,colour,0.5
18,21,0,1,10,42,492,1566.820203964715,1567.5178226954304,"[12, 0, 242]",242,a,0.1867950656451285,colour,0.5
18,21,0,1,10,43,493,1569.5266818585806,1570.3098351913504,"[75, 0, 179]",179,l,0.2598124664509669,colour,0.5
18,21,0,1,10,44,494,1572.3236386923818,1573.4138261864427,"[76, 0, 178]",178,l,0.5666347389342263,colour,0.5
18,21,0,1,10,45,495,1575.4318552570185,1576.2778505954193,"[60, 0, 194]",194,a,0.32269464433193207,colour,0.5
18,21,0,1,10,46,496,1578.2789155539358,1578.9818161481526,"[97, 0, 157]",157,l,0.17943684803321958,colour,0.5
18,21,0,1,10,47,497,1580.9979141936637,1581.789787268266,"[71, 0, 183]",183,a,0.2684766760794446,colour,0.5
18,21,0,1,10,48,498,1583.8106760517694,1584.429798595258,"[28, 0, 226]",226,a,0.09607509220950305,colour,0.5
18,21,0,1,10,49,499,1586.4514648299664,1587.5098020295845,"[69, 0, 185]",185,l,0.5349215026944876,colour,0.5
18,21,0,1,10,50,500,1589.529885792639,1590.2777915186016,"[11, 0, 243]",243,a,0.2245313827879727,colour,0.5
18,21,0,1,11,1,501,1736.3686969933333,1737.2536176688736,"[66, 0, 188]",188,l,0.3606956258881837,colour,0.5
18,21,0,1,11,2,502,1739.2604012656957,1739.8935982758412,"[27, 0, 227]",227,a,0.10736231354530901,colour,0.5
18,21,0,1,11,3,503,1741.905589299393,1742.6296327074524,"[28, 0, 226]",226,a,0.2006667018868029,colour,0.5
18,21,0,1,11,4,504,1744.6400739484234,1745.3896259490866,"[67, 0, 187]",187,l,0.22606501763220876,colour,0.5
18,21,0,1,11,5,505,1747.4060044126818,1748.2296242003795,"[98, 0, 156]",156,l,0.300321850576438,colour,0.5
18,21,0,1,11,6,506,1750.2498339940794,1751.0535539446864,"[14, 0, 240]",240,a,0.280408228863962,colour,0.5
18,21,0,1,11,7,507,1753.0628156180028,1753.9735875318293,"[92, 0, 162]",162,l,0.38743222900666296,colour,0.5
18,21,0,1,11,8,508,1755.9849003531272,1756.7335843179608,"[2, 0, 252]",252,a,0.225312378606759,colour,0.5
18,21,0,1,11,9,509,1758.750733931316,1759.6375651519047,"[54, 0, 200]",200,l,0.3637061817571521,colour,0.5
18,21,0,1,11,10,510,1761.6579139730893,1762.5095712359762,"[79, 0, 175]",175,l,0.3284109195228666,colour,0.5
18,21,0,1,11,11,511,1764.5175552743021,1765.3415440953104,"[90, 0, 164]",164,l,0.3008377883816138,colour,0.5
18,21,0,1,11,12,512,1767.352227551397,1768.2776103495853,"[15, 0, 239]",239,a,0.4020001842873171,colour,0.5
18,21,0,1,11,13,513,1770.2899751325604,1771.2855691817822,"[53, 0, 201]",201,a,0.47220237681176513,colour,0.5
18,21,0,1,11,14,514,1773.3059282428585,1774.0855456297286,"[74, 0, 180]",180,l,0.2563450497109443,colour,0.5
18,21,0,1,11,15,515,1776.103002836462,1776.9095305124065,"[97, 0, 157]",157,l,0.2832005942473188,colour,0.5
18,21,0,1,11,16,516,1778.9312727593351,1779.797511762241,"[0, 0, 254]",254,a,0.34283354587387294,colour,0.5
18,21,0,1,11,17,517,1781.8065717866411,1782.6295653599082,"[17, 0, 237]",237,a,0.2997247807215899,colour,0.5
18,21,0,1,11,18,518,1784.6504947094945,1785.285533735645,"[40, 0, 214]",214,a,0.11173281830269843,colour,0.5
18,21,0,1,11,19,519,1787.3069439707324,1787.9095344508532,"[93, 0, 161]",161,l,0.07920826005283743,colour,0.5
18,21,0,1,11,20,520,1789.9165157581447,1790.613528754213,"[20, 0, 234]",234,a,0.1737331758486107,colour,0.5
18,21,0,1,11,21,521,1792.6205439323094,1793.4215357142966,"[39, 0, 215]",215,a,0.2775701773352921,colour,0.5
18,21,0,1,11,22,522,1795.4333148488076,1796.2375085956883,"[87, 0, 167]",167,l,0.28105098486412317,colour,0.5
18,21,0,1,11,23,523,1798.248275546939,1799.2375243494753,"[64, 0, 190]",190,a,0.465871702414006,colour,0.5
18,21,0,1,11,24,524,1801.248500038986,1801.973517033388,"[63, 0, 191]",191,a,0.20167022047098726,colour,0.5
18,21,0,1,11,25,525,1803.9830595187377,1804.7255006368505,"[49, 0, 205]",205,a,0.2192207685438916,colour,0.5
18,21,0,1,11,26,526,1806.73334013368,1807.4694726328598,"[1, 0, 253]",253,a,0.2129720140947029,colour,0.5
18,21,0,1,11,27,527,1809.4835490687983,1810.1895145694725,"[18, 0, 236]",236,a,0.18280383409000933,colour,0.5
18,21,0,1,11,28,528,1812.2024535794044,1813.4614724469138,"[31, 0, 223]",223,a,0.7359060378512368,colour,0.5
18,21,0,1,11,29,529,1815.4683891636087,1816.1815525866114,"[88, 0, 166]",166,l,0.18983712908811867,colour,0.5
18,21,0,1,11,30,530,1818.1874051324558,1819.045506891096,"[59, 0, 195]",195,a,0.32724553043954074,colour,0.5
18,21,0,1,11,31,531,1821.054569672444,1821.6934849271784,"[3, 0, 251]",251,a,0.12800927588250488,colour,0.5
18,21,0,1,11,32,532,1823.7151614018949,1824.933520042454,"[42, 0, 212]",212,a,0.6949327036272734,colour,0.5
18,21,0,1,11,33,533,1826.949799256865,1827.5734813510207,"[41, 0, 213]",213,a,0.10047198459506035,colour,0.5
18,21,0,1,11,34,534,1829.5905289582442,1830.3414586308645,"[21, 0, 233]",233,a,0.22735919430851936,colour,0.5
18,21,0,1,11,35,535,1832.3564897485776,1833.5654984943103,"[65, 0, 189]",189,l,0.6856107718776911,colour,0.5
18,21,0,1,11,36,536,1835.5754978405312,1836.3018503654748,"[81, 0, 173]",173,l,0.2029722740408033,colour,0.5
18,21,0,1,11,37,537,1838.310109307873,1839.1814490052639,"[29, 0, 225]",225,a,0.34801064641214907,colour,0.5
18,21,0,1,11,38,538,1841.2023161272518,1841.9654246876016,"[89, 0, 165]",165,l,0.23968774336390197,colour,0.5
18,21,0,1,11,39,539,1843.9838554806774,1844.8614415694028,"[32, 0, 222]",222,a,0.3544854682404548,colour,0.5
18,21,0,1,11,40,540,1846.8746460312977,1847.8055115542375,"[8, 0, 246]",246,a,0.40746557991951704,colour,0.5
18,21,0,1,11,41,541,1849.812399520073,1850.5654961311957,"[71, 0, 183]",183,l,0.22972226794809103,colour,0.5
18,21,0,1,11,42,542,1852.5785950424615,1853.2854407880222,"[36, 0, 218]",218,a,0.1834950331831351,colour,0.5
18,21,0,1,11,43,543,1855.2975223959656,1855.98142151488,"[77, 0, 177]",177,l,0.16060236329212785,colour,0.5
18,21,0,1,11,44,544,1858.0008644910995,1858.6775731706293,"[13, 0, 241]",241,a,0.15400111698545516,colour,0.5
18,21,0,1,11,45,545,1860.6885874569416,1861.7014595130458,"[48, 0, 206]",206,a,0.48948983603622764,colour,0.5
18,21,0,1,11,46,546,1863.7201151920017,1864.405399071984,"[73, 0, 181]",181,l,0.1619678259594366,colour,0.5
18,21,0,1,11,47,547,1866.423326530261,1867.3974193660542,"[55, 0, 199]",199,a,0.4506842279806733,colour,0.5
18,21,0,1,11,48,548,1869.408586858306,1870.1654903810704,"[99, 0, 155]",155,l,0.2334511982044205,colour,0.5
18,21,0,1,11,49,549,1872.1744574579643,1873.005419709487,"[75, 0, 179]",179,l,0.30763713910710067,colour,0.5
18,21,0,1,11,50,550,1875.0184087377274,1875.885409831768,"[12, 0, 242]",242,a,0.34358500328380615,colour,0.5
18,21,0,1,12,1,551,1883.4262634370243,1884.1174045889638,"[91, 0, 163]",163,l,0.16681685321964324,colour,0.5
18,21,0,1,12,2,552,1886.131002502516,1886.741394670331,"[9, 0, 245]",245,a,0.08704500005114824,colour,0.5
18,21,0,1,12,3,553,1888.747433111188,1889.3094842749415,"[15, 0, 239]",239,a,0.03868351597338915,colour,0.5
18,21,0,1,12,4,554,1891.3159527952084,1892.6054049008526,"[95, 0, 159]",159,l,0.7661218731664121,colour,0.5
18,21,0,1,12,5,555,1894.6130466872128,1895.381376065081,"[58, 0, 196]",196,a,0.2449802408227697,colour,0.5
18,21,0,1,12,6,556,1897.3945053023053,1898.1574141830206,"[52, 0, 202]",202,a,0.23941953456960618,colour,0.5
18,21,0,1,12,7,557,1900.1759308343753,1900.8373614549637,"[85, 0, 169]",169,l,0.1380204374436289,colour,0.5
18,21,0,1,12,8,558,1902.8480445171008,1903.6293522893684,"[99, 0, 155]",155,l,0.25819730560760945,colour,0.5
18,21,0,1,12,9,559,1905.645122261485,1906.3813989080954,"[24, 0, 230]",230,a,0.21278533129952848,colour,0.5
18,21,0,1,12,10,560,1908.3953961811494,1909.1813611777034,"[63, 0, 191]",191,l,0.26262728113215417,colour,0.5
18,21,0,1,12,11,561,1911.1800189518835,1911.9413654470118,"[78, 0, 176]",176,l,0.23791898286435753,colour,0.5
18,21,0,1,12,12,562,1913.9586221862119,1914.6933458995773,"[29, 0, 225]",225,a,0.21136630547698587,colour,0.5
18,21,0,1,12,13,563,1916.7089524257462,1917.46147323458,"[60, 0, 194]",194,a,0.22908148111309856,colour,0.5
18,21,0,1,12,14,564,1919.4748021516716,1920.1813111592783,"[47, 0, 207]",207,a,0.18317601829767227,colour,0.5
18,21,0,1,12,15,565,1922.1937968528364,1922.8853621764574,"[3, 0, 251]",251,a,0.16820043278858066,colour,0.5
18,21,0,1,12,16,566,1924.8987458379706,1925.7653589942493,"[92, 0, 162]",162,l,0.34322502848226577,colour,0.5
18,21,0,1,12,17,567,1927.770480168634,1928.4453192630317,"[11, 0, 243]",243,a,0.15143875742796808,colour,0.5
18,21,0,1,12,18,568,1930.4581007346278,1931.2613484642934,"[83, 0, 171]",171,l,0.27995333715807647,colour,0.5
18,21,0,1,12,19,569,1933.2708822850836,1934.6293129047845,"[10, 0, 244]",244,a,0.8353922269307077,colour,0.5
18,21,0,1,12,20,570,1936.634701500414,1937.4373765785713,"[8, 0, 246]",246,a,0.27949490083847195,colour,0.5
18,21,0,1,12,21,571,1939.44749486621,1940.4132795287296,"[88, 0, 166]",166,l,0.4424532485427335,colour,0.5
18,21,0,1,12,22,572,1942.432023822912,1943.125277956482,"[93, 0, 161]",161,l,0.16995737794786692,colour,0.5
18,21,0,1,12,23,573,1945.1353643425973,1945.8852940411307,"[30, 0, 224]",224,a,0.2265734722604975,colour,0.5
18,21,0,1,12,24,574,1947.9011636562645,1948.5733155419584,"[35, 0, 219]",219,a,0.14906386833172292,colour,0.5
18,21,0,1,12,25,575,1950.5890177726978,1951.30173181789,"[74, 0, 180]",180,l,0.1893515174742788,colour,0.5
18,21,0,1,12,26,576,1953.3079041662859,1954.1173191244015,"[75, 0, 179]",179,l,0.2864348543807864,colour,0.5
18,21,0,1,12,27,577,1956.136207959964,1956.9013180437032,"[44, 0, 210]",210,a,0.24164318689145148,colour,0.5
18,21,0,1,12,28,578,1958.9176382181467,1959.933330996544,"[55, 0, 199]",199,a,0.49260003480594605,colour,0.5
18,21,0,1,12,29,579,1961.9491565008648,1962.7652845573612,"[32, 0, 222]",222,a,0.2927797071170062,colour,0.5
18,21,0,1,12,30,580,1964.7774965282297,1965.5093396548182,"[61, 0, 193]",193,a,0.20888035208918154,colour,0.5
18,21,0,1,12,31,581,1967.5277267310303,1968.4613133333623,"[6, 0, 248]",248,a,0.4102610960835591,colour,0.5
18,21,0,1,12,32,582,1970.4810828076443,1971.2772862146376,"[23, 0, 231]",231,a,0.2735903674038127,colour,0.5
18,21,0,1,12,33,583,1973.2964204159798,1973.8932430271525,"[77, 0, 177]",177,l,0.07335413887631148,colour,0.5
18,21,0,1,12,34,584,1975.9061205970356,1976.6532658071956,"[54, 0, 200]",200,a,0.2238011930603534,colour,0.5
18,21,0,1,12,35,585,1978.6721030488843,1979.3492607123917,"[25, 0, 229]",229,a,0.15386602794751525,colour,0.5
18,21,0,1,12,36,586,1981.3596889565233,1982.429227519082,"[69, 0, 185]",185,l,0.5461429518181831,colour,0.5
18,21,0,1,12,37,587,1984.4287249720655,1985.2133256874513,"[43, 0, 211]",211,a,0.261275602853857,colour,0.5
18,21,0,1,12,38,588,1987.2258027164498,1987.9572586927097,"[96, 0, 158]",158,l,0.20819821138866246,colour,0.5
18,21,0,1,12,39,589,1989.9760250422405,1990.6372587400256,"[46, 0, 208]",208,a,0.13791055453475565,colour,0.5
18,21,0,1,12,40,590,1992.6481339988532,1993.3332166237524,"[5, 0, 249]",249,a,0.16171537095215172,colour,0.5
18,21,0,1,12,41,591,1995.3514634908643,1996.0292457934702,"[87, 0, 167]",167,l,0.15445207012817264,colour,0.5
18,21,0,1,12,42,592,1998.0414975427557,1998.7012102088192,"[80, 0, 174]",174,l,0.13638755353167653,colour,0.5
18,21,0,1,12,43,593,2000.7136005917564,2001.8452419118257,"[68, 0, 186]",186,a,0.6082287739263847,colour,0.5
18,21,0,1,12,44,594,2003.8452399425441,2004.5092018088326,"[48, 0, 206]",206,a,0.14092741184867918,colour,0.5
18,21,0,1,12,45,595,2006.5174024621956,2007.43720525573,"[50, 0, 204]",204,a,0.3968545913230628,colour,0.5
18,21,0,1,12,46,596,2009.4556978825713,2010.0052570512053,"[0, 0, 254]",254,a,0.02614937932230532,colour,0.5
18,21,0,1,12,47,597,2012.018313033157,2012.6931796967983,"[41, 0, 213]",213,a,0.15149744041264057,colour,0.5
18,21,0,1,12,48,598,2014.7005142836133,2015.3251963517396,"[17, 0, 237]",237,a,0.10156608768738806,colour,0.5
18,21,0,1,12,49,599,2017.341322360211,2018.093193323817,"[14, 0, 240]",240,a,0.22890306904446334,colour,0.5
18,21,0,1,12,50,600,2020.1071299446048,2020.7571973316371,"[21, 0, 233]",233,a,0.12659379479009658,colour,0.5
18,21,0,1,13,1,601,2028.3725712525193,2029.3092152783647,"[48, 0, 206]",206,a,0.4131924888351932,colour,0.5
18,21,0,1,13,2,602,2031.3293443337316,2032.7651774314,"[79, 0, 175]",175,l,0.9133169441483915,colour,0.5
18,21,0,1,13,3,603,2034.7818603375927,2035.3252274654806,"[43, 0, 211]",211,a,0.020147959934547544,colour,0.5
18,21,0,1,13,4,604,2037.3446188480593,2038.1091617941856,"[19, 0, 235]",235,a,0.24118199374061078,colour,0.5
18,21,0,1,13,5,605,2040.1261475676438,2041.2532041309169,"[38, 0, 216]",216,a,0.6037507492583245,colour,0.5
18,21,0,1,13,6,606,2043.2669840011513,2043.8532180731418,"[9, 0, 245]",245,a,0.0631035192636773,colour,0.5
18,21,0,1,13,7,607,2045.8609441424487,2046.9012184008025,"[12, 0, 242]",242,a,0.5170440627261996,colour,0.5
18,21,0,1,13,8,608,2048.9080212960253,2049.5171570962993,"[52, 0, 202]",202,a,0.08581108169164509,colour,0.5
18,21,0,1,13,9,609,2051.5332000034396,2052.1011911466485,"[23, 0, 231]",231,a,0.044981107232160866,colour,0.5
18,21,0,1,13,10,610,2054.111568190856,2054.9652072848985,"[56, 0, 198]",198,a,0.3303076800657436,colour,0.5
18,21,0,1,13,11,611,2056.986749458243,2058.1011367959436,"[6, 0, 248]",248,a,0.5910366252064705,colour,0.5
18,21,0,1,13,12,612,2060.112023476395,2060.965160023421,"[45, 0, 209]",209,a,0.3305774643085897,colour,0.5
18,21,0,1,13,13,613,2062.9716659589903,2063.957210643566,"[49, 0, 205]",205,a,0.46220736287068576,colour,0.5
18,21,0,1,13,14,614,2065.971842008061,2066.8051566993818,"[90, 0, 164]",164,l,0.30983952374663204,colour,0.5
18,21,0,1,13,15,615,2068.8129958023783,2069.789176807506,"[87, 0, 167]",167,l,0.4529051233548671,colour,0.5
18,21,0,1,13,16,616,2071.799517224077,2072.5491763507016,"[60, 0, 194]",194,a,0.22628596506547183,colour,0.5
18,21,0,1,13,17,617,2074.5651645131875,2075.1971433589933,"[82, 0, 172]",172,l,0.10850092116743326,colour,0.5
18,21,0,1,13,18,618,2077.206209291122,2077.9811844198266,"[47, 0, 207]",207,a,0.2516523792874068,colour,0.5
18,21,0,1,13,19,619,2079.9876182816224,2081.037141216453,"[73, 0, 181]",181,l,0.5261643454432487,colour,0.5
18,21,0,1,13,20,620,2083.0503728536423,2083.7573044575984,"[33, 0, 221]",221,a,0.18411061388906091,colour,0.5
18,21,0,1,13,21,621,2085.769286028808,2086.589243052411,"[54, 0, 200]",200,a,0.2965878004906699,colour,0.5
18,21,0,1,13,22,622,2088.597641022294,2089.31713196903,"[63, 0, 191]",191,a,0.19634503405541182,colour,0.5
18,21,0,1,13,23,623,2091.327547216206,2093.845146995038,"[21, 0, 233]",233,a,1.9941758111817762,colour,0.5
18,21,0,1,13,24,624,2095.8591092157876,2096.725097732735,"[29, 0, 225]",225,a,0.34259881381876767,colour,0.5
18,21,0,1,13,25,625,2098.7343204154167,2099.6370968695264,"[65, 0, 189]",189,l,0.37958249216899276,colour,0.5
18,21,0,1,13,26,626,2101.6565020366106,2102.4531390676275,"[51, 0, 203]",203,a,0.27333712473046035,colour,0.5
18,21,0,1,13,27,627,2104.4691630702,2105.365088185994,"[17, 0, 237]",237,a,0.3725224157096818,colour,0.5
18,21,0,1,13,28,628,2107.3757342266617,2108.2850701793795,"[3, 0, 251]",251,a,0.385995086398907,colour,0.5
18,21,0,1,13,29,629,2110.2977512202924,2111.189125843928,"[66, 0, 188]",188,l,0.368019578862004,colour,0.5
18,21,0,1,13,30,630,2113.204525601119,2114.093081865576,"[37, 0, 217]",217,a,0.3657892312621698,colour,0.5
18,21,0,1,13,31,631,2116.110794284148,2116.9491316885687,"[85, 0, 169]",169,l,0.3150886979419738,colour,0.5
18,21,0,1,13,32,632,2118.9723406166304,2119.9091102791717,"[20, 0, 234]",234,a,0.4134536086348817,colour,0.5
18,21,0,1,13,33,633,2121.9256447055377,2122.8771564031485,"[14, 0, 240]",240,a,0.42826732352841645,colour,0.5
18,21,0,1,13,34,634,2124.8946167606628,2125.8050850194413,"[40, 0, 214]",214,a,0.3875326596898958,colour,0.5
18,21,0,1,13,35,635,2127.8166999203386,2128.557028844487,"[41, 0, 213]",213,a,0.21715977450367063,colour,0.5
18,21,0,1,13,36,636,2130.566889163223,2131.3970318218926,"[62, 0, 192]",192,l,0.3068781985202804,colour,0.5
18,21,0,1,13,37,637,2133.4108731320594,2134.213083078619,"[35, 0, 219]",219,a,0.27889231708832085,colour,0.5
18,21,0,1,13,38,638,2136.223528258037,2137.0050522515085,"[71, 0, 183]",183,l,0.25813232106156647,colour,0.5
18,21,0,1,13,39,639,2139.0206497191684,2139.813029279234,"[78, 0, 176]",176,l,0.2692226195940748,colour,0.5
18,21,0,1,13,40,640,2141.8333627404645,2142.733043961809,"[59, 0, 195]",195,a,0.376479382510297,colour,0.5
18,21,0,1,13,41,641,2144.7418294758536,2145.5490704062395,"[68, 0, 186]",186,l,0.2837110181571916,colour,0.5
18,21,0,1,13,42,642,2147.5702856876887,2148.4290164178237,"[96, 0, 158]",158,l,0.335372140747495,colour,0.5
18,21,0,1,13,43,643,2150.4455240627285,2151.26908674289,"[97, 0, 157]",157,l,0.3009874497074634,colour,0.5
18,21,0,1,13,44,644,2153.2895135455765,2154.0930747763487,"[50, 0, 204]",204,a,0.2802164261229336,colour,0.5
18,21,0,1,13,45,645,2156.1038858382963,2156.9250019495375,"[57, 0, 197]",197,a,0.2977185311028734,colour,0.5
18,21,0,1,13,46,646,2158.932238468784,2159.741044541588,"[2, 0, 252]",252,a,0.2854041605023667,colour,0.5
18,21,0,1,13,47,647,2161.760578889982,2162.549040080048,"[75, 0, 179]",179,l,0.2635398212587461,colour,0.5
18,21,0,1,13,48,648,2164.5592446199153,2165.317037839908,"[32, 0, 222]",222,a,0.2345055228797719,colour,0.5
18,21,0,1,13,49,649,2167.328754746821,2168.2049982158933,"[70, 0, 184]",184,l,0.3529632550198585,colour,0.5
18,21,0,1,13,50,650,2170.235338112456,2171.2770010704407,"[22, 0, 232]",232,a,0.5185548544395715,colour,0.5
18,21,0,1,14,1,651,2178.705419236794,2179.597005749354,"[92, 0, 162]",162,l,0.3674347181804478,colour,0.5
18,21,0,1,14,2,652,2181.6134649512824,2182.3169854583684,"[6, 0, 248]",248,a,0.1802253269124776,colour,0.5
18,21,0,1,14,3,653,2184.3277547728503,2184.9649540421087,"[1, 0, 253]",253,a,0.11375836620572954,colour,0.5
18,21,0,1,14,4,654,2186.984278864693,2187.72496303753,"[33, 0, 221]",221,a,0.2176205738214776,colour,0.5
18,21,0,1,14,5,655,2189.7344149383716,2190.7089736934286,"[48, 0, 206]",206,a,0.45135888550430536,colour,0.5
18,21,0,1,14,6,656,2192.7130692939973,2193.404961115564,"[8, 0, 246]",246,a,0.1685509552480653,colour,0.5
18,21,0,1,14,7,657,2195.416271573864,2196.4529917694163,"[60, 0, 194]",194,a,0.5132796863326803,colour,0.5
18,21,0,1,14,8,658,2198.463492874871,2199.1570018266793,"[41, 0, 213]",213,a,0.17011609789915383,colour,0.5
18,21,0,1,14,9,659,2201.1668014931493,2201.780929680448,"[35, 0, 219]",219,a,0.09078968409448862,colour,0.5
18,21,0,1,14,10,660,2203.792027068208,2204.317016572226,"[80, 0, 174]",174,l,0.0011799614876508713,colour,0.5
18,21,0,1,14,11,661,2206.339251913829,2207.0129602774978,"[93, 0, 161]",161,l,0.15042972494848073,colour,0.5
18,21,0,1,14,12,662,2209.026835852186,2210.484931466868,"[68, 0, 186]",186,a,0.9347913759993389,colour,0.5
18,21,0,1,14,13,663,2212.4958551687887,2213.124977452331,"[40, 0, 214]",214,a,0.10574045730754733,colour,0.5
18,21,0,1,14,14,664,2215.1366837254027,2215.700958541478,"[26, 0, 228]",228,a,0.04092292208224535,colour,0.5
18,21,0,1,14,15,665,2217.7151263495907,2219.5969580940437,"[49, 0, 205]",205,a,1.3585641334066167,colour,0.5
18,21,0,1,14,16,666,2221.60585821711,2222.4369256254286,"[71, 0, 183]",183,l,0.3078679325990379,colour,0.5
18,21,0,1,14,17,667,2224.4522533088457,2225.093008610187,"[56, 0, 198]",198,a,0.11772557301446795,colour,0.5
18,21,0,1,14,18,668,2227.099440502934,2227.964924897533,"[50, 0, 204]",204,a,0.34005811577662826,colour,0.5
18,21,0,1,14,19,669,2229.9688617782667,2230.6209551071515,"[79, 0, 175]",175,l,0.12910534825641662,colour,0.5
18,21,0,1,14,20,670,2232.64146816195,2233.4209445520537,"[10, 0, 244]",244,a,0.25710595946293324,colour,0.5
18,21,0,1,14,21,671,2235.4302062254865,2235.9808992755134,"[52, 0, 202]",202,a,0.027265143929980695,colour,0.5
18,21,0,1,14,22,672,2237.992926138919,2238.6289501730353,"[18, 0, 236]",236,a,0.11329441610723734,colour,0.5
18,21,0,1,14,23,673,2240.6401783175534,2242.788875515689,"[37, 0, 217]",217,a,1.6251464121742174,colour,0.5
18,21,0,1,14,24,674,2244.7966508156387,2245.380950711784,"[15, 0, 239]",239,a,0.06051989190746099,colour,0.5
18,21,0,1,14,25,675,2247.3907295044046,2248.1409018118866,"[17, 0, 237]",237,a,0.2268692502984777,colour,0.5
18,21,0,1,14,26,676,2250.156699353247,2250.957103911438,"[78, 0, 176]",176,l,0.2765599633567035,colour,0.5
18,21,0,1,14,27,677,2252.969222934684,2253.492934803595,"[12, 0, 242]",242,a,0.0005628054495900869,colour,0.5
18,21,0,1,14,28,678,2255.5164702296024,2256.092992462567,"[65, 0, 189]",189,l,0.05317585286684334,colour,0.5
18,21,0,1,14,29,679,2258.110387835535,2258.6369078236166,"[29, 0, 225]",225,a,0.0031893617706373334,colour,0.5
18,21,0,1,14,30,680,2260.6572487677913,2261.2928907716414,"[85, 0, 169]",169,a,0.11253862641751766,colour,0.5
18,21,0,1,14,31,681,2263.3139130688505,2264.548866788042,"[59, 0, 195]",195,a,0.7115510192234069,colour,0.5
18,21,0,1,14,32,682,2266.564213769976,2267.0929050288396,"[24, 0, 230]",230,a,0.004535919870249927,colour,0.5
18,21,0,1,14,33,683,2269.112064830144,2269.716865177965,"[90, 0, 164]",164,l,0.08150556148029864,colour,0.5
18,21,0,1,14,34,684,2271.7371714637848,2272.3968250530306,"[20, 0, 234]",234,a,0.13620480918325484,colour,0.5
18,21,0,1,14,35,685,2274.3969093359774,2274.9648922083434,"[96, 0, 158]",158,l,0.04463727993424982,colour,0.5
18,21,0,1,14,36,686,2276.975264132605,2277.5408658144297,"[21, 0, 233]",233,a,0.042330132448114455,colour,0.5
18,21,0,1,14,37,687,2279.5480334106833,2281.6448875295464,"[2, 0, 252]",252,a,1.5743415098404512,colour,0.5
18,21,0,1,14,38,688,2283.6577237456804,2284.372855215217,"[38, 0, 216]",216,a,0.19184495392255485,colour,0.5
18,21,0,1,14,39,689,2286.3923190654023,2287.212858586572,"[91, 0, 163]",163,l,0.29718093189876527,colour,0.5
18,21,0,1,14,40,690,2289.220715018804,2290.15688446071,"[87, 0, 167]",167,l,0.4129412154434249,colour,0.5
18,21,0,1,14,41,691,2292.173989175586,2292.8128618948394,"[42, 0, 212]",212,a,0.11549877002835274,colour,0.5
18,21,0,1,14,42,692,2294.830495150527,2295.764843056444,"[63, 0, 191]",191,a,0.41093693510629237,colour,0.5
18,21,0,1,14,43,693,2297.7748656395124,2298.388808325515,"[51, 0, 203]",203,a,0.09092319768387824,colour,0.5
18,21,0,1,14,44,694,2300.3898862809874,2301.2209237569477,"[7, 0, 247]",247,a,0.30752331763505936,colour,0.5
18,21,0,1,14,45,695,2303.23396674206,2304.332820808864,"[73, 0, 181]",181,l,0.5757881046738476,colour,0.5
18,21,0,1,14,46,696,2306.343515686458,2307.268816958647,"[54, 0, 200]",200,a,0.4018843936501071,colour,0.5
18,21,0,1,14,47,697,2309.281369999866,2310.108908551396,"[98, 0, 156]",156,l,0.30432410968933254,colour,0.5
18,21,0,1,14,48,698,2312.1271487232298,2312.9008072259603,"[64, 0, 190]",190,a,0.25032551342155784,colour,0.5
18,21,0,1,14,49,699,2314.908642784343,2316.2287687676726,"[43, 0, 211]",211,a,0.7968296215403825,colour,0.5
18,21,0,1,14,50,700,2318.2370253470726,2319.1808113692096,"[94, 0, 160]",160,l,0.4204979310743511,colour,0.5
18,21,0,1,15,1,701,2326.7551099498523,2328.0527985487133,"[63, 0, 191]",191,a,0.7734785153297707,colour,0.5
18,21,0,1,15,2,702,2330.068726846832,2330.8527698768303,"[44, 0, 210]",210,a,0.26071594830136746,colour,0.5
18,21,0,1,15,3,703,2332.865814437275,2333.412814790965,"[99, 0, 155]",155,l,0.023719351971521974,colour,0.5
18,21,0,1,15,4,704,2335.428441797034,2335.9573228895897,"[22, 0, 232]",232,a,0.005440189386717975,colour,0.5
18,21,0,1,15,5,705,2337.9912310274085,2338.6367920329794,"[8, 0, 246]",246,a,0.12222683464642614,colour,0.5
18,21,0,1,15,6,706,2340.6476598087465,2341.3887870579492,"[83, 0, 171]",171,l,0.2178171029081568,colour,0.5
18,21,0,1,15,7,707,2343.397815180826,2344.1247750156326,"[77, 0, 177]",177,l,0.20350239018443972,colour,0.5
18,21,0,1,15,8,708,2346.123177577858,2346.8047604906606,"[2, 0, 252]",252,a,0.15823692653793842,colour,0.5
18,21,0,1,15,9,709,2348.8265330637805,2350.0687492960133,"[73, 0, 181]",181,l,0.7188781229779124,colour,0.5
18,21,0,1,15,10,710,2352.0767774449196,2352.836756114266,"[30, 0, 224]",224,a,0.2366354400292039,colour,0.5
18,21,0,1,15,11,711,2354.8582439369056,2355.5407480546273,"[11, 0, 243]",243,a,0.15921287599485368,colour,0.5
18,21,0,1,15,12,712,2357.561604542774,2358.205191987916,"[25, 0, 229]",229,a,0.12022728042211384,colour,0.5
18,21,0,1,15,13,713,2360.218011662597,2360.8047490691533,"[80, 0, 174]",174,l,0.06385025044437498,colour,0.5
18,21,0,1,15,14,714,2362.811842228635,2363.6447244774317,"[85, 0, 169]",169,l,0.30950357334222645,colour,0.5
18,21,0,1,15,15,715,2365.6560400556773,2367.140717492206,"[0, 0, 254]",254,a,0.9614062809851021,colour,0.5
18,21,0,1,15,16,716,2369.158961208537,2370.1006988396402,"[41, 0, 213]",213,a,0.41836880170740187,colour,0.5
18,21,0,1,15,17,717,2372.112322011264,2372.836732089636,"[72, 0, 182]",182,l,0.20109126740135252,colour,0.5
18,21,0,1,15,18,718,2374.8470051585464,2375.5327939486597,"[70, 0, 184]",184,l,0.16289139399304986,colour,0.5
18,21,0,1,15,19,719,2377.5502184662037,2378.2527421501,"[35, 0, 219]",219,a,0.17926552519202232,colour,0.5
18,21,0,1,15,20,720,2380.2692529457854,2380.844719278626,"[32, 0, 222]",222,a,0.052179817226715386,colour,0.5
18,21,0,1,15,21,721,2382.86312013946,2383.5486958590336,"[49, 0, 205]",205,a,0.16218247183132917,colour,0.5
18,21,0,1,15,22,722,2385.5664508129703,2386.364677404985,"[13, 0, 241]",241,a,0.2748947840882465,colour,0.5
18,21,0,1,15,23,723,2388.3791791942203,2389.348686485435,"[60, 0, 194]",194,l,0.4461301910923794,colour,0.5
18,21,0,1,15,24,724,2391.3637971600983,2392.1727402911056,"[92, 0, 162]",162,l,0.2855932062957436,colour,0.5
18,21,0,1,15,25,725,2394.1921686950373,2394.828690943774,"[17, 0, 237]",237,a,0.1131553886225447,colour,0.5
18,21,0,1,15,26,726,2396.8485840855865,2397.388659845805,"[97, 0, 157]",157,l,0.017038548830896616,colour,0.5
18,21,0,1,15,27,727,2399.3862455721246,2400.012742874678,"[87, 0, 167]",167,l,0.10301898408215493,colour,0.5
18,21,0,1,15,28,728,2402.0271328118397,2402.7966748402687,"[33, 0, 221]",221,a,0.2461798945441842,colour,0.5
18,21,0,1,15,29,729,2404.808611119166,2405.5886668561725,"[43, 0, 211]",211,a,0.2567723721731454,colour,0.5
18,21,0,1,15,30,730,2407.605792838731,2408.3806643859716,"[42, 0, 212]",212,a,0.2514916901709512,colour,0.5
18,21,0,1,15,31,731,2410.38718725706,2411.1726733373944,"[19, 0, 235]",235,a,0.2621314295101911,colour,0.5
18,21,0,1,15,32,732,2413.184255942935,2413.9406734602526,"[95, 0, 159]",159,l,0.2332341893343255,colour,0.5
18,21,0,1,15,33,733,2415.9501253610943,2417.028668415849,"[65, 0, 189]",189,a,0.5552860776660964,colour,0.5
18,21,0,1,15,34,734,2419.044126856141,2419.7406424251385,"[6, 0, 248]",248,a,0.17315894889179617,colour,0.5
18,21,0,1,15,35,735,2421.7474665880436,2422.4526514868485,"[46, 0, 208]",208,a,0.18180189095437527,colour,0.5
18,21,0,1,15,36,736,2424.466412846232,2425.3166747142095,"[78, 0, 176]",176,l,0.3269749585306272,colour,0.5
18,21,0,1,15,37,737,2427.328752383706,2429.1406450245995,"[52, 0, 202]",202,a,1.2885190853849053,colour,0.5
18,21,0,1,15,38,738,2431.1571329772705,2431.8366407174617,"[38, 0, 216]",216,a,0.15641893516294658,colour,0.5
18,21,0,1,15,39,739,2433.84496385674,2434.7406073729508,"[15, 0, 239]",239,a,0.37262481555808336,colour,0.5
18,21,0,1,15,40,740,2436.7514133149525,2437.5566220019246,"[68, 0, 186]",186,l,0.28208679880481213,colour,0.5
18,21,0,1,15,41,741,2439.5641519362107,2440.2606419053627,"[21, 0, 233]",233,a,0.1731782475253567,colour,0.5
18,21,0,1,15,42,742,2442.267412899062,2443.100623221253,"[79, 0, 175]",175,l,0.31007228640373796,colour,0.5
18,21,0,1,15,43,743,2445.1131790194195,2446.0126231457107,"[74, 0, 180]",180,l,0.37612137699034065,colour,0.5
18,21,0,1,15,44,744,2448.0196221760707,2448.8286074486095,"[66, 0, 188]",188,l,0.2856566155096516,colour,0.5
18,21,0,1,15,45,745,2450.848034277209,2451.636659700889,"[69, 0, 185]",185,l,0.2657268460607156,colour,0.5
18,21,0,1,15,46,746,2453.635767246713,2454.436652296572,"[54, 0, 200]",200,a,0.2775233098072931,colour,0.5
18,21,0,1,15,47,747,2456.4484227665234,2457.1727434418863,"[3, 0, 251]",251,a,0.20100501528941095,colour,0.5
18,21,0,1,15,48,748,2459.1830763752805,2459.924643943901,"[84, 0, 170]",170,l,0.2183554897783324,colour,0.5
18,21,0,1,15,49,749,2461.935072975699,2462.7406211575726,"[90, 0, 164]",164,l,0.2821852603228763,colour,0.5
18,21,0,1,15,50,750,2464.747827744577,2465.3805828599725,"[40, 0, 214]",214,a,0.10945442144293338,colour,0.5
18,21,0,1,16,1,751,2473.075743600144,2473.8605770783033,"[67, 0, 187]",187,a,0.26064426836092025,colour,0.5
18,21,0,1,16,2,752,2475.873627152643,2476.69258735294,"[64, 0, 190]",190,l,0.2955555310472846,colour,0.5
18,21,0,1,16,3,753,2478.7019604846137,2480.5806099565234,"[48, 0, 206]",206,a,1.355273553286679,colour,0.5
18,21,0,1,16,4,754,2482.593216560781,2483.3245898294263,"[89, 0, 165]",165,l,0.20808990392833948,colour,0.5
18,21,0,1,16,5,755,2485.3436688923975,2486.2527638116153,"[60, 0, 194]",194,a,0.38574381289072335,colour,0.5
18,21,0,1,16,6,756,2488.256575843203,2488.948597240029,"[34, 0, 220]",220,a,0.1686888012336567,colour,0.5
18,21,0,1,16,7,757,2490.9598167199874,2491.7086212016875,"[85, 0, 169]",169,l,0.22458179504610598,colour,0.5
18,21,0,1,16,8,758,2493.72687121958,2494.6286256442545,"[51, 0, 203]",203,a,0.3784364014863968,colour,0.5
18,21,0,1,16,9,759,2496.649003216182,2497.5885203456273,"[66, 0, 188]",188,a,0.4162278570001945,colour,0.5
18,21,0,1,16,10,760,2499.6022998220287,2500.332608132274,"[70, 0, 184]",184,a,0.20693121012300253,colour,0.5
18,21,0,1,16,11,761,2502.3524811879033,2506.572579838452,"[10, 0, 244]",244,a,3.6967589657288045,colour,0.5
18,21,0,1,16,12,762,2508.5874746855116,2509.324535478838,"[86, 0, 168]",168,l,0.21378727455157787,colour,0.5
18,21,0,1,16,13,763,2511.337899054168,2511.940506469691,"[78, 0, 176]",176,l,0.07920471543911844,colour,0.5
18,21,0,1,16,14,764,2513.9379775869893,2514.636543516419,"[3, 0, 251]",251,a,0.17517189390491694,colour,0.5
18,21,0,1,16,15,765,2516.6579057023628,2517.2765190034406,"[69, 0, 185]",185,l,0.09526573948096484,colour,0.5
18,21,0,1,16,16,766,2519.283085197443,2521.572581019951,"[28, 0, 226]",226,a,1.766232937690802,colour,0.5
18,21,0,1,16,17,767,2523.5803527754033,2525.1725504575297,"[22, 0, 232]",232,a,1.0688572097569704,colour,0.5
18,21,0,1,16,18,768,2527.189896205906,2527.9484928710153,"[61, 0, 193]",193,a,0.23513646353967488,colour,0.5
18,21,0,1,16,19,769,2529.9558692054125,2531.372539351112,"[17, 0, 237]",237,a,0.8933690577978268,colour,0.5
18,21,0,1,16,20,770,2533.393597882008,2535.452472680947,"[26, 0, 228]",228,a,1.5355264495592564,colour,0.5
18,21,0,1,16,21,771,2537.462815854349,2538.516483620391,"[82, 0, 172]",172,l,0.5311776063172147,colour,0.5
18,21,0,1,16,22,772,2540.5255310416687,2541.4444559534313,"[21, 0, 233]",233,a,0.39554544852580875,colour,0.5
18,21,0,1,16,23,773,2543.4632022168953,2544.164500647108,"[36, 0, 218]",218,a,0.17789376096334308,colour,0.5
18,21,0,1,16,24,774,2546.182237484143,2547.156475255033,"[2, 0, 252]",252,a,0.45082955702673644,colour,0.5
18,21,0,1,16,25,775,2549.1551184569253,2550.2444690291304,"[52, 0, 202]",202,a,0.5660514535848051,colour,0.5
18,21,0,1,16,26,776,2552.2646996966796,2553.148458921467,"[30, 0, 224]",224,a,0.3603978785686195,colour,0.5
18,21,0,1,16,27,777,2555.1555898900842,2555.908450587769,"[76, 0, 178]",178,l,0.229570243624039,colour,0.5
18,21,0,1,16,28,778,2557.9213383976603,2558.508459015982,"[97, 0, 157]",157,l,0.06376005976926535,colour,0.5
18,21,0,1,16,29,779,2560.5153477696003,2561.708455786458,"[84, 0, 170]",170,l,0.6698100797366351,colour,0.5
18,21,0,1,16,30,780,2563.722867385135,2564.2684920360334,"[18, 0, 236]",236,a,0.022226677043363452,colour,0.5
18,21,0,1,16,31,781,2566.2855526402127,2567.172451996128,"[19, 0, 235]",235,a,0.36360968952067196,colour,0.5
18,21,0,1,16,32,782,2569.1920576306293,2569.9164243859705,"[47, 0, 207]",207,a,0.20162768510635942,colour,0.5
18,21,0,1,16,33,783,2571.9266249872744,2572.836516656098,"[83, 0, 171]",171,l,0.3869300758233294,colour,0.5
18,21,0,1,16,34,784,2574.8498660530895,2575.612437408068,"[44, 0, 210]",210,a,0.23966253735125065,colour,0.5
18,21,0,1,16,35,785,2577.6313368773554,2578.380441863206,"[49, 0, 205]",205,a,0.22568968264386058,colour,0.5
18,21,0,1,16,36,786,2580.3989978992613,2581.124454425415,"[1, 0, 253]",253,a,0.202135352184996,colour,0.5
18,21,0,1,16,37,787,2583.133688923437,2583.7725108365994,"[13, 0, 241]",241,a,0.11600013542920351,colour,0.5
18,21,0,1,16,38,788,2585.791183844791,2587.0204185318435,"[77, 0, 177]",177,l,0.70615060813725,colour,0.5
18,21,0,1,16,39,789,2589.041462096735,2590.1564106644364,"[27, 0, 227]",227,a,0.5915659538004547,colour,0.5
18,21,0,1,16,40,790,2592.1666892471258,2593.356447213213,"[16, 0, 238]",238,a,0.6665852718288079,colour,0.5
18,21,0,1,16,41,791,2595.37008332985,2595.908475793898,"[93, 0, 161]",161,l,0.014985825517214835,colour,0.5
18,21,0,1,16,42,792,2597.917018698994,2598.580410276889,"[43, 0, 211]",211,a,0.14040241576731205,colour,0.5
18,21,0,1,16,43,793,2600.5893056738423,2601.540367993526,"[71, 0, 183]",183,l,0.42779273947235197,colour,0.5
18,21,0,1,16,44,794,2603.558338381117,2604.3884400798706,"[59, 0, 195]",195,l,0.3064114913577214,colour,0.5
18,21,0,1,16,45,795,2606.390035154647,2607.5564073560527,"[54, 0, 200]",200,a,0.643081747344695,colour,0.5
18,21,0,1,16,46,796,2609.577762058936,2610.436410869239,"[74, 0, 180]",180,l,0.33528510096948594,colour,0.5
18,21,0,1,16,47,797,2612.454962572898,2613.2444390968885,"[39, 0, 215]",215,a,0.2661703161429614,colour,0.5
18,21,0,1,16,48,798,2615.2520395294996,2616.0363700668095,"[15, 0, 239]",239,a,0.26100345561280847,colour,0.5
18,21,0,1,16,49,799,2618.0491519322386,2618.8683523783693,"[50, 0, 204]",204,a,0.29588833055458963,colour,0.5
18,21,0,1,16,50,800,2620.877472661203,2621.5483595149126,"[11, 0, 243]",243,a,0.1475259013241157,colour,0.5
