id,age,condition,counterbalance,block,trialinblock,trial,tstart,tend,trialstim,trialintensity,response,RT,trialtype,colourfreq
12,21,1,2,Practice,1,NA,5.907684681005776e-06,0.86419433633273,"[0, 0, 254]",254,a,0.3085245653783204,colour,0.5
12,21,1,2,Practice,2,NA,2.8759636432660045,9.9442160136241,"[71, 0, 183]",183,a,6.545225756592117,colour,0.5
12,21,1,2,Practice,3,NA,11.956333086782251,12.584237013506936,"[41, 0, 213]",213,a,0.10168440156849101,colour,0.5
12,21,1,2,Practice,4,NA,14.600026702770265,19.672209658529027,"[60, 0, 194]",194,a,4.550077154490282,colour,0.5
12,21,1,2,Practice,5,NA,21.692501010213164,22.672256920064683,"[98, 0, 156]",156,l,0.4566769145458238,colour,0.5
12,21,1,2,Practice,6,NA,24.692451385591994,25.616221265954664,"[79, 0, 175]",175,l,0.4003600542200729,colour,0.5
12,21,1,2,Practice,7,NA,27.630079927155748,28.208204447146272,"[3, 0, 251]",251,a,0.054800552330561914,colour,0.5
12,21,1,2,Practice,8,NA,30.224066997965565,30.840308743936475,"[35, 0, 219]",219,a,0.09290871983102988,colour,0.5
12,21,1,2,Practice,9,NA,32.84925574877707,33.640199412213406,"[83, 0, 171]",171,l,0.2678465511999093,colour,0.5
12,21,1,2,Practice,10,NA,35.661998013427365,37.064218597253785,"[47, 0, 207]",207,a,0.8772247388988035,colour,0.5
12,21,1,2,1,1,1,5.9292758506926475,7.192035877815215,"[47, 0, 207]",207,a,0.7385538438975345,colour,0.5
12,21,1,2,1,2,2,9.212978651179583,10.080001984984847,"[19, 0, 235]",235,a,0.3435784553439589,colour,0.5
12,21,1,2,1,3,3,12.088163660446298,13.008043521593208,"[71, 0, 183]",183,a,0.4089655943826074,colour,0.5
12,21,1,2,1,4,4,15.029041039568256,15.895990724136936,"[87, 0, 167]",167,l,0.34387147694360465,colour,0.5
12,21,1,2,1,5,5,17.90637093540863,18.720008806412807,"[98, 0, 156]",156,l,0.2901925986952847,colour,0.5
12,21,1,2,1,6,6,20.734735898542567,21.47200540987251,"[29, 0, 225]",225,a,0.21389946366252843,colour,0.5
12,21,1,2,1,7,7,23.484892058564583,24.271981936646625,"[44, 0, 210]",210,a,0.2636623288562987,colour,0.5
12,21,1,2,1,8,8,26.282003747852286,27.023998232427402,"[43, 0, 211]",211,a,0.21850707072007935,colour,0.5
12,21,1,2,1,9,9,29.032255612502922,29.719998566404684,"[88, 0, 166]",166,l,0.16430870928161312,colour,0.5
12,21,1,2,1,10,10,31.735545646384708,32.51205957161437,"[25, 0, 229]",229,a,0.25312851755006704,colour,0.5
12,21,1,2,1,11,11,34.52015350550937,35.279994738215464,"[39, 0, 215]",215,a,0.2365972158149816,colour,0.5
12,21,1,2,1,12,12,37.29213504830841,38.08000159113726,"[0, 0, 254]",254,a,0.26963106846960727,colour,0.5
12,21,1,2,1,13,13,40.09649784053909,40.78402181593992,"[90, 0, 164]",164,l,0.16407555231126025,colour,0.5
12,21,1,2,1,14,14,42.7998264713533,43.56000680566649,"[84, 0, 170]",170,l,0.23679256354807876,colour,0.5
12,21,1,2,1,15,15,45.58128040985321,46.304054804495536,"[94, 0, 160]",160,l,0.19931100540270563,colour,0.5
12,21,1,2,1,16,16,48.31588161297259,48.91201672113675,"[99, 0, 155]",155,l,0.07277175586204976,colour,0.5
12,21,1,2,1,17,17,50.925466963788494,51.88802794103685,"[74, 0, 180]",180,l,0.43920195726968814,colour,0.5
12,21,1,2,1,18,18,53.89622978880652,54.67202021849516,"[31, 0, 223]",223,a,0.25239872047677636,colour,0.5
12,21,1,2,1,19,19,56.69389640742156,57.49603002998629,"[63, 0, 191]",191,a,0.2790467503364198,colour,0.5
12,21,1,2,1,20,20,59.506582352070836,60.27200044741039,"[16, 0, 238]",238,a,0.24236470002506394,colour,0.5
12,21,1,2,1,21,21,62.288083158273366,63.05605022642703,"[83, 0, 171]",171,l,0.244556454315898,colour,0.5
12,21,1,2,1,22,22,65.06944296752044,65.83203757923911,"[57, 0, 197]",197,a,0.23909735170309432,colour,0.5
12,21,1,2,1,23,23,67.85104262913228,68.61599559207389,"[73, 0, 181]",181,a,0.24163962912280113,colour,0.5
12,21,1,2,1,24,24,70.63393095560605,71.25601462273335,"[26, 0, 228]",228,a,0.09838003168988507,colour,0.5
12,21,1,2,1,25,25,73.26439212591504,74.04819417564431,"[62, 0, 192]",192,a,0.26028115894587245,colour,0.5
12,21,1,2,1,26,26,76.06152271981409,76.71199954944314,"[30, 0, 224]",224,a,0.12706976040499285,colour,0.5
12,21,1,2,1,27,27,78.70892203498806,79.40804241881415,"[80, 0, 174]",174,l,0.17747892724582925,colour,0.5
12,21,1,2,1,28,28,81.42720185643702,82.18401598700439,"[11, 0, 243]",243,a,0.23374931371654384,colour,0.5
12,21,1,2,1,29,29,84.18984884969541,85.20835489641468,"[2, 0, 252]",252,a,0.49504659594094846,colour,0.5
12,21,1,2,1,30,30,87.22134827743866,87.95198266132502,"[81, 0, 173]",173,l,0.20728402852546424,colour,0.5
12,21,1,2,1,31,31,89.97159777903289,90.6800168723712,"[42, 0, 212]",212,a,0.18519122415455058,colour,0.5
12,21,1,2,1,32,32,92.69059833907522,93.42407511120837,"[77, 0, 177]",177,l,0.210487967604422,colour,0.5
12,21,1,2,1,33,33,95.42715853334812,96.18398329777119,"[21, 0, 233]",233,a,0.2336721198662417,colour,0.5
12,21,1,2,1,34,34,98.18934472651745,98.80802989451331,"[49, 0, 205]",205,a,0.09528755107021425,colour,0.5
12,21,1,2,1,35,35,100.81448424655537,101.59202571658534,"[17, 0, 237]",237,a,0.2540832007944118,colour,0.5
12,21,1,2,1,36,36,103.61228792365,104.39201130181027,"[75, 0, 179]",179,l,0.25624659814639017,colour,0.5
12,21,1,2,1,37,37,106.410648499339,107.07201202648866,"[34, 0, 220]",220,a,0.13814117181755137,colour,0.5
12,21,1,2,1,38,38,109.08287588093663,109.87201415326854,"[51, 0, 203]",203,a,0.2659529385273345,colour,0.5
12,21,1,2,1,39,39,111.87979616095254,112.65609268305707,"[3, 0, 251]",251,a,0.2529056005732855,colour,0.5
12,21,1,2,1,40,40,114.67858130286913,115.4799870975985,"[10, 0, 244]",244,a,0.2780144793650834,colour,0.5
12,21,1,2,1,41,41,117.491260552124,118.40006703263498,"[97, 0, 157]",157,l,0.3852840143372305,colour,0.5
12,21,1,2,1,42,42,120.41342472142424,121.24799433807493,"[4, 0, 250]",250,a,0.31000936566852033,colour,0.5
12,21,1,2,1,43,43,123.25854666014493,124.02397657088295,"[15, 0, 239]",239,a,0.24227529694326222,colour,0.5
12,21,1,2,1,44,44,126.0400261986506,126.83201355460915,"[22, 0, 232]",232,a,0.2686519667477114,colour,0.5
12,21,1,2,1,45,45,128.85267236483924,129.5920265042805,"[91, 0, 163]",163,l,0.2159876363730291,colour,0.5
12,21,1,2,1,46,46,131.60297188490222,132.3919971233554,"[68, 0, 186]",186,a,0.2657166307908483,colour,0.5
12,21,1,2,1,47,47,134.40332886711985,135.28802368749166,"[67, 0, 187]",187,a,0.36127554191625677,colour,0.5
12,21,1,2,1,48,48,137.29423936871171,138.05605613412627,"[92, 0, 162]",162,l,0.23671497585019097,colour,0.5
12,21,1,2,1,49,49,140.0774975168024,140.79202989135229,"[55, 0, 199]",199,a,0.19131001920322888,colour,0.5
12,21,1,2,1,50,50,142.81315777244163,143.48003593453905,"[7, 0, 247]",247,a,0.1434955113363685,colour,0.5
12,21,1,2,2,1,51,152.26610890163283,152.92806595507136,"[92, 0, 162]",162,l,0.13772645173594356,colour,0.5
12,21,1,2,2,2,52,154.93921652957215,155.68800407394883,"[67, 0, 187]",187,a,0.2253438474581344,colour,0.5
12,21,1,2,2,3,53,157.7063773944974,158.4480308082275,"[88, 0, 166]",166,l,0.21839088607521262,colour,0.5
12,21,1,2,2,4,54,160.45655088375497,161.2161148487212,"[83, 0, 171]",171,l,0.23621991113759577,colour,0.5
12,21,1,2,2,5,55,163.22240654226334,164.13606245142,"[0, 0, 254]",254,a,0.3902330860873917,colour,0.5
12,21,1,2,2,6,56,166.13892019966443,166.9440505982202,"[85, 0, 169]",169,l,0.27588889125036076,colour,0.5
12,21,1,2,2,7,57,168.95631615140883,169.84006298388704,"[97, 0, 157]",157,l,0.36032007094763685,colour,0.5
12,21,1,2,2,8,58,171.8471317360527,172.58405190578196,"[51, 0, 203]",203,a,0.21342527279921342,colour,0.5
12,21,1,2,2,9,59,174.59865690558217,175.38405954639893,"[1, 0, 253]",253,a,0.26257688862096984,colour,0.5
12,21,1,2,2,10,60,177.39599111798452,178.11204492053366,"[28, 0, 226]",226,a,0.19259041330951732,colour,0.5
12,21,1,2,2,11,61,180.13232760760002,180.91202577960212,"[44, 0, 210]",210,a,0.2562024873768678,colour,0.5
12,21,1,2,2,12,62,182.92942708764167,183.68802376625536,"[16, 0, 238]",238,a,0.23530146171106026,colour,0.5
12,21,1,2,2,13,63,185.6952591153822,186.48810032996698,"[4, 0, 250]",250,a,0.26942272382439114,colour,0.5
12,21,1,2,2,14,64,188.50804037081252,189.27208157973655,"[21, 0, 233]",233,a,0.24103034900326747,colour,0.5
12,21,1,2,2,15,65,191.28946437701234,192.05604156180925,"[76, 0, 178]",178,l,0.24317090326803736,colour,0.5
12,21,1,2,2,16,66,194.07314630363544,194.8720519625058,"[99, 0, 155]",155,l,0.2755651496554492,colour,0.5
12,21,1,2,2,17,67,196.8858310667565,197.74400743267324,"[69, 0, 185]",185,a,0.33479568439361174,colour,0.5
12,21,1,2,2,18,68,199.76331771339756,200.5440678486775,"[61, 0, 193]",193,a,0.25739190299646,colour,0.5
12,21,1,2,2,19,69,202.56044003652642,203.34403492313868,"[79, 0, 175]",175,l,0.2604127035883721,colour,0.5
12,21,1,2,2,20,70,205.35751509810507,206.1039785558678,"[87, 0, 167]",167,l,0.22310049932275433,colour,0.5
12,21,1,2,2,21,71,208.12339635660464,208.88804369488207,"[19, 0, 235]",235,a,0.24001107495860197,colour,0.5
12,21,1,2,2,22,72,210.90641977234918,211.68802376625536,"[43, 0, 211]",211,a,0.25820952776120976,colour,0.5
12,21,1,2,2,23,73,213.70347002161725,214.48010170685302,"[54, 0, 200]",200,a,0.25321555756090675,colour,0.5
12,21,1,2,2,24,74,216.4863914311718,217.2480045780685,"[66, 0, 188]",188,a,0.23822892075986601,colour,0.5
12,21,1,2,2,25,75,219.26788120968558,220.0160807416396,"[48, 0, 206]",206,a,0.22488147197873332,colour,0.5
12,21,1,2,2,26,76,222.03368724355823,222.7920322544378,"[65, 0, 189]",189,a,0.23490997856424656,colour,0.5
12,21,1,2,2,27,77,224.8012679485546,225.5680515087879,"[6, 0, 248]",248,a,0.24348007256048732,colour,0.5
12,21,1,2,2,28,78,227.58275103168853,228.37602941559453,"[75, 0, 179]",179,l,0.2698587116028648,colour,0.5
12,21,1,2,2,29,79,230.3831261308369,231.19202957628295,"[7, 0, 247]",247,a,0.2857535578077659,colour,0.5
12,21,1,2,2,30,80,233.20906578886206,233.9920309153531,"[38, 0, 216]",216,a,0.2596986603603,colour,0.5
12,21,1,2,2,31,81,235.99364095875353,236.78405608056346,"[94, 0, 160]",160,l,0.26710454490967095,colour,0.5
12,21,1,2,2,32,82,238.79073768187664,239.62405841212603,"[47, 0, 207]",207,a,0.30998573488614056,colour,0.5
12,21,1,2,2,33,83,241.63686629157746,242.43205443584884,"[20, 0, 234]",234,a,0.27178973966510966,colour,0.5
12,21,1,2,2,34,84,244.44956090084452,245.2080142194318,"[64, 0, 190]",190,a,0.23507972629158758,colour,0.5
12,21,1,2,2,35,85,247.21540671319235,248.00806715236104,"[55, 0, 199]",199,a,0.26790562813403085,colour,0.5
12,21,1,2,2,36,86,250.02954673813656,250.83205372693192,"[12, 0, 242]",242,a,0.2795658396644285,colour,0.5
12,21,1,2,2,37,87,252.84220314431877,253.64005211374024,"[2, 0, 252]",252,a,0.2745423309825128,colour,0.5
12,21,1,2,2,38,88,255.6550233905291,256.440078265121,"[25, 0, 229]",229,a,0.2616379592072917,colour,0.5
12,21,1,2,2,39,89,258.4534654923773,259.24007172728307,"[45, 0, 209]",209,a,0.26329171954421327,colour,0.5
12,21,1,2,2,40,90,261.25047241855646,262.0400608571217,"[8, 0, 246]",246,a,0.26620500010903925,colour,0.5
12,21,1,2,2,41,91,264.04930245893775,264.8000375729316,"[40, 0, 214]",214,a,0.22737963861436583,colour,0.5
12,21,1,2,2,42,92,266.81507304665865,267.6080245382036,"[46, 0, 208]",208,a,0.26965824388025794,colour,0.5
12,21,1,2,2,43,93,269.6277822282427,270.45606448366016,"[90, 0, 164]",164,l,0.3051760847156402,colour,0.5
12,21,1,2,2,44,94,272.4717580744473,273.24004888419586,"[14, 0, 240]",240,a,0.2448868913052138,colour,0.5
12,21,1,2,2,45,95,275.25450225319946,276.0080565185199,"[89, 0, 165]",165,l,0.2302027284167707,colour,0.5
12,21,1,2,2,46,96,278.00837435241556,278.8401346639148,"[62, 0, 192]",192,a,0.31170802447013557,colour,0.5
12,21,1,2,2,47,97,280.8489965979534,281.62405762443086,"[10, 0, 244]",244,a,0.25162599416216835,colour,0.5
12,21,1,2,2,48,98,283.63322872777644,284.416101300405,"[78, 0, 176]",176,l,0.25951552187325433,colour,0.5
12,21,1,2,2,49,99,286.43027818934934,287.2400469149725,"[93, 0, 161]",161,l,0.28634747792966664,colour,0.5
12,21,1,2,2,50,100,289.25866560170834,290.0800547603867,"[17, 0, 237]",237,a,0.29667294457613025,colour,0.5
12,21,1,2,3,1,101,297.4064646708139,298.1840817593329,"[20, 0, 234]",234,a,0.2533774283656385,colour,0.5
12,21,1,2,3,2,102,300.1909953360737,301.0320567201561,"[5, 0, 249]",249,a,0.31755782253458165,colour,0.5
12,21,1,2,3,3,103,303.05061711766757,303.8720488117251,"[55, 0, 199]",199,a,0.2983704218204366,colour,0.5
12,21,1,2,3,4,104,305.87880563767976,306.6560855938151,"[75, 0, 179]",179,l,0.2544817731832154,colour,0.5
12,21,1,2,3,5,105,308.67607486544875,309.48007886378036,"[91, 0, 163]",163,l,0.2805532121710712,colour,0.5
12,21,1,2,3,6,106,311.48855955468025,312.32002133071364,"[79, 0, 175]",175,l,0.30780737138411496,colour,0.5
12,21,1,2,3,7,107,314.33401980731287,315.13605339295464,"[64, 0, 190]",190,a,0.2784410148306051,colour,0.5
12,21,1,2,3,8,108,317.1469310320099,317.92007717811794,"[61, 0, 193]",193,a,0.2503830154601019,colour,0.5
12,21,1,2,3,9,109,319.92828611511504,320.7040564586496,"[92, 0, 162]",162,l,0.2524526774068363,colour,0.5
12,21,1,2,3,10,110,322.7253462105291,323.61608893363154,"[88, 0, 166]",166,l,0.36736676772125065,colour,0.5
12,21,1,2,3,11,111,325.6318534167367,326.51207020545553,"[34, 0, 220]",220,a,0.3567581256356789,colour,0.5
12,21,1,2,3,12,112,328.5226981460146,329.3841119279532,"[51, 0, 203]",203,a,0.33800789425731637,colour,0.5
12,21,1,2,3,13,113,331.3978674014361,332.1920681732154,"[45, 0, 209]",209,a,0.27070941946294624,colour,0.5
12,21,1,2,3,14,114,334.2106277830171,334.9761467030039,"[31, 0, 223]",223,a,0.2405628535343567,colour,0.5
12,21,1,2,3,15,115,336.99356415873626,337.77609132822545,"[50, 0, 204]",204,a,0.2592098972090753,colour,0.5
12,21,1,2,3,16,116,339.7907483157178,340.5841058627266,"[26, 0, 228]",228,a,0.2700343670294387,colour,0.5
12,21,1,2,3,17,117,342.5938094461744,343.42405108659295,"[63, 0, 191]",191,a,0.3074233713123249,colour,0.5
12,21,1,2,3,18,118,345.4376943138923,346.24803805499687,"[36, 0, 218]",218,a,0.28691461648850236,colour,0.5
12,21,1,2,3,19,119,348.26616325242503,349.0720750418841,"[97, 0, 157]",157,l,0.2826059387298301,colour,0.5
12,21,1,2,3,20,120,351.07888070476474,351.8560870116635,"[28, 0, 226]",226,a,0.2539626838552067,colour,0.5
12,21,1,2,3,21,121,353.87591323094966,354.70410450789495,"[82, 0, 172]",172,l,0.3048850323539227,colour,0.5
12,21,1,2,3,22,122,356.71986938483315,357.56804875186936,"[93, 0, 161]",161,l,0.324794747037231,colour,0.5
12,21,1,2,3,23,123,359.57943484641146,360.3840733310208,"[41, 0, 213]",213,a,0.2811640676809475,colour,0.5
12,21,1,2,3,24,124,362.39388364680053,363.192171360919,"[35, 0, 219]",219,a,0.27490742644295096,colour,0.5
12,21,1,2,3,25,125,365.19684158953896,365.9440974659228,"[18, 0, 236]",236,a,0.2238157240790315,colour,0.5
12,21,1,2,3,26,126,367.9550263049896,368.73607891418214,"[0, 0, 254]",254,a,0.2553021548810648,colour,0.5
12,21,1,2,3,27,127,370.7544542039541,371.5041940685187,"[53, 0, 201]",201,a,0.22640093074005563,colour,0.5
12,21,1,2,3,28,128,373.5231010507123,374.31209163069434,"[19, 0, 235]",235,a,0.2656740953971166,colour,0.5
12,21,1,2,3,29,129,376.3201170353568,377.12807288675685,"[49, 0, 205]",205,a,0.28456729295430705,colour,0.5
12,21,1,2,3,30,130,379.14760962907167,379.9920844784501,"[72, 0, 182]",182,a,0.3185786719695898,colour,0.5
12,21,1,2,3,31,131,382.0096846788365,382.63205152138835,"[13, 0, 241]",241,a,0.0990334225789411,colour,0.5
12,21,1,2,3,32,132,384.6504854942468,385.28804456134094,"[54, 0, 200]",200,a,0.11417917325161397,colour,0.5
12,21,1,2,3,33,133,387.30832842995005,388.2081217394443,"[73, 0, 181]",181,a,0.37635827717895154,colour,0.5
12,21,1,2,3,34,134,390.21481988231244,391.0480921694689,"[48, 0, 206]",206,a,0.3098758517880924,colour,0.5
12,21,1,2,3,35,135,393.0587732792774,393.92008190425986,"[74, 0, 180]",180,a,0.33789328498824034,colour,0.5
12,21,1,2,3,36,136,395.9339831008547,396.7760810882173,"[38, 0, 216]",216,a,0.3185861550446134,colour,0.5
12,21,1,2,3,37,137,398.7936836516892,399.6241789290798,"[1, 0, 253]",253,a,0.3072957651311299,colour,0.5
12,21,1,2,3,38,138,401.6376126301766,402.43208515585866,"[12, 0, 242]",242,a,0.271521136543015,colour,0.5
12,21,1,2,3,39,139,404.45279516610026,405.27204534588964,"[68, 0, 186]",186,a,0.29582971980562434,colour,0.5
12,21,1,2,3,40,140,407.2810872676637,408.0721093065076,"[47, 0, 207]",207,a,0.2676066988497041,colour,0.5
12,21,1,2,3,41,141,410.0938673415658,410.8960529518372,"[32, 0, 222]",222,a,0.27904005494201556,colour,0.5
12,21,1,2,3,42,142,412.9065788862208,413.90408268880856,"[3, 0, 251]",251,a,0.4741329672106076,colour,0.5
12,21,1,2,3,43,143,415.92237684625434,416.7121054940799,"[58, 0, 196]",196,a,0.26629361551022157,colour,0.5
12,21,1,2,3,44,144,418.71955982170766,419.592087156605,"[2, 0, 252]",252,a,0.3491198718256783,colour,0.5
12,21,1,2,3,45,145,421.61024937556067,422.4000788480189,"[11, 0, 243]",243,a,0.26641295092122164,colour,0.5
12,21,1,2,3,46,146,424.4074370771559,425.24812115656096,"[81, 0, 173]",173,l,0.3172328993969131,colour,0.5
12,21,1,2,3,47,147,427.2631377256621,428.0800870557723,"[29, 0, 225]",225,a,0.2881319951993646,colour,0.5
12,21,1,2,3,48,148,430.09140186416334,430.8880984395073,"[60, 0, 194]",194,a,0.273299746128032,colour,0.5
12,21,1,2,3,49,149,432.9041252242023,433.84020083007636,"[86, 0, 168]",168,l,0.4227801447996171,colour,0.5
12,21,1,2,3,50,150,435.847566936136,436.62411355059885,"[98, 0, 156]",156,l,0.2531312744686147,colour,0.5
12,21,1,2,4,1,151,444.3333723241085,445.288091035196,"[94, 0, 160]",160,l,0.43052079861809034,colour,0.5
12,21,1,2,4,2,152,447.30197017639875,448.20811110560317,"[76, 0, 178]",178,a,0.3828425615502056,colour,0.5
12,21,1,2,4,3,153,450.22582985370536,451.056106152595,"[37, 0, 217]",217,a,0.3069180665916065,colour,0.5
12,21,1,2,4,4,154,453.0697355952725,453.9441108566971,"[31, 0, 223]",223,a,0.3508059275482083,colour,0.5
12,21,1,2,4,5,155,455.9607666138181,456.78412106518226,"[41, 0, 213]",213,a,0.3001340652554063,colour,0.5
12,21,1,2,4,6,156,458.8046778692369,459.6480979984044,"[43, 0, 211]",211,a,0.3199910045514116,colour,0.5
12,21,1,2,4,7,157,461.664244906191,462.47213459144405,"[53, 0, 201]",201,a,0.2844515021715779,colour,0.5
12,21,1,2,4,8,158,464.4926122323959,465.3121440122486,"[46, 0, 208]",208,a,0.2961069875454996,colour,0.5
12,21,1,2,4,9,159,467.322274131162,468.1122115174803,"[70, 0, 184]",184,a,0.266850514075486,colour,0.5
12,21,1,2,4,10,160,470.1193397404277,470.8161407637963,"[51, 0, 203]",203,a,0.17372911729034968,colour,0.5
12,21,1,2,4,11,161,472.8251106117241,473.576109208836,"[63, 0, 191]",191,a,0.22750960788107477,colour,0.5
12,21,1,2,4,12,162,475.59099502100435,476.36812531556643,"[0, 0, 254]",254,a,0.25371022841136437,colour,0.5
12,21,1,2,4,13,163,478.38805826718453,479.23209673493693,"[21, 0, 233]",233,a,0.3206475462211529,colour,0.5
12,21,1,2,4,14,164,481.24769186416233,482.120123494431,"[80, 0, 174]",174,l,0.34762995153141674,colour,0.5
12,21,1,2,4,15,165,484.1399642860342,484.95208978748997,"[60, 0, 194]",194,a,0.2887385184003506,colour,0.5
12,21,1,2,4,16,166,486.9682780491421,487.8640750009363,"[2, 0, 252]",252,a,0.3724588056647917,colour,0.5
12,21,1,2,4,17,167,489.87462023377884,490.78409704056685,"[34, 0, 220]",220,a,0.3859685190836899,colour,0.5
12,21,1,2,4,18,168,492.78715013654437,493.5760966057569,"[87, 0, 167]",167,l,0.2655421569070313,colour,0.5
12,21,1,2,4,19,169,495.5936385169043,496.44811036517785,"[86, 0, 168]",168,l,0.3312258621590445,colour,0.5
12,21,1,2,4,20,170,498.4688156492484,499.30415326605726,"[49, 0, 205]",205,a,0.31200971067301,colour,0.5
12,21,1,2,4,21,171,501.31281433852564,502.2080772348272,"[64, 0, 190]",190,a,0.37164118088549003,colour,0.5
12,21,1,2,4,22,172,504.2193392678164,505.07208646343497,"[7, 0, 247]",247,a,0.3293586371728452,colour,0.5
12,21,1,2,4,23,173,507.07893663093273,507.88810749797267,"[88, 0, 166]",166,l,0.2858008193579735,colour,0.5
12,21,1,2,4,24,174,509.9073165602167,510.7521127881191,"[35, 0, 219]",219,a,0.32138167560333386,colour,0.5
12,21,1,2,4,25,175,512.7668800525571,513.6080895228224,"[15, 0, 239]",239,a,0.3170926901366329,colour,0.5
12,21,1,2,4,26,176,515.6278897482698,516.504090880815,"[69, 0, 185]",185,a,0.3530358849093318,colour,0.5
12,21,1,2,4,27,177,518.5186647667579,519.4081475757557,"[71, 0, 183]",183,a,0.3660182382300263,colour,0.5
12,21,1,2,4,28,178,521.4252259298955,522.3040807983489,"[42, 0, 212]",212,a,0.3554926976939896,colour,0.5
12,21,1,2,4,29,179,524.3161230407131,525.1520919930335,"[99, 0, 155]",155,l,0.3125969354005065,colour,0.5
12,21,1,2,4,30,180,527.1599941238237,528.0961205358617,"[33, 0, 221]",221,a,0.41299149056430906,colour,0.5
12,21,1,2,4,31,181,530.1147884533711,531.0320961047837,"[73, 0, 181]",181,a,0.394108532986138,colour,0.5
12,21,1,2,4,32,182,533.052492613424,533.8800876071618,"[65, 0, 189]",189,a,0.3041446014394751,colour,0.5
12,21,1,2,4,33,183,535.8990146755095,536.5361286963453,"[58, 0, 196]",196,a,0.11378020701522473,colour,0.5
12,21,1,2,4,34,184,538.5554263739905,539.3841182294855,"[44, 0, 210]",210,a,0.30534858934697695,colour,0.5
12,21,1,2,4,35,185,541.3993872540304,542.528082417848,"[30, 0, 224]",224,a,0.6052908515121089,colour,0.5
12,21,1,2,4,36,186,544.5402483279322,545.4320753096981,"[78, 0, 176]",176,l,0.36843172792578116,colour,0.5
12,21,1,2,4,37,187,547.446729934134,548.2801396736322,"[36, 0, 218]",218,a,0.31001527335320134,colour,0.5
12,21,1,2,4,38,188,550.2907506788033,551.1201077405858,"[14, 0, 240]",240,a,0.3046558138448745,colour,0.5
12,21,1,2,4,39,189,553.1374243716855,553.8721252178948,"[1, 0, 253]",253,a,0.21127566005452536,colour,0.5
12,21,1,2,4,40,190,555.8876577255724,556.7121267617767,"[91, 0, 163]",163,l,0.29886076039110776,colour,0.5
12,21,1,2,4,41,191,558.7214987266925,559.5761052703747,"[5, 0, 249]",249,a,0.3312420098372968,colour,0.5
12,21,1,2,4,42,192,561.5932990214496,562.4080790465232,"[54, 0, 200]",200,a,0.291411158934352,colour,0.5
12,21,1,2,4,43,193,564.4259742377326,565.1920949547493,"[10, 0, 244]",244,a,0.24275421394850127,colour,0.5
12,21,1,2,4,44,194,567.2075372716354,568.048100046406,"[77, 0, 177]",177,a,0.3172159640089376,colour,0.5
12,21,1,2,4,45,195,570.0679329610721,570.8881216764275,"[90, 0, 164]",164,l,0.29669263688265346,colour,0.5
12,21,1,2,4,46,196,572.8990308232023,573.6882852801646,"[8, 0, 246]",246,a,0.2659159169852501,colour,0.5
12,21,1,2,4,47,197,575.6960787093849,576.4881019053573,"[50, 0, 204]",204,a,0.26855862519005314,colour,0.5
12,21,1,2,4,48,198,578.5088162478933,579.35212531242,"[59, 0, 195]",195,a,0.3198752137541305,colour,0.5
12,21,1,2,4,49,199,581.3684711125679,582.1682148762047,"[17, 0, 237]",237,a,0.27635126672976185,colour,0.5
12,21,1,2,4,50,200,584.1812259803119,585.024108509373,"[13, 0, 241]",241,a,0.3195573798584519,colour,0.5
12,21,1,2,5,1,201,619.6077590858331,620.2401335611357,"[94, 0, 160]",160,l,0.10816592899209354,colour,0.4
12,21,1,2,5,2,202,622.2377145575883,623.1281213298498,"[61, 0, 193]",193,a,0.36709973998949863,colour,0.4
12,21,1,2,5,3,203,625.138752421175,625.9681051506486,"[38, 0, 216]",216,a,0.29969295747287106,colour,0.4
12,21,1,2,5,4,204,627.989518570248,628.8001549391047,"[7, 0, 247]",247,a,0.287911441308097,colour,0.4
12,21,1,2,5,5,205,630.8170966285979,631.6161661274964,"[89, 0, 165]",165,l,0.2756580973655218,colour,0.4
12,21,1,2,5,6,206,633.6304930718616,634.464145420643,"[60, 0, 194]",194,a,0.3109912243235158,colour,0.4
12,21,1,2,5,7,207,636.4744169303449,637.328209787709,"[87, 0, 167]",167,l,0.33044210814114194,colour,0.4
12,21,1,2,5,8,208,639.3496200565423,640.2001581686491,"[76, 0, 178]",178,l,0.32706842133484315,colour,0.4
12,21,1,2,5,9,209,642.2092485335161,643.0081073246838,"[44, 0, 210]",210,a,0.2742619124765042,colour,0.4
12,21,1,2,5,10,210,645.0236414077372,645.7680927051115,"[93, 0, 161]",161,l,0.22117892355890945,colour,0.4
12,21,1,2,5,11,211,647.7894659523881,648.6001743951201,"[6, 0, 248]",248,a,0.2873395765927853,colour,0.4
12,21,1,2,5,12,212,650.6178435186011,651.3841457987292,"[18, 0, 236]",236,a,0.24281171550683212,colour,0.4
12,21,1,2,5,13,213,653.3993163617124,654.1921626963012,"[74, 0, 180]",180,a,0.2694514745962806,colour,0.4
12,21,1,2,5,14,214,656.2143224545143,657.0401541986794,"[41, 0, 213]",213,a,0.302599148824811,colour,0.4
12,21,1,2,5,15,215,659.0581817222264,659.7921149621397,"[66, 0, 188]",188,a,0.21055137684743386,colour,0.4
12,21,1,2,5,16,216,661.8084241345932,662.6002484382043,"[21, 0, 233]",233,a,0.26846173901867587,colour,0.4
12,21,1,2,5,17,217,664.6223176117783,665.4001981834299,"[75, 0, 179]",179,a,0.2545361239754129,colour,0.4
12,21,1,2,5,18,218,667.4193347779656,668.1281154221506,"[96, 0, 158]",158,l,0.18533576572372112,colour,0.4
12,21,1,2,5,19,219,670.1383416395547,670.9201323165908,"[77, 0, 177]",177,a,0.2584265370533103,colour,0.4
12,21,1,2,5,20,220,672.9353958272841,673.6721525508328,"[10, 0, 244]",244,a,0.21342645434197038,colour,0.4
12,21,1,2,5,21,221,675.685619728858,676.4802104084083,"[70, 0, 184]",184,a,0.2713324841897702,colour,0.4
12,21,1,2,5,22,222,678.4996305722452,679.2801136797789,"[95, 0, 159]",159,l,0.25701971830858383,colour,0.4
12,21,1,2,5,23,223,681.2968131538364,682.0801807911776,"[15, 0, 239]",239,a,0.2600582419836428,colour,0.4
12,21,1,2,5,24,224,684.0938886092626,684.8561642055283,"[84, 0, 170]",170,l,0.2388921578094596,colour,0.4
12,21,1,2,5,25,225,686.8753551508416,687.6241029167577,"[29, 0, 225]",225,a,0.22548563210875727,colour,0.4
12,21,1,2,5,26,226,689.644146933002,690.4401397051406,"[8, 0, 246]",246,a,0.2729527675983263,colour,0.4
12,21,1,2,5,27,227,692.4423377609637,693.2161412364076,"[81, 0, 173]",173,l,0.2504558770015137,colour,0.4
12,21,1,2,5,28,228,695.2345173138747,696.0321386401774,"[59, 0, 195]",195,a,0.27424025093205273,colour,0.4
12,21,1,2,5,29,229,698.049283948174,698.80813583915,"[11, 0, 243]",243,a,0.23533336326363496,colour,0.4
12,21,1,2,5,30,230,700.8151734774583,701.5761194488441,"[91, 0, 163]",163,l,0.23751054523745552,colour,0.4
12,21,1,2,5,31,231,703.5966876744351,704.4241637266095,"[72, 0, 182]",182,a,0.3041394814354135,colour,0.4
12,21,1,2,5,32,232,706.4406394960097,707.1601453607727,"[45, 0, 209]",209,a,0.19609131246397737,colour,0.4
12,21,1,2,5,33,233,709.1752336099016,709.8721709040692,"[28, 0, 226]",226,a,0.1722092646814417,colour,0.4
12,21,1,2,5,34,234,711.8799139209732,712.6081726243865,"[19, 0, 235]",235,a,0.20542192352877464,colour,0.4
12,21,1,2,5,35,235,714.6302985118236,715.4081420619186,"[88, 0, 166]",166,l,0.25513161947310437,colour,0.4
12,21,1,2,5,36,236,717.426597302474,718.2482074088766,"[79, 0, 175]",175,l,0.29823296949325595,colour,0.4
12,21,1,2,5,37,237,720.2567278782517,721.0241270201368,"[25, 0, 229]",229,a,0.2440121588151669,colour,0.4
12,21,1,2,5,38,238,723.0381388875103,723.7921177190728,"[4, 0, 250]",250,a,0.23112432859488763,colour,0.4
12,21,1,2,5,39,239,725.8059815002634,726.5601525287784,"[83, 0, 171]",171,l,0.2309088947076816,colour,0.4
12,21,1,2,5,40,240,728.5717201864318,729.3361390938953,"[98, 0, 156]",156,l,0.24102129053790122,colour,0.4
12,21,1,2,5,41,241,731.3532099649456,732.1681187777285,"[52, 0, 202]",202,a,0.2915171035565436,colour,0.4
12,21,1,2,5,42,242,734.1849600364221,735.008188850843,"[5, 0, 249]",249,a,0.29978432979260106,colour,0.4
12,21,1,2,5,43,243,737.0289626641752,737.8081752237631,"[58, 0, 196]",196,a,0.25599650578806177,colour,0.4
12,21,1,2,5,44,244,739.8284039538994,740.3681355555746,"[49, 0, 205]",205,a,0.01662346173543483,colour,0.4
12,21,1,2,5,45,245,742.3754524308606,743.1282012806332,"[80, 0, 174]",174,a,0.22929963900242,colour,0.4
12,21,1,2,5,46,246,745.1413285693707,745.9201866673684,"[73, 0, 181]",181,l,0.2555297980143223,colour,0.4
12,21,1,2,5,47,247,747.9384063878824,748.8241716822959,"[86, 0, 168]",168,l,0.3628871606779285,colour,0.4
12,21,1,2,5,48,248,750.8449541602458,751.6001653366548,"[50, 0, 204]",204,a,0.2322164641955169,colour,0.4
12,21,1,2,5,49,249,753.6104766248318,754.3601530801534,"[99, 0, 155]",155,l,0.22644543535716366,colour,0.4
12,21,1,2,5,50,250,756.3658630628197,757.1601205484621,"[2, 0, 252]",252,a,0.27093430566310417,colour,0.4
12,21,1,2,6,1,251,785.6929783518572,786.2961609444756,"[72, 0, 182]",182,a,0.07968651414557826,colour,0.28
12,21,1,2,6,2,252,788.3033762074338,789.1441705637844,"[78, 0, 176]",176,a,0.3173632624966558,colour,0.28
12,21,1,2,6,3,253,791.164595823182,791.6961945001822,"[9, 0, 245]",245,a,0.008243201620643958,colour,0.28
12,21,1,2,6,4,254,793.7116915616934,794.3522048693558,"[98, 0, 156]",156,l,0.11735121079254895,colour,0.28
12,21,1,2,6,5,255,796.370576614514,797.1521687930508,"[79, 0, 175]",175,a,0.2582445800944697,colour,0.28
12,21,1,2,6,6,256,799.1675985068578,799.9121372380905,"[81, 0, 173]",173,a,0.221021385063068,colour,0.28
12,21,1,2,6,7,257,801.9335861038562,802.6561360061314,"[82, 0, 172]",172,l,0.19919678999576718,colour,0.28
12,21,1,2,6,8,258,804.6680289807846,805.2881607459858,"[92, 0, 162]",162,l,0.09677510829351377,colour,0.28
12,21,1,2,6,9,259,807.2946009195584,808.0002012554323,"[10, 0, 244]",244,a,0.18228030667523853,colour,0.28
12,21,1,2,6,10,260,810.0136002980726,810.6562041415309,"[13, 0, 241]",241,a,0.11924718655063771,colour,0.28
12,21,1,2,6,11,261,812.6700974611886,813.352156820125,"[54, 0, 200]",200,a,0.1593387636821717,colour,0.28
12,21,1,2,6,12,262,815.3590869384061,816.088201075836,"[91, 0, 163]",163,l,0.20649200373736676,colour,0.28
12,21,1,2,6,13,263,818.1115699419752,818.8801132071676,"[68, 0, 186]",186,a,0.26243904244620353,colour,0.28
12,21,1,2,6,14,264,820.8915690124995,821.5921753781586,"[87, 0, 167]",167,l,0.1779444535059156,colour,0.28
12,21,1,2,6,15,265,823.6120713082346,824.2641782674182,"[93, 0, 161]",161,l,0.12886766846349929,colour,0.28
12,21,1,2,6,16,266,826.2843179883057,827.1762832101085,"[75, 0, 179]",179,l,0.3686770941421855,colour,0.28
12,21,1,2,6,17,267,829.1907196437096,829.9441813551675,"[88, 0, 166]",166,l,0.23002470991923474,colour,0.28
12,21,1,2,6,18,268,831.9564953514346,832.6561765723018,"[67, 0, 187]",187,a,0.17621980086551048,colour,0.28
12,21,1,2,6,19,269,834.6754604653252,835.3681469771109,"[96, 0, 158]",158,l,0.16926802102534566,colour,0.28
12,21,1,2,6,20,270,837.3804337979964,838.1442103422451,"[50, 0, 204]",204,a,0.24043642888136674,colour,0.28
12,21,1,2,6,21,271,840.1619342103513,840.8002687606786,"[15, 0, 239]",239,a,0.11521420115604997,colour,0.28
12,21,1,2,6,22,272,842.8183774165518,843.7521947081259,"[64, 0, 190]",190,a,0.4102743453986477,colour,0.28
12,21,1,2,6,23,273,845.771759807365,846.5761552888434,"[12, 0, 242]",242,a,0.2810998707427643,colour,0.28
12,21,1,2,6,24,274,848.5845556351123,849.3361552415881,"[56, 0, 198]",198,a,0.22830242034979165,colour,0.28
12,21,1,2,6,25,275,851.3504179890151,851.9761793922371,"[41, 0, 213]",213,a,0.10246067248226609,colour,0.28
12,21,1,2,6,26,276,853.9920702999807,854.6322299337335,"[43, 0, 211]",211,a,0.11773324164096266,colour,0.28
12,21,1,2,6,27,277,856.647654921384,857.4082098034705,"[66, 0, 188]",188,a,0.23714466208184604,colour,0.28
12,21,1,2,6,28,278,859.4290698691184,860.1201683928957,"[53, 0, 201]",201,a,0.1678576576669002,colour,0.28
12,21,1,2,6,29,279,862.1324599399377,862.8801714964065,"[59, 0, 195]",195,a,0.22428361339552794,colour,0.28
12,21,1,2,6,30,280,864.8983656169148,865.6081190612895,"[94, 0, 160]",160,l,0.18637709516042378,colour,0.28
12,21,1,2,6,31,281,867.6172653523245,868.2161983441183,"[63, 0, 191]",191,l,0.07546015024126973,colour,0.28
12,21,1,2,6,32,282,870.2288758604554,870.9361468920397,"[85, 0, 169]",169,l,0.18425071935052983,colour,0.28
12,21,1,2,6,33,283,872.9477338481665,873.65617775383,"[52, 0, 202]",202,a,0.18508173490408808,colour,0.28
12,21,1,2,6,34,284,875.6666646974336,876.4081491511461,"[74, 0, 180]",180,a,0.21808368602069095,colour,0.28
12,21,1,2,6,35,285,878.416961460578,879.048212292575,"[30, 0, 224]",224,a,0.10780004583648406,colour,0.28
12,21,1,2,6,36,286,881.0577803929191,881.6401986245328,"[71, 0, 183]",183,a,0.05909859624807723,colour,0.28
12,21,1,2,6,37,287,883.6473386628641,884.3201895030506,"[70, 0, 184]",184,a,0.14941147557692602,colour,0.28
12,21,1,2,6,38,288,886.3350497152132,886.9841417815041,"[28, 0, 226]",226,a,0.1243140183360083,colour,0.28
12,21,1,2,6,39,289,888.9864757142641,889.5441548887029,"[2, 0, 252]",252,a,0.034441065246937796,colour,0.28
12,21,1,2,6,40,290,891.5647404435294,892.2241544318385,"[37, 0, 217]",217,a,0.1360384267900372,colour,0.28
12,21,1,2,6,41,291,894.2382324653736,894.9041520057508,"[14, 0, 240]",240,a,0.14328992360970005,colour,0.28
12,21,1,2,6,42,292,896.9259545454261,897.6401868091489,"[55, 0, 199]",199,a,0.19091892990400083,colour,0.28
12,21,1,2,6,43,293,899.6605147885421,900.4401601851423,"[80, 0, 174]",174,a,0.2565490720589878,colour,0.28
12,21,1,2,6,44,294,902.4575831547263,903.1521908484428,"[90, 0, 164]",164,l,0.17116320910281502,colour,0.28
12,21,1,2,6,45,295,905.1637663830188,905.9441719028546,"[95, 0, 159]",159,l,0.25704098600544967,colour,0.28
12,21,1,2,6,46,296,907.960851290758,908.7282614603319,"[35, 0, 219]",219,a,0.24613695923471823,colour,0.28
12,21,1,2,6,47,297,910.7354022863583,911.4961576361675,"[1, 0, 253]",253,a,0.23584772643516771,colour,0.28
12,21,1,2,6,48,298,913.5036127514904,914.2323621873074,"[60, 0, 194]",194,a,0.20561254510539584,colour,0.28
12,21,1,2,6,49,299,916.2493062398717,917.0243046447868,"[57, 0, 197]",197,a,0.24650481161370408,colour,0.28
12,21,1,2,6,50,300,919.0238981954753,919.7682494559122,"[61, 0, 193]",193,a,0.22619061685691122,colour,0.28
12,21,1,2,7,1,301,949.7495240368298,951.3041497214435,"[73, 0, 181]",181,a,1.030422258307226,colour,0.14
12,21,1,2,7,2,302,953.3140990649408,954.040159712531,"[61, 0, 193]",193,a,0.2026523968379479,colour,0.14
12,21,1,2,7,3,303,956.0486636403512,956.8562130424543,"[54, 0, 200]",200,a,0.28414312055974733,colour,0.14
12,21,1,2,7,4,304,958.8770152127108,959.7042045448325,"[70, 0, 184]",184,a,0.30384803522611037,colour,0.14
12,21,1,2,7,5,305,961.7209808189073,962.4881838253641,"[63, 0, 191]",191,a,0.24379514953761827,colour,0.14
12,21,1,2,7,6,306,964.5024749297154,965.312226326103,"[50, 0, 204]",204,a,0.28639316408953164,colour,0.14
12,21,1,2,7,7,307,967.3308320159267,968.4242495850922,"[68, 0, 186]",186,a,0.5690601489914116,colour,0.14
12,21,1,2,7,8,308,970.4414177361614,971.1761725393153,"[90, 0, 164]",164,l,0.21213385100418236,colour,0.14
12,21,1,2,7,9,309,973.1916270654328,974.0002174031251,"[88, 0, 166]",166,l,0.28377723741868977,colour,0.14
12,21,1,2,7,10,310,976.0214157826849,976.8002301637462,"[71, 0, 183]",183,a,0.2545577855198644,colour,0.14
12,21,1,2,7,11,311,978.8195010598429,979.5522188902833,"[60, 0, 194]",194,a,0.20953210280276835,colour,0.14
12,21,1,2,7,12,312,981.5696493429568,982.4002592295874,"[81, 0, 173]",173,a,0.3073575989837991,colour,0.14
12,21,1,2,7,13,313,984.4149615094066,985.2801904797961,"[86, 0, 168]",168,l,0.3418951565545285,colour,0.14
12,21,1,2,7,14,314,987.2902245002333,988.032204412506,"[99, 0, 155]",155,l,0.21877961231803056,colour,0.14
12,21,1,2,7,15,315,990.0405066910607,990.8001947175799,"[67, 0, 187]",187,a,0.23630655730084982,colour,0.14
12,21,1,2,7,16,316,992.8218385372311,993.6162074813474,"[58, 0, 196]",196,a,0.27098196104634553,colour,0.14
12,21,1,2,7,17,317,995.6358730113716,996.4081775080704,"[77, 0, 177]",177,a,0.24893090440309606,colour,0.14
12,21,1,2,7,18,318,998.4173813006637,999.2485555689491,"[55, 0, 199]",199,a,0.30779122369131073,colour,0.14
12,21,1,2,7,19,319,1001.2614083468652,1001.9281620535476,"[69, 0, 185]",185,a,0.14352977595990524,colour,0.14
12,21,1,2,7,20,320,1003.9366195075272,1004.7361734372826,"[56, 0, 198]",198,a,0.27617521747015417,colour,0.14
12,21,1,2,7,21,321,1006.7494050952664,1007.5362054963625,"[53, 0, 201]",201,a,0.2633949072478572,colour,0.14
12,21,1,2,7,22,322,1009.546448255307,1010.3361579985067,"[59, 0, 195]",195,a,0.2663719909178326,colour,0.14
12,21,1,2,7,23,323,1012.343542221497,1013.0881983189174,"[37, 0, 217]",217,a,0.22126517588912975,colour,0.14
12,21,1,2,7,24,324,1015.0985950717295,1015.8401850762311,"[92, 0, 162]",162,l,0.22231201916292775,colour,0.14
12,21,1,2,7,25,325,1017.8481277731771,1018.5601804918551,"[62, 0, 192]",192,a,0.1886468309967313,colour,0.14
12,21,1,2,7,26,326,1020.567113760917,1021.3442113662459,"[98, 0, 156]",156,l,0.2537031391839264,colour,0.14
12,21,1,2,7,27,327,1023.3505676505738,1024.1761583608459,"[96, 0, 158]",158,l,0.3038216475251829,colour,0.14
12,21,1,2,7,28,328,1026.193029158021,1027.0162619109033,"[14, 0, 240]",240,a,0.2998575852107024,colour,0.14
12,21,1,2,7,29,329,1029.0370191826805,1029.7922346913983,"[85, 0, 169]",169,l,0.2318946918239817,colour,0.14
12,21,1,2,7,30,330,1031.790342260254,1032.6082509997796,"[75, 0, 179]",179,a,0.29464699955133256,colour,0.14
12,21,1,2,7,31,331,1034.6185386571888,1035.648237813817,"[78, 0, 176]",176,a,0.506154241214972,colour,0.14
12,21,1,2,7,32,332,1037.6657564880297,1038.488193277677,"[35, 0, 219]",219,a,0.2991199112148024,colour,0.14
12,21,1,2,7,33,333,1040.4953278021567,1041.2722127305315,"[72, 0, 182]",182,a,0.2536814776540268,colour,0.14
12,21,1,2,7,34,334,1043.2924363406637,1043.904211082685,"[89, 0, 165]",165,l,0.08836334048828576,colour,0.14
12,21,1,2,7,35,335,1045.9176979530312,1046.8322033885051,"[87, 0, 167]",167,l,0.39117201550106984,colour,0.14
12,21,1,2,7,36,336,1048.839782565381,1049.6242029536952,"[11, 0, 243]",243,a,0.26104010063863825,colour,0.14
12,21,1,2,7,37,337,1051.6393522489816,1052.4001903065073,"[80, 0, 174]",174,a,0.23762239757343195,colour,0.14
12,21,1,2,7,38,338,1054.4208250921074,1055.184367297843,"[45, 0, 209]",209,a,0.24030094577756245,colour,0.14
12,21,1,2,7,39,339,1057.202182932131,1058.064233957266,"[84, 0, 170]",170,l,0.33713946331408806,colour,0.14
12,21,1,2,7,40,340,1060.079624680293,1060.8642234809522,"[65, 0, 189]",189,a,0.2613398176035844,colour,0.14
12,21,1,2,7,41,341,1062.8767871757445,1063.4402125666966,"[94, 0, 160]",160,l,0.04077923264412675,colour,0.14
12,21,1,2,7,42,342,1065.4550526926905,1066.2242142964678,"[82, 0, 172]",172,l,0.2457915560953552,colour,0.14
12,21,1,2,7,43,343,1068.2256455336756,1069.0082546231715,"[64, 0, 190]",190,a,0.2715628842561273,colour,0.14
12,21,1,2,7,44,344,1071.0190125329827,1071.928251456644,"[95, 0, 159]",159,l,0.3859220452286536,colour,0.14
12,21,1,2,7,45,345,1073.9421376870741,1074.6002078720485,"[32, 0, 222]",222,a,0.13468202037620358,colour,0.14
12,21,1,2,7,46,346,1076.6148865210853,1077.256234782777,"[57, 0, 197]",197,a,0.1178443062963197,colour,0.14
12,21,1,2,7,47,347,1079.2711268964777,1079.8561748393695,"[91, 0, 163]",163,l,0.06148806132841855,colour,0.14
12,21,1,2,7,48,348,1081.8683872233232,1082.624197045996,"[74, 0, 180]",180,a,0.23232280266529415,colour,0.14
12,21,1,2,7,49,349,1084.6365736638254,1085.4002482018986,"[76, 0, 178]",178,a,0.24038483502226882,colour,0.14
12,21,1,2,7,50,350,1087.4193930672045,1088.168196365441,"[12, 0, 242]",242,a,0.2255561305792071,colour,0.14
12,21,1,2,8,1,351,1096.6109673572355,1097.3442322400952,"[54, 0, 200]",200,a,0.2091780350310728,colour,0.06
12,21,1,2,8,2,352,1099.362107345165,1100.2083371733315,"[88, 0, 166]",166,l,0.32309766361140646,colour,0.06
12,21,1,2,8,3,353,1102.2216696559626,1103.2081942071527,"[62, 0, 192]",192,a,0.46171026937372517,colour,0.06
12,21,1,2,8,4,354,1105.2233545301424,1106.2561969735252,"[84, 0, 170]",170,a,0.5095113864808809,colour,0.06
12,21,1,2,8,5,355,1108.2704482994159,1109.2241965733847,"[14, 0, 240]",240,a,0.42989222003961913,colour,0.06
12,21,1,2,8,6,356,1111.243062989408,1112.224222567238,"[52, 0, 202]",202,a,0.4577800778351957,colour,0.06
12,21,1,2,8,7,357,1114.243185475585,1115.1042542482319,"[68, 0, 186]",186,a,0.33826074353419244,colour,0.06
12,21,1,2,8,8,358,1117.1184756417933,1118.2082292594714,"[94, 0, 160]",160,l,0.5665678900259081,colour,0.06
12,21,1,2,8,9,359,1120.228176783392,1121.160190653085,"[61, 0, 193]",193,a,0.40880332973029,colour,0.06
12,21,1,2,8,10,360,1123.16932197797,1124.2241914533806,"[90, 0, 164]",164,l,0.5315683508233633,colour,0.06
12,21,1,2,8,11,361,1126.2321762918727,1127.2082213825488,"[72, 0, 182]",182,a,0.45269079683930613,colour,0.06
12,21,1,2,8,12,362,1129.216668990368,1130.352254100144,"[81, 0, 173]",173,a,0.6121284159307834,colour,0.06
12,21,1,2,8,13,363,1132.3732673719642,1133.344251144721,"[22, 0, 232]",232,a,0.44754795274639037,colour,0.06
12,21,1,2,8,14,364,1135.3590286491672,1136.2962231721904,"[56, 0, 198]",198,a,0.41375318917562254,colour,0.06
12,21,1,2,8,15,365,1138.3124783876992,1139.2642121381941,"[69, 0, 185]",185,a,0.4287610936735291,colour,0.06
12,21,1,2,8,16,366,1141.2814822954388,1142.296201510646,"[55, 0, 199]",199,a,0.49140903215447906,colour,0.06
12,21,1,2,8,17,367,1144.3142093418865,1145.1766333394044,"[91, 0, 163]",163,l,0.3390173221414443,colour,0.06
12,21,1,2,8,18,368,1147.1843046762951,1148.1522318084462,"[65, 0, 189]",189,a,0.45349621238710824,colour,0.06
12,21,1,2,8,19,369,1150.1595443514234,1151.2242524995527,"[80, 0, 174]",174,a,0.5413991466193693,colour,0.06
12,21,1,2,8,20,370,1153.2286789373466,1154.2401969703787,"[60, 0, 194]",194,a,0.4941060911369277,colour,0.06
12,21,1,2,8,21,371,1156.256534893604,1157.2882143090683,"[66, 0, 188]",188,a,0.5039601238531759,colour,0.06
12,21,1,2,8,22,372,1159.3079905098857,1160.296409461458,"[97, 0, 157]",157,l,0.46502842388872523,colour,0.06
12,21,1,2,8,23,373,1162.3081468668388,1163.1842782885942,"[78, 0, 176]",176,a,0.35173934311023913,colour,0.06
12,21,1,2,8,24,374,1165.2004121994687,1166.048295000277,"[73, 0, 181]",181,a,0.3244296515767928,colour,0.06
12,21,1,2,8,25,375,1168.059960725659,1169.0082936139515,"[63, 0, 191]",191,a,0.42492660676361993,colour,0.06
12,21,1,2,8,26,376,1171.0289894457092,1172.0642422280362,"[85, 0, 169]",169,l,0.5104810359043768,colour,0.06
12,21,1,2,8,27,377,1174.0790866863535,1175.0482575848873,"[75, 0, 179]",179,a,0.44672087565413676,colour,0.06
12,21,1,2,8,28,378,1177.062820836989,1177.9602802137233,"[71, 0, 183]",183,a,0.37424804909096565,colour,0.06
12,21,1,2,8,29,379,1179.9694237478252,1181.0082223277714,"[93, 0, 161]",161,l,0.515520298431511,colour,0.06
12,21,1,2,8,30,380,1183.0164828586421,1183.9123156504356,"[74, 0, 180]",180,a,0.37247298411966767,colour,0.06
12,21,1,2,8,31,381,1185.9229735232948,1186.744249648109,"[82, 0, 172]",172,a,0.2979238002153579,colour,0.06
12,21,1,2,8,32,382,1188.7513243079593,1189.632281133745,"[36, 0, 218]",218,a,0.3576237996603595,colour,0.06
12,21,1,2,8,33,383,1191.6434391913208,1192.5122131716344,"[96, 0, 158]",158,l,0.34530310799891595,colour,0.06
12,21,1,2,8,34,384,1194.5186828836886,1195.3681343740318,"[51, 0, 203]",203,a,0.3259841626568232,colour,0.06
12,21,1,2,8,35,385,1197.3661604167282,1198.4962462515687,"[87, 0, 167]",167,l,0.606636230222648,colour,0.06
12,21,1,2,8,36,386,1200.5037844684412,1201.560214362631,"[79, 0, 175]",175,a,0.5330433049675776,colour,0.06
12,21,1,2,8,37,387,1203.5664520992432,1204.3843017618346,"[58, 0, 196]",196,a,0.29442802105040755,colour,0.06
12,21,1,2,8,38,388,1206.3948446316062,1207.5922710827872,"[67, 0, 187]",187,a,0.6741422619816149,colour,0.06
12,21,1,2,8,39,389,1209.6159361212922,1210.5522574872157,"[50, 0, 204]",204,a,0.41300724440952763,colour,0.06
12,21,1,2,8,40,390,1212.5612241843628,1213.5442143594846,"[76, 0, 178]",178,a,0.45973906900326256,colour,0.06
12,21,1,2,8,41,391,1215.5404795156646,1216.472229902225,"[98, 0, 156]",156,l,0.4086383081594249,colour,0.06
12,21,1,2,8,42,392,1218.4845635908132,1219.2882158844586,"[83, 0, 171]",171,l,0.2803362029080745,colour,0.06
12,21,1,2,8,43,393,1221.298743394218,1222.0962516866566,"[70, 0, 184]",184,a,0.2742414324748097,colour,0.06
12,21,1,2,8,44,394,1224.1114628157957,1224.9522713506012,"[64, 0, 190]",190,a,0.3175920871581184,colour,0.06
12,21,1,2,8,45,395,1226.9710003142973,1227.7282118357107,"[53, 0, 201]",201,a,0.2337902737344848,colour,0.06
12,21,1,2,8,46,396,1229.7369926374377,1230.6082832951797,"[57, 0, 197]",197,a,0.3479651146772085,colour,0.06
12,21,1,2,8,47,397,1232.6278830528754,1233.400262380368,"[77, 0, 177]",177,a,0.24914043060562108,colour,0.06
12,21,1,2,8,48,398,1235.4110919701925,1236.2242591949325,"[99, 0, 155]",155,l,0.2899050909327343,colour,0.06
12,21,1,2,8,49,399,1238.2394195179222,1239.2802594028908,"[59, 0, 195]",195,a,0.5159956708521349,colour,0.06
12,21,1,2,8,50,400,1241.2880870967347,1242.2721993397572,"[86, 0, 168]",168,l,0.4607295922614867,colour,0.06
12,21,1,2,9,1,401,1249.6027911094716,1250.328204273872,"[98, 0, 156]",156,l,0.20116326423885766,colour,0.06
12,21,1,2,9,2,402,1252.3383426635555,1252.9362488982151,"[61, 0, 193]",193,a,0.07344917138107121,colour,0.06
12,21,1,2,9,3,403,1254.9384808248142,1255.4722771637753,"[93, 0, 161]",161,l,0.010556654378888197,colour,0.06
12,21,1,2,9,4,404,1257.485449744825,1258.2562375396956,"[54, 0, 200]",200,a,0.2472625717637129,colour,0.06
12,21,1,2,9,5,405,1260.2663341816806,1260.904236288843,"[24, 0, 230]",230,a,0.11453324102330953,colour,0.06
12,21,1,2,9,6,406,1262.9228782125138,1263.6722218677605,"[70, 0, 184]",184,a,0.22615753376157954,colour,0.06
12,21,1,2,9,7,407,1265.6900579820503,1266.2962783106632,"[59, 0, 195]",195,a,0.08290266248513944,colour,0.06
12,21,1,2,9,8,408,1268.3152297974593,1269.0002229169768,"[1, 0, 253]",253,a,0.16165064106462523,colour,0.06
12,21,1,2,9,9,409,1271.0185509451985,1271.7922551714,"[96, 0, 158]",158,l,0.25039364930125885,colour,0.06
12,21,1,2,9,10,410,1273.800485376094,1274.5603553595865,"[95, 0, 159]",159,l,0.23659879120532423,colour,0.06
12,21,1,2,9,11,411,1276.5776018860488,1277.3922523357032,"[85, 0, 169]",169,a,0.2913729558349587,colour,0.06
12,21,1,2,9,12,412,1279.3996298633137,1280.1522069961356,"[97, 0, 157]",157,l,0.23011253762524575,colour,0.06
12,21,1,2,9,13,413,1282.164537533943,1282.8402473039314,"[74, 0, 180]",180,a,0.15233026999339927,colour,0.06
12,21,1,2,9,14,414,1284.852161940129,1285.848246320893,"[82, 0, 172]",172,a,0.47263123153243214,colour,0.06
12,21,1,2,9,15,415,1287.8680993217276,1288.6722250185412,"[52, 0, 202]",202,a,0.2807335937541211,colour,0.06
12,21,1,2,9,16,416,1290.6808025956125,1291.4962210454105,"[8, 0, 246]",246,a,0.29209448213805445,colour,0.06
12,21,1,2,9,17,417,1293.5004395323922,1294.3522611893713,"[71, 0, 183]",183,a,0.3284071046655299,colour,0.06
12,21,1,2,9,18,418,1296.360084944754,1297.1282548437157,"[62, 0, 192]",192,a,0.24484671898244414,colour,0.06
12,21,1,2,9,19,419,1299.1290748315805,1299.8882882733888,"[73, 0, 181]",181,a,0.23597966492525302,colour,0.06
12,21,1,2,9,20,420,1301.8937584037049,1302.760244925099,"[87, 0, 167]",167,l,0.34307984601764474,colour,0.06
12,21,1,2,9,21,421,1304.7711694318714,1305.5842953027604,"[99, 0, 155]",155,l,0.2897006847488228,colour,0.06
12,21,1,2,9,22,422,1307.598763637914,1308.536232277911,"[72, 0, 182]",182,a,0.41397216767654754,colour,0.06
12,21,1,2,9,23,423,1310.5508475177048,1311.30426905684,"[51, 0, 203]",203,a,0.22999595913279336,colour,0.06
12,21,1,2,9,24,424,1313.3166700931324,1314.1202550390735,"[77, 0, 177]",177,a,0.2801617290242575,colour,0.06
12,21,1,2,9,25,425,1316.1294560747338,1316.952280015219,"[90, 0, 164]",164,l,0.29976188056753017,colour,0.06
12,21,1,2,9,26,426,1318.9742554534023,1319.792274863721,"[86, 0, 168]",168,l,0.2946202180319233,colour,0.06
12,21,1,2,9,27,427,1321.80252195496,1322.6162972782913,"[57, 0, 197]",197,a,0.290336352554732,colour,0.06
12,21,1,2,9,28,428,1324.6309207888698,1325.4962364054227,"[89, 0, 165]",165,l,0.34188294732302893,colour,0.06
12,21,1,2,9,29,429,1327.5060636565759,1328.4162781373598,"[76, 0, 178]",178,a,0.38678063001134433,colour,0.06
12,21,1,2,9,30,430,1330.4283113212732,1331.2802586151956,"[79, 0, 175]",175,a,0.32870957857812755,colour,0.06
12,21,1,2,9,31,431,1333.283329828104,1334.6162515921314,"[83, 0, 171]",171,a,0.809622214816045,colour,0.06
12,21,1,2,9,32,432,1336.6271938219725,1337.408216892698,"[92, 0, 162]",162,l,0.25754629071161617,colour,0.06
12,21,1,2,9,33,433,1339.4244713205117,1340.2802570398053,"[65, 0, 189]",189,a,0.3325535177864367,colour,0.06
12,21,1,2,9,34,434,1342.2948766119225,1343.2482487627422,"[60, 0, 194]",194,a,0.4396513358078664,colour,0.06
12,21,1,2,9,35,435,1345.254236406996,1346.2482928735117,"[80, 0, 174]",174,a,0.4706962649943307,colour,0.06
12,21,1,2,9,36,436,1348.2701769393607,1349.0882562143088,"[55, 0, 199]",199,a,0.29347333779151086,colour,0.06
12,21,1,2,9,37,437,1351.1006359829044,1352.0722538480768,"[68, 0, 186]",186,a,0.44929978078289423,colour,0.06
12,21,1,2,9,38,438,1354.086454761651,1354.9762487091793,"[64, 0, 190]",190,a,0.366483370642527,colour,0.06
12,21,1,2,9,39,439,1356.992860749364,1357.8242736884713,"[58, 0, 196]",196,a,0.30797711909690406,colour,0.06
12,21,1,2,9,40,440,1359.8368377771112,1360.712225617186,"[67, 0, 187]",187,a,0.35203512164298445,colour,0.06
12,21,1,2,9,41,441,1362.7277687587048,1363.5362984440726,"[56, 0, 198]",198,a,0.2852344684797572,colour,0.06
12,21,1,2,9,42,442,1365.5435156762687,1366.4642683006532,"[75, 0, 179]",179,a,0.3975290875096107,colour,0.06
12,21,1,2,9,43,443,1368.4811261009017,1369.4323336728266,"[81, 0, 173]",173,a,0.4282057704695035,colour,0.06
12,21,1,2,9,44,444,1371.4501225255663,1372.2722379366896,"[69, 0, 185]",185,a,0.2987792342173634,colour,0.06
12,21,1,2,9,45,445,1374.2940830117586,1375.1202625221486,"[53, 0, 201]",201,a,0.3028842934872955,colour,0.06
12,21,1,2,9,46,446,1377.1256404924352,1377.9042469226843,"[94, 0, 160]",160,l,0.2555668195564067,colour,0.06
12,21,1,2,9,47,447,1379.9227726617246,1380.9442577613372,"[88, 0, 166]",166,a,0.49814537809288595,colour,0.06
12,21,1,2,9,48,448,1382.954248852533,1383.8722610948462,"[78, 0, 176]",176,a,0.3946591300191358,colour,0.06
12,21,1,2,9,49,449,1385.892942748149,1386.8642404163402,"[84, 0, 170]",170,a,0.4478969004994724,colour,0.06
12,21,1,2,9,50,450,1388.8774913727975,1389.6322834968305,"[91, 0, 163]",163,l,0.23136299941688776,colour,0.06
12,21,1,2,10,1,451,1397.050217363736,1399.0882727558492,"[83, 0, 171]",171,a,1.5140878796955803,colour,0.06
12,21,1,2,10,2,452,1401.100227564355,1402.0082439893158,"[88, 0, 166]",166,l,0.3846885188249871,colour,0.06
12,21,1,2,10,3,453,1404.0223346259445,1404.8562610916997,"[79, 0, 175]",175,l,0.3105469657748472,colour,0.06
12,21,1,2,10,4,454,1406.866402632164,1407.936264652075,"[72, 0, 182]",182,a,0.5465250553243095,colour,0.06
12,21,1,2,10,5,455,1409.9472442973056,1411.2562639273965,"[89, 0, 165]",165,a,0.7862348379130708,colour,0.06
12,21,1,2,10,6,456,1413.2644783782453,1414.0803064281208,"[70, 0, 184]",184,a,0.2932110362016829,colour,0.06
12,21,1,2,10,7,457,1416.092787021349,1417.0323020863725,"[63, 0, 191]",191,a,0.4161241434921976,colour,0.06
12,21,1,2,10,8,458,1419.0461753198615,1419.8643223363615,"[69, 0, 185]",185,a,0.29503336270863656,colour,0.06
12,21,1,2,10,9,459,1421.8765370833862,1422.6962602724961,"[75, 0, 179]",179,a,0.2963267537415959,colour,0.06
12,21,1,2,10,10,460,1424.7048835357418,1425.472253926855,"[64, 0, 190]",190,a,0.24396686651743948,colour,0.06
12,21,1,2,10,11,461,1427.4863831604016,1428.2402666811686,"[74, 0, 180]",180,a,0.2305804269562941,colour,0.06
12,21,1,2,10,12,462,1430.2522526035318,1431.2564336751238,"[80, 0, 174]",174,a,0.4807677008357132,colour,0.06
12,21,1,2,10,13,463,1433.2694754992262,1434.048292637206,"[51, 0, 203]",203,a,0.25534035798045807,colour,0.06
12,21,1,2,10,14,464,1436.066699434683,1436.856279602478,"[93, 0, 161]",161,l,0.2662168155075051,colour,0.06
12,21,1,2,10,15,465,1438.8659583736153,1439.6882352616813,"[61, 0, 193]",193,a,0.2989088096219348,colour,0.06
12,21,1,2,10,16,466,1441.7112551800674,1442.5282415317197,"[60, 0, 194]",194,a,0.2936107901332434,colour,0.06
12,21,1,2,10,17,467,1444.5396902478242,1445.2962857937382,"[97, 0, 157]",157,l,0.2332763043959858,colour,0.06
12,21,1,2,10,18,468,1447.305515974018,1448.048319024907,"[13, 0, 241]",241,a,0.21824398143508006,colour,0.06
12,21,1,2,10,19,469,1450.057344011293,1450.696279177122,"[87, 0, 167]",167,l,0.12446328604710288,colour,0.06
12,21,1,2,10,20,470,1452.7072970254376,1453.4562984283257,"[84, 0, 170]",170,a,0.2254163151665125,colour,0.06
12,21,1,2,10,21,471,1455.4732956501248,1456.2403123673284,"[99, 0, 155]",155,l,0.24365848490560893,colour,0.06
12,21,1,2,10,22,472,1458.2584119647363,1459.2162700241315,"[90, 0, 164]",164,l,0.4344726517156232,colour,0.06
12,21,1,2,10,23,473,1461.2122476725635,1461.8562658178562,"[98, 0, 156]",156,l,0.12074852839577943,colour,0.06
12,21,1,2,10,24,474,1463.8686451926042,1464.7682683605235,"[55, 0, 199]",199,a,0.3762027079210384,colour,0.06
12,21,1,2,10,25,475,1466.7763213344151,1467.5442655594961,"[53, 0, 201]",201,a,0.24453518661903217,colour,0.06
12,21,1,2,10,26,476,1469.5577870883135,1470.4162871958251,"[9, 0, 245]",245,a,0.3351907121541444,colour,0.06
12,21,1,2,10,27,477,1472.4331052175985,1473.1842503255175,"[91, 0, 163]",163,l,0.22793850641755853,colour,0.06
12,21,1,2,10,28,478,1475.191727496218,1476.024250294009,"[62, 0, 192]",192,a,0.30920631319168024,colour,0.06
12,21,1,2,10,29,479,1478.0377379520505,1478.872237857926,"[43, 0, 211]",211,a,0.31008774106157944,colour,0.06
12,21,1,2,10,30,480,1480.869351358895,1481.7282744572585,"[59, 0, 195]",195,a,0.33553296452737413,colour,0.06
12,21,1,2,10,31,481,1483.732082556482,1484.8322742808232,"[95, 0, 159]",159,l,0.5769449505314697,colour,0.06
12,21,1,2,10,32,482,1486.8416812980577,1487.6243455260264,"[52, 0, 202]",202,a,0.259250069517293,colour,0.06
12,21,1,2,10,33,483,1489.6263218464155,1490.3122731938056,"[82, 0, 172]",172,l,0.1625667273910949,colour,0.06
12,21,1,2,10,34,484,1492.329710341859,1493.09633163744,"[56, 0, 198]",198,a,0.24351197411306202,colour,0.06
12,21,1,2,10,35,485,1495.1111245018838,1495.864285708667,"[67, 0, 187]",187,a,0.2283681926637655,colour,0.06
12,21,1,2,10,36,486,1497.8786575514969,1498.6883085170848,"[92, 0, 162]",162,l,0.2863734717830084,colour,0.06
12,21,1,2,10,37,487,1500.7070138499985,1501.4162927096768,"[94, 0, 160]",160,l,0.18595410430862103,colour,0.06
12,21,1,2,10,38,488,1503.4390207879915,1504.3763125910336,"[85, 0, 169]",169,l,0.4112884994538035,colour,0.06
12,21,1,2,10,39,489,1506.395362539406,1507.2242997611029,"[65, 0, 189]",189,a,0.30563412788615096,colour,0.06
12,21,1,2,10,40,490,1509.2391418563348,1509.920323725848,"[96, 0, 158]",158,l,0.15785672031051945,colour,0.06
12,21,1,2,10,41,491,1511.9285889828607,1512.800295148365,"[66, 0, 188]",188,a,0.3484554532333277,colour,0.06
12,21,1,2,10,42,492,1514.8187811089301,1515.6562766092393,"[58, 0, 196]",196,a,0.31427550804801285,colour,0.06
12,21,1,2,10,43,493,1517.664710038589,1518.3442720185703,"[71, 0, 183]",183,a,0.1561513661290519,colour,0.06
12,21,1,2,10,44,494,1520.3524734724924,1521.320315533856,"[68, 0, 186]",186,a,0.4443542536610039,colour,0.06
12,21,1,2,10,45,495,1523.3381390450522,1523.9923290569568,"[76, 0, 178]",178,a,0.1308845550083788,colour,0.06
12,21,1,2,10,46,496,1526.0104633128358,1527.152354688471,"[54, 0, 200]",200,a,0.6184232602390694,colour,0.06
12,21,1,2,10,47,497,1529.167044365211,1530.1282611452625,"[77, 0, 177]",177,a,0.4377695385192055,colour,0.06
12,21,1,2,10,48,498,1532.1272769235366,1532.8402803870122,"[86, 0, 168]",168,l,0.189987877412932,colour,0.06
12,21,1,2,10,49,499,1534.8618871851213,1535.7282965126506,"[50, 0, 204]",204,a,0.3431389229517663,colour,0.06
12,21,1,2,10,50,500,1537.7370970066986,1538.7363045880775,"[78, 0, 176]",176,l,0.4758485614001984,colour,0.06
12,21,1,2,11,1,501,1548.078962624786,1548.9682859260647,"[73, 0, 181]",181,a,0.36546094581717625,colour,0.06
12,21,1,2,11,2,502,1550.9862398003752,1552.1043531036266,"[89, 0, 165]",165,l,0.5946873294160469,colour,0.06
12,21,1,2,11,3,503,1554.113001179183,1555.1362893068435,"[90, 0, 164]",164,l,0.5000834953971207,colour,0.06
12,21,1,2,11,4,504,1557.1336280878604,1558.0802741327352,"[57, 0, 197]",197,a,0.4233441325923195,colour,0.06
12,21,1,2,11,5,505,1560.0825308716448,1561.0482867295068,"[95, 0, 159]",159,l,0.4424094409623649,colour,0.06
12,21,1,2,11,6,506,1563.0671200624492,1564.160280450029,"[74, 0, 180]",180,a,0.5698084568284685,colour,0.06
12,21,1,2,11,7,507,1566.1775880226633,1567.1043881559453,"[88, 0, 166]",166,l,0.4035718702361919,colour,0.06
12,21,1,2,11,8,508,1569.1146907795192,1570.0802938250417,"[86, 0, 168]",168,l,0.44250475174339954,colour,0.06
12,21,1,2,11,9,509,1572.0886508482363,1572.8403386762511,"[87, 0, 167]",167,l,0.24048172119364608,colour,0.06
12,21,1,2,11,10,510,1574.8579688089521,1575.7202911941567,"[60, 0, 194]",194,a,0.33895076213229913,colour,0.06
12,21,1,2,11,11,511,1577.7334299044305,1578.5442860394978,"[61, 0, 193]",193,a,0.300222286809003,colour,0.06
12,21,1,2,11,12,512,1580.5647128742858,1581.42432717279,"[62, 0, 192]",192,a,0.3361828108172631,colour,0.06
12,21,1,2,11,13,513,1583.4399112743267,1584.2483011442819,"[58, 0, 196]",196,a,0.2850194284255849,colour,0.06
12,21,1,2,11,14,514,1586.2683884836297,1587.056366484947,"[67, 0, 187]",187,a,0.26468869211385027,colour,0.06
12,21,1,2,11,15,515,1589.0654143144202,1590.0083645062696,"[63, 0, 191]",191,a,0.41967939340975136,colour,0.06
12,21,1,2,11,16,516,1592.01879473601,1592.8163282346068,"[50, 0, 204]",204,a,0.2742422201554291,colour,0.06
12,21,1,2,11,17,517,1594.832536582413,1595.5842720658256,"[80, 0, 174]",174,a,0.22835913419839926,colour,0.06
12,21,1,2,11,18,518,1597.6003685613105,1598.3922972341825,"[59, 0, 195]",195,a,0.26853775134077296,colour,0.06
12,21,1,2,11,19,519,1600.4121380257857,1601.2082725825603,"[55, 0, 199]",199,a,0.2727932598791085,colour,0.06
12,21,1,2,11,20,520,1603.2249255827628,1604.0564503741916,"[92, 0, 162]",162,l,0.30569990020012483,colour,0.06
12,21,1,2,11,21,521,1606.0670724070515,1606.888309147238,"[71, 0, 183]",183,a,0.29510071041295305,colour,0.06
12,21,1,2,11,22,522,1608.8960568902985,1609.800283332981,"[77, 0, 177]",177,a,0.3765934033872327,colour,0.06
12,21,1,2,11,23,523,1611.8068621404382,1612.5123640147503,"[2, 0, 252]",252,a,0.18214049126254395,colour,0.06
12,21,1,2,11,24,524,1614.5257941712334,1615.3922944772494,"[96, 0, 158]",158,l,0.3432137537311064,colour,0.06
12,21,1,2,11,25,525,1617.4023623684625,1618.2243135457102,"[53, 0, 201]",201,a,0.2985964895633515,colour,0.06
12,21,1,2,11,26,526,1620.2306926731253,1621.1122887113452,"[98, 0, 156]",156,l,0.35819251360953785,colour,0.06
12,21,1,2,11,27,527,1623.1235231751052,1623.9683540614642,"[4, 0, 250]",250,a,0.3218141187535366,colour,0.06
12,21,1,2,11,28,528,1625.9831197505264,1626.8802920133603,"[52, 0, 202]",202,a,0.37384356900292914,colour,0.06
12,21,1,2,11,29,529,1628.8793656870112,1629.8802916195127,"[84, 0, 170]",170,a,0.47774768792442046,colour,0.06
12,21,1,2,11,30,530,1631.8951979116682,1632.856313867087,"[65, 0, 189]",189,a,0.43776126773445867,colour,0.06
12,21,1,2,11,31,531,1634.8659528597636,1635.8082740791724,"[94, 0, 160]",160,l,0.4189141501847189,colour,0.06
12,21,1,2,11,32,532,1637.8193616382778,1638.8002884529851,"[70, 0, 184]",184,a,0.4578198563103797,colour,0.06
12,21,1,2,11,33,533,1640.820825170871,1641.6883297847817,"[83, 0, 171]",171,a,0.3442220000870293,colour,0.06
12,21,1,2,11,34,534,1643.6960558662977,1644.6563431692484,"[93, 0, 161]",161,l,0.43749857229704503,colour,0.06
12,21,1,2,11,35,535,1646.6650400817307,1647.6963276202005,"[75, 0, 179]",179,a,0.5079576630960219,colour,0.06
12,21,1,2,11,36,536,1649.7143086698925,1650.5843205089186,"[66, 0, 188]",188,a,0.3465901974850567,colour,0.06
12,21,1,2,11,37,537,1652.605158913022,1653.4643766083755,"[64, 0, 190]",190,a,0.33597289078170434,colour,0.06
12,21,1,2,11,38,538,1655.4803683407517,1656.3123464492091,"[99, 0, 155]",155,l,0.3087159746501129,colour,0.06
12,21,1,2,11,39,539,1658.3243682115717,1659.1363582299382,"[85, 0, 169]",169,l,0.28867156454361975,colour,0.06
12,21,1,2,11,40,540,1661.1540462580306,1661.896298318039,"[79, 0, 175]",175,l,0.21899662158102728,colour,0.06
12,21,1,2,11,41,541,1663.90417957498,1664.9043221473112,"[76, 0, 178]",178,a,0.4768461739004124,colour,0.06
12,21,1,2,11,42,542,1666.9200184950168,1667.768358551315,"[16, 0, 238]",238,a,0.3249696147686336,colour,0.06
12,21,1,2,11,43,543,1669.7759515128128,1670.5842996350693,"[56, 0, 198]",198,a,0.28501155151752755,colour,0.06
12,21,1,2,11,44,544,1672.5940496923722,1673.5843157827621,"[69, 0, 185]",185,a,0.4737430594395846,colour,0.06
12,21,1,2,11,45,545,1675.593576289204,1676.3923460711085,"[81, 0, 173]",173,a,0.27603106973401736,colour,0.06
12,21,1,2,11,46,546,1678.4063402154134,1679.208321813334,"[72, 0, 182]",182,a,0.27874782103754114,colour,0.06
12,21,1,2,11,47,547,1681.2189907138963,1682.4563177267846,"[91, 0, 163]",163,l,0.7125536910898518,colour,0.06
12,21,1,2,11,48,548,1684.4705887449818,1685.3443303078093,"[51, 0, 203]",203,a,0.35049045670893975,colour,0.06
12,21,1,2,11,49,549,1687.3626693637343,1688.4083275634912,"[97, 0, 157]",157,l,0.5224165459512733,colour,0.06
12,21,1,2,11,50,550,1690.4253944960801,1691.2963192706666,"[82, 0, 172]",172,a,0.3479253362020245,colour,0.06
12,21,1,2,12,1,551,1699.3316122253018,1700.1603383454203,"[87, 0, 167]",167,l,0.3035597397683887,colour,0.06
12,21,1,2,12,2,552,1702.1773855857027,1702.9603255060356,"[75, 0, 179]",179,a,0.25954624188307207,colour,0.06
12,21,1,2,12,3,553,1704.9775105924928,1705.768358551315,"[66, 0, 188]",188,a,0.26747633574996144,colour,0.06
12,21,1,2,12,4,554,1707.777824251636,1708.5603281841904,"[76, 0, 178]",178,a,0.2591594848781824,colour,0.06
12,21,1,2,12,5,555,1710.5749012824526,1711.6484000784549,"[58, 0, 196]",196,a,0.5501476529461797,colour,0.06
12,21,1,2,12,6,556,1713.6689304948086,1714.4803045376611,"[32, 0, 222]",222,a,0.2880603151861578,colour,0.06
12,21,1,2,12,7,557,1716.4846848954476,1717.3123385722865,"[88, 0, 166]",166,l,0.3040752844972303,colour,0.06
12,21,1,2,12,8,558,1719.3287974062841,1720.1363503530156,"[3, 0, 251]",251,a,0.2828749357140623,colour,0.06
12,21,1,2,12,9,559,1722.1433044959122,1722.9443243213464,"[55, 0, 199]",199,a,0.27766277467890177,colour,0.06
12,21,1,2,12,10,560,1724.9560329759552,1725.7203987141693,"[85, 0, 169]",169,a,0.2410015982168261,colour,0.06
12,21,1,2,12,11,561,1727.7396046256472,1728.568368555003,"[63, 0, 191]",191,a,0.30541514937067404,colour,0.06
12,21,1,2,12,12,562,1730.582295351589,1731.3763370094966,"[6, 0, 248]",248,a,0.270699179454823,colour,0.06
12,21,1,2,12,13,563,1733.3949935054843,1734.1603481915809,"[67, 0, 187]",187,a,0.24198069995327387,colour,0.06
12,21,1,2,12,14,564,1736.1782626812637,1736.9123558227438,"[95, 0, 159]",159,l,0.21075066304183565,colour,0.06
12,21,1,2,12,15,565,1738.918452956248,1739.6563203261758,"[57, 0, 197]",197,a,0.2209205604303861,colour,0.06
12,21,1,2,12,16,566,1741.680310681666,1742.568395730399,"[69, 0, 185]",185,a,0.36486584416707046,colour,0.06
12,21,1,2,12,17,567,1744.5868970509619,1745.4163324881374,"[78, 0, 176]",176,a,0.30611619565752335,colour,0.06
12,21,1,2,12,18,568,1747.4332166760869,1748.3123027322727,"[99, 0, 155]",155,l,0.35592002085468266,colour,0.06
12,21,1,2,12,19,569,1750.3240224145848,1751.1523066392256,"[62, 0, 192]",192,a,0.3048842446587514,colour,0.06
12,21,1,2,12,20,570,1753.1554625290737,1753.976378284584,"[64, 0, 190]",190,a,0.2974815108900657,colour,0.06
12,21,1,2,12,21,571,1755.9839086245338,1756.8723516794853,"[68, 0, 186]",186,a,0.36510490882210433,colour,0.06
12,21,1,2,12,22,572,1758.890504446128,1759.6963477063691,"[56, 0, 198]",198,a,0.2826291756646242,colour,0.06
12,21,1,2,12,23,573,1761.7030387599807,1762.472351600707,"[50, 0, 204]",204,a,0.24587898995378055,colour,0.06
12,21,1,2,12,24,574,1764.4852603047912,1765.2963448706723,"[86, 0, 168]",168,l,0.28775981051148847,colour,0.06
12,21,1,2,12,25,575,1767.3135689479095,1768.456304729858,"[89, 0, 165]",165,l,0.6195409958454547,colour,0.06
12,21,1,2,12,26,576,1770.470097224883,1771.30444668149,"[71, 0, 183]",183,a,0.3100034579692874,colour,0.06
12,21,1,2,12,27,577,1773.315082105124,1774.1683755654667,"[80, 0, 174]",174,a,0.3299112034292193,colour,0.06
12,21,1,2,12,28,578,1776.174694434405,1777.0723369496409,"[83, 0, 171]",171,a,0.3745839999319287,colour,0.06
12,21,1,2,12,29,579,1779.0819968161522,1779.9202945812285,"[59, 0, 195]",195,a,0.315298720553983,colour,0.06
12,21,1,2,12,30,580,1781.9416926408303,1782.696361884824,"[81, 0, 173]",173,l,0.2313184947852278,colour,0.06
12,21,1,2,12,31,581,1784.707135942328,1785.5763222796522,"[98, 0, 156]",156,l,0.3458115634857677,colour,0.06
12,21,1,2,12,32,582,1787.600024733547,1788.4403452928673,"[53, 0, 201]",201,a,0.3169060070213163,colour,0.06
12,21,1,2,12,33,583,1790.4586756841745,1791.2483531319886,"[65, 0, 189]",189,a,0.26634284629835747,colour,0.06
12,21,1,2,12,34,584,1793.2432276171312,1794.128333612971,"[61, 0, 193]",193,a,0.3617331912391819,colour,0.06
12,21,1,2,12,35,585,1796.1495394756057,1796.9603593768115,"[97, 0, 157]",157,l,0.2877649305155501,colour,0.06
12,21,1,2,12,36,586,1798.9800323899253,1799.88042237646,"[84, 0, 170]",170,l,0.3775740805140231,colour,0.06
12,21,1,2,12,37,587,1801.8761578094563,1802.7923922298942,"[82, 0, 172]",172,a,0.3939706868113717,colour,0.06
12,21,1,2,12,38,588,1804.7995767728426,1805.5843583181559,"[74, 0, 180]",180,a,0.2614753007219406,colour,0.06
12,21,1,2,12,39,589,1807.5966636498051,1808.3603433078824,"[60, 0, 194]",194,a,0.24053173966240138,colour,0.06
12,21,1,2,12,40,590,1810.3781274344656,1811.1043381374766,"[96, 0, 158]",158,l,0.20283553532499354,colour,0.06
12,21,1,2,12,41,591,1813.1127428160544,1813.8403178024018,"[91, 0, 163]",163,l,0.2033550185005879,colour,0.06
12,21,1,2,12,42,592,1815.848711453291,1816.7203380618594,"[92, 0, 162]",162,l,0.34905291796894744,colour,0.06
12,21,1,2,12,43,593,1818.7387980285712,1819.504312222387,"[77, 0, 177]",177,a,0.2419554937951034,colour,0.06
12,21,1,2,12,44,594,1821.5078572323255,1822.2963539291377,"[93, 0, 161]",161,l,0.26509356604947243,colour,0.06
12,21,1,2,12,45,595,1824.3025341641915,1825.0323524986889,"[54, 0, 200]",200,a,0.2063986621942604,colour,0.06
12,21,1,2,12,46,596,1827.040613029545,1827.8003624960693,"[52, 0, 202]",202,a,0.23632270499365404,colour,0.06
12,21,1,2,12,47,597,1829.822089023437,1830.8403343439422,"[51, 0, 203]",203,a,0.4948351005150471,colour,0.06
12,21,1,2,12,48,598,1832.8536093250295,1833.6083998736576,"[94, 0, 160]",160,l,0.23144846403738484,colour,0.06
12,21,1,2,12,49,599,1835.6206717283785,1836.160429323907,"[72, 0, 182]",182,a,0.016457258621812798,colour,0.06
12,21,1,2,12,50,600,1838.167753682268,1838.8483211516723,"[79, 0, 175]",175,a,0.15726240635558497,colour,0.06
12,21,1,2,13,1,601,1848.8443251878052,1849.488404773103,"[99, 0, 155]",155,l,0.12007623288081959,colour,0.06
12,21,1,2,13,2,602,1851.5016561234079,1852.13637870994,"[54, 0, 200]",200,a,0.1114580896391999,colour,0.06
12,21,1,2,13,3,603,1854.1597093729943,1854.8563595532614,"[98, 0, 156]",156,l,0.173248624894768,colour,0.06
12,21,1,2,13,4,604,1856.863040760727,1857.6403569507238,"[60, 0, 194]",194,a,0.25444199472258333,colour,0.06
12,21,1,2,13,5,605,1859.661291847151,1860.4484191406227,"[79, 0, 175]",175,a,0.26418023664155044,colour,0.06
12,21,1,2,13,6,606,1862.4583598195022,1863.2084013702697,"[50, 0, 204]",204,a,0.22677272158034611,colour,0.06
12,21,1,2,13,7,607,1865.2259279214195,1866.0483765264507,"[52, 0, 202]",202,a,0.29946807127271313,colour,0.06
12,21,1,2,13,8,608,1868.0647361112206,1868.8404095685837,"[64, 0, 190]",190,a,0.25245149587863125,colour,0.06
12,21,1,2,13,9,609,1870.8637922193302,1871.7045003233507,"[97, 0, 157]",157,l,0.31765510255354457,colour,0.06
12,21,1,2,13,10,610,1873.7180856552586,1874.6564156369568,"[81, 0, 173]",173,l,0.4277512719272636,colour,0.06
12,21,1,2,13,11,611,1876.6697792334307,1877.3603630002035,"[66, 0, 188]",188,a,0.16790216229856014,colour,0.06
12,21,1,2,13,12,612,1879.3742350521643,1880.0723846050241,"[71, 0, 183]",183,a,0.1747499667108059,colour,0.06
12,21,1,2,13,13,613,1882.0937239815394,1882.8083835684229,"[57, 0, 197]",197,a,0.1913375884469133,colour,0.06
12,21,1,2,13,14,614,1884.8282987969578,1885.6163413890754,"[69, 0, 185]",185,a,0.26469066136633046,colour,0.06
12,21,1,2,13,15,615,1887.6260248863546,1888.6083947536536,"[92, 0, 162]",162,l,0.45959689050505403,colour,0.06
12,21,1,2,13,16,616,1890.6277775020862,1891.4723571145587,"[53, 0, 201]",201,a,0.3212107463332359,colour,0.06
12,21,1,2,13,17,617,1893.4859026679915,1894.3923689141957,"[65, 0, 189]",189,a,0.38321277700015344,colour,0.06
12,21,1,2,13,18,618,1896.410292462344,1897.2483436796756,"[82, 0, 172]",172,l,0.3145819204073632,colour,0.06
12,21,1,2,13,19,619,1899.2542387700669,1900.2243801057339,"[80, 0, 174]",174,a,0.446848088002298,colour,0.06
12,21,1,2,13,20,620,1902.2389382378315,1903.0645364311786,"[84, 0, 170]",170,a,0.302254927213653,colour,0.06
12,21,1,2,13,21,621,1905.084999893661,1906.5284002517437,"[88, 0, 166]",166,l,0.9281329089135397,colour,0.06
12,21,1,2,13,22,622,1908.546252907574,1909.4883866561722,"[96, 0, 158]",158,l,0.4187534609227441,colour,0.06
12,21,1,2,13,23,623,1911.499624664546,1912.8723926394887,"[83, 0, 171]",171,l,0.8493983211083105,colour,0.06
12,21,1,2,13,24,624,1914.8780994713889,1916.2165043626446,"[77, 0, 177]",177,l,0.815080923595815,colour,0.06
12,21,1,2,13,25,625,1918.2377295237384,1919.3123602338164,"[68, 0, 186]",186,l,0.549816034414107,colour,0.06
12,21,1,2,13,26,626,1921.3342427242897,1922.2484389904712,"[58, 0, 196]",196,a,0.3921200033801142,colour,0.06
12,21,1,2,13,27,627,1924.2549673855974,1925.072427928113,"[63, 0, 191]",191,a,0.29143045739328954,colour,0.06
12,21,1,2,13,28,628,1927.0859750569361,1927.8963538503594,"[73, 0, 181]",181,a,0.28736320736061316,colour,0.06
12,21,1,2,13,29,629,1929.9142773985077,1930.6163795921602,"[78, 0, 176]",176,a,0.17940365379035939,colour,0.06
12,21,1,2,13,30,630,1932.626767286507,1933.8883737380238,"[51, 0, 203]",203,a,0.7383317146304762,colour,0.06
12,21,1,2,13,31,631,1935.8997176910198,1936.7283878849848,"[75, 0, 179]",179,a,0.3106666950334329,colour,0.06
12,21,1,2,13,32,632,1938.7383234438603,1940.064341477293,"[89, 0, 165]",165,l,0.8026464103750186,colour,0.06
12,21,1,2,13,33,633,1942.0824099608435,1942.896376299599,"[39, 0, 215]",215,a,0.2906270110834157,colour,0.06
12,21,1,2,13,34,634,1944.9106760685681,1945.9043788611743,"[93, 0, 161]",161,l,0.47033116954844445,colour,0.06
12,21,1,2,13,35,635,1947.9122861119686,1948.880353847213,"[24, 0, 230]",230,a,0.4442506720952224,colour,0.06
12,21,1,2,13,36,636,1950.8974507121166,1951.8964172596025,"[67, 0, 187]",187,a,0.47574970599089283,colour,0.06
12,21,1,2,13,37,637,1953.913379822945,1954.600351232075,"[87, 0, 167]",167,a,0.1638707522652112,colour,0.06
12,21,1,2,13,38,638,1956.616715149139,1957.3523446847685,"[20, 0, 234]",234,a,0.21219686639960855,colour,0.06
12,21,1,2,13,39,639,1959.3678350508999,1959.9524154983228,"[70, 0, 184]",184,a,0.06128995667677373,colour,0.06
12,21,1,2,13,40,640,1961.961840632488,1963.0723826358007,"[94, 0, 160]",160,l,0.5872991679643746,colour,0.06
12,21,1,2,13,41,641,1965.0869462817354,1966.2643854305352,"[85, 0, 169]",169,a,0.6539690641657216,colour,0.06
12,21,1,2,13,42,642,1968.2769546391646,1969.2483988181484,"[62, 0, 192]",192,a,0.4488405560841784,colour,0.06
12,21,1,2,13,43,643,1971.2608687775355,1971.8243760884943,"[55, 0, 199]",199,a,0.04019712790613994,colour,0.06
12,21,1,2,13,44,644,1973.8391992791148,1975.2163747872255,"[95, 0, 159]",159,l,0.8538369681336917,colour,0.06
12,21,1,2,13,45,645,1977.2314291655784,1978.0484300895478,"[61, 0, 193]",193,a,0.2936619901447557,colour,0.06
12,21,1,2,13,46,646,1980.0597488363856,1981.1523964361695,"[90, 0, 164]",164,l,0.5693000013416167,colour,0.06
12,21,1,2,13,47,647,1983.159277323677,1984.3603484278865,"[86, 0, 168]",168,l,0.6777038134605391,colour,0.06
12,21,1,2,13,48,648,1986.3782881237275,1987.0403901125683,"[76, 0, 178]",178,a,0.13868979961262085,colour,0.06
12,21,1,2,13,49,649,1989.0394669370144,1989.9684155014838,"[74, 0, 180]",180,a,0.40986986533971503,colour,0.06
12,21,1,2,13,50,650,1991.988424465424,1993.0484103972267,"[91, 0, 163]",163,l,0.5366911087621702,colour,0.06
12,21,1,2,14,1,651,2001.0537919121416,2001.9843804523116,"[74, 0, 180]",180,a,0.4065548615908483,colour,0.06
12,21,1,2,14,2,652,2003.992380650816,2004.8003810068476,"[64, 0, 190]",190,a,0.2847110468283063,colour,0.06
12,21,1,2,14,3,653,2006.820722377015,2007.6403518307197,"[81, 0, 173]",173,a,0.29638819374667946,colour,0.06
12,21,1,2,14,4,654,2009.6490203862777,2010.4963738577499,"[83, 0, 171]",171,a,0.3240365930396365,colour,0.06
12,21,1,2,14,5,655,2012.5099225619633,2013.360424046361,"[77, 0, 177]",177,a,0.32717279058124404,colour,0.06
12,21,1,2,14,6,656,2015.3695589158597,2016.4644120545418,"[89, 0, 165]",165,l,0.5715713125682669,colour,0.06
12,21,1,2,14,7,657,2018.4811580024543,2019.6883983140287,"[99, 0, 155]",155,l,0.6840557654795703,colour,0.06
12,21,1,2,14,8,658,2021.7001672271144,2022.728396155755,"[43, 0, 211]",211,a,0.5048903886636253,colour,0.06
12,21,1,2,14,9,659,2024.7496362830134,2026.168435430096,"[90, 0, 164]",164,l,0.8954582440346712,colour,0.06
12,21,1,2,14,10,660,2028.1887638033368,2029.160402148511,"[66, 0, 188]",188,a,0.44857943602255546,colour,0.06
12,21,1,2,14,11,661,2031.1759756161919,2032.0483840095258,"[84, 0, 170]",170,a,0.34909939180943184,colour,0.06
12,21,1,2,14,12,662,2034.0667592992977,2034.7124914633896,"[67, 0, 187]",187,a,0.12238023332611192,colour,0.06
12,21,1,2,14,13,663,2036.7232454347395,2037.4723838961072,"[78, 0, 176]",176,a,0.22581764447386377,colour,0.06
12,21,1,2,14,14,664,2039.489815530309,2040.2483665227628,"[82, 0, 172]",172,a,0.23515613246127032,colour,0.06
12,21,1,2,14,15,665,2042.2625898855622,2042.8324129146931,"[76, 0, 178]",178,a,0.04648055069264956,colour,0.06
12,21,1,2,14,16,666,2044.840934565611,2045.584387856623,"[54, 0, 200]",200,a,0.22015334796742536,colour,0.06
12,21,1,2,14,17,667,2047.591229359503,2048.248420479693,"[53, 0, 201]",201,a,0.13385888174525462,colour,0.06
12,21,1,2,14,18,668,2050.26323264261,2051.4564382437384,"[65, 0, 189]",189,a,0.6684295223967638,colour,0.06
12,21,1,2,14,19,669,2053.468084670647,2054.0883976050973,"[62, 0, 192]",192,a,0.09721503451874014,colour,0.06
12,21,1,2,14,20,670,2056.1088067168166,2056.9043981596333,"[75, 0, 179]",179,a,0.27081812101823743,colour,0.06
12,21,1,2,14,21,671,2058.923006212528,2059.9524367660197,"[56, 0, 198]",198,a,0.5061235212051542,colour,0.06
12,21,1,2,14,22,672,2061.970046418719,2063.064428517304,"[92, 0, 162]",162,l,0.5702101799834054,colour,0.06
12,21,1,2,14,23,673,2065.080720754355,2066.0724094173347,"[22, 0, 232]",232,a,0.46640806722280104,colour,0.06
12,21,1,2,14,24,674,2068.080720754355,2068.896381419603,"[72, 0, 182]",182,a,0.292497780683334,colour,0.06
12,21,1,2,14,25,675,2070.9105972993275,2071.8403949962667,"[96, 0, 158]",158,l,0.4064875138865318,colour,0.06
12,21,1,2,14,26,676,2073.850006813547,2075.088446442038,"[95, 0, 159]",159,l,0.7149467007839121,colour,0.06
12,21,1,2,14,27,677,2077.100375650538,2078.3044238384173,"[70, 0, 184]",184,a,0.6792157891468378,colour,0.06
12,21,1,2,14,28,678,2080.308413894585,2081.8964444349986,"[79, 0, 175]",175,l,1.0649885666498449,colour,0.06
12,21,1,2,14,29,679,2083.9055923014093,2084.7283989126736,"[63, 0, 191]",191,a,0.29941962819430046,colour,0.06
12,21,1,2,14,30,680,2086.7515854280064,2087.65646408005,"[73, 0, 181]",181,a,0.38152672129217535,colour,0.06
12,21,1,2,14,31,681,2089.675076071406,2090.6244321722043,"[98, 0, 156]",156,l,0.4259513946599327,colour,0.06
12,21,1,2,14,32,682,2092.64409494531,2093.552435899561,"[58, 0, 196]",196,a,0.38495909118501004,colour,0.06
12,21,1,2,14,33,683,2095.5682767888356,2096.288388782952,"[68, 0, 186]",186,a,0.19677266644430347,colour,0.06
12,21,1,2,14,34,684,2098.3035305951635,2099.8563997255696,"[91, 0, 163]",163,l,1.031672720084316,colour,0.06
12,21,1,2,14,35,685,2101.8529598725872,2102.7204109234153,"[71, 0, 183]",183,a,0.3441719816328259,colour,0.06
12,21,1,2,14,36,686,2104.724206419545,2105.4643978760723,"[69, 0, 185]",185,a,0.21674894115130883,colour,0.06
12,21,1,2,14,37,687,2107.474514998059,2108.768402268237,"[88, 0, 166]",166,l,0.7701722131896531,colour,0.06
12,21,1,2,14,38,688,2110.7877412997477,2111.64040736304,"[94, 0, 160]",160,l,0.32936257563414983,colour,0.06
12,21,1,2,14,39,689,2113.638700827316,2114.4963888239145,"[97, 0, 157]",157,l,0.3342718689091271,colour,0.06
12,21,1,2,14,40,690,2116.5162800278194,2117.4404484805855,"[60, 0, 194]",194,a,0.4007507496862672,colour,0.06
12,21,1,2,14,41,691,2119.4539503170963,2120.2483921227686,"[61, 0, 193]",193,a,0.27097172105277423,colour,0.06
12,21,1,2,14,42,692,2122.266736298683,2123.088438565115,"[80, 0, 174]",174,a,0.2969927477242891,colour,0.06
12,21,1,2,14,43,693,2125.096471059005,2126.0564161095826,"[86, 0, 168]",168,l,0.43668527984118555,colour,0.06
12,21,1,2,14,44,694,2128.0654182528815,2128.9844422861643,"[55, 0, 199]",199,a,0.39561932712967973,colour,0.06
12,21,1,2,14,45,695,2130.993867814177,2131.9284747674537,"[59, 0, 195]",195,a,0.4166081805014983,colour,0.06
12,21,1,2,14,46,696,2133.9326519005845,2134.7204172249476,"[51, 0, 203]",203,a,0.2703399916936178,colour,0.06
12,21,1,2,14,47,697,2136.7395833579503,2137.7764245221333,"[87, 0, 167]",167,l,0.5135416149714729,colour,0.06
12,21,1,2,14,48,698,2139.7759818389604,2140.5845576043503,"[57, 0, 197]",197,a,0.2852482531015994,colour,0.06
12,21,1,2,14,49,699,2142.608955196847,2143.3844423649425,"[50, 0, 204]",204,a,0.25241880663088523,colour,0.06
12,21,1,2,14,50,700,2145.406073187667,2146.192443902517,"[30, 0, 224]",224,a,0.262936076396727,colour,0.06
12,21,1,2,15,1,701,2153.6578586895484,2154.6404357199644,"[87, 0, 167]",167,l,0.45845394874049816,colour,0.06
12,21,1,2,15,2,702,2156.658924437448,2157.5764148335147,"[82, 0, 172]",172,a,0.3942322007060284,colour,0.06
12,21,1,2,15,3,703,2159.584214564282,2160.5604695749935,"[91, 0, 163]",163,l,0.45286842148925643,colour,0.06
12,21,1,2,15,4,704,2162.56774903489,2163.576445947372,"[50, 0, 204]",204,a,0.4852496709499974,colour,0.06
12,21,1,2,15,5,705,2165.583261062551,2166.512399460902,"[94, 0, 160]",160,l,0.4057459014293272,colour,0.06
12,21,1,2,15,6,706,2168.523438576929,2169.304391543017,"[56, 0, 198]",198,a,0.25767389689281117,colour,0.06
12,21,1,2,15,7,707,2171.320637700075,2172.192400579428,"[74, 0, 180]",180,a,0.34830342858913355,colour,0.06
12,21,1,2,15,8,708,2174.2116068847536,2175.200463793328,"[58, 0, 196]",196,a,0.4655632670619525,colour,0.06
12,21,1,2,15,9,709,2177.214142860641,2177.984477338483,"[69, 0, 185]",185,a,0.24724406098539475,colour,0.06
12,21,1,2,15,10,710,2179.995638940687,2180.7364715788717,"[83, 0, 171]",171,a,0.21750827667710837,colour,0.06
12,21,1,2,15,11,711,2182.7468639993895,2183.456416582194,"[53, 0, 201]",201,a,0.18632825823442545,colour,0.06
12,21,1,2,15,12,712,2185.4658279317373,2186.3923953018966,"[97, 0, 157]",157,l,0.4032166209508432,colour,0.06
12,21,1,2,15,13,713,2188.404664399699,2189.5444400333654,"[65, 0, 189]",189,a,0.616471752160578,colour,0.06
12,21,1,2,15,14,714,2191.5611399012705,2192.3763980556687,"[67, 0, 187]",187,a,0.2919282790244324,colour,0.06
12,21,1,2,15,15,715,2194.3916725940508,2195.1924084563507,"[77, 0, 177]",177,a,0.2795882889040513,colour,0.06
12,21,1,2,15,16,716,2197.202047842875,2198.0564161095826,"[73, 0, 181]",181,a,0.32956580028985627,colour,0.06
12,21,1,2,15,17,717,2200.0516371794074,2200.8884080026473,"[68, 0, 186]",186,a,0.3179611210798612,colour,0.06
12,21,1,2,15,18,718,2202.906929803212,2203.9284570443706,"[70, 0, 184]",184,a,0.4980421903746901,colour,0.06
12,21,1,2,15,19,719,2205.939876222008,2206.856421387114,"[96, 0, 158]",158,l,0.39316763434908353,colour,0.06
12,21,1,2,15,20,720,2208.8775705359003,2210.064436000379,"[89, 0, 165]",165,l,0.6612638840597356,colour,0.06
12,21,1,2,15,21,721,2212.083220890243,2213.480455380777,"[45, 0, 209]",209,a,0.8747123937937431,colour,0.06
12,21,1,2,15,22,722,2215.490700108945,2216.4164368573984,"[3, 0, 251]",251,a,0.40297125474899076,colour,0.06
12,21,1,2,15,23,723,2218.4284318382124,2219.3526054109825,"[86, 0, 168]",168,l,0.4008744174061576,colour,0.06
12,21,1,2,15,24,724,2221.3673187184904,2222.2966118984186,"[52, 0, 202]",202,a,0.40601411073294,colour,0.06
12,21,1,2,15,25,725,2224.305026029295,2225.44846364524,"[99, 0, 155]",155,l,0.6184512233303394,colour,0.06
12,21,1,2,15,26,726,2227.463101728121,2228.3924610742106,"[25, 0, 229]",229,a,0.40609563689213246,colour,0.06
12,21,1,2,15,27,727,2230.4029771624337,2231.7284390849964,"[62, 0, 192]",192,a,0.8022100287489593,colour,0.06
12,21,1,2,15,28,728,2233.748799359775,2234.608447922903,"[59, 0, 195]",195,a,0.3361835985124344,colour,0.06
12,21,1,2,15,29,729,2236.6254435693263,2237.4884559731145,"[78, 0, 176]",176,a,0.3396289653464919,colour,0.06
12,21,1,2,15,30,730,2239.500663237064,2240.5844516597135,"[81, 0, 173]",173,a,0.5604404303594492,colour,0.06
12,21,1,2,15,31,731,2242.594624707868,2243.5524784349545,"[84, 0, 170]",170,a,0.43448958710359875,colour,0.06
12,21,1,2,15,32,732,2245.563603015602,2246.5124762609194,"[95, 0, 159]",159,l,0.42556109302677214,colour,0.06
12,21,1,2,15,33,733,2248.532636461823,2249.528408128681,"[61, 0, 193]",193,a,0.47357725018810015,colour,0.06
12,21,1,2,15,34,734,2251.5505367730366,2252.472495354581,"[80, 0, 174]",174,a,0.39926713092427235,colour,0.06
12,21,1,2,15,35,735,2254.48814877306,2255.6164197644684,"[76, 0, 178]",178,a,0.6049671099026455,colour,0.06
12,21,1,2,15,36,736,2257.7045054433547,2258.87246628874,"[90, 0, 164]",164,l,0.6422462310874835,colour,0.06
12,21,1,2,15,37,737,2260.8808784503926,2261.8404899132147,"[71, 0, 183]",183,a,0.4365123813477112,colour,0.06
12,21,1,2,15,38,738,2263.849894173516,2264.9926457093243,"[85, 0, 169]",169,l,0.6195331189228455,colour,0.06
12,21,1,2,15,39,739,2266.99401590036,2267.8564083901874,"[66, 0, 188]",188,a,0.3394718206982361,colour,0.06
12,21,1,2,15,40,740,2269.8692875558045,2271.064443089621,"[79, 0, 175]",175,a,0.6717382245988119,colour,0.06
12,21,1,2,15,41,741,2273.0726492696995,2273.936469845954,"[75, 0, 179]",179,a,0.34046076858066954,colour,0.06
12,21,1,2,15,42,742,2275.9498728270555,2276.8724804671947,"[64, 0, 190]",190,a,0.3992226263071643,colour,0.06
12,21,1,2,15,43,743,2278.888298513397,2279.712493432613,"[55, 0, 199]",199,a,0.3009662623371696,colour,0.06
12,21,1,2,15,44,744,2281.732205436507,2282.544436094904,"[54, 0, 200]",200,a,0.2888515522645321,colour,0.06
12,21,1,2,15,45,745,2284.56044200575,2285.5444514549163,"[93, 0, 161]",161,l,0.46055590608739294,colour,0.06
12,21,1,2,15,46,746,2287.562563655403,2288.5444199472113,"[57, 0, 197]",197,a,0.4585449272126425,colour,0.06
12,21,1,2,15,47,747,2290.564286732668,2291.448504605243,"[60, 0, 194]",194,a,0.36162409582175314,colour,0.06
12,21,1,2,15,48,748,2293.457378748528,2294.432525475946,"[63, 0, 191]",191,a,0.45168333817855455,colour,0.06
12,21,1,2,15,49,749,2296.4437607273867,2297.6084542244353,"[72, 0, 182]",182,a,0.6414837447809987,colour,0.06
12,21,1,2,15,50,750,2299.614834927226,2300.6724617201253,"[51, 0, 203]",203,a,0.5348467268631794,colour,0.06
12,21,1,2,16,1,751,2307.99993107692,2309.2084553272143,"[82, 0, 172]",172,l,0.6820684174017515,colour,0.06
12,21,1,2,16,2,752,2311.221941803713,2312.0644686896267,"[53, 0, 201]",201,a,0.3304440773790702,colour,0.06
12,21,1,2,16,3,753,2314.0858683246042,2314.832417247002,"[89, 0, 165]",165,l,0.22729732476000208,colour,0.06
12,21,1,2,16,4,754,2316.850376241302,2317.6644575831597,"[80, 0, 174]",174,l,0.28857861683354713,colour,0.06
12,21,1,2,16,5,755,2319.6808522202336,2320.4564847175934,"[65, 0, 189]",189,a,0.2524889112683013,colour,0.06
12,21,1,2,16,6,756,2322.4508050610893,2323.3684482694807,"[94, 0, 160]",160,l,0.3949454562389292,colour,0.06
12,21,1,2,16,7,757,2325.3886088642175,2326.096480511318,"[63, 0, 191]",191,a,0.1850447133765556,colour,0.06
12,21,1,2,16,8,758,2328.092544805928,2328.85644698712,"[83, 0, 171]",171,l,0.2405057458236115,colour,0.06
12,21,1,2,16,9,759,2330.869790103592,2331.5923994766636,"[51, 0, 203]",203,a,0.19953589160286356,colour,0.06
12,21,1,2,16,10,760,2333.593831107719,2334.3604933633032,"[76, 0, 178]",178,a,0.2439329957269365,colour,0.06
12,21,1,2,16,11,761,2336.3747143630317,2337.168444882409,"[55, 0, 199]",199,a,0.2703588963195216,colour,0.06
12,21,1,2,16,12,762,2339.1877362585074,2339.9284980043885,"[66, 0, 188]",188,a,0.21788203675532714,colour,0.06
12,21,1,2,16,13,763,2341.937953464716,2342.6884180063353,"[72, 0, 182]",182,a,0.22714490626822226,colour,0.06
12,21,1,2,16,14,764,2344.7052001881093,2345.4004648173286,"[58, 0, 196]",196,a,0.1717023845849326,colour,0.06
12,21,1,2,16,15,765,2347.3963766934467,2348.1525130146474,"[99, 0, 155]",155,l,0.23280290122784209,colour,0.06
12,21,1,2,16,16,766,2350.204661800308,2351.096434431296,"[52, 0, 202]",202,a,0.364635837948299,colour,0.06
12,21,1,2,16,17,767,2353.1149010934023,2353.936474965958,"[98, 0, 156]",156,l,0.30029672375530936,colour,0.06
12,21,1,2,16,18,768,2355.956770649951,2356.7204302218743,"[57, 0, 197]",197,a,0.240615235074074,colour,0.06
12,21,1,2,16,19,769,2358.738172994592,2359.3524624448037,"[60, 0, 194]",194,a,0.09098832560994197,colour,0.06
12,21,1,2,16,20,770,2361.3643963794602,2362.1124671236903,"[97, 0, 157]",157,l,0.22444981650914997,colour,0.06
12,21,1,2,16,21,771,2364.1301189179358,2364.656422332351,"[88, 0, 166]",166,l,0.003144468311802484,colour,0.06
12,21,1,2,16,22,772,2366.678472995147,2367.4324919990177,"[85, 0, 169]",169,l,0.23084903007838875,colour,0.06
12,21,1,2,16,23,773,2369.444822536825,2370.120464171414,"[93, 0, 161]",161,a,0.15211247302067932,colour,0.06
12,21,1,2,16,24,774,2372.132690339975,2372.848466874784,"[84, 0, 170]",170,a,0.19270974872051738,colour,0.06
12,21,1,2,16,25,775,2374.8694813281472,2375.5445136826165,"[81, 0, 173]",173,a,0.15161543908470776,colour,0.06
12,21,1,2,16,26,776,2377.557209709732,2378.2084372102836,"[42, 0, 212]",212,a,0.12792440672637895,colour,0.06
12,21,1,2,16,27,777,2380.2293035774637,2381.032504523333,"[95, 0, 159]",159,l,0.27868913796555717,colour,0.06
12,21,1,2,16,28,778,2383.030777507607,2384.0164533201605,"[38, 0, 216]",216,a,0.46253931568935513,colour,0.06
12,21,1,2,16,29,779,2386.0309779753297,2386.736521597355,"[90, 0, 164]",164,l,0.1824815620930167,colour,0.06
12,21,1,2,16,30,780,2388.74997223384,2389.4085130650637,"[71, 0, 183]",183,a,0.13522434662445448,colour,0.06
12,21,1,2,16,31,781,2391.42341581262,2392.2644854674727,"[70, 0, 184]",184,a,0.3177661671943497,colour,0.06
12,21,1,2,16,32,782,2394.2820541601686,2395.04848207724,"[64, 0, 190]",190,a,0.24098820745712146,colour,0.06
12,21,1,2,16,33,783,2397.0632619447715,2397.6244617106713,"[78, 0, 176]",176,a,0.03781081360648386,colour,0.06
12,21,1,2,16,34,784,2399.629278056236,2400.432442768244,"[92, 0, 162]",162,l,0.28019756902358495,colour,0.06
12,21,1,2,16,35,785,2402.441932099333,2403.104464562115,"[74, 0, 180]",180,a,0.13911830431607086,colour,0.06
12,21,1,2,16,36,786,2405.1166162937443,2405.640552298457,"[87, 0, 167]",167,l,0.0007242832216434181,colour,0.06
12,21,1,2,16,37,787,2407.6636643768434,2408.6164638752525,"[67, 0, 187]",187,a,0.4403921605698997,colour,0.06
12,21,1,2,16,38,788,2410.637436580917,2411.4404760498146,"[62, 0, 192]",192,a,0.27958001811930444,colour,0.06
12,21,1,2,16,39,789,2413.452177221363,2414.3044837030466,"[86, 0, 168]",168,a,0.328906895549153,colour,0.06
12,21,1,2,16,40,790,2416.3118021537084,2417.064590781956,"[91, 0, 163]",163,l,0.2297584698681021,colour,0.06
12,21,1,2,16,41,791,2419.0776550552982,2419.8484700255503,"[69, 0, 185]",185,a,0.24579864532279316,colour,0.06
12,21,1,2,16,42,792,2421.8607391233527,2422.744462325063,"[96, 0, 158]",158,l,0.3606398740957957,colour,0.06
12,21,1,2,16,43,793,2424.7516578957147,2425.6004331520962,"[77, 0, 177]",177,a,0.32546074101992417,colour,0.06
12,21,1,2,16,44,794,2427.6112631357537,2428.34447209246,"[61, 0, 193]",193,a,0.20983063825406134,colour,0.06
12,21,1,2,16,45,795,2430.361453560414,2431.0645293419366,"[68, 0, 186]",186,a,0.17978056463471148,colour,0.06
12,21,1,2,16,46,796,2433.080430883536,2433.7446135620266,"[73, 0, 181]",181,a,0.1408654062106507,colour,0.06
12,21,1,2,16,47,797,2435.7524810343457,2436.3524963155796,"[59, 0, 195]",195,a,0.07660899970505852,colour,0.06
12,21,1,2,16,48,798,2438.3621195543965,2439.152516165428,"[36, 0, 218]",218,a,0.2671876464737579,colour,0.06
12,21,1,2,16,49,799,2441.1608621609194,2442.416534531265,"[56, 0, 198]",198,a,0.7322940519079566,colour,0.06
12,21,1,2,16,50,800,2444.4143526231346,2445.8325011362467,"[54, 0, 200]",200,a,0.8981927184067899,colour,0.06
