id,age,condition,counterbalance,block,trialinblock,trial,tstart,tend,trialstim,trialintensity,response,RT,trialtype,colourfreq
05,21,1,1,Practice,1,NA,5.5138953030109406e-06,3.5862459822092205,"[99, 0, 155]",155,a,2.9525081829633564,colour,0.5
05,21,1,1,Practice,2,NA,5.594602194614708,6.682098044548184,"[37, 0, 217]",217,l,0.5642103464342654,colour,0.5
05,21,1,1,Practice,3,NA,8.68833143170923,9.946106230141595,"[90, 0, 164]",164,a,0.7350091706030071,colour,0.5
05,21,1,1,Practice,4,NA,11.953867342788726,13.02614619769156,"[47, 0, 207]",207,l,0.5489043425768614,colour,0.5
05,21,1,1,Practice,5,NA,15.047986486461014,15.914088983088732,"[86, 0, 168]",168,a,0.3431568816304207,colour,0.5
05,21,1,1,Practice,6,NA,17.922661416465417,18.754086635774,"[55, 0, 199]",199,l,0.30813026358373463,colour,0.5
05,21,1,1,Practice,7,NA,20.766386813484132,21.59409767901525,"[41, 0, 213]",213,l,0.30434226081706583,colour,0.5
05,21,1,1,Practice,8,NA,23.610132690286264,24.434076820965856,"[6, 0, 248]",248,l,0.30062515032477677,colour,0.5
05,21,1,1,Practice,9,NA,26.453814764274284,27.250052282819524,"[8, 0, 246]",246,l,0.27292444580234587,colour,0.5
05,21,1,1,Practice,10,NA,29.26629012450576,30.226076959632337,"[84, 0, 170]",170,a,0.43712163786403835,colour,0.5
05,21,1,1,1,1,1,6.078464980702847,7.000046473694965,"[33, 0, 221]",221,l,0.3974417394492775,colour,0.5
05,21,1,1,1,2,2,9.016867599915713,9.871958973817527,"[27, 0, 227]",227,l,0.33176057832315564,colour,0.5
05,21,1,1,1,3,3,11.89176899078302,13.81596522172913,"[7, 0, 247]",247,l,1.400957201141864,colour,0.5
05,21,1,1,1,4,4,15.829255920136347,16.65597587148659,"[96, 0, 158]",158,a,0.30387555435299873,colour,0.5
05,21,1,1,1,5,5,18.673019126290455,19.86396864359267,"[56, 0, 198]",198,l,0.6677542044781148,colour,0.5
05,21,1,1,1,6,6,21.87615027395077,23.279955763136968,"[44, 0, 210]",210,l,0.8805412533693016,colour,0.5
05,21,1,1,1,7,7,25.29794542794116,26.359975644620135,"[38, 0, 216]",216,l,0.5387202948331833,colour,0.5
05,21,1,1,1,8,8,28.376131566241384,29.22392695909366,"[10, 0, 244]",244,l,0.324643402826041,colour,0.5
05,21,1,1,1,9,9,31.235403212718666,32.35192623757757,"[47, 0, 207]",207,l,0.5933277120348066,colour,0.5
05,21,1,1,1,10,10,34.36047228332609,35.63190208678134,"[51, 0, 203]",203,l,0.7482648165896535,colour,0.5
05,21,1,1,1,11,11,37.6416422710754,38.679897237801924,"[71, 0, 183]",183,a,0.5149466202128679,colour,0.5
05,21,1,1,1,12,12,40.68851693277247,41.47988494997844,"[13, 0, 241]",241,l,0.26803013239987195,colour,0.5
05,21,1,1,1,13,13,43.50093400361948,44.27986439107917,"[11, 0, 243]",243,l,0.25638570659793913,colour,0.5
05,21,1,1,1,14,14,46.297833969816566,47.11985731776804,"[14, 0, 240]",240,l,0.2986823122482747,colour,0.5
05,21,1,1,1,15,15,49.14154794532806,50.19186914572492,"[36, 0, 218]",218,l,0.5269490510690957,colour,0.5
05,21,1,1,1,16,16,52.20403502229601,53.11986716394313,"[15, 0, 239]",239,l,0.3924816537182778,colour,0.5
05,21,1,1,1,17,17,55.14153022225946,56.3518632221967,"[40, 0, 214]",214,l,0.6869281614199281,colour,0.5
05,21,1,1,1,18,18,58.36030411138199,59.160132709890604,"[1, 0, 253]",253,l,0.2766269841231406,colour,0.5
05,21,1,1,1,19,19,61.17276923148893,61.943825079128146,"[81, 0, 173]",173,a,0.24767621513456106,colour,0.5
05,21,1,1,1,20,20,63.95397604396567,64.61583359888755,"[55, 0, 199]",199,a,0.13865515287034214,colour,0.5
05,21,1,1,1,21,21,66.62578606558964,67.42380455182865,"[4, 0, 250]",250,l,0.27461679838597775,colour,0.5
05,21,1,1,1,22,22,69.43832286563702,70.2160449360963,"[72, 0, 182]",182,a,0.2543365303426981,colour,0.5
05,21,1,1,1,23,23,72.23517320700921,73.0238150281366,"[94, 0, 160]",160,a,0.26531811454333365,colour,0.5
05,21,1,1,1,24,24,75.03212240384892,75.84779460495338,"[63, 0, 191]",191,a,0.29236149159260094,colour,0.5
05,21,1,1,1,25,25,77.86019521323033,78.62383810756728,"[83, 0, 171]",171,a,0.24045663978904486,colour,0.5
05,21,1,1,1,26,26,80.6414036010392,81.42374980752356,"[28, 0, 226]",226,l,0.25898311543278396,colour,0.5
05,21,1,1,1,27,27,83.43824842874892,84.23177865589969,"[16, 0, 238]",238,l,0.27014705003239214,colour,0.5
05,21,1,1,1,28,28,86.25074033043347,86.96778149786405,"[99, 0, 155]",155,a,0.1936993442941457,colour,0.5
05,21,1,1,1,29,29,88.98495196457952,89.75976351951249,"[87, 0, 167]",167,a,0.25144334393553436,colour,0.5
05,21,1,1,1,30,30,91.76636357652023,93.04774072696455,"[89, 0, 165]",165,a,0.7579821581020951,colour,0.5
05,21,1,1,1,31,31,95.06320387497544,95.87177032209001,"[82, 0, 172]",172,a,0.2852569189853966,colour,0.5
05,21,1,1,1,32,32,97.89132079505362,98.58376278867945,"[79, 0, 175]",175,a,0.16912183165550232,colour,0.5
05,21,1,1,1,33,33,100.59443008434027,101.87172502977774,"[74, 0, 180]",180,a,0.7541886414401233,colour,0.5
05,21,1,1,1,34,34,103.89129046909511,104.84773040818982,"[90, 0, 164]",164,a,0.4330512483138591,colour,0.5
05,21,1,1,1,35,35,106.85999632137828,109.78378571034409,"[62, 0, 192]",192,a,2.400511368410662,colour,0.5
05,21,1,1,1,36,36,111.7975088506937,112.61568315001205,"[39, 0, 215]",215,l,0.2948856451548636,colour,0.5
05,21,1,1,1,37,37,114.62558678002097,115.43968084361404,"[48, 0, 206]",206,l,0.29073333577252924,colour,0.5
05,21,1,1,1,38,38,117.45370645681396,118.32770200399682,"[6, 0, 248]",248,l,0.35067105293273926,colour,0.5
05,21,1,1,1,39,39,120.34428839851171,121.15171820856631,"[25, 0, 229]",229,l,0.28425103868357837,colour,0.5
05,21,1,1,1,40,40,123.1724167400971,123.98370190011337,"[29, 0, 225]",225,l,0.287938610650599,colour,0.5
05,21,1,1,1,41,41,126.00060809683055,126.91165738296695,"[97, 0, 157]",157,a,0.38782561640255153,colour,0.5
05,21,1,1,1,42,42,128.9223983278498,129.7916527672205,"[34, 0, 220]",220,l,0.34600241272710264,colour,0.5
05,21,1,1,1,43,43,131.8129822385963,132.91161051555537,"[66, 0, 188]",188,a,0.5752962997648865,colour,0.5
05,21,1,1,1,44,44,134.92238926934078,136.24765927973203,"[57, 0, 197]",197,a,0.8019620575942099,colour,0.5
05,21,1,1,1,45,45,138.26613770634867,139.0636504953727,"[75, 0, 179]",179,a,0.27412173501215875,colour,0.5
05,21,1,1,1,46,46,141.07862448785454,141.83162489859387,"[64, 0, 190]",190,a,0.2299583035055548,colour,0.5
05,21,1,1,1,47,47,143.84421770344488,145.34364328021184,"[54, 0, 200]",200,l,0.9762601961847395,colour,0.5
05,21,1,1,1,48,48,147.3598563093692,148.1437554473523,"[24, 0, 230]",230,l,0.26064514205791056,colour,0.5
05,21,1,1,1,49,49,150.1566971987486,151.07957562385127,"[58, 0, 196]",196,a,0.3995878016576171,colour,0.5
05,21,1,1,1,50,50,153.09419554960914,153.79960528830998,"[0, 0, 254]",254,l,0.18227704730816185,colour,0.5
05,21,1,1,2,1,51,168.46830984111875,169.26362142967992,"[0, 0, 254]",254,l,0.2712155517656356,colour,0.5
05,21,1,1,2,2,52,171.28164969128557,172.4716153834015,"[94, 0, 160]",160,a,0.6666762502864003,colour,0.5
05,21,1,1,2,3,53,174.4847977743484,175.06357212015428,"[6, 0, 248]",248,l,0.05542307021096349,colour,0.5
05,21,1,1,2,4,54,177.07849136833102,178.3276535612531,"[44, 0, 210]",210,l,0.7261602580547333,colour,0.5
05,21,1,1,2,5,55,180.3440997467842,181.23952677147463,"[12, 0, 242]",242,l,0.3722640071064234,colour,0.5
05,21,1,1,2,6,56,183.25032246066257,184.08746985602193,"[84, 0, 170]",170,a,0.3137898182030767,colour,0.5
05,21,1,1,2,7,57,186.09405455295928,187.40747139998712,"[87, 0, 167]",167,a,0.7902735215611756,colour,0.5
05,21,1,1,2,8,58,189.42214843304828,190.7034988021478,"[59, 0, 195]",195,a,0.7579699489288032,colour,0.5
05,21,1,1,2,9,59,192.71909506991506,193.5594582108315,"[88, 0, 166]",166,a,0.31710166204720736,colour,0.5
05,21,1,1,2,10,60,195.57850534981117,196.37555025075562,"[9, 0, 245]",245,l,0.2741292181890458,colour,0.5
05,21,1,1,2,11,61,198.3908381378278,199.18353341310285,"[97, 0, 157]",157,a,0.26933848578482866,colour,0.5
05,21,1,1,2,12,62,201.20329459337518,201.95149166882038,"[41, 0, 213]",213,l,0.22481547389179468,colour,0.5
05,21,1,1,2,13,63,203.96893625170924,204.77547124540433,"[3, 0, 251]",251,l,0.2832282225135714,colour,0.5
05,21,1,1,2,14,64,206.7814285471104,207.65545835881494,"[61, 0, 193]",193,a,0.3506474222522229,colour,0.5
05,21,1,1,2,15,65,209.67190572596155,210.6634672000073,"[96, 0, 158]",158,a,0.4681038602720946,colour,0.5
05,21,1,1,2,16,66,212.67201915336773,213.46339977369644,"[89, 0, 165]",165,a,0.2680529754143208,colour,0.5
05,21,1,1,2,17,67,215.48441298748367,216.18354286556132,"[31, 0, 223]",223,l,0.17569747031666338,colour,0.5
05,21,1,1,2,18,68,218.20325284567662,218.81544377095997,"[91, 0, 163]",163,a,0.08889636327512562,colour,0.5
05,21,1,1,2,19,69,220.82822837820277,221.4714101899881,"[29, 0, 225]",225,l,0.12039806717075408,colour,0.5
05,21,1,1,2,20,70,223.4844858488068,224.31940920068882,"[11, 0, 243]",243,l,0.3115366301499307,colour,0.5
05,21,1,1,2,21,71,226.32823802740313,227.1674542913679,"[95, 0, 159]",159,a,0.31612374470569193,colour,0.5
05,21,1,1,2,22,72,229.1875589042902,229.98341951309703,"[22, 0, 232]",232,l,0.27248058235272765,colour,0.5
05,21,1,1,2,23,73,232.00015990110114,232.80740539147519,"[21, 0, 233]",233,l,0.28399543301202357,colour,0.5
05,21,1,1,2,24,74,234.82814015680924,235.59943309915252,"[68, 0, 186]",186,a,0.24847887153737247,colour,0.5
05,21,1,1,2,25,75,237.6095009627752,239.04736814950593,"[18, 0, 236]",236,l,0.9146529692225158,colour,0.5
05,21,1,1,2,26,76,241.06258514430374,241.94339027418755,"[1, 0, 253]",253,l,0.35754404473118484,colour,0.5
05,21,1,1,2,27,77,243.95310840313323,245.35942189837806,"[51, 0, 203]",203,l,0.8830130256246775,colour,0.5
05,21,1,1,2,28,78,247.37498862762004,248.27934766630642,"[65, 0, 189]",189,a,0.3811050427611917,colour,0.5
05,21,1,1,2,29,79,250.29683163389564,251.10336190159433,"[79, 0, 175]",175,a,0.2831313367933035,colour,0.5
05,21,1,1,2,30,80,253.12501511373557,253.95934887928888,"[15, 0, 239]",239,l,0.3110525943338871,colour,0.5
05,21,1,1,2,31,81,255.9687696553301,256.63135621743277,"[35, 0, 219]",219,l,0.13931563100777566,colour,0.5
05,21,1,1,2,32,82,258.64060370158404,259.4713609593455,"[57, 0, 197]",197,a,0.3075201972387731,colour,0.5
05,21,1,1,2,33,83,261.48421527724713,262.38334365864284,"[98, 0, 156]",156,a,0.37571409065276384,colour,0.5
05,21,1,1,2,34,84,264.3905270001851,265.26329847658053,"[63, 0, 191]",191,a,0.3494438314810395,colour,0.5
05,21,1,1,2,35,85,267.28119834465906,268.32727862056345,"[48, 0, 206]",206,l,0.5227900461759418,colour,0.5
05,21,1,1,2,36,86,270.3436917231884,271.1593647119589,"[23, 0, 231]",231,l,0.292546204989776,colour,0.5
05,21,1,1,2,37,87,273.1716542558279,273.98328481800854,"[99, 0, 155]",155,a,0.288216665154323,colour,0.5
05,21,1,1,2,38,88,275.9998775140848,276.647302219877,"[26, 0, 228]",228,l,0.1241155716124922,colour,0.5
05,21,1,1,2,39,89,278.65603652363643,279.24727606843226,"[4, 0, 250]",250,l,0.06785991252399981,colour,0.5
05,21,1,1,2,40,90,281.2653657698538,282.0952486915048,"[66, 0, 188]",188,a,0.306376077234745,colour,0.5
05,21,1,1,2,41,91,284.10918056964874,285.2472355023492,"[28, 0, 226]",226,l,0.6150770222302526,colour,0.5
05,21,1,1,2,42,92,287.2653744344134,288.2552549771499,"[37, 0, 217]",217,l,0.4665922822896391,colour,0.5
05,21,1,1,2,43,93,290.26536931446753,291.12726160651073,"[16, 0, 238]",238,l,0.33847169973887503,colour,0.5
05,21,1,1,2,44,94,293.1404180035461,293.983229679754,"[93, 0, 161]",161,a,0.31952656665816903,colour,0.5
05,21,1,1,2,45,95,295.9997412436642,296.67122791847214,"[76, 0, 178]",178,a,0.1481137378141284,colour,0.5
05,21,1,1,2,46,96,298.6871774652973,299.8151999807451,"[43, 0, 211]",211,l,0.6046574551146477,colour,0.5
05,21,1,1,2,47,97,301.8278207483236,302.71923882327974,"[58, 0, 196]",196,a,0.3685201150365174,colour,0.5
05,21,1,1,2,48,98,304.7340737883933,305.8951816591434,"[82, 0, 172]",172,a,0.6377656536642462,colour,0.5
05,21,1,1,2,49,99,307.90588440094143,308.74317200505175,"[64, 0, 190]",190,a,0.31380793498829007,colour,0.5
05,21,1,1,2,50,100,310.7497141668573,311.3832097512204,"[27, 0, 227]",227,l,0.11027860990725458,colour,0.5
05,21,1,1,3,1,101,319.1237449632026,319.9511730480008,"[1, 0, 253]",253,l,0.3031839623581618,colour,0.5
05,21,1,1,3,2,102,321.9683171270881,323.0391375736799,"[7, 0, 247]",247,l,0.547496740007773,colour,0.5
05,21,1,1,3,3,103,325.0464894808829,325.85516620450653,"[4, 0, 250]",250,l,0.28592921257950366,colour,0.5
05,21,1,1,3,4,104,327.8746839885134,328.91114026424475,"[86, 0, 168]",168,a,0.5132763227447867,colour,0.5
05,21,1,1,3,5,105,330.9214968162123,331.70309708011337,"[33, 0, 221]",221,l,0.25829152343794703,colour,0.5
05,21,1,1,3,6,106,333.71827114582993,334.50311472429894,"[53, 0, 201]",201,l,0.2615336566232145,colour,0.5
05,21,1,1,3,7,107,336.51518371491693,337.53523358353414,"[32, 0, 222]",222,a,0.4967694850638509,colour,0.5
05,21,1,1,3,8,108,339.5464282380417,340.4311812715605,"[93, 0, 161]",161,a,0.3614600470755249,colour,0.5
05,21,1,1,3,9,109,342.45261038583703,343.26310234167613,"[99, 0, 155]",155,a,0.28712965245358646,colour,0.5
05,21,1,1,3,10,110,345.280691859778,346.15111483773217,"[43, 0, 211]",211,l,0.3470575239043683,colour,0.5
05,21,1,1,3,11,111,348.17146993638016,348.9912601823453,"[16, 0, 238]",238,l,0.2968552648089826,colour,0.5
05,21,1,1,3,12,112,350.99956598249264,351.8710736099165,"[46, 0, 208]",208,l,0.3482563884463161,colour,0.5
05,21,1,1,3,13,113,353.8900656106416,354.79107184545137,"[28, 0, 226]",226,l,0.37768607307225466,colour,0.5
05,21,1,1,3,14,114,356.81195627199486,357.63908345927484,"[71, 0, 183]",183,a,0.303935025120154,colour,0.5
05,21,1,1,3,15,115,359.6555580017157,360.71918762335554,"[98, 0, 156]",156,a,0.5407182711642236,colour,0.5
05,21,1,1,3,16,116,362.73361417115666,363.5190764802974,"[31, 0, 223]",223,l,0.26195388939231634,colour,0.5
05,21,1,1,3,17,117,365.53062480757944,366.5030142937321,"[49, 0, 205]",205,l,0.44904136122204363,colour,0.5
05,21,1,1,3,18,118,368.5150253891479,369.3910039467737,"[78, 0, 176]",176,a,0.35262452508322895,colour,0.5
05,21,1,1,3,19,119,371.4055486479774,372.27110448735766,"[61, 0, 193]",193,a,0.3422270130831748,colour,0.5
05,21,1,1,3,20,120,374.2806260876823,375.0551056312397,"[80, 0, 174]",174,a,0.251152292592451,colour,0.5
05,21,1,1,3,21,121,377.06167024211027,377.87103028711863,"[82, 0, 172]",172,a,0.28598789568059146,colour,0.5
05,21,1,1,3,22,122,379.88993682316504,380.6310029383749,"[89, 0, 165]",165,a,0.21770026721060276,colour,0.5
05,21,1,1,3,23,123,382.63996961084194,383.4630126238335,"[2, 0, 252]",252,l,0.2997346664778888,colour,0.5
05,21,1,1,3,24,124,385.48365050321445,386.54298248677514,"[74, 0, 180]",180,a,0.5360460861120373,colour,0.5
05,21,1,1,3,25,125,388.5618019832764,390.28708002809435,"[18, 0, 236]",236,l,1.2021103010047227,colour,0.5
05,21,1,1,3,26,126,392.2960864789784,393.3990076677874,"[47, 0, 207]",207,l,0.579592362511903,colour,0.5
05,21,1,1,3,27,127,395.4054029250983,396.14297642163,"[30, 0, 224]",224,l,0.21516272309236228,colour,0.5
05,21,1,1,3,28,128,398.1554947895929,398.87102831783704,"[45, 0, 209]",209,l,0.19224211713299155,colour,0.5
05,21,1,1,3,29,129,400.889842300443,401.5830408704933,"[69, 0, 185]",185,a,0.16986659285612404,colour,0.5
05,21,1,1,3,30,130,403.5929445005022,404.82294179475866,"[56, 0, 198]",198,a,0.7067641722969711,colour,0.5
05,21,1,1,3,31,131,406.84288453753106,407.8229591238778,"[59, 0, 195]",195,a,0.4568036552518606,colour,0.5
05,21,1,1,3,32,132,409.84285854385234,410.9909518016502,"[34, 0, 220]",220,l,0.6247888498473912,colour,0.5
05,21,1,1,3,33,133,412.9991047899239,413.9588908376172,"[55, 0, 199]",199,a,0.4363851477392018,colour,0.5
05,21,1,1,3,34,134,415.96781733771786,416.742891587317,"[19, 0, 235]",235,l,0.2517084018327296,colour,0.5
05,21,1,1,3,35,135,418.7490351777524,419.65490973275155,"[54, 0, 200]",200,a,0.38245041808113456,colour,0.5
05,21,1,1,3,36,136,421.67098373454064,422.4950452311896,"[11, 0, 243]",243,l,0.30074566695839167,colour,0.5
05,21,1,1,3,37,137,424.5146858948283,425.3269592123106,"[14, 0, 240]",240,l,0.288925192784518,colour,0.5
05,21,1,1,3,38,138,427.34288000827655,428.1988890413195,"[84, 0, 170]",170,a,0.3327479478903115,colour,0.5
05,21,1,1,3,39,139,430.2177349254489,431.0069017424248,"[90, 0, 164]",164,a,0.2657127478159964,colour,0.5
05,21,1,1,3,40,140,433.0146407992579,433.8228673581034,"[17, 0, 237]",237,l,0.2848351108841598,colour,0.5
05,21,1,1,3,41,141,435.84287390392274,436.6388589674607,"[64, 0, 190]",190,a,0.2727728155441582,colour,0.5
05,21,1,1,3,42,142,438.65527600841597,439.3668502117507,"[62, 0, 192]",192,a,0.18826152430847287,colour,0.5
05,21,1,1,3,43,143,441.37395045207813,444.2948379898444,"[92, 0, 162]",162,a,2.397464976180345,colour,0.5
05,21,1,1,3,44,144,446.31148424884304,447.2948501990177,"[63, 0, 191]",191,a,0.460280520375818,colour,0.5
05,21,1,1,3,45,145,449.3114740084857,450.09491707384586,"[0, 0, 254]",254,l,0.2604033211246133,colour,0.5
05,21,1,1,3,46,146,452.108274331782,452.9027844457887,"[41, 0, 213]",213,l,0.27122027799487114,colour,0.5
05,21,1,1,3,47,147,454.9208347625099,455.7027855482884,"[24, 0, 230]",230,l,0.2586483471095562,colour,0.5
05,21,1,1,3,48,148,457.7175295352936,458.5028406078927,"[15, 0, 239]",239,l,0.26183849247172475,colour,0.5
05,21,1,1,3,49,149,460.51447755051777,461.41488238377497,"[60, 0, 194]",194,a,0.37698148377239704,colour,0.5
05,21,1,1,3,50,150,463.43641665484756,464.14276610827073,"[95, 0, 159]",159,a,0.1830407129600644,colour,0.5
05,21,1,1,4,1,151,472.0292611187324,472.87882999610156,"[65, 0, 189]",189,a,0.3254566928371787,colour,0.5
05,21,1,1,4,2,152,474.8895165906288,475.6627953001298,"[85, 0, 169]",169,a,0.2500152615830302,colour,0.5
05,21,1,1,4,3,153,477.6706442399882,478.47879951260984,"[73, 0, 181]",181,a,0.28482014453038573,colour,0.5
05,21,1,1,4,4,154,480.4988383539021,481.7107912385836,"[51, 0, 203]",203,a,0.6886327229440212,colour,0.5
05,21,1,1,4,5,155,483.71746258158237,484.7348201251589,"[53, 0, 201]",201,l,0.4938353388570249,colour,0.5
05,21,1,1,4,6,156,486.7487909938209,487.57479217788205,"[97, 0, 157]",157,a,0.3026333670131862,colour,0.5
05,21,1,1,4,7,157,489.59257389232516,490.30270347138867,"[11, 0, 243]",243,l,0.1869157557375729,colour,0.5
05,21,1,1,4,8,158,492.3112396709621,493.49472779175267,"[93, 0, 161]",161,a,0.6604645242914557,colour,0.5
05,21,1,1,4,9,159,495.51434246171266,496.35076124360785,"[28, 0, 226]",226,l,0.3131261891685426,colour,0.5
05,21,1,1,4,10,160,498.35809779074043,499.1668981821276,"[25, 0, 229]",229,l,0.2854845616966486,colour,0.5
05,21,1,1,4,11,161,501.18616626784205,501.7586725684814,"[35, 0, 219]",219,l,0.04911879124119878,colour,0.5
05,21,1,1,4,12,162,503.77979290811345,504.6307622990571,"[98, 0, 156]",156,a,0.3274538819678128,colour,0.5
05,21,1,1,4,13,163,506.6392500558868,507.52667769184336,"[38, 0, 216]",216,l,0.3640428837388754,colour,0.5
05,21,1,1,4,14,164,509.54556414159015,510.4066718942486,"[41, 0, 213]",213,l,0.3378529688343406,colour,0.5
05,21,1,1,4,15,165,512.4205364249647,513.4547568419948,"[61, 0, 193]",193,l,0.5108376340940595,colour,0.5
05,21,1,1,4,16,166,515.467292538844,516.2946237381548,"[8, 0, 246]",246,l,0.3039472345262766,colour,0.5
05,21,1,1,4,17,167,518.3111971355975,519.2306463508867,"[47, 0, 207]",207,l,0.3964752433821559,colour,0.5
05,21,1,1,4,18,168,521.2485757572576,522.0707846065052,"[40, 0, 214]",214,l,0.2988339429721236,colour,0.5
05,21,1,1,4,19,169,524.0923539297655,525.1586455507204,"[48, 0, 206]",206,l,0.5429761852137744,colour,0.5
05,21,1,1,4,20,170,527.1703959205188,528.2546445173211,"[55, 0, 199]",199,l,0.5609922376461327,colour,0.5
05,21,1,1,4,21,171,530.2641483945772,531.7186039448716,"[84, 0, 170]",170,a,0.9310542563907802,colour,0.5
05,21,1,1,4,22,172,533.7329410896637,534.5186263155192,"[27, 0, 227]",227,l,0.262432805262506,colour,0.5
05,21,1,1,4,23,173,536.5297855236568,538.1665831059217,"[19, 0, 235]",235,l,1.1137771364301443,colour,0.5
05,21,1,1,4,24,174,540.1859768284485,541.0385664980859,"[10, 0, 244]",244,l,0.32924075704067945,colour,0.5
05,21,1,1,4,25,175,543.0453678099439,543.902685590554,"[17, 0, 237]",237,l,0.3346057157032192,colour,0.5
05,21,1,1,4,26,176,545.920275896322,546.7585886796005,"[70, 0, 184]",184,a,0.31493393843993545,colour,0.5
05,21,1,1,4,27,177,548.7796968100592,549.4066053344868,"[86, 0, 168]",168,a,0.10354149481281638,colour,0.5
05,21,1,1,4,28,178,551.420294997748,552.126570802182,"[43, 0, 211]",211,l,0.18284457828849554,colour,0.5
05,21,1,1,4,29,179,554.1390749914572,554.9665207993239,"[58, 0, 196]",196,l,0.3041563658043742,colour,0.5
05,21,1,1,4,30,180,556.9827574593946,557.7345310426317,"[63, 0, 191]",191,a,0.22845263360068202,colour,0.5
05,21,1,1,4,31,181,559.7483565825969,560.5345766497776,"[12, 0, 242]",242,l,0.2628750931471586,colour,0.5
05,21,1,1,4,32,182,562.5452246470377,563.3265807270072,"[13, 0, 241]",241,l,0.25796660128980875,colour,0.5
05,21,1,1,4,33,183,565.3421423365362,566.1265314174816,"[2, 0, 252]",252,l,0.26114926347509027,colour,0.5
05,21,1,1,4,34,184,568.1389166656882,568.9105022354051,"[87, 0, 167]",167,a,0.24824414029717445,colour,0.5
05,21,1,1,4,35,185,570.9202357241884,571.5905069927685,"[80, 0, 174]",174,a,0.14744183793663979,colour,0.5
05,21,1,1,4,36,186,573.6076817917638,574.3504961859435,"[57, 0, 197]",197,a,0.2195540964603424,colour,0.5
05,21,1,1,4,37,187,576.3577350596897,577.2144884602167,"[96, 0, 158]",158,a,0.33347222954034805,colour,0.5
05,21,1,1,4,38,188,579.2327317609452,580.0544900512323,"[83, 0, 171]",171,a,0.29837078088894486,colour,0.5
05,21,1,1,4,39,189,582.0608679796569,582.7984989774413,"[42, 0, 212]",212,l,0.21466214582324028,colour,0.5
05,21,1,1,4,40,190,584.8108231797814,585.5824985457584,"[39, 0, 215]",215,l,0.24859702540561557,colour,0.5
05,21,1,1,4,41,191,587.5920382626355,588.3904687110335,"[5, 0, 249]",249,l,0.2751311603933573,colour,0.5
05,21,1,1,4,42,192,590.4044817215763,591.2304754224606,"[34, 0, 220]",220,l,0.302679053042084,colour,0.5
05,21,1,1,4,43,193,593.2482555611059,594.1185347856954,"[46, 0, 208]",208,l,0.3469263734295964,colour,0.5
05,21,1,1,4,44,194,596.1395456367172,596.9506165450439,"[99, 0, 155]",155,a,0.28849905263632536,colour,0.5
05,21,1,1,4,45,195,598.9668929832987,599.8064416525885,"[14, 0, 240]",240,l,0.31617967085912824,colour,0.5
05,21,1,1,4,46,196,601.8262985367328,602.646446000319,"[0, 0, 254]",254,l,0.2971348944120109,colour,0.5
05,21,1,1,4,47,197,604.6543949767947,605.4624738437124,"[92, 0, 162]",162,a,0.2847071113064885,colour,0.5
05,21,1,1,4,48,198,607.4825394661166,608.2944342982955,"[50, 0, 204]",204,l,0.28860145155340433,colour,0.5
05,21,1,1,4,49,199,610.310613063164,611.1024064333178,"[59, 0, 195]",195,a,0.2686705244705081,colour,0.5
05,21,1,1,4,50,200,613.1231305645779,613.7264249217696,"[67, 0, 187]",187,a,0.0800064904615283,colour,0.5
05,21,1,1,5,1,201,621.2317073699087,622.0144072491676,"[96, 0, 158]",158,a,0.2585294060409069,colour,0.4
05,21,1,1,5,2,202,624.0293414634652,625.126389239449,"[18, 0, 236]",236,l,0.5738020511344075,colour,0.4
05,21,1,1,5,3,203,627.1387654291466,627.9743882501498,"[26, 0, 228]",228,l,0.31241766177117825,colour,0.4
05,21,1,1,5,4,204,629.9824632569216,630.7663765735924,"[64, 0, 190]",190,a,0.2606077268719673,colour,0.4
05,21,1,1,5,5,205,632.7792486143298,633.566403276287,"[21, 0, 233]",233,l,0.26379117742180824,colour,0.4
05,21,1,1,5,6,206,635.5761473989114,636.3343812241219,"[97, 0, 157]",157,a,0.23502472788095474,colour,0.4
05,21,1,1,5,7,207,638.3417536113411,639.1983640459366,"[81, 0, 173]",173,a,0.33322765165939927,colour,0.4
05,21,1,1,5,8,208,641.2166896606795,641.9663538089953,"[6, 0, 248]",248,l,0.22623331611976027,colour,0.4
05,21,1,1,5,9,209,643.982398272492,644.7503336854279,"[95, 0, 159]",159,a,0.24467038922011852,colour,0.4
05,21,1,1,5,10,210,646.7636432880536,647.4942925930955,"[84, 0, 170]",170,a,0.20730826957151294,colour,0.4
05,21,1,1,5,11,211,649.5135531960987,650.4783328063786,"[2, 0, 252]",252,l,0.44142360845580697,colour,0.4
05,21,1,1,5,12,212,652.497983709909,653.3903135359287,"[68, 0, 186]",186,a,0.3690541689284146,colour,0.4
05,21,1,1,5,13,213,655.4041567989625,656.1742993197404,"[98, 0, 156]",156,a,0.24710592720657587,colour,0.4
05,21,1,1,5,14,214,658.1853238330223,658.95032824995,"[44, 0, 210]",210,l,0.24160824296995997,colour,0.4
05,21,1,1,5,15,215,660.9665932669304,661.5744278710335,"[77, 0, 177]",177,a,0.0846113283187151,colour,0.4
05,21,1,1,5,16,216,663.5915963687003,664.3342477106489,"[87, 0, 167]",167,a,0.21920711919665337,colour,0.4
05,21,1,1,5,17,217,666.3418339556083,667.3262841617689,"[71, 0, 183]",183,a,0.4613293297588825,colour,0.4
05,21,1,1,5,18,218,669.3415495995432,670.110260493122,"[0, 0, 254]",254,l,0.24536119354888797,colour,0.4
05,21,1,1,5,19,219,672.1228076117113,672.8463050825521,"[74, 0, 180]",180,a,0.2002025148831308,colour,0.4
05,21,1,1,5,20,220,674.8571409443393,675.4622753458098,"[27, 0, 227]",227,l,0.08174531674012542,colour,0.4
05,21,1,1,5,21,221,677.4821212026291,678.9102682913654,"[55, 0, 199]",199,l,0.9046142506413162,colour,0.4
05,21,1,1,5,22,222,680.9196910364553,681.7182286106981,"[1, 0, 253]",253,l,0.27530090790241957,colour,0.4
05,21,1,1,5,23,223,683.732166396454,684.566274094861,"[57, 0, 197]",197,a,0.3115366301499307,colour,0.4
05,21,1,1,5,24,224,686.5759311779402,687.3982085557655,"[75, 0, 179]",179,a,0.2990367729216814,colour,0.4
05,21,1,1,5,25,225,689.4196935961954,690.1982187172398,"[93, 0, 161]",161,a,0.25529633136466146,colour,0.4
05,21,1,1,5,26,226,692.2163115693256,693.1661821715534,"[48, 0, 206]",206,a,0.42642362229526043,colour,0.4
05,21,1,1,5,27,227,695.185184805654,695.8862594910897,"[17, 0, 237]",237,l,0.1777876066043973,colour,0.4
05,21,1,1,5,28,228,697.9038809104823,699.1662184051238,"[83, 0, 171]",171,a,0.7389724343083799,colour,0.4
05,21,1,1,5,29,229,701.1852048919536,701.9822143469937,"[60, 0, 194]",194,a,0.27378617925569415,colour,0.4
05,21,1,1,5,30,230,703.9975991197862,704.5503324251622,"[91, 0, 163]",163,a,0.029298534616827965,colour,0.4
05,21,1,1,5,31,231,706.5601245965809,707.5503241540864,"[8, 0, 246]",246,l,0.4670444163493812,colour,0.4
05,21,1,1,5,32,232,709.5601604366675,710.3341468861327,"[43, 0, 211]",211,l,0.25089392997324467,colour,0.4
05,21,1,1,5,33,233,712.3413672489114,713.3901831735857,"[66, 0, 188]",188,a,0.5253945444710553,colour,0.4
05,21,1,1,5,34,234,715.4038893780671,716.1182019864209,"[14, 0, 240]",240,l,0.1915796692483127,colour,0.4
05,21,1,1,5,35,235,718.1382424030453,719.2701131789945,"[86, 0, 168]",168,a,0.6089086192660034,colour,0.4
05,21,1,1,5,36,236,721.2788734766655,722.0381056992337,"[88, 0, 166]",166,a,0.23588488530367613,colour,0.4
05,21,1,1,5,37,237,724.0444710245356,724.7901514293626,"[53, 0, 201]",201,l,0.22279898636043072,colour,0.4
05,21,1,1,5,38,238,726.8100599078462,727.3502618479542,"[41, 0, 213]",213,l,0.017103119287639856,colour,0.4
05,21,1,1,5,39,239,729.3569320091046,730.0300901629962,"[16, 0, 238]",238,l,0.14971747528761625,colour,0.4
05,21,1,1,5,40,240,732.0444233692251,733.0941545898095,"[37, 0, 217]",217,l,0.5268974574282765,colour,0.4
05,21,1,1,5,41,241,735.1068328586407,735.9821347901598,"[23, 0, 231]",231,l,0.3521286738105118,colour,0.4
05,21,1,1,5,42,242,737.9972643516958,738.8861437006854,"[63, 0, 191]",191,a,0.3664031974039972,colour,0.4
05,21,1,1,5,43,243,740.9035433852114,742.1420611254871,"[90, 0, 164]",164,a,0.7153074610978365,colour,0.4
05,21,1,1,5,44,244,744.1535212313756,745.1021421630867,"[52, 0, 202]",202,l,0.4256434151902795,colour,0.4
05,21,1,1,5,45,245,747.1224255817942,747.9261418259703,"[45, 0, 209]",209,l,0.2806816198863089,colour,0.4
05,21,1,1,5,46,246,749.9348343820311,750.6302672359161,"[82, 0, 172]",172,a,0.17266604444012046,colour,0.4
05,21,1,1,5,47,247,752.6381543786265,753.2860205848701,"[40, 0, 214]",214,l,0.12469688709825277,colour,0.4
05,21,1,1,5,48,248,755.2942334376276,756.0300948889926,"[69, 0, 185]",185,a,0.2127476646564901,colour,0.4
05,21,1,1,5,49,249,758.0442654374056,758.7901301616803,"[58, 0, 196]",196,a,0.22303017368540168,colour,0.4
05,21,1,1,5,50,250,760.8098295084201,761.3900969214737,"[89, 0, 165]",165,a,0.05697875889018178,colour,0.4
05,21,1,1,6,1,251,768.7778063532896,769.3901930195279,"[27, 0, 227]",227,l,0.08810237143188715,colour,0.28
05,21,1,1,6,2,252,771.4036164437421,772.3819841053337,"[85, 0, 169]",169,a,0.4550356846302748,colour,0.28
05,21,1,1,6,3,253,774.4036361360922,775.1580209122039,"[87, 0, 167]",167,a,0.23148917965590954,colour,0.28
05,21,1,1,6,4,254,777.1692608590238,777.7019931320101,"[13, 0, 241]",241,l,0.009403052739799023,colour,0.28
05,21,1,1,6,5,255,779.7162022772245,780.5020525241271,"[71, 0, 183]",183,a,0.2626072787679732,colour,0.28
05,21,1,1,6,6,256,782.5128769637085,783.3019862789661,"[20, 0, 234]",234,l,0.2657942730002105,colour,0.28
05,21,1,1,6,7,257,785.3098135576583,786.1019483911805,"[53, 0, 201]",201,l,0.26899938518181443,colour,0.28
05,21,1,1,6,8,258,788.122275527101,788.7259716060944,"[42, 0, 212]",212,l,0.0806559412740171,colour,0.28
05,21,1,1,6,9,259,790.7473900867626,791.4299560193904,"[89, 0, 165]",165,a,0.15932690305635333,colour,0.28
05,21,1,1,6,10,260,793.4503540471196,794.0539662372321,"[29, 0, 225]",225,l,0.0802802131511271,colour,0.28
05,21,1,1,6,11,261,796.0753898378462,796.7342565325089,"[72, 0, 182]",182,a,0.1356375110335648,colour,0.28
05,21,1,1,6,12,262,798.7476196982898,799.3581667137332,"[44, 0, 210]",210,l,0.0884379274211824,colour,0.28
05,21,1,1,6,13,263,801.3722982713953,802.2060184264556,"[58, 0, 196]",196,l,0.31174773117527366,colour,0.28
05,21,1,1,6,14,264,804.2160303639248,804.9099898426794,"[45, 0, 209]",209,a,0.17063222778961062,colour,0.28
05,21,1,1,6,15,265,806.919083727058,807.5980325858109,"[3, 0, 251]",251,l,0.155620819889009,colour,0.28
05,21,1,1,6,16,266,809.6065427917056,810.2459043059498,"[75, 0, 179]",179,a,0.11605749977752566,colour,0.28
05,21,1,1,6,17,267,812.2627904163674,813.2619109600782,"[73, 0, 181]",181,a,0.47621155623346567,colour,0.28
05,21,1,1,6,18,268,815.278419373557,816.0618687402457,"[80, 0, 174]",174,a,0.2603284907527268,colour,0.28
05,21,1,1,6,19,269,818.0752768041566,818.693905916065,"[93, 0, 161]",161,a,0.0953428209759295,colour,0.28
05,21,1,1,6,20,270,820.7001834134571,821.4620492784306,"[48, 0, 206]",206,l,0.23843109421432018,colour,0.28
05,21,1,1,6,21,271,823.4814949887805,824.1658631567843,"[31, 0, 223]",223,l,0.1610562768764794,colour,0.28
05,21,1,1,6,22,272,826.184562924318,826.7658582730219,"[81, 0, 173]",173,a,0.05795313138514757,colour,0.28
05,21,1,1,6,23,273,828.7783415890299,829.5498637491837,"[35, 0, 219]",219,l,0.24820436164736748,colour,0.28
05,21,1,1,6,24,274,831.5595436752774,832.2058549807407,"[97, 0, 157]",157,a,0.12309708818793297,colour,0.28
05,21,1,1,6,25,275,834.2158574657515,834.8459132066928,"[34, 0, 220]",220,l,0.1067635421641171,colour,0.28
05,21,1,1,6,26,276,836.8563501029275,837.4459784273058,"[59, 0, 195]",195,l,0.06629122700542212,colour,0.28
05,21,1,1,6,27,277,839.4658282226883,840.1818264881149,"[66, 0, 188]",188,a,0.19268243573606014,colour,0.28
05,21,1,1,6,28,278,842.2000627000816,843.0698370151222,"[57, 0, 197]",197,a,0.3463269411586225,colour,0.28
05,21,1,1,6,29,279,845.0907738227397,845.8619383717887,"[96, 0, 158]",158,a,0.2484067976474762,colour,0.28
05,21,1,1,6,30,280,847.8720511337742,848.5018343338743,"[70, 0, 184]",184,a,0.10655834898352623,colour,0.28
05,21,1,1,6,31,281,850.5126166320406,851.0538039728999,"[74, 0, 180]",180,a,0.017941615544259548,colour,0.28
05,21,1,1,6,32,282,853.0751247797161,853.8059091735631,"[86, 0, 168]",168,a,0.20758080994710326,colour,0.28
05,21,1,1,6,33,283,855.8250819491223,856.661978465505,"[84, 0, 170]",170,a,0.3139284518547356,colour,0.28
05,21,1,1,6,34,284,858.6689085643739,859.4217671910301,"[68, 0, 186]",186,a,0.22975114127621055,colour,0.28
05,21,1,1,6,35,285,861.4344474291429,862.2297562612221,"[95, 0, 159]",159,a,0.2720146640203893,colour,0.28
05,21,1,1,6,36,286,864.2469306662679,865.0618112385273,"[54, 0, 200]",200,l,0.29153362894430757,colour,0.28
05,21,1,1,6,37,287,867.0750995739363,867.8538105897605,"[94, 0, 160]",160,a,0.25548222614452243,colour,0.28
05,21,1,1,6,38,288,869.8718467280269,870.6860203482211,"[25, 0, 229]",229,l,0.2908317968249321,colour,0.28
05,21,1,1,6,39,289,872.6999833402224,873.5258132014424,"[99, 0, 155]",155,a,0.3023757920600474,colour,0.28
05,21,1,1,6,40,290,875.5436772294343,878.0937241171487,"[83, 0, 171]",171,a,2.0268480298109353,colour,0.28
05,21,1,1,6,41,291,880.1062094019726,880.9017163375393,"[56, 0, 198]",198,l,0.2722608167678118,colour,0.28
05,21,1,1,6,42,292,882.9187501403503,883.6777771692723,"[91, 0, 163]",163,l,0.23577500227838755,colour,0.28
05,21,1,1,6,43,293,885.6843043649569,886.4777644877322,"[62, 0, 192]",192,l,0.2701868284493685,colour,0.28
05,21,1,1,6,44,294,888.4967872081324,889.1096949316561,"[98, 0, 156]",156,a,0.08961906936019659,colour,0.28
05,21,1,1,6,45,295,891.121791491285,891.9016741961241,"[76, 0, 178]",178,a,0.2566188629716635,colour,0.28
05,21,1,1,6,46,296,893.9186646756716,894.6137233763002,"[16, 0, 238]",238,l,0.17183699971064925,colour,0.28
05,21,1,1,6,47,297,896.621733399108,897.3576854350977,"[51, 0, 203]",203,l,0.21263620629906654,colour,0.28
05,21,1,1,6,48,298,899.3716893866658,900.1097351037897,"[67, 0, 187]",187,l,0.21468498883768916,colour,0.28
05,21,1,1,6,49,299,902.1217013006099,902.7976352749392,"[82, 0, 172]",172,a,0.15263429237529635,colour,0.28
05,21,1,1,6,50,300,904.8092481927015,905.4696855419315,"[65, 0, 189]",189,a,0.1372396731749177,colour,0.28
05,21,1,1,7,1,301,913.198934727814,913.9657457121648,"[80, 0, 174]",174,a,0.2425924618728459,colour,0.14
05,21,1,1,7,2,302,915.9809918515384,916.621661325451,"[64, 0, 190]",190,a,0.11730756424367428,colour,0.14
05,21,1,1,7,3,303,918.6372717716731,919.2056289133616,"[81, 0, 173]",173,a,0.04513110872358084,colour,0.14
05,21,1,1,7,4,304,921.2153950915672,921.7736489241943,"[24, 0, 230]",230,l,0.034942335449159145,colour,0.14
05,21,1,1,7,5,305,923.7933813533746,925.8135804892518,"[51, 0, 203]",203,l,1.4969813735224307,colour,0.14
05,21,1,1,7,6,306,927.8247369411401,928.6775802467018,"[62, 0, 192]",192,a,0.3298390079289675,colour,0.14
05,21,1,1,7,7,307,930.6840393072926,931.2616128195077,"[99, 0, 155]",155,a,0.05430061183869839,colour,0.14
05,21,1,1,7,8,308,933.2776616150513,934.0216146153398,"[57, 0, 197]",197,l,0.2206741920672357,colour,0.14
05,21,1,1,7,9,309,936.0277924705297,936.7895957138389,"[50, 0, 204]",204,l,0.23874459462240338,colour,0.14
05,21,1,1,7,10,310,938.8090579658747,939.5735586546361,"[42, 0, 212]",212,l,0.2415613755583763,colour,0.14
05,21,1,1,7,11,311,941.5902569009922,942.3736936650239,"[79, 0, 175]",175,a,0.26012211572378874,colour,0.14
05,21,1,1,7,12,312,944.3870883383788,945.3255992648192,"[90, 0, 164]",164,a,0.4151954906992614,colour,0.14
05,21,1,1,7,13,313,947.3402148582973,948.0695495079271,"[5, 0, 249]",249,l,0.20594950346276164,colour,0.14
05,21,1,1,7,14,314,950.0902362242341,950.8375479360111,"[61, 0, 193]",193,a,0.2240006080828607,colour,0.14
05,21,1,1,7,15,315,952.8558191996999,953.597539098002,"[70, 0, 184]",184,a,0.21839816076681018,colour,0.14
05,21,1,1,7,16,316,955.6057779444382,956.3415452670306,"[13, 0, 241]",241,l,0.21244125301018357,colour,0.14
05,21,1,1,7,17,317,958.3557918276638,958.9495421354659,"[65, 0, 189]",189,a,0.0704368413425982,colour,0.14
05,21,1,1,7,18,318,960.9651368274353,961.9735426646657,"[82, 0, 172]",172,a,0.4853790896013379,colour,0.14
05,21,1,1,7,19,319,963.9807953229174,964.5095151015557,"[76, 0, 178]",178,a,0.005716268438845873,colour,0.14
05,21,1,1,7,20,320,966.527648913674,967.1575289997272,"[86, 0, 168]",168,a,0.10678835446015,colour,0.14
05,21,1,1,7,21,321,969.1682408000343,969.9574899300933,"[68, 0, 186]",186,a,0.2660211278125644,colour,0.14
05,21,1,1,7,22,322,971.9657732811756,972.6375250141136,"[91, 0, 163]",163,a,0.14909401861950755,colour,0.14
05,21,1,1,7,23,323,974.6525718676858,975.4375966149382,"[63, 0, 191]",191,a,0.261619514785707,colour,0.14
05,21,1,1,7,24,324,977.4495899872854,978.2216115435585,"[84, 0, 170]",170,a,0.24891958432272077,colour,0.14
05,21,1,1,7,25,325,980.2307109418325,981.0294698569924,"[74, 0, 180]",180,a,0.2754497812129557,colour,0.14
05,21,1,1,7,26,326,983.0431736987084,983.8214833862148,"[7, 0, 247]",247,l,0.25565748708322644,colour,0.14
05,21,1,1,7,27,327,985.8400157694705,986.6215010304004,"[55, 0, 199]",199,l,0.25812610844150186,colour,0.14
05,21,1,1,7,28,328,988.6369515755214,989.253470858559,"[72, 0, 182]",182,a,0.09334011794999242,colour,0.14
05,21,1,1,7,29,329,991.261923563201,991.9894768516533,"[26, 0, 228]",228,l,0.20432489225640893,colour,0.14
05,21,1,1,7,30,330,993.9962608339265,994.7894318741746,"[67, 0, 187]",187,a,0.26978431828320026,colour,0.14
05,21,1,1,7,31,331,996.8087011417374,997.4855638029985,"[92, 0, 162]",162,a,0.1535515575669706,colour,0.14
05,21,1,1,7,32,332,999.4963303478435,1000.0219088178128,"[95, 0, 159]",159,a,0.003197235055267811,colour,0.14
05,21,1,1,7,33,333,1002.0430980804376,1003.037410562858,"[78, 0, 176]",176,a,0.47172132786363363,colour,0.14
05,21,1,1,7,34,334,1005.058657720685,1005.9813526137732,"[27, 0, 227]",227,l,0.3993672481738031,colour,0.14
05,21,1,1,7,35,335,1007.9962005759589,1008.7014275705442,"[83, 0, 171]",171,a,0.18199269101023674,colour,0.14
05,21,1,1,7,36,336,1010.7149935662746,1011.4294400820509,"[53, 0, 201]",201,l,0.19117085821926594,colour,0.14
05,21,1,1,7,37,337,1013.4492760929279,1014.3654319751076,"[93, 0, 161]",161,a,0.3928672280162573,colour,0.14
05,21,1,1,7,38,338,1016.3867957112379,1017.045672646258,"[85, 0, 169]",169,a,0.13562254514545202,colour,0.14
05,21,1,1,7,39,339,1019.0586789883673,1019.5973953446373,"[96, 0, 158]",158,a,0.015458422247320414,colour,0.14
05,21,1,1,7,40,340,1021.605423877947,1022.3413916677237,"[88, 0, 166]",166,a,0.2126602311618626,colour,0.14
05,21,1,1,7,41,341,1024.355437760707,1025.0533364787698,"[56, 0, 198]",198,l,0.17450569476932287,colour,0.14
05,21,1,1,7,42,342,1027.0741834901273,1027.8853634935804,"[73, 0, 181]",181,a,0.2878551157191396,colour,0.14
05,21,1,1,7,43,343,1029.9022393641062,1031.1653775456361,"[77, 0, 177]",177,a,0.7397707584314048,colour,0.14
05,21,1,1,7,44,344,1033.183466065675,1033.9653569869697,"[71, 0, 183]",183,a,0.258493565954268,colour,0.14
05,21,1,1,7,45,345,1035.980432591401,1036.6134740724228,"[97, 0, 157]",157,a,0.10977448802441359,colour,0.14
05,21,1,1,7,46,346,1038.6209240471944,1039.3733659856953,"[54, 0, 200]",200,l,0.22914777044206858,colour,0.14
05,21,1,1,7,47,347,1041.386630690191,1041.9732949361205,"[89, 0, 165]",165,a,0.06343978829681873,colour,0.14
05,21,1,1,7,48,348,1043.9805062403902,1044.6533445920795,"[60, 0, 194]",194,a,0.14974701358005404,colour,0.14
05,21,1,1,7,49,349,1046.6678676316515,1047.9974073171616,"[75, 0, 179]",179,a,0.8062904155813158,colour,0.14
05,21,1,1,7,50,350,1050.011689323932,1050.693310815841,"[52, 0, 202]",202,a,0.158392702229321,colour,0.14
05,21,1,1,8,1,351,1057.9951076554134,1058.7013220200315,"[84, 0, 170]",170,a,0.18211045069620013,colour,0.06
05,21,1,1,8,2,352,1060.7147308718413,1062.3492465149611,"[73, 0, 181]",181,l,1.1113451425917447,colour,0.06
05,21,1,1,8,3,353,1064.3708607368171,1065.1093022678979,"[60, 0, 194]",194,l,0.21507095731794834,colour,0.06
05,21,1,1,8,4,354,1067.1208226322196,1067.717244785279,"[72, 0, 182]",182,a,0.07304094545543194,colour,0.06
05,21,1,1,8,5,355,1069.7301727524027,1070.7175488336943,"[66, 0, 188]",188,a,0.4641071194782853,colour,0.06
05,21,1,1,8,6,356,1072.730301933363,1073.733215993736,"[51, 0, 203]",203,l,0.4798105130903423,colour,0.06
05,21,1,1,8,7,357,1075.7458284907043,1076.4612887636758,"[87, 0, 167]",167,a,0.19214129261672497,colour,0.06
05,21,1,1,8,8,358,1078.480168912094,1079.0454934467562,"[91, 0, 163]",163,a,0.042022489476948977,colour,0.06
05,21,1,1,8,9,359,1081.058340281248,1081.8052510586567,"[89, 0, 165]",165,a,0.22364811692386866,colour,0.06
05,21,1,1,8,10,360,1083.8239169553854,1084.4852132806554,"[6, 0, 248]",248,l,0.1383518916554749,colour,0.06
05,21,1,1,8,11,361,1086.4957474567927,1087.4854247756302,"[53, 0, 201]",201,l,0.46634022146463394,colour,0.06
05,21,1,1,8,12,362,1089.4957840847783,1090.1171823213808,"[86, 0, 168]",168,a,0.09816393302753568,colour,0.06
05,21,1,1,8,13,363,1092.1364169307053,1092.7173196161166,"[70, 0, 184]",184,a,0.05764199420809746,colour,0.06
05,21,1,1,8,14,364,1094.7301313984208,1095.6531504262239,"[76, 0, 178]",178,a,0.3997492780908942,colour,0.06
05,21,1,1,8,15,365,1097.6675517680123,1098.4054525494576,"[57, 0, 197]",197,l,0.2146042506210506,colour,0.06
05,21,1,1,8,16,366,1100.4176314231008,1101.1491582151502,"[79, 0, 175]",175,a,0.2083224207162857,colour,0.06
05,21,1,1,8,17,367,1103.1676433370449,1103.9171672766097,"[55, 0, 199]",199,l,0.22639912506565452,colour,0.06
05,21,1,1,8,18,368,1105.9331420296803,1106.8851354569197,"[61, 0, 193]",193,a,0.4285818934440613,colour,0.06
05,21,1,1,8,19,369,1108.9019479188137,1109.6451577330008,"[68, 0, 186]",186,a,0.21994951693341136,colour,0.06
05,21,1,1,8,20,370,1111.6518814573064,1112.293133821804,"[69, 0, 185]",185,a,0.11794362403452396,colour,0.06
05,21,1,1,8,21,371,1114.3079695748165,1114.9331605401821,"[93, 0, 161]",161,a,0.1017026319168508,colour,0.06
05,21,1,1,8,22,372,1116.9488013125956,1117.6931327977218,"[74, 0, 180]",180,a,0.22104834485799074,colour,0.06
05,21,1,1,8,23,373,1119.7143575064838,1120.3571151471697,"[64, 0, 190]",190,l,0.11942448187619448,colour,0.06
05,21,1,1,8,24,374,1122.3705618083477,1123.3891272745095,"[54, 0, 200]",200,l,0.4952484550885856,colour,0.06
05,21,1,1,8,25,375,1125.4018016052432,1126.205140939448,"[10, 0, 244]",244,l,0.2800073572434485,colour,0.06
05,21,1,1,8,26,376,1128.2142864177004,1129.005125106778,"[71, 0, 183]",183,a,0.2674586628563702,colour,0.06
05,21,1,1,8,27,377,1131.0267928913236,1131.7650843672454,"[95, 0, 159]",159,a,0.2151576029136777,colour,0.06
05,21,1,1,8,28,378,1133.7767898389138,1134.4690754758194,"[85, 0, 169]",169,a,0.169143492821604,colour,0.06
05,21,1,1,8,29,379,1136.4798774668016,1137.0130902309902,"[65, 0, 189]",189,a,0.009890633169561625,colour,0.06
05,21,1,1,8,30,380,1139.0267149098217,1139.7170644043945,"[82, 0, 172]",172,a,0.16715733241289854,colour,0.06
05,21,1,1,8,31,381,1141.7298080516048,1142.701075472869,"[75, 0, 179]",179,a,0.44763336470350623,colour,0.06
05,21,1,1,8,32,382,1144.7142448667437,1145.3411904126406,"[67, 0, 187]",187,a,0.1036769775673747,colour,0.06
05,21,1,1,8,33,383,1147.3549135527574,1147.997156437952,"[88, 0, 166]",166,a,0.11896998481824994,colour,0.06
05,21,1,1,8,34,384,1150.011104857549,1150.6050390908495,"[2, 0, 252]",252,l,0.07064321590587497,colour,0.06
05,21,1,1,8,35,385,1152.6204967251979,1153.9731956869364,"[81, 0, 173]",173,a,0.8294725348241627,colour,0.06
05,21,1,1,8,36,386,1155.9797788085416,1156.6370122274384,"[58, 0, 196]",196,l,0.13399320747703314,colour,0.06
05,21,1,1,8,37,387,1158.6517058024183,1159.221048344858,"[94, 0, 160]",160,a,0.0461157220415771,colour,0.06
05,21,1,1,8,38,388,1161.2297495654784,1162.1170133617707,"[96, 0, 158]",158,a,0.36397002171725035,colour,0.06
05,21,1,1,8,39,389,1164.1359888208099,1164.9250284256414,"[52, 0, 202]",202,l,0.26569069223478436,colour,0.06
05,21,1,1,8,40,390,1166.9328230149113,1167.8611014508642,"[99, 0, 155]",155,a,0.4048220035620034,colour,0.06
05,21,1,1,8,41,391,1169.870331211947,1170.6370063200593,"[92, 0, 162]",162,a,0.24337818333879113,colour,0.06
05,21,1,1,8,42,392,1172.651582528837,1173.4610619088635,"[80, 0, 174]",174,l,0.2862651627510786,colour,0.06
05,21,1,1,8,43,393,1175.4796321014874,1176.0049963193014,"[78, 0, 176]",176,a,0.00198734225705266,colour,0.06
05,21,1,1,8,44,394,1178.026476633735,1178.7730290116742,"[62, 0, 192]",192,l,0.22328065894544125,colour,0.06
05,21,1,1,8,45,395,1180.7921982426196,1181.588955636602,"[63, 0, 191]",191,l,0.2735333302989602,colour,0.06
05,21,1,1,8,46,396,1183.6046850243583,1184.3649601489305,"[50, 0, 204]",204,l,0.23702979320660233,colour,0.06
05,21,1,1,8,47,397,1186.3858378799632,1187.0849740593694,"[90, 0, 164]",164,a,0.17582625756040215,colour,0.06
05,21,1,1,8,48,398,1189.104613147676,1189.812957426533,"[97, 0, 157]",157,l,0.18503868952393532,colour,0.06
05,21,1,1,8,49,399,1191.8233793568797,1192.8689519660547,"[56, 0, 198]",198,l,0.5225915480405092,colour,0.06
05,21,1,1,8,50,400,1194.8857939662412,1195.6289411592297,"[59, 0, 195]",195,l,0.21982663730159402,colour,0.06
05,21,1,1,9,1,401,1203.1037648050115,1203.9409023541957,"[78, 0, 176]",176,a,0.31303875520825386,colour,0.06
05,21,1,1,9,2,402,1205.9482818306424,1206.5248860898428,"[85, 0, 169]",169,a,0.05330930324271321,colour,0.06
05,21,1,1,9,3,403,1208.5420073261485,1209.3329208460636,"[61, 0, 193]",193,l,0.2676236839033663,colour,0.06
05,21,1,1,9,4,404,1211.3544885939918,1211.9489072570577,"[57, 0, 197]",197,l,0.07105399668216705,colour,0.06
05,21,1,1,9,5,405,1213.963832018897,1214.8048824192956,"[73, 0, 181]",181,a,0.3177034570835531,colour,0.06
05,21,1,1,9,6,406,1216.8232501754537,1217.4848844199441,"[97, 0, 157]",157,a,0.13865948468446732,colour,0.06
05,21,1,1,9,7,407,1219.4950940678827,1220.1008700430393,"[54, 0, 200]",200,l,0.08244281634688377,colour,0.06
05,21,1,1,9,8,408,1222.1200353358872,1222.676883534994,"[60, 0, 194]",194,l,0.03351110219955444,colour,0.06
05,21,1,1,9,9,409,1224.6981885880232,1225.2448610099964,"[63, 0, 191]",191,l,0.02335226023569703,colour,0.06
05,21,1,1,9,10,410,1227.260629388038,1227.8528381860815,"[95, 0, 159]",159,a,0.06910958327353,colour,0.06
05,21,1,1,9,11,411,1229.870059065055,1230.4768515545875,"[65, 0, 189]",189,l,0.08344160811975598,colour,0.06
05,21,1,1,9,12,412,1232.4949833974242,1233.116847159341,"[86, 0, 168]",168,a,0.09861134132370353,colour,0.06
05,21,1,1,9,13,413,1235.135662717279,1235.7328359331004,"[83, 0, 171]",171,a,0.0739172506146133,colour,0.06
05,21,1,1,9,14,414,1237.7450683694333,1238.3328259293921,"[23, 0, 231]",231,l,0.0646756743080914,colour,0.06
05,21,1,1,9,15,415,1240.3549600266851,1240.916810452938,"[89, 0, 165]",165,a,0.039065500255674124,colour,0.06
05,21,1,1,9,16,416,1242.9325410220772,1243.6448186323978,"[80, 0, 174]",174,a,0.18903582403436303,colour,0.06
05,21,1,1,9,17,417,1245.6512138899416,1246.396776929032,"[58, 0, 196]",196,l,0.22226217575371265,colour,0.06
05,21,1,1,9,18,418,1248.4167767791077,1249.0927962176502,"[98, 0, 156]",156,a,0.15274220565333962,colour,0.06
05,21,1,1,9,19,419,1251.1043654191308,1251.7088574590161,"[70, 0, 184]",184,l,0.08126600738614798,colour,0.06
05,21,1,1,9,20,420,1253.7292712405324,1254.3007598454133,"[91, 0, 163]",163,a,0.04817513842135668,colour,0.06
05,21,1,1,9,21,421,1256.307437095791,1256.8687920649536,"[21, 0, 233]",233,l,0.0380793116055429,colour,0.06
05,21,1,1,9,22,422,1258.8854836160317,1259.876733952202,"[79, 0, 175]",175,a,0.4679187526926398,colour,0.06
05,21,1,1,9,23,423,1261.8854714068584,1262.628756839782,"[53, 0, 201]",201,l,0.2198833511210978,colour,0.06
05,21,1,1,9,24,424,1264.635413216427,1265.1807603496127,"[51, 0, 203]",203,l,0.022000189870595932,colour,0.06
05,21,1,1,9,25,425,1267.1979835913517,1268.1727916807868,"[84, 0, 170]",170,a,0.45182939106598496,colour,0.06
05,21,1,1,9,26,426,1270.1822991026565,1270.9087122092023,"[50, 0, 204]",204,l,0.20309018809348345,colour,0.06
05,21,1,1,9,27,427,1272.9166147117503,1273.468730861321,"[96, 0, 158]",158,a,0.028662473894655704,colour,0.06
05,21,1,1,9,28,428,1275.4791728779674,1276.460693269968,"[56, 0, 198]",198,l,0.4581502117216587,colour,0.06
05,21,1,1,9,29,429,1278.4792024162598,1279.9007624448277,"[75, 0, 179]",179,a,0.8982894914224744,colour,0.06
05,21,1,1,9,30,430,1281.9165383060463,1283.4207538273185,"[9, 0, 245]",245,l,0.9807323077693582,colour,0.06
05,21,1,1,9,31,431,1285.432285219431,1286.16464302456,"[74, 0, 180]",180,a,0.2090998706407845,colour,0.06
05,21,1,1,9,32,432,1288.1822675950825,1288.812685673125,"[93, 0, 161]",161,a,0.1072093746624887,colour,0.06
05,21,1,1,9,33,433,1290.8229016223922,1291.5726728970185,"[76, 0, 178]",178,a,0.226876859087497,colour,0.06
05,21,1,1,9,34,434,1293.5884444257244,1294.2286743684672,"[66, 0, 188]",188,a,0.11690505454316735,colour,0.06
05,21,1,1,9,35,435,1296.2447641240433,1296.8846262153238,"[99, 0, 155]",155,a,0.1166329076513648,colour,0.06
05,21,1,1,9,36,436,1298.9009337672032,1299.4926467142068,"[90, 0, 164]",164,a,0.06857631681486964,colour,0.06
05,21,1,1,9,37,437,1301.5102878259495,1302.1646650801413,"[87, 0, 167]",167,a,0.13128749188035727,colour,0.06
05,21,1,1,9,38,438,1304.1821888256818,1304.9966617682949,"[59, 0, 195]",195,l,0.2912209159694612,colour,0.06
05,21,1,1,9,39,439,1307.0102738444693,1307.5646636621095,"[94, 0, 160]",160,a,0.031371341086924076,colour,0.06
05,21,1,1,9,40,440,1309.5727367000654,1310.1726172072813,"[62, 0, 192]",192,l,0.07659303490072489,colour,0.06
05,21,1,1,9,41,441,1312.18217858579,1312.8366326396354,"[88, 0, 166]",166,a,0.13125243922695518,colour,0.06
05,21,1,1,9,42,442,1314.8539409521036,1315.3966512922198,"[52, 0, 202]",202,l,0.01936615351587534,colour,0.06
05,21,1,1,9,43,443,1317.4163537896238,1318.3966599567793,"[67, 0, 187]",187,l,0.4568568244576454,colour,0.06
05,21,1,1,9,44,444,1320.4163730880246,1320.9645870197564,"[69, 0, 185]",185,l,0.024776798207312822,colour,0.06
05,21,1,1,9,45,445,1322.978886355646,1323.5805769753642,"[55, 0, 199]",199,l,0.07838463643565774,colour,0.06
05,21,1,1,9,46,446,1325.5882675894536,1326.7805963521823,"[64, 0, 190]",190,l,0.6690582255832851,colour,0.06
05,21,1,1,9,47,447,1328.7913857400417,1330.092564242892,"[68, 0, 186]",186,l,0.7778764576651156,colour,0.06
05,21,1,1,9,48,448,1332.1039365213364,1332.6845666659065,"[81, 0, 173]",173,a,0.057393083814531565,colour,0.06
05,21,1,1,9,49,449,1334.6976446877234,1335.708596339915,"[92, 0, 162]",162,a,0.48762637050822377,colour,0.06
05,21,1,1,9,50,450,1337.7289404110052,1338.5165960434824,"[77, 0, 177]",177,a,0.26441266434267163,colour,0.06
05,21,1,1,10,1,451,1345.9936141949147,1346.8045240202919,"[60, 0, 194]",194,l,0.2866546753793955,colour,0.06
05,21,1,1,10,2,452,1348.8227173029445,1349.6045152768493,"[61, 0, 193]",193,l,0.25907645653933287,colour,0.06
05,21,1,1,10,3,453,1351.619408925064,1352.860482326243,"[81, 0, 173]",173,a,0.7178190113045275,colour,0.06
05,21,1,1,10,4,454,1354.869399374351,1355.5725173279643,"[54, 0, 200]",200,l,0.1801093234680593,colour,0.06
05,21,1,1,10,5,455,1357.5881384080276,1358.6525163357146,"[80, 0, 174]",174,a,0.5411050273105502,colour,0.06
05,21,1,1,10,6,456,1360.6662052115425,1361.4764726753347,"[15, 0, 239]",239,l,0.28695360384881496,colour,0.06
05,21,1,1,10,7,457,1363.4944040509872,1364.3084780285135,"[87, 0, 167]",167,a,0.2907356987707317,colour,0.06
05,21,1,1,10,8,458,1366.3224685899913,1366.972532845568,"[52, 0, 202]",202,l,0.12684019235894084,colour,0.06
05,21,1,1,10,9,459,1368.9786870698445,1370.1724750292487,"[93, 0, 161]",161,a,0.6705119083635509,colour,0.06
05,21,1,1,10,10,460,1372.1818048269488,1372.780450629536,"[94, 0, 160]",160,a,0.07556155417114496,colour,0.06
05,21,1,1,10,11,461,1374.7911525839008,1375.5564590799622,"[79, 0, 175]",175,l,0.2419146546162665,colour,0.06
05,21,1,1,10,12,462,1377.5724157160148,1378.2044840054587,"[86, 0, 168]",168,a,0.10882335202768445,colour,0.06
05,21,1,1,10,13,463,1380.2130320207216,1380.7404694398865,"[25, 0, 229]",229,l,0.004029036033898592,colour,0.06
05,21,1,1,10,14,464,1382.7598627684638,1383.3724573850632,"[90, 0, 164]",164,a,0.08950564172118902,colour,0.06
05,21,1,1,10,15,465,1385.384861537721,1386.1964664999396,"[84, 0, 170]",170,a,0.2882206034846604,colour,0.06
05,21,1,1,10,16,466,1388.2130174483173,1388.740474165883,"[91, 0, 163]",163,a,0.004519767127931118,colour,0.06
05,21,1,1,10,17,467,1390.7598694637418,1391.412464568857,"[58, 0, 196]",196,l,0.12958135455846786,colour,0.06
05,21,1,1,10,18,468,1393.4317594361492,1394.084422282409,"[99, 0, 155]",155,a,0.12941081961616874,colour,0.06
05,21,1,1,10,19,469,1396.1034946274012,1399.5644017551094,"[89, 0, 165]",165,a,2.9375152862630785,colour,0.06
05,21,1,1,10,20,470,1401.5723074087873,1402.5564389941283,"[55, 0, 199]",199,l,0.46092524472624063,colour,0.06
05,21,1,1,10,21,471,1404.5722715687007,1405.364437516313,"[82, 0, 172]",172,a,0.26891982881352305,colour,0.06
05,21,1,1,10,22,472,1407.3847351134755,1408.0363865653053,"[51, 0, 203]",203,l,0.12839509267359972,colour,0.06
05,21,1,1,10,23,473,1410.0566290239803,1410.9803443704732,"[70, 0, 184]",184,l,0.4004975841380656,colour,0.06
05,21,1,1,10,24,474,1412.994121467229,1413.5484522082843,"[59, 0, 195]",195,l,0.031029483769088984,colour,0.06
05,21,1,1,10,25,475,1415.5566882980056,1416.308360662777,"[75, 0, 179]",179,a,0.22863340843468904,colour,0.06
05,21,1,1,10,26,476,1418.322186990641,1418.8683797093108,"[67, 0, 187]",187,a,0.022913910914212465,colour,0.06
05,21,1,1,10,27,477,1420.8846971075982,1421.4603514121845,"[63, 0, 191]",191,a,0.05242984741926193,colour,0.06
05,21,1,1,10,28,478,1423.4784060614184,1424.436355608981,"[57, 0, 197]",197,l,0.43509333534166217,colour,0.06
05,21,1,1,10,29,479,1426.4472154951654,1427.0923523544334,"[56, 0, 198]",198,l,0.12190373707562685,colour,0.06
05,21,1,1,10,30,480,1429.1033264552243,1429.796337949112,"[68, 0, 186]",186,a,0.16965352278202772,colour,0.06
05,21,1,1,10,31,481,1431.8065527165309,1432.3883159533143,"[66, 0, 188]",188,a,0.05854980694130063,colour,0.06
05,21,1,1,10,32,482,1434.4002274060622,1435.1243668445386,"[53, 0, 201]",201,l,0.20085078431293368,colour,0.06
05,21,1,1,10,33,483,1437.1346241477877,1437.7163031017408,"[92, 0, 162]",162,a,0.058346189092844725,colour,0.06
05,21,1,1,10,34,484,1439.7283051386476,1441.684301608242,"[72, 0, 182]",182,a,1.4327408983372152,colour,0.06
05,21,1,1,10,35,485,1443.697087790817,1444.364267768804,"[74, 0, 180]",180,a,0.1438109795562923,colour,0.06
05,21,1,1,10,36,486,1446.3845334649086,1447.0122537040152,"[62, 0, 192]",192,l,0.10444930801168084,colour,0.06
05,21,1,1,10,37,487,1449.0251513449475,1449.5968258441426,"[71, 0, 183]",183,l,0.04909516032785177,colour,0.06
05,21,1,1,10,38,488,1451.603229766246,1452.2922346731648,"[73, 0, 181]",181,a,0.1657335818745196,colour,0.06
05,21,1,1,10,39,489,1454.306365837343,1454.9402525098994,"[42, 0, 212]",212,l,0.11054091108962893,colour,0.06
05,21,1,1,10,40,490,1456.946895102039,1457.6602652389556,"[88, 0, 166]",166,a,0.18986644316464663,colour,0.06
05,21,1,1,10,41,491,1459.681321382057,1460.5482580424286,"[69, 0, 185]",185,a,0.3435467882081866,colour,0.06
05,21,1,1,10,42,492,1462.5563511662185,1463.0842285105027,"[78, 0, 176]",176,a,0.0045686038210988045,colour,0.06
05,21,1,1,10,43,493,1465.1031819144264,1465.6602660263889,"[77, 0, 177]",177,a,0.03373874397948384,colour,0.06
05,21,1,1,10,44,494,1467.6813119295985,1468.4922422352247,"[97, 0, 157]",157,a,0.28758375626057386,colour,0.06
05,21,1,1,10,45,495,1470.5094158528373,1471.3721970533952,"[76, 0, 178]",178,a,0.33964181365445256,colour,0.06
05,21,1,1,10,46,496,1473.3844117666595,1474.3642000276595,"[98, 0, 156]",156,a,0.456534659024328,colour,0.06
05,21,1,1,10,47,497,1476.3842617115006,1477.1962077436037,"[65, 0, 189]",189,a,0.2884773905389011,colour,0.06
05,21,1,1,10,48,498,1479.2125255358405,1479.8201860603876,"[95, 0, 159]",159,a,0.08439274411648512,colour,0.06
05,21,1,1,10,49,499,1481.8375676278956,1482.8361864131875,"[50, 0, 204]",204,l,0.47558179777115583,colour,0.06
05,21,1,1,10,50,500,1484.8530827639624,1485.6761860349216,"[83, 0, 171]",171,a,0.29983982304111123,colour,0.06
05,21,1,1,11,1,501,1493.6022735103033,1494.3961778902449,"[51, 0, 203]",203,l,0.269858755171299,colour,0.06
05,21,1,1,11,2,502,1496.415606665425,1497.0681781391613,"[60, 0, 194]",194,l,0.12932496098801494,colour,0.06
05,21,1,1,11,3,503,1499.0874359854497,1499.7721464047208,"[53, 0, 201]",201,l,0.16144263884052634,colour,0.06
05,21,1,1,11,4,504,1501.7905192808248,1502.5001514335163,"[24, 0, 230]",230,l,0.18641557218506932,colour,0.06
05,21,1,1,11,5,505,1504.5093114837073,1505.24415484583,"[79, 0, 175]",175,a,0.21175044868141413,colour,0.06
05,21,1,1,11,6,506,1507.259263927117,1507.972268181853,"[10, 0, 244]",244,l,0.18991724913939834,colour,0.06
05,21,1,1,11,7,507,1509.9936201022938,1510.6601553559303,"[41, 0, 213]",213,l,0.14351638313382864,colour,0.06
05,21,1,1,11,8,508,1512.6811413946562,1513.5081067113206,"[57, 0, 197]",197,a,0.3036880837753415,colour,0.06
05,21,1,1,11,9,509,1515.5248793945648,1516.1481239777058,"[67, 0, 187]",187,a,0.09996223030611873,colour,0.06
05,21,1,1,11,10,510,1518.1654874286614,1518.9560874477029,"[66, 0, 188]",188,a,0.2673645340837538,colour,0.06
05,21,1,1,11,11,511,1520.9623105949722,1521.6681783753447,"[80, 0, 174]",174,a,0.1826256001368165,colour,0.06
05,21,1,1,11,12,512,1523.681101616472,1524.452087359503,"[78, 0, 176]",176,a,0.24773292895406485,colour,0.06
05,21,1,1,11,13,513,1526.4622725886293,1527.0920876902528,"[68, 0, 186]",186,a,0.10658158548176289,colour,0.06
05,21,1,1,11,14,514,1529.1029085856862,1529.6680814898573,"[93, 0, 161]",161,a,0.04188818857073784,colour,0.06
05,21,1,1,11,15,515,1531.6810208782554,1532.7480458389036,"[55, 0, 199]",199,l,0.5440557152032852,colour,0.06
05,21,1,1,11,16,516,1534.7591317920014,1535.6120696207508,"[99, 0, 155]",155,a,0.32984255254268646,colour,0.06
05,21,1,1,11,17,517,1537.6184900840744,1538.7080811904743,"[92, 0, 162]",162,a,0.5662977257743478,colour,0.06
05,21,1,1,11,18,518,1540.727925078012,1541.5960298832506,"[96, 0, 158]",158,a,0.34482363425195217,colour,0.06
05,21,1,1,11,19,519,1543.6030084253289,1545.2520049670711,"[72, 0, 182]",182,l,1.1257193088531494,colour,0.06
05,21,1,1,11,20,520,1547.2592028807849,1547.972139000427,"[84, 0, 170]",170,a,0.1898589599877596,colour,0.06
05,21,1,1,11,21,521,1549.9779541241005,1551.067999333609,"[86, 0, 168]",168,a,0.5667790044099092,colour,0.06
05,21,1,1,11,22,522,1553.0872422135435,1553.8120184997097,"[81, 0, 173]",173,a,0.20148054277524352,colour,0.06
05,21,1,1,11,23,523,1555.8216165057383,1556.4679699526168,"[90, 0, 164]",164,a,0.12316679861396551,colour,0.06
05,21,1,1,11,24,524,1558.4779169056565,1559.1079860371538,"[65, 0, 189]",189,l,0.10674621257930994,colour,0.06
05,21,1,1,11,25,525,1561.1184607427567,1561.7480600173585,"[75, 0, 179]",179,l,0.10620703920722008,colour,0.06
05,21,1,1,11,26,526,1563.7591436072253,1564.315966994036,"[94, 0, 160]",160,a,0.03396559925749898,colour,0.06
05,21,1,1,11,27,527,1566.3371861889027,1567.131996806711,"[95, 0, 159]",159,a,0.27150542195886374,colour,0.06
05,21,1,1,11,28,528,1569.1496107429266,1570.2839351748116,"[89, 0, 165]",165,a,0.6109436177648604,colour,0.06
05,21,1,1,11,29,529,1572.2902855337597,1572.8919793041423,"[91, 0, 163]",163,a,0.07835667300969362,colour,0.06
05,21,1,1,11,30,530,1574.899619112257,1575.4439363405108,"[98, 0, 156]",156,a,0.02099903579801321,colour,0.06
05,21,1,1,11,31,531,1577.462081967853,1578.2279804130085,"[70, 0, 184]",184,l,0.24250817904248834,colour,0.06
05,21,1,1,11,32,532,1580.2433187123388,1580.8439388610423,"[71, 0, 183]",183,l,0.07747918646782637,colour,0.06
05,21,1,1,11,33,533,1582.852697583381,1583.5242197038606,"[74, 0, 180]",180,l,0.14798455638810992,colour,0.06
05,21,1,1,11,34,534,1585.5402023340575,1586.1239962363616,"[58, 0, 196]",196,l,0.060444596223533154,colour,0.06
05,21,1,1,11,35,535,1588.1339132571593,1589.0279610361904,"[76, 0, 178]",178,a,0.37080678017809987,colour,0.06
05,21,1,1,11,36,536,1591.0402155276388,1591.6439269669354,"[82, 0, 172]",172,a,0.08109074644744396,colour,0.06
05,21,1,1,11,37,537,1593.6651855465025,1594.5798822324723,"[88, 0, 166]",166,a,0.3916939636692405,colour,0.06
05,21,1,1,11,38,538,1596.586984835565,1597.5719005665742,"[77, 0, 177]",177,l,0.46188780199736357,colour,0.06
05,21,1,1,11,39,539,1599.587046275381,1600.219896741677,"[61, 0, 193]",193,l,0.10983829107135534,colour,0.06
05,21,1,1,11,40,540,1602.22766415542,1603.1079348376952,"[62, 0, 192]",192,l,0.3569966000504792,colour,0.06
05,21,1,1,11,41,541,1605.1182500356808,1605.7078854492866,"[50, 0, 204]",204,l,0.066355817951262,colour,0.06
05,21,1,1,11,42,542,1607.7275485619903,1608.3318803072907,"[59, 0, 195]",195,l,0.08089500525966287,colour,0.06
05,21,1,1,11,43,543,1610.3525433926843,1611.1158530940302,"[73, 0, 181]",181,a,0.23990801349282265,colour,0.06
05,21,1,1,11,44,544,1613.1337951035239,1613.6998529774137,"[52, 0, 202]",202,l,0.04279560735449195,colour,0.06
05,21,1,1,11,45,545,1615.7119377218187,1616.403842116706,"[69, 0, 185]",185,a,0.1686062882654369,colour,0.06
05,21,1,1,11,46,546,1618.4150391342118,1619.171813369263,"[87, 0, 167]",167,l,0.23349660821259022,colour,0.06
05,21,1,1,11,47,547,1621.180639045313,1621.979872149881,"[63, 0, 191]",191,l,0.2758085737004876,colour,0.06
05,21,1,1,11,48,548,1623.9931360669434,1624.6998131992295,"[64, 0, 190]",190,a,0.1836212407797575,colour,0.06
05,21,1,1,11,49,549,1626.7119034575298,1627.6358291166835,"[83, 0, 171]",171,a,0.40071656182408333,colour,0.06
05,21,1,1,11,50,550,1629.6493155560456,1630.3158240285702,"[97, 0, 157]",157,a,0.1431185998953879,colour,0.06
05,21,1,1,12,1,551,1637.8204373335466,1638.7078094370663,"[70, 0, 184]",184,a,0.3632827620021999,colour,0.06
05,21,1,1,12,2,552,1640.7274181991816,1641.7159222532064,"[54, 0, 200]",200,l,0.4655997925437987,colour,0.06
05,21,1,1,12,3,553,1643.7275922787376,1644.603763426654,"[72, 0, 182]",182,a,0.3528620135039091,colour,0.06
05,21,1,1,12,4,554,1646.618147045374,1647.2037825672887,"[95, 0, 159]",159,a,0.0624027936719358,colour,0.06
05,21,1,1,12,5,555,1649.2118575745262,1650.0997334062122,"[69, 0, 185]",185,a,0.3645552759990096,colour,0.06
05,21,1,1,12,6,556,1652.1181031316519,1652.8518267916515,"[65, 0, 189]",189,a,0.21043421840295196,colour,0.06
05,21,1,1,12,7,557,1654.8680681777187,1655.5237486651167,"[88, 0, 166]",166,l,0.1323756854981184,colour,0.06
05,21,1,1,12,8,558,1657.5398967103101,1658.1796930292621,"[92, 0, 162]",162,a,0.11644228640943766,colour,0.06
05,21,1,1,12,9,559,1660.1961849005893,1661.9076889995486,"[53, 0, 201]",201,l,1.188255616929382,colour,0.06
05,21,1,1,12,10,560,1663.9149172394536,1664.5957628563046,"[20, 0, 234]",234,l,0.1575045813806355,colour,0.06
05,21,1,1,12,11,561,1666.60236567026,1667.5876740645617,"[94, 0, 160]",160,a,0.46196026960387826,colour,0.06
05,21,1,1,12,12,562,1669.6024066302925,1670.3477176083252,"[77, 0, 177]",177,a,0.22205265006050467,colour,0.06
05,21,1,1,12,13,563,1672.3679730640724,1672.9317096145824,"[91, 0, 163]",163,a,0.04037464130669832,colour,0.06
05,21,1,1,12,14,564,1674.9461160763167,1675.8197551937774,"[74, 0, 180]",180,a,0.3510656859725714,colour,0.06
05,21,1,1,12,15,565,1677.8367756055668,1678.595729379449,"[79, 0, 175]",175,a,0.23601052211597562,colour,0.06
05,21,1,1,12,16,566,1680.602347553242,1681.3396512656473,"[67, 0, 187]",187,a,0.2140044244006276,colour,0.06
05,21,1,1,12,17,567,1683.352269276511,1684.1556476014666,"[62, 0, 192]",192,a,0.28015623055398464,colour,0.06
05,21,1,1,12,18,568,1686.1648872084916,1686.8198000919074,"[50, 0, 204]",204,l,0.13157145399600267,colour,0.06
05,21,1,1,12,19,569,1688.8367669410072,1689.4036511019804,"[5, 0, 249]",249,l,0.04424653295427561,colour,0.06
05,21,1,1,12,20,570,1691.4148248825222,1692.0276384768076,"[51, 0, 203]",203,l,0.08953636139631271,colour,0.06
05,21,1,1,12,21,571,1694.0397811164148,1694.675625199452,"[76, 0, 178]",178,a,0.11331594362854958,colour,0.06
05,21,1,1,12,22,572,1696.695990932174,1697.4596027126536,"[73, 0, 181]",181,a,0.24090286623686552,colour,0.06
05,21,1,1,12,23,573,1699.4772418551147,1700.4037696495652,"[99, 0, 155]",155,a,0.40321117732673883,colour,0.06
05,21,1,1,12,24,574,1702.4147480828688,1703.2996625928208,"[29, 0, 225]",225,l,0.3616124652326107,colour,0.06
05,21,1,1,12,25,575,1705.3209365322255,1706.14761473611,"[56, 0, 198]",198,l,0.30342854047194123,colour,0.06
05,21,1,1,12,26,576,1708.1647217934951,1708.8916307510808,"[60, 0, 194]",194,l,0.20363093726336956,colour,0.06
05,21,1,1,12,27,577,1710.8989779325202,1711.6676242356189,"[64, 0, 190]",190,a,0.24523910181596875,colour,0.06
05,21,1,1,12,28,578,1713.6802902952768,1714.2916340595111,"[85, 0, 169]",169,a,0.0880712578073144,colour,0.06
05,21,1,1,12,29,579,1716.3052807939239,1717.1396748176776,"[63, 0, 191]",191,a,0.311062834225595,colour,0.06
05,21,1,1,12,30,580,1719.148930572439,1719.7955809785053,"[84, 0, 170]",170,a,0.12326013948768377,colour,0.06
05,21,1,1,12,31,581,1721.805229397025,1722.4836315987632,"[66, 0, 188]",188,a,0.15506707364693284,colour,0.06
05,21,1,1,12,32,582,1724.4927467508242,1725.0755954249762,"[59, 0, 195]",195,a,0.05979002546519041,colour,0.06
05,21,1,1,12,33,583,1727.0864970586263,1727.7395435096696,"[71, 0, 183]",183,a,0.12981608603149652,colour,0.06
05,21,1,1,12,34,584,1729.7583882124163,1730.3636561273597,"[55, 0, 199]",199,a,0.08212419599294662,colour,0.06
05,21,1,1,12,35,585,1732.3832932463847,1733.5075454823673,"[58, 0, 196]",196,a,0.6010155691765249,colour,0.06
05,21,1,1,12,36,586,1735.523895175662,1736.091552848462,"[97, 0, 157]",157,a,0.04440525220707059,colour,0.06
05,21,1,1,12,37,587,1738.102083873935,1738.7715197969228,"[80, 0, 174]",174,a,0.14614687487483025,colour,0.06
05,21,1,1,12,38,588,1740.7895232462324,1741.3875436233357,"[98, 0, 156]",156,a,0.07475023344159126,colour,0.06
05,21,1,1,12,39,589,1743.3988658832386,1744.0355059276335,"[86, 0, 168]",168,a,0.1133608422242105,colour,0.06
05,21,1,1,12,40,590,1746.0551524986513,1746.8355239657685,"[61, 0, 193]",193,l,0.25708950823172927,colour,0.06
05,21,1,1,12,41,591,1748.8519878741354,1749.467573350761,"[83, 0, 171]",171,a,0.09238149877637625,colour,0.06
05,21,1,1,12,42,592,1751.4767775116488,1752.2274672328494,"[52, 0, 202]",202,l,0.2279414222575724,colour,0.06
05,21,1,1,12,43,593,1754.24242232088,1755.2114877537824,"[87, 0, 167]",167,a,0.44594613229855895,colour,0.06
05,21,1,1,12,44,594,1757.2268213271163,1758.0115069737658,"[81, 0, 173]",173,a,0.2617916255258024,colour,0.06
05,21,1,1,12,45,595,1760.023633071687,1760.7074711243622,"[57, 0, 197]",197,l,0.16041627852246165,colour,0.06
05,21,1,1,12,46,596,1762.7268971423618,1763.4755873116665,"[93, 0, 161]",161,a,0.22553975507616997,colour,0.06
05,21,1,1,12,47,597,1765.4932351186872,1766.2674661460333,"[75, 0, 179]",179,l,0.2518631829880178,colour,0.06
05,21,1,1,12,48,598,1768.2739350525662,1768.8354262919165,"[89, 0, 165]",165,a,0.03823527414351702,colour,0.06
05,21,1,1,12,49,599,1770.8520788522437,1771.8274143002927,"[82, 0, 172]",172,a,0.4520562458783388,colour,0.06
05,21,1,1,12,50,600,1773.8363490710035,1774.4514635088854,"[90, 0, 164]",164,a,0.09207863220945,colour,0.06
05,21,1,1,13,1,601,1781.819876498077,1782.6034215688705,"[90, 0, 164]",164,a,0.25947148306295276,colour,0.06
05,21,1,1,13,2,602,1784.6175417052582,1785.243395512458,"[55, 0, 199]",199,l,0.10246432851999998,colour,0.06
05,21,1,1,13,3,603,1787.2582115726545,1787.8834608276375,"[9, 0, 245]",245,l,0.10202322201803327,colour,0.06
05,21,1,1,13,4,604,1789.8988282713108,1791.1393983382732,"[70, 0, 184]",184,a,0.7172948033548892,colour,0.06
05,21,1,1,13,5,605,1793.1487824865617,1793.8274143002927,"[79, 0, 175]",175,a,0.15536639606580138,colour,0.06
05,21,1,1,13,6,606,1795.8361872006208,1796.6993996617384,"[65, 0, 189]",189,a,0.34009119076654315,colour,0.06
05,21,1,1,13,7,607,1798.7112071393058,1799.3793480996974,"[73, 0, 181]",181,a,0.14486963534727693,colour,0.06
05,21,1,1,13,8,608,1801.3986918036826,1802.083488081582,"[64, 0, 190]",190,a,0.16148674953728914,colour,0.06
05,21,1,1,13,9,609,1804.101853474509,1804.8994544851594,"[77, 0, 177]",177,a,0.27435646718367934,colour,0.06
05,21,1,1,13,10,610,1806.914311899338,1807.8913940503262,"[68, 0, 186]",186,a,0.45402586553245783,colour,0.06
05,21,1,1,13,11,611,1809.898639225401,1810.6113571547903,"[74, 0, 180]",180,a,0.18941667210310698,colour,0.06
05,21,1,1,13,12,612,1812.633017456159,1813.355406253133,"[93, 0, 161]",161,a,0.19911668403074145,colour,0.06
05,21,1,1,13,13,613,1815.3673555147834,1816.075333517976,"[58, 0, 196]",196,l,0.18462751526385546,colour,0.06
05,21,1,1,13,14,614,1818.0860776132904,1818.779329746496,"[96, 0, 158]",158,a,0.16988431615754962,colour,0.06
05,21,1,1,13,15,615,1820.7891349149868,1821.6993472804315,"[63, 0, 191]",191,l,0.38682918809354305,colour,0.06
05,21,1,1,13,16,616,1823.7110929242335,1824.483304313384,"[69, 0, 185]",185,l,0.24886405188590288,colour,0.06
05,21,1,1,13,17,617,1826.4922894965857,1827.40341755189,"[86, 0, 168]",168,a,0.3879744899459183,colour,0.06
05,21,1,1,13,18,618,1829.414196699392,1830.2113199760206,"[78, 0, 176]",176,a,0.2736688135191798,colour,0.06
05,21,1,1,13,19,619,1832.2266779672354,1833.123331819661,"[60, 0, 194]",194,a,0.37337189354002476,colour,0.06
05,21,1,1,13,20,620,1835.1328679919243,1835.9872921924107,"[67, 0, 187]",187,a,0.3310626847669482,colour,0.06
05,21,1,1,13,21,621,1838.0078347614035,1838.6992586650886,"[50, 0, 204]",204,l,0.16817030170932412,colour,0.06
05,21,1,1,13,22,622,1840.7109873737209,1841.3792256135494,"[98, 0, 156]",156,a,0.14495470561087132,colour,0.06
05,21,1,1,13,23,623,1843.3985897977836,1844.0832509868778,"[52, 0, 202]",202,l,0.1614678450860083,colour,0.06
05,21,1,1,13,24,624,1846.1017002686858,1846.6592703862116,"[66, 0, 188]",188,l,0.03443269990384579,colour,0.06
05,21,1,1,13,25,625,1848.6796735338867,1849.2992734736763,"[19, 0, 235]",235,l,0.09620337188243866,colour,0.06
05,21,1,1,13,26,626,1851.3203969644383,1851.8752424609847,"[53, 0, 201]",201,l,0.031639549881219864,colour,0.06
05,21,1,1,13,27,627,1853.8827534816228,1854.5312754400074,"[83, 0, 171]",171,a,0.1250190525315702,colour,0.06
05,21,1,1,13,28,628,1856.5390995675698,1857.2512314552441,"[88, 0, 166]",166,a,0.1888767103664577,colour,0.06
05,21,1,1,13,29,629,1859.2578417523764,1860.0592138296925,"[71, 0, 183]",183,a,0.2780956323258579,colour,0.06
05,21,1,1,13,30,630,1862.0702548846602,1862.8032589899376,"[62, 0, 192]",192,a,0.2097379001788795,colour,0.06
05,21,1,1,13,31,631,1864.8202585279942,1866.0992757580243,"[59, 0, 195]",195,l,0.7557423608377576,colour,0.06
05,21,1,1,13,32,632,1868.1170984325,1869.1234334316105,"[61, 0, 193]",193,a,0.48304870817810297,colour,0.06
05,21,1,1,13,33,633,1871.1326218387112,1871.8272918146104,"[57, 0, 197]",197,a,0.17115879897028208,colour,0.06
05,21,1,1,13,34,634,1873.8359044198878,1874.427206586115,"[89, 0, 165]",165,a,0.06837427383288741,colour,0.06
05,21,1,1,13,35,635,1876.445151746273,1877.1712391432375,"[54, 0, 200]",200,a,0.2027865331619978,colour,0.06
05,21,1,1,13,36,636,1879.1795866908506,1879.7391882613301,"[51, 0, 203]",203,l,0.03626919910311699,colour,0.06
05,21,1,1,13,37,637,1881.7576359682716,1882.4991490975954,"[72, 0, 182]",182,a,0.21814294951036572,colour,0.06
05,21,1,1,13,38,638,1884.5076333098114,1885.475157232955,"[56, 0, 198]",198,a,0.4442021860741079,colour,0.06
05,21,1,1,13,39,639,1887.4920224696398,1888.2031342983246,"[85, 0, 169]",169,a,0.1879602326080203,colour,0.06
05,21,1,1,13,40,640,1890.2107130605727,1890.8111878801137,"[75, 0, 179]",179,a,0.07712315022945404,colour,0.06
05,21,1,1,13,41,641,1892.8200304913335,1893.3871698640287,"[91, 0, 163]",163,a,0.04382078628987074,colour,0.06
05,21,1,1,13,42,642,1895.3981825620867,1896.3631141963415,"[87, 0, 167]",167,a,0.4416800015605986,colour,0.06
05,21,1,1,13,43,643,1898.3824055194855,1899.3631031690165,"[95, 0, 159]",159,a,0.4572144360281527,colour,0.06
05,21,1,1,13,44,644,1901.3825795990415,1902.2510786433704,"[97, 0, 157]",157,a,0.34543015575036407,colour,0.06
05,21,1,1,13,45,645,1904.2575124977157,1905.0911046527326,"[76, 0, 178]",178,a,0.3101329659111798,colour,0.06
05,21,1,1,13,46,646,1907.1012894883752,1907.9391040573828,"[94, 0, 160]",160,a,0.3145688441582024,colour,0.06
05,21,1,1,13,47,647,1909.9606611714698,1910.7551086638123,"[84, 0, 170]",170,a,0.27111709071323276,colour,0.06
05,21,1,1,13,48,648,1912.7731258976273,1913.587118349038,"[47, 0, 207]",207,l,0.29067071434110403,colour,0.06
05,21,1,1,13,49,649,1915.601227457635,1916.4511011713184,"[80, 0, 174]",174,a,0.3264621798880398,colour,0.06
05,21,1,1,13,50,650,1918.4605613318272,1919.32304675458,"[92, 0, 162]",162,a,0.33908215956762433,colour,0.06
05,21,1,1,14,1,651,1927.069154875353,1927.8110334929079,"[95, 0, 159]",159,a,0.21783299325034022,colour,0.06
05,21,1,1,14,2,652,1929.8199816546403,1930.6430652337149,"[85, 0, 169]",169,a,0.29980201413854957,colour,0.06
05,21,1,1,14,3,653,1932.663712171372,1933.3150221598335,"[46, 0, 208]",208,l,0.12798746349290013,colour,0.06
05,21,1,1,14,4,654,1935.3355103777722,1935.9710126034915,"[92, 0, 162]",162,a,0.11218875925987959,colour,0.06
05,21,1,1,14,5,655,1937.9917457932606,1938.59505866142,"[93, 0, 161]",161,a,0.08009786298498511,colour,0.06
05,21,1,1,14,6,656,1940.6167406239547,1941.3789778850041,"[57, 0, 197]",197,l,0.23898168979212642,colour,0.06
05,21,1,1,14,7,657,1943.398013996426,1944.091016431339,"[90, 0, 164]",164,a,0.1696901498362422,colour,0.06
05,21,1,1,14,8,658,1946.1011303747073,1946.76299462514,"[75, 0, 179]",179,a,0.138562205247581,colour,0.06
05,21,1,1,14,9,659,1948.7730089258403,1949.443045068998,"[77, 0, 177]",177,a,0.14672976592555642,colour,0.06
05,21,1,1,14,10,660,1951.4604565687478,1952.0670084189624,"[13, 0, 241]",241,l,0.08319860510528088,colour,0.06
05,21,1,1,14,11,661,1954.0854293443263,1955.0669757300057,"[83, 0, 171]",171,a,0.4582533990032971,colour,0.06
05,21,1,1,14,12,662,1957.086174893193,1957.938983540982,"[84, 0, 170]",170,a,0.3306227601133287,colour,0.06
05,21,1,1,14,13,663,1959.9604303780943,1960.8509540306404,"[58, 0, 196]",196,l,0.3672290905378759,colour,0.06
05,21,1,1,14,14,664,1962.8666341872886,1963.6349512361921,"[47, 0, 207]",207,l,0.2450665975920856,colour,0.06
05,21,1,1,14,15,665,1965.6477961014025,1966.4109837110154,"[55, 0, 199]",199,a,0.23983318312093616,colour,0.06
05,21,1,1,14,16,666,1968.4290911355056,1969.2349672261626,"[59, 0, 195]",195,a,0.2825488396920264,colour,0.06
05,21,1,1,14,17,667,1971.241594852414,1972.0829047970474,"[62, 0, 192]",192,a,0.31806894578039646,colour,0.06
05,21,1,1,14,18,668,1974.1009480245411,1974.682942842599,"[96, 0, 158]",158,a,0.058666779194027185,colour,0.06
05,21,1,1,14,19,669,1976.6946609169245,1977.8189277248457,"[67, 0, 187]",187,l,0.6009970582090318,colour,0.06
05,21,1,1,14,20,670,1979.8353215293027,1980.3709233580157,"[89, 0, 165]",165,a,0.01249828189611435,colour,0.06
05,21,1,1,14,21,671,1982.382115649525,1983.2429213225842,"[82, 0, 172]",172,a,0.33776829205453396,colour,0.06
05,21,1,1,14,22,672,1985.257074541878,1986.1069084769115,"[72, 0, 182]",182,a,0.3264535148628056,colour,0.06
05,21,1,1,14,23,673,1988.116427714005,1988.8268798524514,"[65, 0, 189]",189,a,0.18781135929748416,colour,0.06
05,21,1,1,14,24,674,1990.8351825019345,1991.5309190098196,"[56, 0, 198]",198,l,0.17254670895636082,colour,0.06
05,21,1,1,14,25,675,1993.5383630772121,1994.4349101972766,"[63, 0, 191]",191,a,0.3732651611790061,colour,0.06
05,21,1,1,14,26,676,1996.444616904948,1997.0108630368486,"[76, 0, 178]",178,a,0.04298110865056515,colour,0.06
05,21,1,1,14,27,677,1999.0227276217192,1999.8028879878111,"[70, 0, 184]",184,a,0.2568256319500506,colour,0.06
05,21,1,1,14,28,678,2001.8194976188242,2003.2428531874903,"[78, 0, 176]",176,a,0.9000428896397352,colour,0.06
05,21,1,1,14,29,679,2005.2570284618996,2006.6749615706503,"[98, 0, 156]",156,a,0.8945133038796484,colour,0.06
05,21,1,1,14,30,680,2008.6944817174226,2009.4748047413304,"[66, 0, 188]",188,l,0.2569851391017437,colour,0.06
05,21,1,1,14,31,681,2011.4914163420908,2012.4908145465888,"[52, 0, 202]",202,l,0.4762056488543749,colour,0.06
05,21,1,1,14,32,682,2014.5069826776162,2015.8588624410331,"[69, 0, 185]",185,a,0.8285607830621302,colour,0.06
05,21,1,1,14,33,683,2017.8664002437145,2018.7154256147332,"[74, 0, 180]",180,a,0.3257985506206751,colour,0.06
05,21,1,1,14,34,684,2020.7256301422603,2021.346781832166,"[71, 0, 183]",183,a,0.0979315647855401,colour,0.06
05,21,1,1,14,35,685,2023.366289769765,2024.0588507046923,"[68, 0, 186]",186,a,0.16922344360500574,colour,0.06
05,21,1,1,14,36,686,2026.0694156005047,2026.7548538460396,"[51, 0, 203]",203,l,0.16205821884796023,colour,0.06
05,21,1,1,14,37,687,2028.772546551656,2029.3948100660928,"[91, 0, 163]",163,a,0.09892326686531305,colour,0.06
05,21,1,1,14,38,688,2031.4131549792364,2032.0347804646008,"[53, 0, 201]",201,l,0.09822104079648852,colour,0.06
05,21,1,1,14,39,689,2034.0538232713006,2034.5948002985679,"[50, 0, 204]",204,l,0.017693099100142717,colour,0.06
05,21,1,1,14,40,690,2036.6163062127307,2037.4027539226227,"[87, 0, 167]",167,a,0.2632157690823078,colour,0.06
05,21,1,1,14,41,691,2039.4130769977346,2040.034743837081,"[54, 0, 200]",200,l,0.09818677604198456,colour,0.06
05,21,1,1,14,42,692,2042.0538157881238,2042.674811121542,"[61, 0, 193]",193,l,0.09770904202014208,colour,0.06
05,21,1,1,14,43,693,2044.694382862188,2045.3467767122202,"[86, 0, 168]",168,a,0.1291296142153442,colour,0.06
05,21,1,1,14,44,694,2047.3661983977072,2047.9067524354905,"[60, 0, 194]",194,l,0.017172435764223337,colour,0.06
05,21,1,1,14,45,695,2049.9130697115324,2050.4427402326837,"[81, 0, 173]",173,a,0.006384229753166437,colour,0.06
05,21,1,1,14,46,696,2052.460011130199,2053.010745671112,"[97, 0, 157]",157,l,0.027599486522376537,colour,0.06
05,21,1,1,14,47,697,2055.0225157332607,2056.4027165076695,"[80, 0, 174]",174,a,0.8570483908988535,colour,0.06
05,21,1,1,14,48,698,2058.413083299529,2059.034746987745,"[94, 0, 160]",160,a,0.09838488046079874,colour,0.06
05,21,1,1,14,49,699,2061.053620834835,2061.9146852646954,"[79, 0, 175]",175,a,0.33812472224235535,colour,0.06
05,21,1,1,14,50,700,2063.9285360104404,2064.4986965693533,"[99, 0, 155]",155,a,0.046636778861284256,colour,0.06
05,21,1,1,15,1,701,2071.896492769476,2072.875076652039,"[65, 0, 189]",189,a,0.45440947031602263,colour,0.06
05,21,1,1,15,2,702,2074.8816294474527,2075.7707041436806,"[75, 0, 179]",179,a,0.3657265710644424,colour,0.06
05,21,1,1,15,3,703,2077.7879458968528,2078.3786498121917,"[61, 0, 193]",193,l,0.06732900906354189,colour,0.06
05,21,1,1,15,4,704,2080.3972255182452,2081.6826679385267,"[3, 0, 251]",251,l,0.7620620001107454,colour,0.06
05,21,1,1,15,5,705,2083.694139859639,2084.4346443517134,"[52, 0, 202]",202,l,0.21725601004436612,colour,0.06
05,21,1,1,15,6,706,2086.4441281431355,2087.058659296017,"[72, 0, 182]",182,a,0.09120232658460736,colour,0.06
05,21,1,1,15,7,707,2089.0691387276165,2089.7386522381566,"[64, 0, 190]",190,a,0.14614569349214435,colour,0.06
05,21,1,1,15,8,708,2091.756553287618,2092.3706220663153,"[84, 0, 170]",170,a,0.0906261308118701,colour,0.06
05,21,1,1,15,9,709,2094.3816087706946,2094.970641601365,"[80, 0, 174]",174,a,0.06582058221101761,colour,0.06
05,21,1,1,15,10,710,2096.9909226568416,2097.8265655641444,"[92, 0, 162]",162,a,0.3124011205509305,colour,0.06
05,21,1,1,15,11,711,2099.834741789382,2100.4025806309655,"[95, 0, 159]",159,a,0.04489283263683319,colour,0.06
05,21,1,1,15,12,712,2102.412818241399,2103.2106130239554,"[67, 0, 187]",187,l,0.27440372854471207,colour,0.06
05,21,1,1,15,13,713,2105.2252459465526,2106.08259602217,"[73, 0, 181]",181,l,0.3341394029557705,colour,0.06
05,21,1,1,15,14,714,2108.1002115341835,2108.9705714969896,"[79, 0, 175]",175,a,0.34700750559568405,colour,0.06
05,21,1,1,15,15,715,2110.990865155589,2111.6105800983496,"[41, 0, 213]",213,l,0.09640108235180378,colour,0.06
05,21,1,1,15,16,716,2113.6314775217324,2114.3145794775337,"[97, 0, 157]",157,a,0.1597888832911849,colour,0.06
05,21,1,1,15,17,717,2116.334567512851,2117.922554290388,"[71, 0, 183]",183,a,1.0646378654055297,colour,0.06
05,21,1,1,15,18,718,2119.9439144819044,2120.682553329505,"[82, 0, 172]",172,a,0.2153123840689659,colour,0.06
05,21,1,1,15,19,719,2122.693963811267,2123.6825745971873,"[83, 0, 171]",171,a,0.4653134671971202,colour,0.06
05,21,1,1,15,20,720,2125.6939015835524,2126.4745633141138,"[93, 0, 161]",161,a,0.25741797452792525,colour,0.06
05,21,1,1,15,21,721,2128.490776343737,2129.058593917638,"[50, 0, 204]",204,l,0.044531676918268204,colour,0.06
05,21,1,1,15,22,722,2131.068956770934,2131.8585355496034,"[85, 0, 169]",169,a,0.26630075788125396,colour,0.06
05,21,1,1,15,23,723,2133.8657165281475,2134.498520127032,"[53, 0, 201]",201,l,0.10943184327334166,colour,0.06
05,21,1,1,15,24,724,2136.506376943551,2137.242508572992,"[69, 0, 185]",185,a,0.21280713519081473,colour,0.06
05,21,1,1,15,25,725,2139.256327417679,2139.914504883345,"[66, 0, 188]",188,a,0.13527753669768572,colour,0.06
05,21,1,1,15,26,726,2141.928185882047,2142.6825056741945,"[87, 0, 167]",167,a,0.2308991993777454,colour,0.06
05,21,1,1,15,27,727,2144.6938476269133,2145.314506222494,"[55, 0, 199]",199,l,0.09736876003444195,colour,0.06
05,21,1,1,15,28,728,2147.3344753528945,2147.9064424792305,"[63, 0, 191]",191,l,0.04872100753709674,colour,0.06
05,21,1,1,15,29,729,2149.912563620601,2150.5144302891567,"[88, 0, 166]",166,a,0.07862015580758452,colour,0.06
05,21,1,1,15,30,730,2152.521907832939,2153.4345147768036,"[99, 0, 155]",155,a,0.3892611819319427,colour,0.06
05,21,1,1,15,31,731,2155.443768168334,2156.0184630663134,"[54, 0, 200]",200,l,0.051338108256459236,colour,0.06
05,21,1,1,15,32,732,2158.037523596082,2158.5704370378517,"[62, 0, 192]",192,l,0.009557833895087242,colour,0.06
05,21,1,1,15,33,733,2160.584333076142,2161.1624737256207,"[90, 0, 164]",164,a,0.05476731853559613,colour,0.06
05,21,1,1,15,34,734,2163.1780735380016,2163.994448752608,"[57, 0, 197]",197,l,0.2931637540459633,colour,0.06
05,21,1,1,15,35,735,2166.0061699780636,2166.986401314847,"[94, 0, 160]",160,a,0.4568477659486234,colour,0.06
05,21,1,1,15,36,736,2169.006134925876,2169.7544095888734,"[74, 0, 180]",180,a,0.22532865405082703,colour,0.06
05,21,1,1,15,37,737,2171.7718431442045,2172.778419570066,"[56, 0, 198]",198,l,0.4832625659182668,colour,0.06
05,21,1,1,15,38,738,2174.787390574813,2175.3784028710797,"[96, 0, 158]",158,a,0.06770158652216196,colour,0.06
05,21,1,1,15,39,739,2177.396766295191,2178.0904225129634,"[89, 0, 165]",165,a,0.17027776688337326,colour,0.06
05,21,1,1,15,40,740,2180.099858649075,2182.250394928269,"[86, 0, 168]",168,a,1.6272677113302052,colour,0.06
05,21,1,1,15,41,741,2184.2717594518326,2185.826395422686,"[98, 0, 156]",156,a,1.0313666150905192,colour,0.06
05,21,1,1,15,42,742,2187.8342679934576,2188.4503615302965,"[60, 0, 194]",194,l,0.09312822949141264,colour,0.06
05,21,1,1,15,43,743,2190.4592258026823,2191.3303683358245,"[68, 0, 186]",186,l,0.3481110595166683,colour,0.06
05,21,1,1,15,44,744,2193.3498498857953,2193.8983859829605,"[58, 0, 196]",196,l,0.025301793590188026,colour,0.06
05,21,1,1,15,45,745,2195.912319830619,2196.5863554710522,"[77, 0, 177]",177,a,0.15070838946849108,colour,0.06
05,21,1,1,15,46,746,2198.5997828338295,2200.146350493189,"[91, 0, 163]",163,a,1.0233459589071572,colour,0.06
05,21,1,1,15,47,747,2202.16232485231,2203.0024351445027,"[70, 0, 184]",184,a,0.31680745957419276,colour,0.06
05,21,1,1,15,48,748,2205.0216406090185,2205.674336932134,"[78, 0, 176]",176,a,0.12935449974611402,colour,0.06
05,21,1,1,15,49,749,2207.69354515383,2208.4263621824794,"[4, 0, 250]",250,l,0.20958548225462437,colour,0.06
05,21,1,1,15,50,750,2210.4435464334674,2215.754458031617,"[51, 0, 203]",203,l,4.787906512152404,colour,0.06
05,21,1,1,16,1,751,2223.1614044359885,2223.802336210385,"[99, 0, 155]",155,a,0.11677193455398083,colour,0.06
05,21,1,1,16,2,752,2225.81839012634,2226.538296910934,"[53, 0, 201]",201,l,0.19681190233677626,colour,0.06
05,21,1,1,16,3,753,2228.55277859699,2229.0902547352016,"[58, 0, 196]",196,l,0.014134314842522144,colour,0.06
05,21,1,1,16,4,754,2231.099648335483,2231.658286954742,"[91, 0, 163]",163,a,0.03542479546740651,colour,0.06
05,21,1,1,16,5,755,2233.6777503881603,2234.5302632576786,"[93, 0, 161]",161,a,0.32917616656050086,colour,0.06
05,21,1,1,16,6,756,2236.5370173081756,2237.1862659109756,"[56, 0, 198]",198,l,0.12647943012416363,colour,0.06
05,21,1,1,16,7,757,2239.1933641820215,2239.794270262122,"[37, 0, 217]",217,l,0.07762805977836251,colour,0.06
05,21,1,1,16,8,758,2241.802727298811,2242.522261111997,"[97, 0, 157]",157,a,0.19626563880592585,colour,0.06
05,21,1,1,16,9,759,2244.5370444837026,2245.0662530241534,"[47, 0, 207]",207,l,0.006542555522173643,colour,0.06
05,21,1,1,16,10,760,2247.084022135474,2247.7782257986255,"[75, 0, 179]",179,a,0.17104458389803767,colour,0.06
05,21,1,1,16,11,761,2249.787016422022,2250.3462434457615,"[79, 0, 175]",175,a,0.035864326637238264,colour,0.06
05,21,1,1,16,12,762,2252.365067668259,2252.946216112934,"[89, 0, 165]",165,a,0.05773572903126478,colour,0.06
05,21,1,1,16,13,763,2254.9588483022526,2255.634179693181,"[82, 0, 172]",172,a,0.15216364711523056,colour,0.06
05,21,1,1,16,14,764,2257.6463565975428,2258.4262030688114,"[54, 0, 200]",200,l,0.2570142834447324,colour,0.06
05,21,1,1,16,15,765,2260.4431218686514,2261.0182401500642,"[88, 0, 166]",166,a,0.05160198453813791,colour,0.06
05,21,1,1,16,16,766,2263.036992298905,2263.586435027886,"[55, 0, 199]",199,l,0.026114690117537975,colour,0.06
05,21,1,1,16,17,767,2265.5993665396236,2266.2982801962644,"[66, 0, 188]",188,a,0.17553363041952252,colour,0.06
05,21,1,1,16,18,768,2268.3183024958707,2268.9301358093508,"[72, 0, 182]",182,a,0.08873449265956879,colour,0.06
05,21,1,1,16,19,769,2270.9431724776514,2271.5221787984483,"[63, 0, 191]",191,a,0.05572751257568598,colour,0.06
05,21,1,1,16,20,770,2273.5369318439625,2274.1621661325917,"[98, 0, 156]",156,a,0.10249819932505488,colour,0.06
05,21,1,1,16,21,771,2276.1775705977343,2276.8421712839045,"[62, 0, 192]",192,a,0.1412809183821082,colour,0.06
05,21,1,1,16,22,772,2278.849436545279,2279.4501445214264,"[95, 0, 159]",159,a,0.07751030009239912,colour,0.06
05,21,1,1,16,23,773,2281.458723650314,2282.082122620661,"[85, 0, 169]",169,a,0.10025761416181922,colour,0.06
05,21,1,1,16,24,774,2284.099383671768,2284.738100461196,"[86, 0, 168]",168,a,0.11540253553539515,colour,0.06
05,21,1,1,16,25,775,2286.7555296840146,2287.706064309459,"[92, 0, 162]",162,a,0.4271931955590844,colour,0.06
05,21,1,1,16,26,776,2289.724298945628,2290.6661083255894,"[60, 0, 194]",194,a,0.4185152119025588,colour,0.06
05,21,1,1,16,27,777,2292.6774179828353,2293.538136616349,"[76, 0, 178]",178,a,0.33738823188468814,colour,0.06
05,21,1,1,16,28,778,2295.552483213134,2296.5141833480448,"[84, 0, 170]",170,a,0.43846858805045485,colour,0.06
05,21,1,1,16,29,779,2298.5211886717007,2299.2180874170735,"[83, 0, 171]",171,a,0.17357464507222176,colour,0.06
05,21,1,1,16,30,780,2301.224291659426,2302.1781637286767,"[61, 0, 193]",193,l,0.4306562761776149,colour,0.06
05,21,1,1,16,31,781,2304.19299593661,2304.7460722806863,"[68, 0, 186]",186,l,0.02992356661707163,colour,0.06
05,21,1,1,16,32,782,2306.755452096928,2307.4100963776,"[73, 0, 181]",181,l,0.1312961559742689,colour,0.06
05,21,1,1,16,33,783,2309.427401539404,2310.0101088234223,"[50, 0, 204]",204,l,0.05948715843260288,colour,0.06
05,21,1,1,16,34,784,2312.0210892260075,2312.562047742773,"[59, 0, 195]",195,l,0.01759109366685152,colour,0.06
05,21,1,1,16,35,785,2314.5834926106036,2315.194078223314,"[64, 0, 190]",190,l,0.0872248844243586,colour,0.06
05,21,1,1,16,36,786,2317.2086008689366,2318.4900571824983,"[74, 0, 180]",180,a,0.7583582801744342,colour,0.06
05,21,1,1,16,37,787,2320.5056593576446,2321.0980536565185,"[81, 0, 173]",173,a,0.06926948390901089,colour,0.06
05,21,1,1,16,38,788,2323.114727484528,2323.7460462870076,"[65, 0, 189]",189,a,0.10794350225478411,colour,0.06
05,21,1,1,16,39,789,2325.755415862892,2326.3620559345,"[52, 0, 202]",202,l,0.0833419649861753,colour,0.06
05,21,1,1,16,40,790,2328.380562324077,2328.9460341567174,"[77, 0, 177]",177,a,0.0423096027225256,colour,0.06
05,21,1,1,16,41,791,2330.958495810628,2331.6339827706106,"[69, 0, 185]",185,a,0.15284145483747125,colour,0.06
05,21,1,1,16,42,792,2333.646016315557,2334.314050149638,"[67, 0, 187]",187,a,0.1446935865096748,colour,0.06
05,21,1,1,16,43,793,2336.3335202783346,2337.2020008121617,"[96, 0, 158]",158,a,0.34520054422318935,colour,0.06
05,21,1,1,16,44,794,2339.208451207727,2340.3699611942284,"[4, 0, 250]",250,l,0.6383268828503788,colour,0.06
05,21,1,1,16,45,795,2342.380584379658,2343.1060353224166,"[87, 0, 167]",167,a,0.20271879201754928,colour,0.06
05,21,1,1,16,46,796,2345.1146400510333,2345.6820149431005,"[90, 0, 164]",164,a,0.044075210113078356,colour,0.06
05,21,1,1,16,47,797,2347.6928137834184,2348.5060524153523,"[94, 0, 160]",160,a,0.2904336196370423,colour,0.06
05,21,1,1,16,48,798,2350.520989386365,2351.1939600696787,"[70, 0, 184]",184,l,0.14980136416852474,colour,0.06
05,21,1,1,16,49,799,2353.208317694254,2353.882000449579,"[71, 0, 183]",183,l,0.1504535716958344,colour,0.06
05,21,1,1,16,50,800,2355.8958401679993,2356.4499519313686,"[51, 0, 203]",203,l,0.030798690393567085,colour,0.06
