id,age,condition,counterbalance,block,trialinblock,trial,tstart,tend,trialstim,trialintensity,response,RT,trialtype,colourfreq
04,23,1,1,Practice,1,NA,5.907611921429634e-06,1.139877254376188,"[71, 0, 183]",183,a,0.6155913842376322,colour,0.5
04,23,1,1,Practice,2,NA,3.157104434678331,6.515847737900913,"[20, 0, 234]",234,a,2.835385332116857,colour,0.5
04,23,1,1,Practice,3,NA,8.532096607144922,9.651831045281142,"[45, 0, 209]",209,a,0.5964375131297857,colour,0.5
04,23,1,1,Practice,4,NA,11.67262882576324,12.47576690511778,"[36, 0, 218]",218,a,0.2796347795519978,colour,0.5
04,23,1,1,Practice,5,NA,14.485103004379198,15.339811560930684,"[64, 0, 190]",190,a,0.3315896496642381,colour,0.5
04,23,1,1,Practice,6,NA,17.360483311116695,18.155758272157982,"[28, 0, 226]",226,a,0.27232304448261857,colour,0.5
04,23,1,1,Practice,7,NA,20.172618782846257,20.907765011535957,"[69, 0, 185]",185,a,0.21175635629333556,colour,0.5
04,23,1,1,Practice,8,NA,22.92267047497444,23.539765953551978,"[43, 0, 211]",211,a,0.0937816184014082,colour,0.5
04,23,1,1,Practice,9,NA,25.54754281998612,26.139897340442985,"[93, 0, 161]",161,l,0.06904774950817227,colour,0.5
04,23,1,1,Practice,10,NA,28.156903179828078,28.923850435065106,"[73, 0, 181]",181,a,0.24357825657352805,colour,0.5
04,23,1,1,1,1,1,6.1450964899268,6.90401521185413,"[37, 0, 217]",217,a,0.2348096880596131,colour,0.5
04,23,1,1,1,2,2,8.911467155907303,9.640021204482764,"[81, 0, 173]",173,l,0.2054052094463259,colour,0.5
04,23,1,1,1,3,3,11.661445986712351,12.43995456607081,"[31, 0, 223]",223,a,0.25521834986284375,colour,0.5
04,23,1,1,1,4,4,14.458439687965438,15.207926212344319,"[88, 0, 166]",166,l,0.22617542115040123,colour,0.5
04,23,1,1,1,5,5,17.224028571043164,17.856044873129576,"[84, 0, 170]",170,l,0.10869614034891129,colour,0.5
04,23,1,1,1,6,6,19.864664567867294,20.607957089785486,"[87, 0, 167]",167,l,0.22002671053633094,colour,0.5
04,23,1,1,1,7,7,22.614553208230063,23.391923181246966,"[64, 0, 190]",190,a,0.25394347310066223,colour,0.5
04,23,1,1,1,8,8,25.411461838986725,26.167964320629835,"[70, 0, 184]",184,a,0.23323706444352865,colour,0.5
04,23,1,1,1,9,9,28.177117675775662,28.943882580613717,"[59, 0, 195]",195,a,0.24351563514210284,colour,0.5
04,23,1,1,1,10,10,30.95833394047804,31.703898160951212,"[69, 0, 185]",185,a,0.22217198507860303,colour,0.5
04,23,1,1,1,11,11,33.7239196728915,34.46391177223995,"[36, 0, 218]",218,a,0.21656993171200156,colour,0.5
04,23,1,1,1,12,12,36.473869753070176,37.18392331991345,"[82, 0, 172]",172,l,0.18667275295592844,colour,0.5
04,23,1,1,1,13,13,39.19266392523423,39.927920430665836,"[27, 0, 227]",227,a,0.2119729712139815,colour,0.5
04,23,1,1,1,14,14,41.94269238039851,42.69606024888344,"[63, 0, 191]",191,a,0.23015916463918984,colour,0.5
04,23,1,1,1,15,15,44.70830331905745,45.43192248814739,"[66, 0, 188]",188,a,0.20081336912699044,colour,0.5
04,23,1,1,1,16,16,47.44261341448873,48.183865818427876,"[12, 0, 242]",242,a,0.21789088821969926,colour,0.5
04,23,1,1,1,17,17,50.192591457627714,50.951850067824125,"[47, 0, 207]",207,a,0.2359608975239098,colour,0.5
04,23,1,1,1,18,18,52.95824729441665,53.60787005000748,"[4, 0, 250]",250,a,0.12638845201581717,colour,0.5
04,23,1,1,1,19,19,55.614385823952034,56.31985621503554,"[49, 0, 205]",205,a,0.1820667339488864,colour,0.5
04,23,1,1,1,20,20,58.33309335028753,58.92783260322176,"[60, 0, 194]",194,a,0.07130369450896978,colour,0.5
04,23,1,1,1,21,21,60.94281447236426,61.58384037599899,"[91, 0, 163]",163,l,0.11800348851829767,colour,0.5
04,23,1,1,1,22,22,63.598792707081884,64.23186372639611,"[46, 0, 208]",208,a,0.10973982978612185,colour,0.5
04,23,1,1,1,23,23,66.23940389160998,66.96793470345438,"[30, 0, 224]",224,a,0.20514172711409628,colour,0.5
04,23,1,1,1,24,24,68.98936933185905,69.65583487483673,"[67, 0, 187]",187,a,0.14315562113188207,colour,0.5
04,23,1,1,1,25,25,71.67666258756071,72.27991322800517,"[43, 0, 211]",211,a,0.08013685327023268,colour,0.5
04,23,1,1,1,26,26,74.29210115992464,74.93613092042506,"[78, 0, 176]",176,l,0.12050991924479604,colour,0.5
04,23,1,1,1,27,27,76.9485484638717,78.87199953990057,"[19, 0, 235]",235,a,1.4001604525838047,colour,0.5
04,23,1,1,1,28,28,80.88592669204809,81.63981167902239,"[90, 0, 164]",164,l,0.23069085576571524,colour,0.5
04,23,1,1,1,29,29,83.65163569780998,84.37579049635679,"[20, 0, 234]",234,a,0.20099808229133487,colour,0.5
04,23,1,1,1,30,30,86.385848907521,87.11193118407391,"[24, 0, 230]",230,a,0.20268689026124775,colour,0.5
04,23,1,1,1,31,31,89.12021729210392,89.86380165326409,"[5, 0, 249]",249,a,0.22034060512669384,colour,0.5
04,23,1,1,1,32,32,91.87022763071582,92.63174021663144,"[52, 0, 202]",202,a,0.2382991563063115,colour,0.5
04,23,1,1,1,33,33,94.65149785205722,95.35973539901897,"[9, 0, 245]",245,a,0.18492171727120876,colour,0.5
04,23,1,1,1,34,34,97.37016717530787,98.07177315768786,"[56, 0, 198]",198,a,0.17834962345659733,colour,0.5
04,23,1,1,1,35,35,100.08900348911993,100.7917740715202,"[40, 0, 214]",214,a,0.1795662110671401,colour,0.5
04,23,1,1,1,36,36,102.80765351396985,103.54375048493966,"[29, 0, 225]",225,a,0.2127256093081087,colour,0.5
04,23,1,1,1,37,37,105.55758153856732,106.2400639760308,"[75, 0, 179]",179,l,0.15896653453819454,colour,0.5
04,23,1,1,1,38,38,108.25076789944433,108.83172375382856,"[38, 0, 216]",216,a,0.057659323094412684,colour,0.5
04,23,1,1,1,39,39,110.84436657675542,111.4477302506566,"[6, 0, 248]",248,a,0.07996946922503412,colour,0.5
04,23,1,1,1,40,40,113.46943426900543,114.10376126039773,"[55, 0, 199]",199,a,0.11168266786262393,colour,0.5
04,23,1,1,1,41,41,116.1101206780877,116.72771673393436,"[93, 0, 161]",161,l,0.09417506982572377,colour,0.5
04,23,1,1,1,42,42,118.73505603824742,119.48002240178175,"[99, 0, 155]",155,l,0.22157412813976407,colour,0.5
04,23,1,1,1,43,43,121.50067642889917,122.25571144372225,"[86, 0, 168]",168,l,0.23165105003863573,colour,0.5
04,23,1,1,1,44,44,124.26632241974585,125.00766265112907,"[15, 0, 239]",239,a,0.217970839003101,colour,0.5
04,23,1,1,1,45,45,127.01622287533246,127.75168102956377,"[33, 0, 221]",221,a,0.21206906950101256,colour,0.5
04,23,1,1,1,46,46,129.76623124442995,130.5037295166403,"[10, 0, 244]",244,a,0.21408201195299625,colour,0.5
04,23,1,1,1,47,47,132.51624000747688,133.26369744190015,"[53, 0, 201]",201,a,0.22408016491681337,colour,0.5
04,23,1,1,1,48,48,135.28187024453655,135.95164093608037,"[96, 0, 158]",158,l,0.146335527068004,colour,0.5
04,23,1,1,1,49,49,137.96934545692056,138.7116187075153,"[32, 0, 222]",222,a,0.21894166735000908,colour,0.5
04,23,1,1,1,50,50,140.71934791840613,141.43963397596963,"[26, 0, 228]",228,a,0.19752988195978105,colour,0.5
04,23,1,1,2,1,51,153.68721566838212,154.42390931467526,"[19, 0, 235]",235,a,0.21278626145794988,colour,0.5
04,23,1,1,2,2,52,156.43782662064768,157.16759686311707,"[66, 0, 188]",188,l,0.20648080063983798,colour,0.5
04,23,1,1,2,3,53,159.18799607246183,159.91160382004455,"[80, 0, 174]",174,l,0.2004986866377294,colour,0.5
04,23,1,1,2,4,54,161.92422498157248,162.68758745817468,"[55, 0, 199]",199,a,0.24028886179439723,colour,0.5
04,23,1,1,2,5,55,164.70553931384347,165.27156016626395,"[25, 0, 229]",229,a,0.04327137232758105,colour,0.5
04,23,1,1,2,6,56,167.28371225832961,167.90357213607058,"[24, 0, 230]",230,a,0.09656964824534953,colour,0.5
04,23,1,1,2,7,57,169.9242474308703,170.68755713198334,"[61, 0, 193]",193,a,0.23990525654517114,colour,0.5
04,23,1,1,2,8,58,172.70545306173153,173.42357887863182,"[79, 0, 175]",175,l,0.19542911206372082,colour,0.5
04,23,1,1,2,9,59,175.4398998215329,176.15156106418,"[10, 0, 244]",244,a,0.18837849609553814,colour,0.5
04,23,1,1,2,10,60,178.15855102799833,178.86358031234704,"[38, 0, 216]",216,a,0.18159411987289786,colour,0.5
04,23,1,1,2,11,61,180.87731290468946,181.81551978294738,"[68, 0, 186]",186,l,0.41491349786520004,colour,0.5
04,23,1,1,2,12,62,183.83049889537506,184.59954928350635,"[97, 0, 157]",157,l,0.2458633459173143,colour,0.5
04,23,1,1,2,13,63,186.61173682147637,187.3435649049934,"[49, 0, 205]",205,a,0.20852013071998954,colour,0.5
04,23,1,1,2,14,64,189.36165578803048,190.03958104318008,"[53, 0, 201]",201,a,0.15454798587597907,colour,0.5
04,23,1,1,2,15,65,192.0491892893333,192.77564965724014,"[94, 0, 160]",160,l,0.20320361503399909,colour,0.5
04,23,1,1,2,16,66,194.78344976040535,195.31180838332511,"[62, 0, 192]",192,a,0.005307457176968455,colour,0.5
04,23,1,1,2,17,67,197.33037266810425,198.0075070823077,"[9, 0, 245]",245,a,0.15376817248761654,colour,0.5
04,23,1,1,2,18,68,200.0178573327139,200.66346601839177,"[81, 0, 173]",173,l,0.12223732401616871,colour,0.5
04,23,1,1,2,19,69,202.67407384351827,203.39947791886516,"[95, 0, 159]",159,l,0.20237023895606399,colour,0.5
04,23,1,1,2,20,70,205.40841741580516,206.07947440561838,"[11, 0, 243]",243,a,0.1479660456534475,colour,0.5
04,23,1,1,2,21,71,208.0959371328354,208.75947798183188,"[23, 0, 231]",231,a,0.14020729647018015,colour,0.5
04,23,1,1,2,22,72,210.76802481524646,211.4794777140487,"[42, 0, 212]",212,a,0.18832611478865147,colour,0.5
04,23,1,1,2,23,73,213.4865200589411,214.43145223683678,"[67, 0, 187]",187,l,0.42160020070150495,colour,0.5
04,23,1,1,2,24,74,216.4397060496267,217.14344746037386,"[82, 0, 172]",172,l,0.18050671322271228,colour,0.5
04,23,1,1,2,25,75,219.15842617908493,219.86344167869538,"[3, 0, 251]",251,a,0.18173235934227705,colour,0.5
04,23,1,1,2,26,76,221.8772006588988,222.5915136609692,"[28, 0, 226]",226,a,0.19110035989433527,colour,0.5
04,23,1,1,2,27,77,224.61138314870186,225.4394083027728,"[2, 0, 252]",252,a,0.3046002294868231,colour,0.5
04,23,1,1,2,28,78,227.45521212695166,228.03945461893454,"[39, 0, 215]",215,a,0.06110822502523661,colour,0.5
04,23,1,1,2,29,79,230.04900221293792,230.59942561620846,"[58, 0, 196]",196,a,0.027439585188403726,colour,0.5
04,23,1,1,2,30,80,232.6114205638878,233.38341927691363,"[4, 0, 250]",250,a,0.24890422448515892,colour,0.5
04,23,1,1,2,31,81,235.39270299463533,236.08741393010132,"[13, 0, 241]",241,a,0.1713435121346265,colour,0.5
04,23,1,1,2,32,82,238.0957969238516,238.87139538140036,"[17, 0, 237]",237,a,0.2523432800080627,colour,0.5
04,23,1,1,2,33,83,240.89273548685014,241.60744075872935,"[89, 0, 165]",165,l,0.1913957439828664,colour,0.5
04,23,1,1,2,34,84,243.6269995025359,244.63940247381106,"[36, 0, 218]",218,a,0.48905799724161625,colour,0.5
04,23,1,1,2,35,85,246.6582456009928,247.4473434947431,"[85, 0, 169]",169,l,0.26570368907414377,colour,0.5
04,23,1,1,2,36,86,249.45513532706536,250.1353346442338,"[96, 0, 158]",158,l,0.15703590563498437,colour,0.5
04,23,1,1,2,37,87,252.1425841518212,252.81536460807547,"[6, 0, 248]",248,a,0.149381919298321,colour,0.5
04,23,1,1,2,38,88,254.8299786259886,255.5673898581881,"[54, 0, 200]",200,a,0.213943378534168,colour,0.5
04,23,1,1,2,39,89,257.58003465039656,258.5114595151972,"[56, 0, 198]",198,a,0.4081015521660447,colour,0.5
04,23,1,1,2,40,90,260.5331733797211,261.2713368560653,"[51, 0, 203]",203,a,0.21480196085758507,colour,0.5
04,23,1,1,2,41,91,263.2831006166525,264.159309967421,"[69, 0, 185]",185,a,0.35313376667909324,colour,0.5
04,23,1,1,2,42,92,266.1738152841572,266.83130115806125,"[8, 0, 246]",246,a,0.13416689354926348,colour,0.5
04,23,1,1,2,43,93,268.84566626581363,269.56735795666464,"[43, 0, 211]",211,a,0.19874410657212138,colour,0.5
04,23,1,1,2,44,94,271.5799873890355,272.2633481011726,"[30, 0, 224]",224,a,0.1600704826414585,colour,0.5
04,23,1,1,2,45,95,274.28317465959117,275.0552808921784,"[48, 0, 206]",206,a,0.24883884587325156,colour,0.5
04,23,1,1,2,46,96,277.0641664324794,277.6553228760604,"[73, 0, 181]",181,l,0.06757516227662563,colour,0.5
04,23,1,1,2,47,97,279.67367684771307,280.68732830812223,"[65, 0, 189]",189,a,0.49029467115178704,colour,0.5
04,23,1,1,2,48,98,282.70500644133426,283.4952484550886,"[31, 0, 223]",223,a,0.2675661826506257,colour,0.5
04,23,1,1,2,49,99,285.501789041562,286.23125799256377,"[20, 0, 234]",234,a,0.20613854913972318,colour,0.5
04,23,1,1,2,50,100,288.251734001562,288.83928439905867,"[90, 0, 164]",164,l,0.06413098657503724,colour,0.5
04,23,1,1,3,1,101,305.4696276469622,306.18330498295836,"[65, 0, 189]",189,a,0.18964470829814672,colour,0.5
04,23,1,1,3,2,102,308.2048341340851,308.8232040957082,"[84, 0, 170]",170,l,0.09533573151566088,colour,0.5
04,23,1,1,3,3,103,310.8298147863243,311.92727176775225,"[15, 0, 239]",239,a,0.574198653222993,colour,0.5
04,23,1,1,3,4,104,313.9393884134479,314.68719715764746,"[30, 0, 224]",224,a,0.2246732956264168,colour,0.5
04,23,1,1,3,5,105,316.70476146950386,317.50322185014375,"[61, 0, 193]",193,a,0.2758298416156322,colour,0.5
04,23,1,1,3,6,106,319.51725376490504,320.2872119662352,"[9, 0, 245]",245,a,0.2466518240980804,colour,0.5
04,23,1,1,3,7,107,322.29846254666336,322.95126835862175,"[95, 0, 159]",159,l,0.12960892356932163,colour,0.5
04,23,1,1,3,8,108,324.97039544791915,325.6631741791498,"[44, 0, 210]",210,a,0.16966691333800554,colour,0.5
04,23,1,1,3,9,109,327.67342951288447,328.3991549657658,"[16, 0, 238]",238,a,0.2024001709651202,colour,0.5
04,23,1,1,3,10,110,330.40781522658654,331.08727608411573,"[70, 0, 184]",184,l,0.15634982730261981,colour,0.5
04,23,1,1,3,11,111,333.0953424265608,333.7111496378202,"[88, 0, 166]",166,l,0.09251658781431615,colour,0.5
04,23,1,1,3,12,112,335.7203274113126,336.471108504571,"[19, 0, 235]",235,a,0.22752906661480665,colour,0.5
04,23,1,1,3,13,113,338.48591078072786,339.0951080888044,"[8, 0, 246]",246,a,0.08583185425959527,colour,0.5
04,23,1,1,3,14,114,341.11090836836956,341.8231162680313,"[97, 0, 157]",157,l,0.18891215627081692,colour,0.5
04,23,1,1,3,15,115,343.8296946636401,344.5271321889013,"[31, 0, 223]",223,a,0.1741378433071077,colour,0.5
04,23,1,1,3,16,116,346.5483643808402,347.647159647895,"[28, 0, 226]",226,a,0.5754928283859044,colour,0.5
04,23,1,1,3,17,117,349.65775014366955,350.431117862463,"[51, 0, 203]",203,a,0.25008851662278175,colour,0.5
04,23,1,1,3,18,118,352.4389478978701,353.2151320029516,"[60, 0, 194]",194,a,0.2528355864342302,colour,0.5
04,23,1,1,3,19,119,355.2358230515383,355.9831205846276,"[57, 0, 197]",197,a,0.22392971580848098,colour,0.5
04,23,1,1,3,20,120,358.0014213870745,358.73510133032687,"[64, 0, 190]",190,a,0.21031212620437145,colour,0.5
04,23,1,1,3,21,121,360.75139431026764,361.47110732318833,"[99, 0, 155]",155,l,0.19673470873385668,colour,0.5
04,23,1,1,3,22,122,363.48574457806535,364.5830802549608,"[71, 0, 183]",183,l,0.5739359583240002,colour,0.5
04,23,1,1,3,23,123,366.59515987941995,367.3191547766328,"[26, 0, 228]",228,a,0.20066292001865804,colour,0.5
04,23,1,1,3,24,124,369.3295542579144,370.07913491129875,"[78, 0, 176]",176,l,0.22621638095006347,colour,0.5
04,23,1,1,3,25,125,372.09511635941453,372.8550630172249,"[4, 0, 250]",250,a,0.23671944322995842,colour,0.5
04,23,1,1,3,26,126,374.8763716148678,375.89504066249356,"[69, 0, 185]",185,l,0.49531383346766233,colour,0.5
04,23,1,1,3,27,127,377.9075172827579,378.6150207023602,"[77, 0, 177]",177,l,0.18409661180339754,colour,0.5
04,23,1,1,3,28,128,380.62630436592735,381.21502015111037,"[20, 0, 234]",234,a,0.06532945740036666,colour,0.5
04,23,1,1,3,29,129,383.2356509412639,384.151039613178,"[56, 0, 198]",198,a,0.3920641776639968,colour,0.5
04,23,1,1,3,30,130,386.1574762244709,386.94316302542575,"[62, 0, 192]",192,a,0.26229298999533057,colour,0.5
04,23,1,1,3,31,131,388.95437382743694,389.7110035212245,"[46, 0, 208]",208,a,0.23347849142737687,colour,0.5
04,23,1,1,3,32,132,391.7200017012656,392.4390495098196,"[72, 0, 182]",182,l,0.19578278507106006,colour,0.5
04,23,1,1,3,33,133,394.45435827062465,395.44699415401556,"[85, 0, 169]",169,l,0.4695213087834418,colour,0.5
04,23,1,1,3,34,134,397.45449651032686,398.18298951303586,"[12, 0, 242]",242,a,0.2054520770907402,colour,0.5
04,23,1,1,3,35,135,400.20434340299107,400.92714731255546,"[35, 0, 219]",219,a,0.19968145806342363,colour,0.5
04,23,1,1,3,36,136,402.93871651380323,403.7109735889826,"[22, 0, 232]",232,a,0.2535082739777863,colour,0.5
04,23,1,1,3,37,137,405.73093917476945,406.44694059109315,"[2, 0, 252]",252,a,0.19280098332092166,colour,0.5
04,23,1,1,3,38,138,408.4651708952151,409.07097601518035,"[50, 0, 204]",204,a,0.08253694558516145,colour,0.5
04,23,1,1,3,39,139,411.09019644604996,411.80698240175843,"[39, 0, 215]",215,a,0.19339923420920968,colour,0.5
04,23,1,1,3,40,140,413.82456128601916,414.3909811035264,"[24, 0, 230]",230,a,0.04304609284736216,colour,0.5
04,23,1,1,3,41,141,416.40272871661,417.1109438142739,"[40, 0, 214]",214,a,0.18498985236510634,colour,0.5
04,23,1,1,3,42,142,419.12140788603574,419.9029104760848,"[17, 0, 237]",237,a,0.2584246429614723,colour,0.5
04,23,1,1,3,43,143,421.918269649148,422.70291945594363,"[32, 0, 222]",222,a,0.2612949865870178,colour,0.5
04,23,1,1,3,44,144,424.71515071066096,425.42291721887887,"[80, 0, 174]",174,l,0.18499103421345353,colour,0.5
04,23,1,1,3,45,145,427.4338830492925,428.10287825972773,"[14, 0, 240]",240,a,0.1455498058348894,colour,0.5
04,23,1,1,3,46,146,430.1213838614058,430.9669063738547,"[58, 0, 196]",196,l,0.3224567745346576,colour,0.5
04,23,1,1,3,47,147,432.9807519998867,433.5349055104889,"[5, 0, 249]",249,a,0.03091251151636243,colour,0.5
04,23,1,1,3,48,148,435.54320658463985,436.23889661906287,"[94, 0, 160]",160,l,0.17228165129199624,colour,0.5
04,23,1,1,3,49,149,438.24641787982546,438.97489276574925,"[89, 0, 165]",165,l,0.20512361032888293,colour,0.5
04,23,1,1,3,50,150,440.9962730433326,441.71092475228943,"[34, 0, 220]",220,a,0.19119370123371482,colour,0.5
04,23,1,1,4,1,151,450.1673365314491,450.9268365688622,"[42, 0, 212]",212,a,0.23605620814487338,colour,0.5
04,23,1,1,4,2,152,452.93375800340436,453.51081912289374,"[36, 0, 218]",218,a,0.053724810015410185,colour,0.5
04,23,1,1,4,3,153,455.52747837873176,456.30281414161436,"[41, 0, 213]",213,a,0.25193919497542083,colour,0.5
04,23,1,1,4,4,154,458.308686372824,459.02293754112907,"[89, 0, 165]",165,l,0.19085341901518404,colour,0.5
04,23,1,1,4,5,155,461.0431701540947,461.806894968031,"[12, 0, 242]",242,a,0.24043222120963037,colour,0.5
04,23,1,1,4,6,156,463.82431040657684,464.56682744738646,"[52, 0, 202]",202,a,0.21918703289702535,colour,0.5
04,23,1,1,4,7,157,466.57426639436744,467.3588374319952,"[37, 0, 217]",217,a,0.26169434539042413,colour,0.5
04,23,1,1,4,8,158,469.3711324897595,470.118845135672,"[46, 0, 208]",208,a,0.2246138248592615,colour,0.5
04,23,1,1,4,9,159,472.1367654837668,472.9509493438527,"[9, 0, 245]",245,a,0.29095270740799606,colour,0.5
04,23,1,1,4,10,160,474.96492927125655,475.7428281782195,"[14, 0, 240]",240,a,0.2545803205575794,colour,0.5
04,23,1,1,4,11,161,477.7617595267948,478.83877515723,"[76, 0, 178]",178,l,0.5540558369830251,colour,0.5
04,23,1,1,4,12,162,480.8554710405879,481.69481018418446,"[94, 0, 160]",160,l,0.3160855413880199,colour,0.5
04,23,1,1,4,13,163,483.7147233886644,484.5348251662217,"[82, 0, 172]",172,l,0.2971148085780442,colour,0.5
04,23,1,1,4,14,164,486.5429848500062,487.294751343783,"[74, 0, 180]",180,l,0.22876967885531485,colour,0.5
04,23,1,1,4,15,165,489.30854065017775,490.09475638507865,"[84, 0, 170]",170,l,0.2628699732013047,colour,0.5
04,23,1,1,4,16,166,492.1053929608315,492.8788103039842,"[80, 0, 174]",174,l,0.25006921822205186,colour,0.5
04,23,1,1,4,17,167,494.8866470346693,495.57475161156617,"[81, 0, 173]",173,l,0.16484270407818258,colour,0.5
04,23,1,1,4,18,168,497.58971260720864,498.29472731938586,"[25, 0, 229]",229,a,0.18167682737112045,colour,0.5
04,23,1,1,4,19,169,500.3085170192644,501.0467895909678,"[85, 0, 169]",169,l,0.2149283851031214,colour,0.5
04,23,1,1,4,20,170,503.0585076655261,503.6788121943828,"[90, 0, 164]",164,l,0.0970186316408217,colour,0.5
04,23,1,1,4,21,171,505.69896958279423,506.4467669054866,"[4, 0, 250]",250,a,0.22433025646023452,colour,0.5
04,23,1,1,4,22,172,508.46469828113914,509.2147149210796,"[3, 0, 251]",251,a,0.22683471790514886,colour,0.5
04,23,1,1,4,23,173,511.23025329364464,511.982723982539,"[5, 0, 249]",249,a,0.22972239018417895,colour,0.5
04,23,1,1,4,24,174,513.9959079488181,514.7506940534804,"[96, 0, 158]",158,l,0.23139465670101345,colour,0.5
04,23,1,1,4,25,175,516.7616173487622,517.662830746267,"[45, 0, 209]",209,a,0.3779523125849664,colour,0.5
04,23,1,1,4,26,176,519.6833941889927,520.4707209609915,"[7, 0, 247]",247,a,0.2639609242323786,colour,0.5
04,23,1,1,4,27,177,522.4803059704136,523.2066304616164,"[78, 0, 176]",176,l,0.20298660639673471,colour,0.5
04,23,1,1,4,28,178,525.2146188227925,526.1506725496147,"[95, 0, 159]",159,l,0.4126729127019644,colour,0.5
04,23,1,1,4,29,179,528.1678264748771,528.9106719824485,"[24, 0, 230]",230,a,0.21981797274202108,colour,0.5
04,23,1,1,4,30,180,530.9176891213283,531.7826404087245,"[11, 0, 243]",243,a,0.34165830072015524,colour,0.5
04,23,1,1,4,31,181,533.7927582904231,534.5666490355507,"[47, 0, 207]",207,a,0.2505871248431504,colour,0.5
04,23,1,1,4,32,182,536.5739166599233,537.3666013013572,"[35, 0, 219]",219,a,0.2692991013173014,colour,0.5
04,23,1,1,4,33,183,539.3865062349942,540.1026372264605,"[43, 0, 211]",211,a,0.19291401701048017,colour,0.5
04,23,1,1,4,34,184,542.1208053028677,542.878602353856,"[10, 0, 244]",244,a,0.23475021752528846,colour,0.5
04,23,1,1,4,35,185,544.8863906415645,545.654765979154,"[39, 0, 215]",215,a,0.24514615396037698,colour,0.5
04,23,1,1,4,36,186,547.6679424622562,548.4626361078117,"[73, 0, 181]",181,l,0.2713648190256208,colour,0.5
04,23,1,1,4,37,187,550.4804178222548,551.2865794508252,"[60, 0, 194]",194,l,0.2828079897444695,colour,0.5
04,23,1,1,4,38,188,553.2929967637174,554.0305974355433,"[88, 0, 166]",166,l,0.21430847304873168,colour,0.5
04,23,1,1,4,39,189,556.0429236069322,556.8945916790981,"[57, 0, 197]",197,a,0.3283333380240947,colour,0.5
04,23,1,1,4,40,190,558.9022019486874,559.7425564250443,"[72, 0, 182]",182,l,0.31699414225295186,colour,0.5
04,23,1,1,4,41,191,561.7615846595727,562.3425472092349,"[32, 0, 222]",222,a,0.05773060931824148,colour,0.5
04,23,1,1,4,42,192,564.3553369364236,564.9425813162234,"[51, 0, 203]",203,a,0.06397856865078211,colour,0.5
04,23,1,1,4,43,193,566.9491526223719,567.6385588576086,"[91, 0, 163]",163,l,0.1661045840010047,colour,0.5
04,23,1,1,4,44,194,569.6521307611838,572.5905625249725,"[49, 0, 205]",205,a,2.415055281948298,colour,0.5
04,23,1,1,4,45,195,574.6053754347377,575.5904845437035,"[66, 0, 188]",188,l,0.4618673222139478,colour,0.5
04,23,1,1,4,46,196,577.6052458598278,578.3826682141516,"[22, 0, 232]",232,a,0.25395686365664005,colour,0.5
04,23,1,1,4,47,197,580.4021328289527,581.0705565700773,"[19, 0, 235]",235,a,0.14506931486539543,colour,0.5
04,23,1,1,4,48,198,583.0896458504722,583.870481266873,"[50, 0, 204]",204,a,0.25759953749366105,colour,0.5
04,23,1,1,4,49,199,585.8864950104617,586.8865363642108,"[53, 0, 201]",201,a,0.4768038992770016,colour,0.5
04,23,1,1,4,50,200,588.9020731614437,589.6705182094593,"[77, 0, 177]",177,l,0.2451583631336689,colour,0.5
04,23,1,1,5,1,201,598.3230971666053,598.9344515646808,"[85, 0, 169]",169,l,0.08787394128739834,colour,0.4
04,23,1,1,5,2,202,600.9488981985487,601.5504458523355,"[31, 0, 223]",223,a,0.07818731991574168,colour,0.4
04,23,1,1,5,3,203,603.5582849460188,604.19858184224,"[46, 0, 208]",208,a,0.11731465347111225,colour,0.4
04,23,1,1,5,4,204,606.2144317463972,606.9744587484747,"[7, 0, 247]",247,a,0.23660680348984897,colour,0.4
04,23,1,1,5,5,205,608.9956881832331,609.6304361952934,"[91, 0, 163]",163,l,0.11137980106286705,colour,0.4
04,23,1,1,5,6,206,611.6361690051854,612.566448174417,"[74, 0, 180]",180,l,0.4119726561475545,colour,0.4
04,23,1,1,5,7,207,614.5851554248948,615.646494837245,"[56, 0, 198]",198,a,0.5378640755079687,colour,0.4
04,23,1,1,5,8,208,617.664141462883,618.262603339972,"[96, 0, 158]",158,l,0.07627008156850934,colour,0.4
04,23,1,1,5,9,209,620.272666871082,621.950693738414,"[68, 0, 186]",186,a,1.1549205633345991,colour,0.4
04,23,1,1,5,10,210,623.960212581791,625.2224409813061,"[70, 0, 184]",184,l,0.7388853947632015,colour,0.4
04,23,1,1,5,11,211,627.2414211665746,628.0144194583409,"[45, 0, 209]",209,a,0.24960802565328777,colour,0.4
04,23,1,1,5,12,212,630.0226709081326,630.814367785817,"[11, 0, 243]",243,a,0.2683601744938642,colour,0.4
04,23,1,1,5,13,213,632.835141541902,633.5583877395838,"[26, 0, 228]",228,a,0.19986577751114964,colour,0.4
04,23,1,1,5,14,214,635.5695209542755,636.4465589551255,"[72, 0, 182]",182,l,0.35362883005291224,colour,0.4
04,23,1,1,5,15,215,638.460074145114,639.1503728334792,"[33, 0, 221]",221,a,0.16729242098517716,colour,0.4
04,23,1,1,5,16,216,641.1632566896733,641.9346851147711,"[1, 0, 253]",253,a,0.24816930922679603,colour,0.4
04,23,1,1,5,17,217,643.9445509356447,644.6943419023883,"[20, 0, 234]",234,a,0.22662597987800837,colour,0.4
04,23,1,1,5,18,218,646.7100252099335,647.5343639734201,"[60, 0, 194]",194,l,0.3017657259479165,colour,0.4
04,23,1,1,5,19,219,649.5538640343584,650.294334261911,"[79, 0, 175]",175,l,0.2173954313620925,colour,0.4
04,23,1,1,5,20,220,652.3038141145371,653.0143418710213,"[44, 0, 210]",210,a,0.1873147205915302,colour,0.4
04,23,1,1,5,21,221,655.0224980099592,655.7583291355986,"[95, 0, 159]",159,l,0.2124392839614302,colour,0.4
04,23,1,1,5,22,222,657.7725367052481,658.5183234484866,"[16, 0, 238]",238,a,0.22314399504102767,colour,0.4
04,23,1,1,5,23,223,660.5381854530424,661.3423424097709,"[71, 0, 183]",183,l,0.2811369050759822,colour,0.4
04,23,1,1,5,24,224,663.3506423023064,664.1662841772195,"[14, 0, 240]",240,a,0.2926486046053469,colour,0.4
04,23,1,1,5,25,225,666.178717474686,666.878302243771,"[86, 0, 168]",168,l,0.17628705641254783,colour,0.4
04,23,1,1,5,26,226,668.8975392160937,669.6383130981121,"[73, 0, 181]",181,l,0.2175781752448529,colour,0.4
04,23,1,1,5,27,227,671.6474503055215,672.3103420976549,"[12, 0, 242]",242,a,0.13954169815406203,colour,0.4
04,23,1,1,5,28,228,674.3193107394036,675.094256989425,"[76, 0, 178]",178,l,0.2523716369178146,colour,0.4
04,23,1,1,5,29,229,677.1004931335337,677.8382970292587,"[59, 0, 195]",195,a,0.2144616786390543,colour,0.4
04,23,1,1,5,30,230,679.850585391745,680.7903050291352,"[69, 0, 185]",185,l,0.416483364533633,colour,0.4
04,23,1,1,5,31,231,682.8036307794973,683.5422593872063,"[98, 0, 156]",156,l,0.2158070537261665,colour,0.4
04,23,1,1,5,32,232,685.5537033455912,686.2063311394304,"[94, 0, 160]",160,l,0.12984207994304597,colour,0.4
04,23,1,1,5,33,233,688.2255070656538,688.9982324228622,"[37, 0, 217]",217,a,0.24934257403947413,colour,0.4
04,23,1,1,5,34,234,691.0067560195457,691.7662300630473,"[38, 0, 216]",216,a,0.23609913722611964,colour,0.4
04,23,1,1,5,35,235,693.7723267858382,694.4942228824366,"[84, 0, 170]",170,l,0.1986042915377766,colour,0.4
04,23,1,1,5,36,236,696.5066979273688,697.1901897899806,"[5, 0, 249]",249,a,0.16018745466135442,colour,0.4
04,23,1,1,5,37,237,699.209650860168,699.958231146913,"[55, 0, 199]",199,a,0.22505887015722692,colour,0.4
04,23,1,1,5,38,238,701.9808004428633,702.9902369726915,"[64, 0, 190]",190,l,0.4861132171936333,colour,0.4
04,23,1,1,5,39,239,704.9964687842876,705.7501895378809,"[53, 0, 201]",201,a,0.23039665329270065,colour,0.4
04,23,1,1,5,40,240,707.7620419138111,708.3901595426723,"[35, 0, 219]",219,a,0.10478840861469507,colour,0.4
04,23,1,1,5,41,241,710.4026968150865,711.1902094823308,"[51, 0, 203]",203,a,0.2642362220212817,colour,0.4
04,23,1,1,5,42,242,713.1995286459569,713.982179294806,"[57, 0, 197]",197,a,0.2592375394888222,colour,0.4
04,23,1,1,5,43,243,715.99634905532,716.6061568234582,"[47, 0, 207]",207,a,0.08646358153782785,colour,0.4
04,23,1,1,5,44,244,718.6213430985808,719.3101727443282,"[90, 0, 164]",164,l,0.16550909006036818,colour,0.4
04,23,1,1,5,45,245,721.3245094954036,721.9424434702378,"[23, 0, 231]",231,a,0.09526444529183209,colour,0.4
04,23,1,1,5,46,246,723.9495362276211,724.662175781792,"[99, 0, 155]",155,l,0.18935995851643384,colour,0.4
04,23,1,1,5,47,247,726.6838380524423,727.4061831324361,"[77, 0, 177]",177,l,0.19896465982310474,colour,0.4
04,23,1,1,5,48,248,729.4181796554476,730.0221344910096,"[89, 0, 165]",165,l,0.08085325779393315,colour,0.4
04,23,1,1,5,49,249,732.043261132203,732.6621324587613,"[30, 0, 224]",224,a,0.09562953980639577,colour,0.4
04,23,1,1,5,50,250,734.6837549509946,735.6141144647263,"[62, 0, 192]",192,a,0.4069968166295439,colour,0.4
04,23,1,1,6,1,251,761.3702699688729,762.1260595910717,"[87, 0, 167]",167,l,0.23169791768305004,colour,0.28
04,23,1,1,6,2,252,764.1368273172993,764.8380201561376,"[99, 0, 155]",155,l,0.1783539557363838,colour,0.28
04,23,1,1,6,3,253,766.8555517790373,767.4940369874239,"[0, 0, 254]",254,a,0.11607443518005311,colour,0.28
04,23,1,1,6,4,254,769.5117958588526,770.1100348196924,"[91, 0, 163]",163,l,0.0751074505969882,colour,0.28
04,23,1,1,6,5,255,772.1211010806728,772.6700554415584,"[26, 0, 228]",228,a,0.025910678319633007,colour,0.28
04,23,1,1,6,6,256,774.6835733884946,775.3500334175769,"[62, 0, 192]",192,l,0.14315168256871402,colour,0.28
04,23,1,1,6,7,257,777.371000157902,779.581992454594,"[73, 0, 181]",181,l,1.6879403435159475,colour,0.28
04,23,1,1,6,8,258,781.5897555362899,782.2699713949114,"[58, 0, 196]",196,a,0.1570784409996122,colour,0.28
04,23,1,1,6,9,259,784.2772902192082,785.0780585324392,"[53, 0, 201]",201,a,0.2773945883382112,colour,0.28
04,23,1,1,6,10,260,787.0898057515733,787.8459840987343,"[66, 0, 188]",188,l,0.23282470856793225,colour,0.28
04,23,1,1,6,11,261,789.8555285420734,790.509979838971,"[90, 0, 164]",164,l,0.13166321977041662,colour,0.28
04,23,1,1,6,12,262,792.5272452225909,793.1100328506436,"[80, 0, 174]",174,l,0.05904093198478222,colour,0.28
04,23,1,1,6,13,263,795.1210605145898,795.813957399223,"[59, 0, 195]",195,a,0.16992173111066222,colour,0.28
04,23,1,1,6,14,264,797.8240784318186,798.5739784936886,"[20, 0, 234]",234,a,0.22653185087256134,colour,0.28
04,23,1,1,6,15,265,800.5897354502231,801.389940170804,"[52, 0, 202]",202,a,0.27694166637957096,colour,0.28
04,23,1,1,6,16,266,803.4022084472235,804.4619449097663,"[93, 0, 161]",161,l,0.5364174821879715,colour,0.28
04,23,1,1,6,17,267,806.4803095150273,807.0299432587344,"[11, 0, 243]",243,a,0.02637738478370011,colour,0.28
04,23,1,1,6,18,268,809.0428594101686,809.7899816820864,"[35, 0, 219]",219,a,0.22376272547990084,colour,0.28
04,23,1,1,6,19,269,811.8084238748997,812.5419793631881,"[89, 0, 165]",165,l,0.21015183115378022,colour,0.28
04,23,1,1,6,20,270,814.5583574136253,815.3178932906594,"[92, 0, 162]",162,l,0.23651267448440194,colour,0.28
04,23,1,1,6,21,271,817.3240687826183,818.0219056669157,"[55, 0, 199]",199,a,0.17522800667211413,colour,0.28
04,23,1,1,6,22,272,820.0427026597317,820.8379555654246,"[24, 0, 230]",230,a,0.271927623776719,colour,0.28
04,23,1,1,6,23,273,822.8552560012322,823.5898807791527,"[33, 0, 221]",221,a,0.2114243449177593,colour,0.28
04,23,1,1,6,24,274,825.605185207678,826.3258997686207,"[67, 0, 187]",187,l,0.19732311321422458,colour,0.28
04,23,1,1,6,25,275,828.3395441400353,828.9259732603095,"[83, 0, 171]",171,l,0.06307154335081577,colour,0.28
04,23,1,1,6,26,276,830.9332330077887,831.6538636798505,"[44, 0, 210]",210,a,0.19720889814198017,colour,0.28
04,23,1,1,6,27,277,833.6676037553698,834.3419899183791,"[81, 0, 173]",173,l,0.15095454291440547,colour,0.28
04,23,1,1,6,28,278,836.3552313859109,837.0058832587674,"[72, 0, 182]",182,l,0.1273781848140061,colour,0.28
04,23,1,1,6,29,279,839.0269689401612,839.6138706745114,"[70, 0, 184]",184,l,0.06352840340696275,colour,0.28
04,23,1,1,6,30,280,841.620798410615,842.2058620697353,"[5, 0, 249]",249,a,0.06199713353998959,colour,0.28
04,23,1,1,6,31,281,844.21470625652,844.9419039024506,"[75, 0, 179]",179,l,0.20410985290072858,colour,0.28
04,23,1,1,6,32,282,846.9488469986245,847.6138639792334,"[97, 0, 157]",157,l,0.1417070587631315,colour,0.28
04,23,1,1,6,33,283,849.6206960109994,850.2378647448495,"[46, 0, 208]",208,a,0.09417585749179125,colour,0.28
04,23,1,1,6,34,284,852.2457384970039,852.8938043825328,"[16, 0, 238]",238,a,0.12433612486347556,colour,0.28
04,23,1,1,6,35,285,854.9020199922379,855.4538443027996,"[1, 0, 253]",253,a,0.02869476960040629,colour,0.28
04,23,1,1,6,36,286,857.4643780849874,858.3178011309355,"[79, 0, 175]",175,l,0.32997961062937975,colour,0.28
04,23,1,1,6,37,287,860.3393621835858,861.0857948325574,"[51, 0, 203]",203,a,0.22302505373954773,colour,0.28
04,23,1,1,6,38,288,863.1049624881707,863.7658267656807,"[71, 0, 183]",183,l,0.13742005452513695,colour,0.28
04,23,1,1,6,39,289,865.7769422570709,866.4617983992212,"[69, 0, 185]",185,l,0.16168603533878922,colour,0.28
04,23,1,1,6,40,290,868.4799585989676,869.2298578729387,"[50, 0, 204]",204,a,0.22655233065597713,colour,0.28
04,23,1,1,6,41,291,871.245574263623,871.9897671153303,"[88, 0, 166]",166,l,0.22084118239581585,colour,0.28
04,23,1,1,6,42,292,874.011199380504,874.7177528454922,"[86, 0, 168]",168,l,0.1831982508301735,colour,0.28
04,23,1,1,6,43,293,876.7299498359207,877.2777825256344,"[37, 0, 217]",217,a,0.024531826376914978,colour,0.28
04,23,1,1,6,44,294,879.2924138728995,880.9337493388448,"[85, 0, 169]",169,l,1.117974738124758,colour,0.28
04,23,1,1,6,45,295,882.948703245027,883.5497444141656,"[68, 0, 186]",186,l,0.07772573339752853,colour,0.28
04,23,1,1,6,46,296,885.5580718759447,886.1097815772519,"[98, 0, 156]",156,l,0.028433256316930056,colour,0.28
04,23,1,1,6,47,297,888.1204681715462,888.8538164971396,"[78, 0, 176]",176,l,0.21025856328196824,colour,0.28
04,23,1,1,6,48,298,890.8704552731942,891.6217137067579,"[54, 0, 200]",200,a,0.2281840310897678,colour,0.28
04,23,1,1,6,49,299,893.6361150483135,894.3657431127504,"[34, 0, 220]",220,a,0.20642605610191822,colour,0.28
04,23,1,1,6,50,300,896.3860871838406,897.1497667056974,"[63, 0, 191]",191,a,0.2406834946013987,colour,0.28
04,23,1,1,7,1,301,926.4007279833313,926.9976747382898,"[50, 0, 204]",204,a,0.07281369669362903,colour,0.14
04,23,1,1,7,2,302,929.0109177811537,930.7976065243129,"[86, 0, 168]",168,l,1.2634036333765835,colour,0.14
04,23,1,1,7,3,303,932.807826805627,933.5416016657837,"[67, 0, 187]",187,l,0.2104523351881653,colour,0.14
04,23,1,1,7,4,304,935.5578355689067,936.1976472476963,"[59, 0, 195]",195,a,0.11652538785710931,colour,0.14
04,23,1,1,7,5,305,938.2140406582039,938.8536093346775,"[93, 0, 161]",161,l,0.11615950567647815,colour,0.14
04,23,1,1,7,6,306,940.8701724922284,941.5256139158737,"[88, 0, 166]",166,l,0.1322748614475131,colour,0.14
04,23,1,1,7,7,307,943.5421455658507,944.2455526019912,"[56, 0, 198]",198,a,0.18004355137236416,colour,0.14
04,23,1,1,7,8,308,946.2608794798143,946.8535660116468,"[44, 0, 210]",210,a,0.06942899152636528,colour,0.14
04,23,1,1,7,9,309,948.8702488981653,949.701566203963,"[73, 0, 181]",181,l,0.30834018299356103,colour,0.14
04,23,1,1,7,10,310,951.7139459382743,952.3095445614308,"[95, 0, 159]",159,l,0.07279321691021323,colour,0.14
04,23,1,1,7,11,311,954.3232818800025,954.9815991609357,"[60, 0, 194]",194,a,0.13561151758767664,colour,0.14
04,23,1,1,7,12,312,956.995245501399,957.6456244394649,"[79, 0, 175]",175,l,0.12711194530129433,colour,0.14
04,23,1,1,7,13,313,959.6670405569021,960.9416502662934,"[98, 0, 156]",156,l,0.7513809197116643,colour,0.14
04,23,1,1,7,14,314,962.9483007353265,963.7015906223096,"[76, 0, 178]",178,l,0.23009536182507873,colour,0.14
04,23,1,1,7,15,315,965.7138120310847,966.4936006071512,"[69, 0, 185]",185,a,0.25706824054941535,colour,0.14
04,23,1,1,7,16,316,968.5107320831157,969.2934937963728,"[99, 0, 155]",155,l,0.2593659330159426,colour,0.14
04,23,1,1,7,17,317,971.3076155078597,972.0615304270759,"[55, 0, 199]",199,a,0.23067470802925527,colour,0.14
04,23,1,1,7,18,318,974.0730838743038,975.6054707453586,"[80, 0, 174]",174,l,1.0089993616566062,colour,0.14
04,23,1,1,7,19,319,977.6199894526508,978.4054891772103,"[63, 0, 191]",191,a,0.2623244975693524,colour,0.14
04,23,1,1,7,20,320,980.4169185634237,981.4774801314343,"[74, 0, 180]",180,l,0.5375556945800781,colour,0.14
04,23,1,1,7,21,321,983.4949979695957,984.2775966308545,"[64, 0, 190]",190,a,0.259268653113395,colour,0.14
04,23,1,1,7,22,322,986.2919306249823,987.0055232841987,"[45, 0, 209]",209,a,0.19017206691205502,colour,0.14
04,23,1,1,7,23,323,989.02629349567,989.8054916979745,"[77, 0, 177]",177,l,0.2558685881085694,colour,0.14
04,23,1,1,7,24,324,991.8230890927371,992.4534339159727,"[72, 0, 182]",182,l,0.10693486453965306,colour,0.14
04,23,1,1,7,25,325,994.4636947636027,995.0214275389444,"[1, 0, 253]",253,a,0.034389376640319824,colour,0.14
04,23,1,1,7,26,326,997.0419059111737,997.9894347100053,"[53, 0, 201]",201,a,0.4242377816699445,colour,0.14
04,23,1,1,7,27,327,1000.0105743482709,1000.8214585739188,"[16, 0, 238]",238,a,0.28778816177509725,colour,0.14
04,23,1,1,7,28,328,1002.8386865421198,1003.6055128867738,"[57, 0, 197]",197,a,0.24356053350493312,colour,0.14
04,23,1,1,7,29,329,1005.6199736988638,1006.4214690502267,"[75, 0, 179]",179,l,0.2784394596237689,colour,0.14
04,23,1,1,7,30,330,1008.4323525668588,1009.1574443229474,"[97, 0, 157]",157,l,0.2014254042878747,colour,0.14
04,23,1,1,7,31,331,1011.1667493083514,1012.2294498495758,"[71, 0, 183]",183,l,0.5393295732792467,colour,0.14
04,23,1,1,7,32,332,1014.2448740068357,1014.9734024556819,"[81, 0, 173]",173,l,0.20532840979285538,colour,0.14
04,23,1,1,7,33,333,1016.9971521056723,1017.653352468973,"[62, 0, 192]",192,a,0.13287705066613853,colour,0.14
04,23,1,1,7,34,334,1019.6691216346808,1020.3334277248941,"[85, 0, 169]",169,l,0.1410745435860008,colour,0.14
04,23,1,1,7,35,335,1022.3409793116152,1022.989351214841,"[87, 0, 167]",167,l,0.1250399260316044,colour,0.14
04,23,1,1,7,36,336,1024.997195428703,1025.749377035303,"[92, 0, 162]",162,l,0.2288925584871322,colour,0.14
04,23,1,1,7,37,337,1027.7627914010081,1028.4934237706475,"[29, 0, 225]",225,a,0.20725982636213303,colour,0.14
04,23,1,1,7,38,338,1030.5128553023096,1031.1813889264595,"[94, 0, 160]",160,l,0.14523630519397557,colour,0.14
04,23,1,1,7,39,339,1033.2012308447156,1033.8053743320052,"[54, 0, 200]",200,a,0.08079181774519384,colour,0.14
04,23,1,1,7,40,340,1035.8263012939133,1036.4693653460126,"[78, 0, 176]",176,l,0.11960683227516711,colour,0.14
04,23,1,1,7,41,341,1038.4825658537447,1039.0213298653252,"[52, 0, 202]",202,a,0.015743565745651722,colour,0.14
04,23,1,1,7,42,342,1041.0294993952848,1041.6853567191865,"[10, 0, 244]",244,a,0.13281561061739922,colour,0.14
04,23,1,1,7,43,343,1043.7012873615604,1044.3493130749557,"[91, 0, 163]",163,l,0.12472051777876914,colour,0.14
04,23,1,1,7,44,344,1046.3575487707276,1047.1973325654399,"[61, 0, 193]",193,a,0.31636280845850706,colour,0.14
04,23,1,1,7,45,345,1049.216948810732,1049.957297733752,"[65, 0, 189]",189,l,0.2169881951995194,colour,0.14
04,23,1,1,7,46,346,1051.9668791985605,1052.605262401281,"[51, 0, 203]",203,a,0.11531904013827443,colour,0.14
04,23,1,1,7,47,347,1054.6230401771609,1055.4212996969,"[66, 0, 188]",188,l,0.2748534996062517,colour,0.14
04,23,1,1,7,48,348,1057.4356419616379,1058.1412706782576,"[96, 0, 158]",158,l,0.18246648670174181,colour,0.14
04,23,1,1,7,49,349,1060.154297500383,1060.8855009453837,"[18, 0, 236]",236,a,0.20824758987873793,colour,0.14
04,23,1,1,7,50,350,1062.9043192602694,1063.6132720299065,"[84, 0, 170]",170,l,0.18577242293395102,colour,0.14
04,23,1,1,8,1,351,1092.9190258318558,1093.533216702519,"[84, 0, 170]",170,l,0.09026773180812597,colour,0.06
04,23,1,1,8,2,352,1095.5447681806982,1096.3331985068507,"[54, 0, 200]",200,a,0.26519720419310033,colour,0.06
04,23,1,1,8,3,353,1098.341654362157,1099.0851997325663,"[95, 0, 159]",159,l,0.22013738099485636,colour,0.06
04,23,1,1,8,4,354,1101.0915741163772,1101.8211970606353,"[58, 0, 196]",196,a,0.2061802966054529,colour,0.06
04,23,1,1,8,5,355,1103.8416325037833,1104.6452034190297,"[74, 0, 180]",180,l,0.2806686230469495,colour,0.06
04,23,1,1,8,6,356,1106.654046423966,1107.3891855636612,"[89, 0, 165]",165,l,0.21190956211648881,colour,0.06
04,23,1,1,8,7,357,1109.4040532179642,1109.9892090368085,"[97, 0, 157]",157,l,0.0619675952475518,colour,0.06
04,23,1,1,8,8,358,1111.997816522373,1112.653161060065,"[61, 0, 193]",193,a,0.1320228003896773,colour,0.06
04,23,1,1,8,9,359,1114.6697005869355,1116.141230506124,"[62, 0, 192]",192,a,0.9483550861477852,colour,0.06
04,23,1,1,8,10,360,1118.1539753349498,1118.885087014176,"[86, 0, 168]",168,l,0.20791872940026224,colour,0.06
04,23,1,1,8,11,361,1120.903958104318,1121.9171664889436,"[68, 0, 186]",186,l,0.4904719013720751,colour,0.06
04,23,1,1,8,12,362,1123.9352506764699,1124.6771541063208,"[77, 0, 177]",177,l,0.219224841799587,colour,0.06
04,23,1,1,8,13,363,1126.6852574702352,1127.317131594289,"[83, 0, 171]",171,l,0.10849724849686027,colour,0.06
04,23,1,1,8,14,364,1129.325903707184,1130.085070551373,"[63, 0, 191]",191,a,0.23660916648805141,colour,0.06
04,23,1,1,8,15,365,1132.091436664341,1132.6851436491124,"[59, 0, 195]",195,a,0.07132141757756472,colour,0.06
04,23,1,1,8,16,366,1134.700799387414,1135.3651125668548,"[90, 0, 164]",164,l,0.14093433460220695,colour,0.06
04,23,1,1,8,17,367,1137.3726850273088,1138.2290504905395,"[73, 0, 181]",181,l,0.3329685016069561,colour,0.06
04,23,1,1,8,18,368,1140.2476966951508,1141.0290949163027,"[23, 0, 231]",231,a,0.25808475469239056,colour,0.06
04,23,1,1,8,19,369,1143.044563578209,1143.8370654755272,"[69, 0, 185]",185,l,0.26926523074507713,colour,0.06
04,23,1,1,8,20,370,1145.8571889931336,1146.5810700692236,"[32, 0, 222]",222,a,0.2006696155294776,colour,0.06
04,23,1,1,8,21,371,1148.5914951502346,1149.2930404804647,"[70, 0, 184]",184,l,0.17850755527615547,colour,0.06
04,23,1,1,8,22,372,1151.3101727443282,1152.2450756556354,"[52, 0, 202]",202,a,0.41139015927910805,colour,0.06
04,23,1,1,8,23,373,1154.2633689749055,1154.9570645776112,"[67, 0, 187]",187,l,0.17029824713245034,colour,0.06
04,23,1,1,8,24,374,1156.9664097351488,1157.5570782045834,"[79, 0, 175]",175,l,0.06718249875120819,colour,0.06
04,23,1,1,8,25,375,1159.5758307473734,1160.2050472041592,"[98, 0, 156]",156,l,0.10588605492375791,colour,0.06
04,23,1,1,8,26,376,1162.2164387812372,1162.933087678859,"[76, 0, 178]",178,l,0.19357567676343024,colour,0.06
04,23,1,1,8,27,377,1164.95079889521,1166.0290248116944,"[64, 0, 190]",190,a,0.5548856686800718,colour,0.06
04,23,1,1,8,28,378,1168.0445249814074,1168.6610474153422,"[96, 0, 158]",158,l,0.09324520127847791,colour,0.06
04,23,1,1,8,29,379,1170.6694020524155,1171.4290328461211,"[82, 0, 172]",172,l,0.23635828704573214,colour,0.06
04,23,1,1,8,30,380,1173.4507431660313,1174.0769711260218,"[78, 0, 176]",176,l,0.10286959516815841,colour,0.06
04,23,1,1,8,31,381,1176.0913685290143,1176.7329659019597,"[60, 0, 194]",194,a,0.11821025726385415,colour,0.06
04,23,1,1,8,32,382,1178.7476126090623,1179.3969797589816,"[88, 0, 166]",166,l,0.12599696964025497,colour,0.06
04,23,1,1,8,33,383,1181.4039039504714,1182.1329885087907,"[71, 0, 183]",183,a,0.20614170003682375,colour,0.06
04,23,1,1,8,34,384,1184.1538437907584,1184.8129763309844,"[57, 0, 197]",197,a,0.13606089469976723,colour,0.06
04,23,1,1,8,35,385,1186.8257613321766,1187.5330343523528,"[65, 0, 189]",189,a,0.18394695059396327,colour,0.06
04,23,1,1,8,36,386,1189.544363701716,1190.1729921477381,"[94, 0, 160]",160,l,0.10537405638024211,colour,0.06
04,23,1,1,8,37,387,1192.1849827633705,1192.8849397159647,"[53, 0, 201]",201,a,0.1764627113007009,colour,0.06
04,23,1,1,8,38,388,1194.903647360392,1195.5729663115926,"[91, 0, 163]",163,l,0.14614136121235788,colour,0.06
04,23,1,1,8,39,389,1197.591250178637,1198.2929526530206,"[85, 0, 169]",169,l,0.17830157419666648,colour,0.06
04,23,1,1,8,40,390,1200.3098828743678,1201.0850004469976,"[66, 0, 188]",188,a,0.25160678988322616,colour,0.06
04,23,1,1,8,41,391,1203.0911999633536,1204.2609716395382,"[12, 0, 242]",242,a,0.6463833791203797,colour,0.06
04,23,1,1,8,42,392,1206.2786923081148,1206.956951150205,"[81, 0, 173]",173,l,0.15486975735984743,colour,0.06
04,23,1,1,8,43,393,1208.9661726404447,1209.612915206235,"[92, 0, 162]",162,l,0.12335151177830994,colour,0.06
04,23,1,1,8,44,394,1211.622427354101,1212.2209026222117,"[87, 0, 167]",167,l,0.0751271431799978,colour,0.06
04,23,1,1,8,45,395,1214.231736120535,1215.1969150896184,"[75, 0, 179]",179,l,0.44174025976099074,colour,0.06
04,23,1,1,8,46,396,1217.216175298905,1217.9888833267614,"[56, 0, 198]",198,a,0.2493886537849903,colour,0.06
04,23,1,1,8,47,397,1219.997447489528,1220.772898255149,"[55, 0, 199]",199,a,0.2522341851145029,colour,0.06
04,23,1,1,8,48,398,1222.7942021267954,1223.548857080983,"[99, 0, 155]",155,l,0.23129068175330758,colour,0.06
04,23,1,1,8,49,399,1225.5598429974634,1226.3808675541077,"[93, 0, 161]",161,l,0.29755355208180845,colour,0.06
04,23,1,1,8,50,400,1228.3879733083304,1228.9889081390575,"[51, 0, 203]",203,a,0.07763711805455387,colour,0.06
04,23,1,1,9,1,401,1270.574434172362,1271.4608515955042,"[87, 0, 167]",167,l,0.3621382482815534,colour,0.06
04,23,1,1,9,2,402,1273.481521770358,1274.1487667330075,"[79, 0, 175]",175,l,0.14426823379471898,colour,0.06
04,23,1,1,9,3,403,1276.16899540741,1276.748761061579,"[75, 0, 179]",179,l,0.05647030472755432,colour,0.06
04,23,1,1,9,4,404,1278.7626956966706,1280.452782890061,"[57, 0, 197]",197,a,1.166722527006641,colour,0.06
04,23,1,1,9,5,405,1282.4658506719861,1283.1967126533855,"[59, 0, 195]",195,a,0.20759538258425891,colour,0.06
04,23,1,1,9,6,406,1285.2158397426829,1285.8767193800304,"[69, 0, 185]",185,l,0.13757759239524603,colour,0.06
04,23,1,1,9,7,407,1287.8876856043935,1288.4447807443794,"[68, 0, 186]",186,l,0.033774190582334995,colour,0.06
04,23,1,1,9,8,408,1290.4657608752605,1291.004678092664,"[92, 0, 162]",162,l,0.015545461792498827,colour,0.06
04,23,1,1,9,9,409,1293.0126762997825,1293.6606890163384,"[60, 0, 194]",194,a,0.12460551504045725,colour,0.06
04,23,1,1,9,10,410,1295.6688286138233,1296.2287031190936,"[78, 0, 176]",176,l,0.03656064486131072,colour,0.06
04,23,1,1,9,11,411,1298.2470106168184,1298.9887072781567,"[73, 0, 181]",181,a,0.21840721950866282,colour,0.06
04,23,1,1,9,12,412,1300.997707821196,1301.7726922740694,"[99, 0, 155]",155,l,0.2523779384791851,colour,0.06
04,23,1,1,9,13,413,1303.7938295493368,1304.4446511692367,"[83, 0, 171]",171,l,0.127477039815858,colour,0.06
04,23,1,1,9,14,414,1306.465698253829,1307.2286523131188,"[71, 0, 183]",183,l,0.23954252526164055,colour,0.06
04,23,1,1,9,15,415,1309.2469220017083,1309.7726658864412,"[54, 0, 200]",200,a,0.0023611015640199184,colour,0.06
04,23,1,1,9,16,416,1311.7937275434379,1312.4286957147997,"[53, 0, 201]",201,a,0.1115680590737611,colour,0.06
04,23,1,1,9,17,417,1314.4500732354354,1315.204657691298,"[66, 0, 188]",188,a,0.23127138311974704,colour,0.06
04,23,1,1,9,18,418,1317.2156467586756,1318.284618102014,"[84, 0, 170]",170,l,0.5456275509204715,colour,0.06
04,23,1,1,9,19,419,1320.293757278705,1321.0766367514152,"[81, 0, 173]",173,l,0.2596109046135098,colour,0.06
04,23,1,1,9,20,420,1323.0905942295212,1323.9566329233348,"[72, 0, 182]",182,a,0.34261101228185,colour,0.06
04,23,1,1,9,21,421,1325.9655858110636,1326.708656204166,"[61, 0, 193]",193,a,0.21966437296941876,colour,0.06
04,23,1,1,9,22,422,1328.7155796079896,1329.3086477760226,"[50, 0, 204]",204,a,0.0705069457180798,colour,0.06
04,23,1,1,9,23,423,1331.3249628110789,1332.916595807299,"[93, 0, 161]",161,l,1.0682001947425306,colour,0.06
04,23,1,1,9,24,424,1334.9343475895002,1335.7245431297924,"[95, 0, 159]",159,l,0.26688089221715927,colour,0.06
04,23,1,1,9,25,425,1337.73119241721,1338.2925954353996,"[55, 0, 199]",199,a,0.039229733403772116,colour,0.06
04,23,1,1,9,26,426,1340.3080467681866,1341.0369111669715,"[80, 0, 174]",174,l,0.2054016648326069,colour,0.06
04,23,1,1,9,27,427,1343.0580023622606,1343.8045882170554,"[52, 0, 202]",202,a,0.22311130561865866,colour,0.06
04,23,1,1,9,28,428,1345.823664500611,1346.4285775611643,"[89, 0, 165]",165,l,0.0814778960775584,colour,0.06
04,23,1,1,9,29,429,1348.4487168327905,1349.052581083728,"[94, 0, 160]",160,l,0.08094187267124653,colour,0.06
04,23,1,1,9,30,430,1351.0737541988492,1351.740583654726,"[98, 0, 156]",156,l,0.1359344704542309,colour,0.06
04,23,1,1,9,31,431,1353.7532824038062,1354.3325529948343,"[74, 0, 180]",180,a,0.05620879167690873,colour,0.06
04,23,1,1,9,32,432,1356.3469389763195,1357.0286297851708,"[67, 0, 187]",187,a,0.15905318059958518,colour,0.06
04,23,1,1,9,33,433,1359.0500687456224,1359.8045385926962,"[70, 0, 184]",184,a,0.23119222046807408,colour,0.06
04,23,1,1,9,34,434,1361.8157257640269,1362.4767534870189,"[82, 0, 172]",172,a,0.13794150529429317,colour,0.06
04,23,1,1,9,35,435,1364.4874739518855,1365.14849773678,"[51, 0, 203]",203,a,0.13772489060647786,colour,0.06
04,23,1,1,9,36,436,1367.1593477765564,1368.692503433209,"[9, 0, 245]",245,a,1.0096149414312094,colour,0.06
04,23,1,1,9,37,437,1370.7062446903437,1371.452563912142,"[96, 0, 158]",158,l,0.2234858525916934,colour,0.06
04,23,1,1,9,38,438,1373.4719497580081,1374.3004676122218,"[56, 0, 198]",198,a,0.3052414092235267,colour,0.06
04,23,1,1,9,39,439,1376.3155940228608,1377.0527016003616,"[90, 0, 164]",164,l,0.21373267122544348,colour,0.06
04,23,1,1,9,40,440,1379.065645714989,1380.1245042965747,"[44, 0, 210]",210,a,0.5355553550180048,colour,0.06
04,23,1,1,9,41,441,1382.1438235824462,1383.6204522207845,"[65, 0, 189]",189,a,0.9534289930015802,colour,0.06
04,23,1,1,9,42,442,1385.6280869089533,1386.5004346079659,"[77, 0, 177]",177,a,0.3489188358653337,colour,0.06
04,23,1,1,9,43,443,1388.518676333595,1389.2604415239766,"[86, 0, 168]",168,a,0.21845566225238144,colour,0.06
04,23,1,1,9,44,444,1391.2687229057774,1392.0364354019985,"[88, 0, 166]",166,a,0.2443612206261605,colour,0.06
04,23,1,1,9,45,445,1394.0498371645808,1394.8284398729447,"[64, 0, 190]",190,a,0.25514863920398057,colour,0.06
04,23,1,1,9,46,446,1396.846792662982,1397.6204301654361,"[63, 0, 191]",191,a,0.25051465700380504,colour,0.06
04,23,1,1,9,47,447,1399.627986872336,1400.4123913133517,"[39, 0, 215]",215,a,0.26134303538128734,colour,0.06
04,23,1,1,9,48,448,1402.4249171644915,1403.0763862659223,"[97, 0, 157]",157,l,0.12812255206517875,colour,0.06
04,23,1,1,9,49,449,1405.0967197031714,1405.8123993477784,"[62, 0, 192]",192,a,0.19224487384781241,colour,0.06
04,23,1,1,9,50,450,1407.8310746969655,1408.5563866125885,"[76, 0, 178]",178,l,0.2018586341291666,colour,0.06
04,23,1,1,10,1,451,1465.5799889643677,1466.148253158899,"[98, 0, 156]",156,l,0.04405985027551651,colour,0.06
04,23,1,1,10,2,452,1468.1589389652945,1468.916253555799,"[68, 0, 186]",186,a,0.2339030564762652,colour,0.06
04,23,1,1,10,3,453,1470.9245699900202,1471.6042777884286,"[88, 0, 166]",166,l,0.15637188288383186,colour,0.06
04,23,1,1,10,4,454,1473.6120010917075,1474.3642169628292,"[19, 0, 235]",235,a,0.22879803576506674,colour,0.06
04,23,1,1,10,5,455,1476.3776628361084,1477.2925249373075,"[73, 0, 181]",181,l,0.39160101604647934,colour,0.06
04,23,1,1,10,6,456,1479.299523171503,1479.916211020667,"[94, 0, 160]",160,l,0.09329600748606026,colour,0.06
04,23,1,1,10,7,457,1481.924527848605,1482.5561759052798,"[80, 0, 174]",174,l,0.10826999973505735,colour,0.06
04,23,1,1,10,8,458,1484.565057900967,1485.1242301804014,"[64, 0, 190]",190,a,0.035803674487397075,colour,0.06
04,23,1,1,10,9,459,1487.1431276581716,1487.916186208371,"[67, 0, 187]",187,a,0.24969073315151036,colour,0.06
04,23,1,1,10,10,460,1489.924400242744,1490.676187216537,"[56, 0, 198]",198,a,0.2283069109544158,colour,0.06
04,23,1,1,10,11,461,1492.689975735033,1493.6042108347174,"[62, 0, 192]",192,a,0.39086216245777905,colour,0.06
04,23,1,1,10,12,462,1495.6118569443934,1496.3401868951041,"[75, 0, 179]",179,l,0.20527760358527303,colour,0.06
04,23,1,1,10,13,463,1498.3461843691766,1499.052232924616,"[57, 0, 197]",197,a,0.18338217656128109,colour,0.06
04,23,1,1,10,14,464,1501.065021470422,1502.2121876166202,"[72, 0, 182]",182,l,0.6237715475726873,colour,0.06
04,23,1,1,10,15,465,1504.221221636748,1504.9161779375281,"[89, 0, 165]",165,l,0.17153452686034143,colour,0.06
04,23,1,1,10,16,466,1506.9243096583523,1507.6521677826531,"[76, 0, 178]",178,l,0.20439972286112607,colour,0.06
04,23,1,1,10,17,467,1509.6587264859118,1510.4121337386314,"[31, 0, 223]",223,a,0.2300437679514289,colour,0.06
04,23,1,1,10,18,468,1512.4242326614913,1513.1641585950274,"[97, 0, 157]",157,l,0.21646162425167859,colour,0.06
04,23,1,1,10,19,469,1515.174214249244,1516.0441728837322,"[71, 0, 183]",183,l,0.34655773430131376,colour,0.06
04,23,1,1,10,20,470,1518.0649627875537,1518.9161035008729,"[61, 0, 193]",193,a,0.32773193647153676,colour,0.06
04,23,1,1,10,21,471,1520.9243517997675,1521.6841389499605,"[51, 0, 203]",203,a,0.23610425693914294,colour,0.06
04,23,1,1,10,22,472,1523.68992256606,1524.3561151744798,"[91, 0, 163]",163,l,0.14285393594764173,colour,0.06
04,23,1,1,10,23,473,1526.377492301166,1527.180100264959,"[63, 0, 191]",191,a,0.2793941400013864,colour,0.06
04,23,1,1,10,24,474,1529.189988928847,1529.868133555865,"[58, 0, 196]",196,a,0.15479453280568123,colour,0.06
04,23,1,1,10,25,475,1531.8774468121119,1532.6040804719087,"[22, 0, 232]",232,a,0.20348363905213773,colour,0.06
04,23,1,1,10,26,476,1534.6118092890829,1535.2520825546235,"[52, 0, 202]",202,a,0.11698697437532246,colour,0.06
04,23,1,1,10,27,477,1537.268079756759,1537.8440912789665,"[79, 0, 175]",175,l,0.05266182194463909,colour,0.06
04,23,1,1,10,28,478,1539.861777289072,1540.4920429494232,"[83, 0, 171]",171,l,0.10690493229776621,colour,0.06
04,23,1,1,10,29,479,1542.5022967078257,1543.140078902943,"[87, 0, 167]",167,l,0.11450693150982261,colour,0.06
04,23,1,1,10,30,480,1545.1586664244533,1546.3480590719264,"[78, 0, 176]",176,l,0.6663911063224077,colour,0.06
04,23,1,1,10,31,481,1548.362476955168,1548.9800891585182,"[54, 0, 200]",200,a,0.09495251998305321,colour,0.06
04,23,1,1,10,32,482,1550.9866915785242,1551.5880399467424,"[93, 0, 161]",161,l,0.07840354065410793,colour,0.06
04,23,1,1,10,33,483,1553.5960747816134,1554.3320843190886,"[50, 0, 204]",204,a,0.21302059944719076,colour,0.06
04,23,1,1,10,34,484,1556.3460276187398,1557.0839965357445,"[86, 0, 168]",168,l,0.2153966671321541,colour,0.06
04,23,1,1,10,35,485,1559.09599227109,1559.844036140712,"[90, 0, 164]",164,l,0.22457562200725079,colour,0.06
04,23,1,1,10,36,486,1561.8616599233355,1562.6440435450058,"[74, 0, 180]",180,l,0.2590516444761306,colour,0.06
04,23,1,1,10,37,487,1564.6585303510074,1565.1960435104556,"[65, 0, 189]",189,a,0.014499015174806118,colour,0.06
04,23,1,1,10,38,488,1567.2053496772423,1567.819995045429,"[82, 0, 172]",172,l,0.09128070180304348,colour,0.06
04,23,1,1,10,39,489,1569.8303401758894,1570.611992427148,"[66, 0, 188]",188,a,0.25835453858599067,colour,0.06
04,23,1,1,10,40,490,1572.6272039080504,1573.7719518453814,"[59, 0, 195]",195,a,0.6214234430808574,colour,0.06
04,23,1,1,10,41,491,1575.783390289871,1576.731993104564,"[60, 0, 194]",194,a,0.42545752017758787,colour,0.06
04,23,1,1,10,42,492,1578.7522493479773,1579.483975031646,"[81, 0, 173]",173,l,0.2086036258842796,colour,0.06
04,23,1,1,10,43,493,1581.5021612250712,1582.3159579357598,"[55, 0, 199]",199,a,0.29056477011181414,colour,0.06
04,23,1,1,10,44,494,1584.3303013821132,1585.1639411924407,"[99, 0, 155]",155,l,0.31033067614771426,colour,0.06
04,23,1,1,10,45,495,1587.1739854253829,1588.8199324239977,"[69, 0, 185]",185,l,1.1226106891408563,colour,0.06
04,23,1,1,10,46,496,1590.8302086314652,1591.5799409153406,"[96, 0, 158]",158,l,0.22634241147898138,colour,0.06
04,23,1,1,10,47,497,1593.5958853422198,1594.5479327265639,"[70, 0, 184]",184,l,0.42863742588087916,colour,0.06
04,23,1,1,10,48,498,1596.5645226654597,1597.1559272315353,"[95, 0, 159]",159,l,0.0680202073417604,colour,0.06
04,23,1,1,10,49,499,1599.1739038992673,1599.8838999648578,"[85, 0, 169]",169,l,0.186661331448704,colour,0.06
04,23,1,1,10,50,500,1601.8926173332147,1602.5398939531296,"[84, 0, 170]",170,l,0.12387414439581335,colour,0.06
04,23,1,1,11,1,501,1636.2354922217783,1636.8038655112032,"[91, 0, 163]",163,l,0.044545855140313506,colour,0.06
04,23,1,1,11,2,502,1638.8144666410517,1639.4838222197723,"[61, 0, 193]",193,a,0.1460484138224274,colour,0.06
04,23,1,1,11,3,503,1641.5018067646306,1642.379782116972,"[50, 0, 204]",204,a,0.3546803966164589,colour,0.06
04,23,1,1,11,4,504,1644.3924083984457,1645.1878129346296,"[70, 0, 184]",184,l,0.2720201776828617,colour,0.06
04,23,1,1,11,5,505,1647.2049770997837,1647.7557730805129,"[72, 0, 182]",182,l,0.027543166419491172,colour,0.06
04,23,1,1,11,6,506,1649.767416718416,1650.3397615423892,"[76, 0, 178]",178,l,0.04904789896681905,colour,0.06
04,23,1,1,11,7,507,1652.361220195191,1652.9717557891272,"[99, 0, 155]",155,l,0.08715241681784391,colour,0.06
04,23,1,1,11,8,508,1654.9861071123742,1655.7077704465482,"[75, 0, 179]",179,l,0.19885595864616334,colour,0.06
04,23,1,1,11,9,509,1657.7204782539047,1658.2997409680393,"[54, 0, 200]",200,a,0.0558385772164911,colour,0.06
04,23,1,1,11,10,510,1660.3142892138567,1661.0837535331957,"[73, 0, 181]",181,l,0.2461319484282285,colour,0.06
04,23,1,1,11,11,511,1663.0954554602504,1663.8437379999086,"[71, 0, 183]",183,l,0.22482571355067194,colour,0.06
04,23,1,1,11,12,512,1665.861136503052,1666.6037252235692,"[64, 0, 190]",190,a,0.21930046007037163,colour,0.06
04,23,1,1,11,13,513,1668.6110881585628,1669.2837276181672,"[98, 0, 156]",156,l,0.1493102393578738,colour,0.06
04,23,1,1,11,14,514,1671.2985775494017,1671.8437647814862,"[68, 0, 186]",186,a,0.02187179634347558,colour,0.06
04,23,1,1,11,15,515,1673.8610171680339,1677.5397218428552,"[89, 0, 165]",165,l,3.155432955827564,colour,0.06
04,23,1,1,11,16,516,1679.5485384603962,1680.1717566556763,"[85, 0, 169]",169,l,0.09975152323022485,colour,0.06
04,23,1,1,11,17,517,1682.1891138050705,1682.875733191846,"[60, 0, 194]",194,a,0.16322478814981878,colour,0.06
04,23,1,1,11,18,518,1684.8922711433843,1685.5717079762835,"[53, 0, 201]",201,a,0.15617417241446674,colour,0.06
04,23,1,1,11,19,519,1687.5797861341853,1688.3076781292912,"[93, 0, 161]",161,l,0.20458404254168272,colour,0.06
04,23,1,1,11,20,520,1690.314174604835,1690.9397176681086,"[66, 0, 188]",188,a,0.10215319087728858,colour,0.06
04,23,1,1,11,21,521,1692.9548145402223,1693.5316499865148,"[84, 0, 170]",170,l,0.053591296542435884,colour,0.06
04,23,1,1,11,22,522,1695.5483643808402,1696.1956795975566,"[95, 0, 159]",159,l,0.12433021725155413,colour,0.06
04,23,1,1,11,23,523,1698.2047526079696,1699.2916454810183,"[51, 0, 203]",203,a,0.5636286372318864,colour,0.06
04,23,1,1,11,24,524,1701.2985094143078,1702.1156805900391,"[49, 0, 205]",205,a,0.29392505693249404,colour,0.06
04,23,1,1,11,25,525,1704.126624758821,1704.9156466405839,"[83, 0, 171]",171,l,0.26568478462286294,colour,0.06
04,23,1,1,11,26,526,1706.9234479251318,1707.6116470249835,"[86, 0, 168]",168,l,0.1648332520853728,colour,0.06
04,23,1,1,11,27,527,1709.6265320084058,1710.3876472045667,"[97, 0, 157]",157,l,0.23765403777360916,colour,0.06
04,23,1,1,11,28,528,1712.4078219220974,1713.171642440604,"[56, 0, 198]",198,a,0.24042316316626966,colour,0.06
04,23,1,1,11,29,529,1715.1890015592799,1715.7636054789182,"[92, 0, 162]",162,l,0.05119553650729358,colour,0.06
04,23,1,1,11,30,530,1717.782853872748,1719.3956962176599,"[65, 0, 189]",189,a,1.0895221831742674,colour,0.06
04,23,1,1,11,31,531,1721.4077785990667,1722.0436148052104,"[69, 0, 185]",185,l,0.11245421064086258,colour,0.06
04,23,1,1,11,32,532,1724.064035675954,1724.6195861552842,"[62, 0, 192]",192,a,0.032694660825654864,colour,0.06
04,23,1,1,11,33,533,1726.6264745069202,1727.2196112039965,"[88, 0, 166]",166,l,0.06963418493978679,colour,0.06
04,23,1,1,11,34,534,1729.2358281714842,1729.971633303212,"[67, 0, 187]",187,a,0.2126145449001342,colour,0.06
04,23,1,1,11,35,535,1731.9866994554177,1732.6996076120995,"[59, 0, 195]",195,a,0.1909908710513264,colour,0.06
04,23,1,1,11,36,536,1734.7201403349172,1735.4275980682578,"[77, 0, 177]",177,l,0.18427620502188802,colour,0.06
04,23,1,1,11,37,537,1737.438944746973,1738.2115570707247,"[57, 0, 197]",197,a,0.2492705003824085,colour,0.06
04,23,1,1,11,38,538,1740.2201897623017,1741.0116011025384,"[63, 0, 191]",191,a,0.26823768857866526,colour,0.06
04,23,1,1,11,39,539,1743.0326741808094,1743.7795534504112,"[52, 0, 202]",202,a,0.2234803386963904,colour,0.06
04,23,1,1,11,40,540,1745.7982614887878,1746.4435031106696,"[33, 0, 221]",221,a,0.12183954031206667,colour,0.06
04,23,1,1,11,41,541,1748.4545374701265,1749.1956012223382,"[78, 0, 176]",176,l,0.21773059340193868,colour,0.06
04,23,1,1,11,42,542,1751.20448203641,1752.0755162620917,"[82, 0, 172]",172,l,0.3477869250345975,colour,0.06
04,23,1,1,11,43,543,1754.0949938737322,1754.715578426607,"[87, 0, 167]",167,l,0.09713875455781817,colour,0.06
04,23,1,1,11,44,544,1756.735688159708,1757.3795190283563,"[94, 0, 160]",160,l,0.12054182053543627,colour,0.06
04,23,1,1,11,45,545,1759.3919668979943,1760.0435817223042,"[48, 0, 206]",206,a,0.12825488415546715,colour,0.06
04,23,1,1,11,46,546,1762.0638269381598,1762.6035318456125,"[81, 0, 173]",173,l,0.016527711413800716,colour,0.06
04,23,1,1,11,47,547,1764.610663593514,1765.3234677750152,"[79, 0, 175]",175,l,0.18947338568978012,colour,0.06
04,23,1,1,11,48,548,1767.345091448864,1767.9555017999373,"[90, 0, 164]",164,l,0.08762621250934899,colour,0.06
04,23,1,1,11,49,549,1769.9700768273324,1770.5954493556637,"[96, 0, 158]",158,l,0.10223432304337621,colour,0.06
04,23,1,1,11,50,550,1772.6108034085482,1773.3155065891333,"[80, 0, 174]",174,l,0.1815015661995858,colour,0.06
04,23,1,1,12,1,551,1789.9379634817597,1790.4834500360303,"[87, 0, 167]",167,l,0.021255822386592627,colour,0.06
04,23,1,1,12,2,552,1792.5013195781503,1793.0914236675017,"[99, 0, 155]",155,l,0.06686309049837291,colour,0.06
04,23,1,1,12,3,553,1795.1106874211691,1796.1393762831576,"[89, 0, 165]",165,l,0.5054553460795432,colour,0.06
04,23,1,1,12,4,554,1798.1575081259944,1798.8114017380867,"[97, 0, 157]",157,l,0.1304442691616714,colour,0.06
04,23,1,1,12,5,555,1800.8293724982068,1801.42739405646,"[57, 0, 197]",197,a,0.07503262022510171,colour,0.06
04,23,1,1,12,6,556,1803.4387395537924,1804.0114014230203,"[92, 0, 162]",162,l,0.0493629751726985,colour,0.06
04,23,1,1,12,7,557,1806.032478833804,1807.0273801144212,"[85, 0, 169]",169,l,0.4723920461256057,colour,0.06
04,23,1,1,12,8,558,1809.0472208512947,1809.7235352799762,"[50, 0, 204]",204,a,0.15280994726344943,colour,0.06
04,23,1,1,12,9,559,1811.7347496266011,1812.331497883657,"[84, 0, 170]",170,l,0.07342455047182739,colour,0.06
04,23,1,1,12,10,560,1814.3441627619322,1815.0673427938018,"[75, 0, 179]",179,l,0.1999008299317211,colour,0.06
04,23,1,1,12,11,561,1817.0784771898761,1817.7153310917784,"[51, 0, 203]",203,a,0.11353295249864459,colour,0.06
04,23,1,1,12,12,562,1819.7347047282383,1820.7233560804743,"[96, 0, 158]",158,l,0.4653272519353777,colour,0.06
04,23,1,1,12,13,563,1822.73470236524,1824.1873493788298,"[81, 0, 173]",173,l,0.9295883649028838,colour,0.06
04,23,1,1,12,14,564,1826.2034355897922,1826.7313621644862,"[61, 0, 193]",193,a,0.004744258476421237,colour,0.06
04,23,1,1,12,15,565,1828.750323051354,1829.4672909637447,"[53, 0, 201]",201,a,0.19366626115515828,colour,0.06
04,23,1,1,12,16,566,1831.4846618976444,1832.21945839189,"[67, 0, 187]",187,l,0.2114152864087373,colour,0.06
04,23,1,1,12,17,567,1834.234633639222,1834.8113076090813,"[52, 0, 202]",202,a,0.0532896111253649,colour,0.06
04,23,1,1,12,18,568,1836.8283544084989,1837.5473269927315,"[73, 0, 181]",181,l,0.195502367336303,colour,0.06
04,23,1,1,12,19,569,1839.562742485432,1840.1073338298593,"[15, 0, 239]",239,l,0.022017912939190865,colour,0.06
04,23,1,1,12,20,570,1842.1253518513404,1843.0833065190818,"[74, 0, 180]",180,l,0.43466798262670636,colour,0.06
04,23,1,1,12,21,571,1845.0939297040459,1846.4832472058479,"[77, 0, 177]",177,l,0.8659756784327328,colour,0.06
04,23,1,1,12,22,572,1848.5002940052655,1849.251275565941,"[88, 0, 166]",166,l,0.2276094111148268,colour,0.06
04,23,1,1,12,23,573,1851.2657572519965,1851.9793388836551,"[60, 0, 194]",194,a,0.19021657155826688,colour,0.06
04,23,1,1,12,24,574,1853.9845222795848,1854.7153094303794,"[83, 0, 171]",171,l,0.2075162196997553,colour,0.06
04,23,1,1,12,25,575,1856.7344991411082,1857.4832468121313,"[0, 0, 254]",254,a,0.22542475233785808,colour,0.06
04,23,1,1,12,26,576,1859.5001148057636,1860.1632688988466,"[79, 0, 175]",175,l,0.13978115585632622,colour,0.06
04,23,1,1,12,27,577,1862.1720020212233,1862.7792789402883,"[82, 0, 172]",172,l,0.08398708328604698,colour,0.06
04,23,1,1,12,28,578,1864.7969578611664,1865.5392756164074,"[65, 0, 189]",189,a,0.21894993796013296,colour,0.06
04,23,1,1,12,29,579,1867.5470012826845,1868.1232376906555,"[95, 0, 159]",159,l,0.052936726016923785,colour,0.06
04,23,1,1,12,30,580,1870.1406854244415,1870.7792151374742,"[20, 0, 234]",234,a,0.11507485620677471,colour,0.06
04,23,1,1,12,31,581,1872.7969452582765,1873.5072118954267,"[58, 0, 196]",196,a,0.1869854659307748,colour,0.06
04,23,1,1,12,32,582,1875.5156527843792,1876.2351830531843,"[62, 0, 192]",192,a,0.19617347931489348,colour,0.06
04,23,1,1,12,33,583,1878.2500928489026,1878.9151996262372,"[78, 0, 176]",176,l,0.14179055392742157,colour,0.06
04,23,1,1,12,34,584,1880.921912322985,1881.4596452477854,"[91, 0, 163]",163,l,0.01432966161519289,colour,0.06
04,23,1,1,12,35,585,1883.4688553165179,1884.0912960616406,"[64, 0, 190]",190,l,0.0992588228546083,colour,0.06
04,23,1,1,12,36,586,1886.109422390582,1886.9631841434166,"[56, 0, 198]",198,a,0.3302793267648667,colour,0.06
04,23,1,1,12,37,587,1888.9844608397689,1889.7231890901458,"[80, 0, 174]",174,l,0.21543447626754642,colour,0.06
04,23,1,1,12,38,588,1891.7344798427075,1892.483187341364,"[70, 0, 184]",184,l,0.22542711510322988,colour,0.06
04,23,1,1,12,39,589,1894.500019889092,1895.443150225561,"[71, 0, 183]",183,l,0.4197065932676196,colour,0.06
04,23,1,1,12,40,590,1897.4533287594095,1898.2032658427488,"[63, 0, 191]",191,a,0.22696704976260662,colour,0.06
04,23,1,1,12,41,591,1900.2188506890088,1900.923126941314,"[66, 0, 188]",188,a,0.18124084058217704,colour,0.06
04,23,1,1,12,42,592,1902.937599175144,1903.6991605977528,"[93, 0, 161]",161,l,0.23818730399943888,colour,0.06
04,23,1,1,12,43,593,1905.7201742054895,1906.4911788532045,"[86, 0, 168]",168,l,0.24756200006231666,colour,0.06
04,23,1,1,12,44,594,1908.5014944453724,1909.291159082204,"[76, 0, 178]",178,l,0.2663759826682508,colour,0.06
04,23,1,1,12,45,595,1911.2983337591868,1912.0602697287686,"[94, 0, 160]",160,l,0.23858705698512495,colour,0.06
04,23,1,1,12,46,596,1914.0796374576166,1914.7150936031248,"[90, 0, 164]",164,l,0.11208399618044496,colour,0.06
04,23,1,1,12,47,597,1916.735783470096,1917.4430805149022,"[54, 0, 200]",200,a,0.18410685169510543,colour,0.06
04,23,1,1,12,48,598,1919.4545839438215,1920.1711182326544,"[69, 0, 185]",185,a,0.19326020684093237,colour,0.06
04,23,1,1,12,49,599,1922.1889456331264,1922.859100323636,"[59, 0, 195]",195,a,0.1468045962974429,colour,0.06
04,23,1,1,12,50,600,1924.8764334486332,1925.6430920150597,"[98, 0, 156]",156,l,0.24367829295806587,colour,0.06
04,23,1,1,13,1,601,1943.8286423094105,1944.475105245132,"[74, 0, 180]",180,l,0.12248426489531994,colour,0.06
04,23,1,1,13,2,602,1946.4857339442242,1947.0592169805896,"[93, 0, 161]",161,l,0.0504169047344476,colour,0.06
04,23,1,1,13,3,603,1949.0793550706003,1950.0353220019024,"[52, 0, 202]",202,a,0.4325490959454328,colour,0.06
04,23,1,1,13,4,604,1952.0481570211705,1952.778997341171,"[96, 0, 158]",158,l,0.20753591181710362,colour,0.06
04,23,1,1,13,5,605,1954.7981476674322,1955.4349901478272,"[92, 0, 162]",162,l,0.11347820796072483,colour,0.06
04,23,1,1,13,6,606,1957.4543602399062,1959.0749948110897,"[57, 0, 197]",197,a,1.0972612402401865,colour,0.06
04,23,1,1,13,7,607,1961.0950320765842,1961.8509646644816,"[94, 0, 160]",160,l,0.232575798407197,colour,0.06
04,23,1,1,13,8,608,1963.8606831873767,1964.4989647779148,"[60, 0, 194]",194,a,0.1150279885623604,colour,0.06
04,23,1,1,13,9,609,1966.5168622829951,1967.2349317800254,"[77, 0, 177]",177,a,0.19491553795523942,colour,0.06
04,23,1,1,13,10,610,1969.2511944337748,1969.9390000822023,"[99, 0, 155]",155,l,0.16438387450762093,colour,0.06
04,23,1,1,13,11,611,1971.9542993907817,1972.603004880948,"[62, 0, 192]",192,a,0.12540738377720118,colour,0.06
04,23,1,1,13,12,612,1974.6105860059615,1975.3149792305194,"[54, 0, 200]",200,a,0.1812294190749526,colour,0.06
04,23,1,1,13,13,613,1977.3291868004017,1977.9869515164755,"[90, 0, 164]",164,l,0.13413932430557907,colour,0.06
04,23,1,1,13,14,614,1980.00120555982,1980.7629221575335,"[69, 0, 185]",185,l,0.23873789957724512,colour,0.06
04,23,1,1,13,15,615,1982.7823402986396,1983.3949069520459,"[67, 0, 187]",187,l,0.08918308257125318,colour,0.06
04,23,1,1,13,16,616,1985.407391055487,1986.7949106541928,"[55, 0, 199]",199,a,0.864180532284081,colour,0.06
04,23,1,1,13,17,617,1988.813578520203,1989.3869189848192,"[76, 0, 178]",178,l,0.049942715326324105,colour,0.06
04,23,1,1,13,18,618,1991.4073201634455,1992.0669658838306,"[51, 0, 203]",203,a,0.1362519096583128,colour,0.06
04,23,1,1,13,19,619,1994.0791053727735,1994.6829266946297,"[58, 0, 196]",196,a,0.08036331413313746,colour,0.06
04,23,1,1,13,20,620,1996.6885389881209,1997.4748969010543,"[66, 0, 188]",188,l,0.26301096961833537,colour,0.06
04,23,1,1,13,21,621,1999.4853192251176,2000.2269260897301,"[10, 0, 244]",244,a,0.21828512731008232,colour,0.06
04,23,1,1,13,22,622,2002.2353496497963,2002.9788776908536,"[63, 0, 191]",191,a,0.22030515898950398,colour,0.06
04,23,1,1,13,23,623,2004.985290671466,2005.674859170802,"[82, 0, 172]",172,l,0.1663097774144262,colour,0.06
04,23,1,1,13,24,624,2007.6884968467057,2008.5068664930295,"[73, 0, 181]",181,l,0.2950175830628723,colour,0.06
04,23,1,1,13,25,625,2010.516588166589,2011.4109258155804,"[65, 0, 189]",189,a,0.37095801648683846,colour,0.06
04,23,1,1,13,26,626,2013.4228175759781,2014.1948879687116,"[71, 0, 183]",183,l,0.2486549203749746,colour,0.06
04,23,1,1,13,27,627,2016.2040070591029,2016.9391796756536,"[56, 0, 198]",198,a,0.21174493478611112,colour,0.06
04,23,1,1,13,28,628,2018.9540402407292,2019.5468524091411,"[86, 0, 168]",168,l,0.06938842544332147,colour,0.06
04,23,1,1,13,29,629,2021.5634368343744,2022.3308511897922,"[80, 0, 174]",174,l,0.24402133212424815,colour,0.06
04,23,1,1,13,30,630,2024.3447232036851,2025.0108488583937,"[78, 0, 176]",176,l,0.14279564679600298,colour,0.06
04,23,1,1,13,31,631,2027.0333039392717,2027.6188433633652,"[81, 0, 173]",173,l,0.06224131747148931,colour,0.06
04,23,1,1,13,32,632,2029.6270857546479,2030.6109920605086,"[68, 0, 186]",186,a,0.4605873255059123,colour,0.06
04,23,1,1,13,33,633,2032.6270849669818,2033.194823771948,"[97, 0, 157]",157,l,0.04451001528650522,colour,0.06
04,23,1,1,13,34,634,2035.2052980836015,2035.946871865075,"[85, 0, 169]",169,l,0.2183678348083049,colour,0.06
04,23,1,1,13,35,635,2037.9551410379354,2038.6988069247454,"[98, 0, 156]",156,l,0.22033587889745831,colour,0.06
04,23,1,1,13,36,636,2040.7050686688162,2041.3387820494827,"[88, 0, 166]",166,l,0.11116121686063707,colour,0.06
04,23,1,1,13,37,637,2043.3457011210267,2044.7787988430355,"[79, 0, 175]",175,l,0.909802372334525,colour,0.06
04,23,1,1,13,38,638,2046.7918433882296,2047.610769537976,"[72, 0, 182]",182,a,0.29577219067141414,colour,0.06
04,23,1,1,13,39,639,2049.6198256132193,2050.418768060161,"[61, 0, 193]",193,a,0.2757207464892417,colour,0.06
04,23,1,1,13,40,640,2052.432389588328,2054.1227985532023,"[89, 0, 165]",165,l,1.167047055438161,colour,0.06
04,23,1,1,13,41,641,2056.1354078995064,2056.922766966978,"[84, 0, 170]",170,l,0.26407159492373466,colour,0.06
04,23,1,1,13,42,642,2058.932353157783,2059.690775634721,"[91, 0, 163]",163,l,0.2351192506030202,colour,0.06
04,23,1,1,13,43,643,2061.6979597639292,2062.490751531208,"[59, 0, 195]",195,a,0.26931958133354783,colour,0.06
04,23,1,1,13,44,644,2064.51054106839,2065.266712720273,"[50, 0, 204]",204,a,0.23290465911850333,colour,0.06
04,23,1,1,13,45,645,2067.2760421240237,2068.0827413510997,"[14, 0, 240]",240,a,0.28351060952991247,colour,0.06
04,23,1,1,13,46,646,2070.1041326564737,2070.7627606811,"[70, 0, 184]",184,l,0.13603805168531835,colour,0.06
04,23,1,1,13,47,647,2072.7759434657637,2073.570692643523,"[48, 0, 206]",206,a,0.2715837969444692,colour,0.06
04,23,1,1,13,48,648,2075.5885054718237,2076.266654825071,"[95, 0, 159]",159,l,0.15480083459988236,colour,0.06
04,23,1,1,13,49,649,2078.2759609918576,2078.9706770472694,"[75, 0, 179]",179,l,0.17130137071944773,colour,0.06
04,23,1,1,13,50,650,2080.9791329025757,2081.54665588052,"[83, 0, 171]",171,l,0.044244563672691584,colour,0.06
04,23,1,1,14,1,651,2096.884636849165,2097.530626776861,"[75, 0, 179]",179,l,0.12198486924171448,colour,0.06
04,23,1,1,14,2,652,2099.54163474869,2100.138627583394,"[77, 0, 177]",177,l,0.07403343496844172,colour,0.06
04,23,1,1,14,3,653,2102.150895465864,2103.506614826154,"[57, 0, 197]",197,a,0.8323578445706517,colour,0.06
04,23,1,1,14,4,654,2105.5259557734244,2106.266614258988,"[95, 0, 159]",159,l,0.21463969675824046,colour,0.06
04,23,1,1,14,5,655,2108.2785485545173,2108.922596432036,"[65, 0, 189]",189,a,0.12062846659682691,colour,0.06
04,23,1,1,14,6,656,2110.934872585116,2111.6905869827606,"[72, 0, 182]",182,a,0.23257382912561297,colour,0.06
04,23,1,1,14,7,657,2113.700446896022,2114.234596224036,"[96, 0, 158]",158,l,0.009532627882435918,colour,0.06
04,23,1,1,14,8,658,2116.248795129126,2116.9786083009094,"[99, 0, 155]",155,l,0.20645756390877068,colour,0.06
04,23,1,1,14,9,659,2118.9988271291368,2119.64261585637,"[67, 0, 187]",187,a,0.12052015913650393,colour,0.06
04,23,1,1,14,10,660,2121.6550849936903,2122.3705937096383,"[85, 0, 169]",169,l,0.19261390692554414,colour,0.06
04,23,1,1,14,11,661,2124.389416356804,2124.978630356258,"[82, 0, 172]",172,l,0.065860754577443,colour,0.06
04,23,1,1,14,12,662,2126.9987172463443,2127.6905830444302,"[66, 0, 188]",188,a,0.16854681773111224,colour,0.06
04,23,1,1,14,13,663,2129.7018793108873,2130.522689615609,"[73, 0, 181]",181,a,0.29763035173527896,colour,0.06
04,23,1,1,14,14,664,2132.5299915047362,2133.1385763837025,"[68, 0, 186]",186,a,0.08550102426670492,colour,0.06
04,23,1,1,14,15,665,2135.1549489202444,2135.8025122594554,"[89, 0, 165]",165,l,0.12436251249164343,colour,0.06
04,23,1,1,14,16,666,2137.811122108018,2138.5065695338417,"[51, 0, 203]",203,a,0.17197917820885777,colour,0.06
04,23,1,1,14,17,667,2140.514232972637,2141.4345328935888,"[55, 0, 199]",199,a,0.39721842925064266,colour,0.06
04,23,1,1,14,18,668,2143.451843569288,2144.154503087513,"[91, 0, 163]",163,l,0.17948744213208556,colour,0.06
04,23,1,1,14,19,669,2146.1705404617824,2146.7785522961058,"[76, 0, 178]",178,l,0.08491380116902292,colour,0.06
04,23,1,1,14,20,670,2148.795590430964,2149.4824733000714,"[64, 0, 190]",190,l,0.1635508919134736,colour,0.06
04,23,1,1,14,21,671,2151.4985421821475,2152.186521122465,"[60, 0, 194]",194,a,0.16447721584700048,colour,0.06
04,23,1,1,14,22,672,2154.2017869541887,2154.7624983801506,"[59, 0, 195]",195,l,0.037589762127026916,colour,0.06
04,23,1,1,14,23,673,2156.779911061749,2158.2904832439963,"[83, 0, 171]",171,l,0.9872063342481852,colour,0.06
04,23,1,1,14,24,674,2160.311037628213,2160.8584973467514,"[61, 0, 193]",193,a,0.024813425727188587,colour,0.06
04,23,1,1,14,25,675,2162.8735564097296,2163.6115525020286,"[98, 0, 156]",156,l,0.21486143139190972,colour,0.06
04,23,1,1,14,26,676,2165.623534846818,2166.7784652563278,"[88, 0, 166]",166,l,0.6316027645953,colour,0.06
04,23,1,1,14,27,677,2168.795364757534,2169.450449751457,"[87, 0, 167]",167,l,0.13175025978125632,colour,0.06
04,23,1,1,14,28,678,2171.4674079357646,2172.1704356989358,"[56, 0, 198]",198,a,0.1796693983487785,colour,0.06
04,23,1,1,14,29,679,2174.186214317102,2174.8584087316412,"[86, 0, 168]",168,l,0.14899831404909492,colour,0.06
04,23,1,1,14,30,680,2176.8737107971683,2177.4825079585426,"[93, 0, 161]",161,l,0.08559751627035439,colour,0.06
04,23,1,1,14,31,681,2179.498597320402,2181.0903917930555,"[74, 0, 180]",180,l,1.0686369687318802,colour,0.06
04,23,1,1,14,32,682,2183.108018726576,2183.746472033672,"[52, 0, 202]",202,a,0.11518749594688416,colour,0.06
04,23,1,1,14,33,683,2185.765426225029,2186.4183816981968,"[30, 0, 224]",224,a,0.12948171165771782,colour,0.06
04,23,1,1,14,34,684,2188.437424110947,2189.5383894648403,"[90, 0, 164]",164,l,0.5777716164011508,colour,0.06
04,23,1,1,14,35,685,2191.546820901567,2193.642369703157,"[70, 0, 184]",184,l,1.572248725919053,colour,0.06
04,23,1,1,14,36,686,2195.6561566463206,2196.346393894637,"[58, 0, 196]",196,a,0.16688085277564824,colour,0.06
04,23,1,1,14,37,687,2198.359219067963,2198.946361835813,"[79, 0, 175]",175,l,0.06369381863623857,colour,0.06
04,23,1,1,14,38,688,2200.9529788279906,2201.714385469677,"[71, 0, 183]",183,l,0.2382605595048517,colour,0.06
04,23,1,1,14,39,689,2203.7341978496406,2204.4983681025915,"[78, 0, 176]",176,l,0.24080164823681116,colour,0.06
04,23,1,1,14,40,690,2206.5153853637166,2207.2503953219857,"[18, 0, 236]",236,a,0.21199699584394693,colour,0.06
04,23,1,1,14,41,691,2209.2654197267257,2210.0183220698964,"[50, 0, 204]",204,a,0.2293387851677835,colour,0.06
04,23,1,1,14,42,692,2212.0309743452817,2212.7463578186,"[69, 0, 185]",185,l,0.1918971089180559,colour,0.06
04,23,1,1,14,43,693,2214.7654041696806,2215.538339052582,"[97, 0, 157]",157,l,0.24956430890597403,colour,0.06
04,23,1,1,14,44,694,2217.5465893207584,2218.3063000650145,"[80, 0, 174]",174,l,0.23635356104932725,colour,0.06
04,23,1,1,14,45,695,2220.32787490217,2220.978356633801,"[7, 0, 247]",247,a,0.12702529947273433,colour,0.06
04,23,1,1,14,46,696,2222.9998097727075,2223.562286412809,"[81, 0, 173]",173,l,0.03923406568355858,colour,0.06
04,23,1,1,14,47,697,2225.5778169084806,2226.834305014927,"[53, 0, 201]",201,a,0.733082874212414,colour,0.06
04,23,1,1,14,48,698,2228.843471366912,2229.426349185407,"[92, 0, 162]",162,l,0.059548204531893134,colour,0.06
04,23,1,1,14,49,699,2231.437204739079,2232.154301832663,"[84, 0, 170]",170,l,0.1937040702905506,colour,0.06
04,23,1,1,14,50,700,2234.171561308438,2234.7783081121743,"[94, 0, 160]",160,l,0.08332739304751158,colour,0.06
04,23,1,1,15,1,701,2267.1337836820167,2267.8502415649127,"[86, 0, 168]",168,l,0.19247133494354784,colour,0.06
04,23,1,1,15,2,702,2269.8689421201125,2270.5221851000097,"[56, 0, 198]",198,a,0.1300642085261643,colour,0.06
04,23,1,1,15,3,703,2272.5408994399477,2273.434323761845,"[69, 0, 185]",185,l,0.37045743921771646,colour,0.06
04,23,1,1,15,4,704,2275.4469594957773,2276.4021631549112,"[92, 0, 162]",162,l,0.43175982986576855,colour,0.06
04,23,1,1,15,5,705,2278.4157382093836,2279.0422012950294,"[66, 0, 188]",188,a,0.10312126227654517,colour,0.06
04,23,1,1,15,6,706,2281.0564175292384,2281.7861574457493,"[75, 0, 179]",179,l,0.2063890346325934,colour,0.06
04,23,1,1,15,7,707,2283.806454649195,2284.4181961971335,"[90, 0, 164]",164,l,0.08844462293200195,colour,0.06
04,23,1,1,15,8,708,2286.43125885888,2287.0341818202287,"[52, 0, 202]",202,a,0.07948110136203468,colour,0.06
04,23,1,1,15,9,709,2289.040814566193,2290.578112686053,"[70, 0, 184]",184,l,1.0139716565608978,colour,0.06
04,23,1,1,15,10,710,2292.587570089614,2293.266139281681,"[83, 0, 171]",171,l,0.15597606846131384,colour,0.06
04,23,1,1,15,11,711,2295.284221106209,2296.010145844659,"[89, 0, 165]",165,l,0.20260339509695768,colour,0.06
04,23,1,1,15,12,712,2298.0186162723694,2298.674181757029,"[67, 0, 187]",187,a,0.13239813479594886,colour,0.06
04,23,1,1,15,13,713,2300.690492853755,2301.298124627443,"[81, 0, 173]",173,l,0.08426041202619672,colour,0.06
04,23,1,1,15,14,714,2303.315459721489,2304.762133285869,"[84, 0, 170]",170,l,0.9232317043934017,colour,0.06
04,23,1,1,15,15,715,2306.7684261435643,2307.578116624616,"[95, 0, 159]",159,l,0.286366774700582,colour,0.06
04,23,1,1,15,16,716,2309.5967750384007,2310.5940740483347,"[98, 0, 156]",156,l,0.4739237099420279,colour,0.06
04,23,1,1,15,17,717,2312.612233854132,2313.3380892758723,"[74, 0, 180]",180,a,0.20944960531778634,colour,0.06
04,23,1,1,15,18,718,2315.3589165948797,2316.1140744893346,"[80, 0, 174]",174,l,0.2321386302355677,colour,0.06
04,23,1,1,15,19,719,2318.124712246936,2318.89805554715,"[64, 0, 190]",190,a,0.25010308902710676,colour,0.06
04,23,1,1,15,20,720,2320.905631946167,2321.6020785570145,"[7, 0, 247]",247,a,0.17372903204523027,colour,0.06
04,23,1,1,15,21,721,2323.6089227979537,2324.3460677908733,"[59, 0, 195]",195,a,0.21373582212254405,colour,0.06
04,23,1,1,15,22,722,2326.3588023798075,2327.1861079789232,"[73, 0, 181]",181,a,0.30380741925910115,colour,0.06
04,23,1,1,15,23,723,2329.1967949669342,2329.8742208264302,"[87, 0, 167]",167,l,0.1541730451863259,colour,0.06
04,23,1,1,15,24,724,2331.8841803825926,2332.7299963096157,"[62, 0, 192]",192,a,0.32275334000587463,colour,0.06
04,23,1,1,15,25,725,2334.743476841133,2335.554026692407,"[72, 0, 182]",182,l,0.28787126298993826,colour,0.06
04,23,1,1,15,26,726,2337.57166347187,2338.1460535337683,"[85, 0, 169]",169,l,0.0510250017978251,colour,0.06
04,23,1,1,15,27,727,2340.165665446548,2340.857992831152,"[57, 0, 197]",197,a,0.1690186441410333,colour,0.06
04,23,1,1,15,28,728,2342.868806637358,2343.5140502285212,"[88, 0, 166]",166,l,0.12219203170388937,colour,0.06
04,23,1,1,15,29,729,2345.5249207485467,2346.1540135380346,"[99, 0, 155]",155,l,0.10545637016184628,colour,0.06
04,23,1,1,15,30,730,2348.165618579136,2348.801960482262,"[71, 0, 183]",183,a,0.11289689247496426,colour,0.06
04,23,1,1,15,31,731,2350.8218457237817,2351.4740434386767,"[50, 0, 204]",204,a,0.12918475223705173,colour,0.06
04,23,1,1,15,32,732,2353.493759326637,2354.258031979436,"[53, 0, 201]",201,a,0.24144282820634544,colour,0.06
04,23,1,1,15,33,733,2356.2750035542995,2357.0420488768723,"[51, 0, 203]",203,a,0.24410797818563879,colour,0.06
04,23,1,1,15,34,734,2359.05623793602,2359.7459868164733,"[77, 0, 177]",177,l,0.1664054817520082,colour,0.06
04,23,1,1,15,35,735,2361.759284603875,2362.497977408115,"[63, 0, 191]",191,a,0.21532813785597682,colour,0.06
04,23,1,1,15,36,736,2364.5093236928806,2365.21791058057,"[55, 0, 199]",199,a,0.18527972255833447,colour,0.06
04,23,1,1,15,37,737,2367.2280142838135,2367.753983841976,"[78, 0, 176]",176,l,0.002590319374576211,colour,0.06
04,23,1,1,15,38,738,2369.774969880702,2370.5699029839598,"[94, 0, 160]",160,l,0.2715995507314801,colour,0.06
04,23,1,1,15,39,739,2372.5873755300418,2373.281968705822,"[68, 0, 186]",186,a,0.17119345720857382,colour,0.06
04,23,1,1,15,40,740,2375.2906017913483,2376.017992421519,"[91, 0, 163]",163,l,0.20405510836280882,colour,0.06
04,23,1,1,15,41,741,2378.0248287855648,2378.673917487031,"[58, 0, 196]",196,a,0.12607455719262362,colour,0.06
04,23,1,1,15,42,742,2380.6811417886056,2381.4099971288815,"[65, 0, 189]",189,a,0.20530202216468751,colour,0.06
04,23,1,1,15,43,743,2383.4311371608637,2384.4419501794036,"[79, 0, 175]",175,l,0.48752987827174366,colour,0.06
04,23,1,1,15,44,744,2386.4622914933134,2387.2018759630155,"[31, 0, 223]",223,a,0.2161867201793939,colour,0.06
04,23,1,1,15,45,745,2389.212069069268,2389.8498563843314,"[12, 0, 242]",242,a,0.1144600638654083,colour,0.06
04,23,1,1,15,46,746,2391.8682922755834,2392.63389454945,"[60, 0, 194]",194,a,0.24240893009118736,colour,0.06
04,23,1,1,15,47,747,2394.6495112972334,2395.393867200939,"[93, 0, 161]",161,l,0.22098217904567719,colour,0.06
04,23,1,1,15,48,748,2397.4151505925693,2398.1458601558115,"[82, 0, 172]",172,l,0.2080703596584499,colour,0.06
04,23,1,1,15,49,749,2400.1651353309862,2400.729901392944,"[61, 0, 193]",193,a,0.041412029415369034,colour,0.06
04,23,1,1,15,50,750,2402.7432747986168,2403.433886987623,"[97, 0, 157]",157,l,0.16734125767834485,colour,0.06
04,23,1,1,16,1,751,2411.2268248714972,2411.9298447580077,"[86, 0, 168]",168,l,0.17924286425113678,colour,0.06
04,23,1,1,16,2,752,2413.9463259957265,2414.721832687501,"[69, 0, 185]",185,a,0.2521337545476854,colour,0.06
04,23,1,1,16,3,753,2416.743157038931,2417.8820764617994,"[62, 0, 192]",192,a,0.6156807870138437,colour,0.06
04,23,1,1,16,4,754,2419.8995557031594,2420.745798164513,"[39, 0, 215]",215,a,0.32294041640125215,colour,0.06
04,23,1,1,16,5,755,2422.7587954481132,2423.3777805957943,"[70, 0, 184]",184,a,0.09562953980639577,colour,0.06
04,23,1,1,16,6,756,2425.3993574022315,2426.1298302644864,"[50, 0, 204]",204,a,0.20708535285666585,colour,0.06
04,23,1,1,16,7,757,2428.1493653776124,2428.9858066085726,"[99, 0, 155]",155,a,0.31307735247537494,colour,0.06
04,23,1,1,16,8,758,2430.993107316084,2431.6897910218686,"[90, 0, 164]",164,l,0.17337654088623822,colour,0.06
04,23,1,1,16,9,759,2433.6962532328907,2434.4257792914286,"[57, 0, 197]",197,a,0.20626812428236008,colour,0.06
04,23,1,1,16,10,760,2436.446182833053,2437.186435658019,"[61, 0, 193]",193,a,0.21683617099188268,colour,0.06
04,23,1,1,16,11,761,2439.196235706797,2439.9137404300272,"[67, 0, 187]",187,a,0.1942148874513805,colour,0.06
04,23,1,1,16,12,762,2441.930492633255,2442.5857418603264,"[97, 0, 157]",157,l,0.1318388746585697,colour,0.06
04,23,1,1,16,13,763,2444.6024806729984,2445.2657340150326,"[59, 0, 195]",195,a,0.1402592840604484,colour,0.06
04,23,1,1,16,14,764,2447.274344651494,2447.8737836584914,"[55, 0, 199]",199,a,0.07614444522187114,colour,0.06
04,23,1,1,16,15,765,2449.8836664147675,2450.59373731073,"[66, 0, 188]",188,a,0.1868271401617676,colour,0.06
04,23,1,1,16,16,766,2452.602401510114,2453.3057380479295,"[63, 0, 191]",191,a,0.18019439396448433,colour,0.06
04,23,1,1,16,17,767,2455.321125183953,2456.3377277262043,"[58, 0, 196]",196,a,0.4932634758297354,colour,0.06
04,23,1,1,16,18,768,2458.3523259903304,2459.3377151230816,"[77, 0, 177]",177,l,0.46230212738737464,colour,0.06
04,23,1,1,16,19,769,2461.3523425317835,2462.057706978405,"[34, 0, 220]",220,a,0.18220615503378212,colour,0.06
04,23,1,1,16,20,770,2464.0711485194042,2464.7537089381367,"[81, 0, 173]",173,l,0.15932769048959017,colour,0.06
04,23,1,1,16,21,771,2466.7742259071674,2467.6257797640283,"[52, 0, 202]",202,a,0.32854286348447204,colour,0.06
04,23,1,1,16,22,772,2469.6335956209805,2470.24168858747,"[83, 0, 171]",171,l,0.08479249686934054,colour,0.06
04,23,1,1,16,23,773,2472.258397073718,2473.033677698346,"[79, 0, 175]",175,l,0.2517619647551328,colour,0.06
04,23,1,1,16,24,774,2475.0397500027902,2475.7536254429724,"[91, 0, 163]",163,l,0.1905426753219217,colour,0.06
04,23,1,1,16,25,775,2477.7741593474057,2478.3376540769823,"[93, 0, 161]",161,l,0.04048137320205569,colour,0.06
04,23,1,1,16,26,776,2480.35227833502,2481.0016301251017,"[68, 0, 186]",186,a,0.12629077839665115,colour,0.06
04,23,1,1,16,27,777,2483.008400716819,2483.6896586897783,"[73, 0, 181]",181,l,0.15780587284825742,colour,0.06
04,23,1,1,16,28,778,2485.6959259475116,2486.4096202189103,"[78, 0, 176]",176,l,0.19037095876410604,colour,0.06
04,23,1,1,16,29,779,2488.430326233618,2489.0816472494043,"[56, 0, 198]",198,a,0.12800676166079938,colour,0.06
04,23,1,1,16,30,780,2491.102185092168,2491.737621545559,"[84, 0, 170]",170,l,0.11235338635742664,colour,0.06
04,23,1,1,16,31,781,2493.758383486187,2494.3856295358855,"[65, 0, 189]",189,a,0.10388374654576182,colour,0.06
04,23,1,1,16,32,782,2496.3990383876953,2497.089609616669,"[88, 0, 166]",166,l,0.16717544896528125,colour,0.06
04,23,1,1,16,33,783,2499.102185879834,2499.7616157731973,"[96, 0, 158]",158,l,0.13647600752301514,colour,0.06
04,23,1,1,16,34,784,2501.7742515071295,2502.441624863306,"[92, 0, 162]",162,l,0.14423436322249472,colour,0.06
04,23,1,1,16,35,785,2504.4614624492824,2505.2015648253728,"[60, 0, 194]",194,a,0.21660577156580985,colour,0.06
04,23,1,1,16,36,786,2507.2121821029577,2507.841593119316,"[82, 0, 172]",172,l,0.10604280536063015,colour,0.06
04,23,1,1,16,37,787,2509.8527818659786,2510.401598774828,"[95, 0, 159]",159,l,0.025527466787025332,colour,0.06
04,23,1,1,16,38,788,2512.415263626026,2513.0975668639876,"[64, 0, 190]",190,a,0.15962898219004273,colour,0.06
04,23,1,1,16,39,789,2515.1184126937296,2515.753550218651,"[87, 0, 167]",167,l,0.11205524555407465,colour,0.06
04,23,1,1,16,40,790,2517.774613450747,2518.409572169883,"[53, 0, 201]",201,a,0.11183272302150726,colour,0.06
04,23,1,1,16,41,791,2520.433181217173,2521.0975054241717,"[54, 0, 200]",200,a,0.14167003729380667,colour,0.06
04,23,1,1,16,42,792,2523.1068907540757,2523.721540848259,"[74, 0, 180]",180,l,0.09134017233736813,colour,0.06
04,23,1,1,16,43,793,2525.731855652528,2526.857535970863,"[89, 0, 165]",165,l,0.6022943842690438,colour,0.06
04,23,1,1,16,44,794,2528.8724847570993,2529.5695607326925,"[80, 0, 174]",174,l,0.17375029996037483,colour,0.06
04,23,1,1,16,45,795,2531.5755456034094,2532.289489572635,"[75, 0, 179]",179,l,0.19042373402044177,colour,0.06
04,23,1,1,16,46,796,2534.3100400185212,2535.1374870080035,"[8, 0, 246]",246,a,0.30312252254225314,colour,0.06
04,23,1,1,16,47,797,2537.154770902125,2538.193533929065,"[76, 0, 178]",178,l,0.5154743725433946,colour,0.06
04,23,1,1,16,48,798,2540.2016022407915,2540.937557033729,"[94, 0, 160]",160,l,0.2127949260175228,colour,0.06
04,23,1,1,16,49,799,2542.951629514573,2544.193499664543,"[72, 0, 182]",182,l,0.718661840306595,colour,0.06
04,23,1,1,16,50,800,2546.201660529943,2546.945455991896,"[85, 0, 169]",169,l,0.22983896848745644,colour,0.06
