id,age,condition,counterbalance,block,trialinblock,trial,tstart,tend,trialstim,trialintensity,response,RT,trialtype,colourfreq
32,20,0,1,Practice,1,NA,5.907684681005776e-06,1.529649647171027,"[33, 0, 221]",221,a,0.8964305420522578,colour,0.5
32,20,0,1,Practice,2,NA,3.547930363449268,4.8578931884112535,"[56, 0, 198]",198,a,0.786739942865097,colour,0.5
32,20,0,1,Practice,3,NA,6.864064741836046,12.337578065038542,"[14, 0, 240]",240,a,4.950037592527224,colour,0.5
32,20,0,1,Practice,4,NA,14.345891348362784,15.449578959844075,"[79, 0, 175]",175,a,0.5809152882429771,colour,0.5
32,20,0,1,Practice,5,NA,17.456478732958203,18.585566993264365,"[34, 0, 220]",220,a,0.6067330190708162,colour,0.5
32,20,0,1,Practice,6,NA,20.596847899767454,21.61768348950136,"[27, 0, 227]",227,a,0.49746777264226694,colour,0.5
32,20,0,1,Practice,7,NA,23.61606596749334,24.257581420592032,"[86, 0, 168]",168,l,0.11827839259058237,colour,0.5
32,20,0,1,Practice,8,NA,26.264186203683494,27.08958047220949,"[57, 0, 197]",197,a,0.31134285834559705,colour,0.5
32,20,0,1,Practice,9,NA,29.098893334521563,30.409546176175354,"[69, 0, 185]",185,l,0.7888895496726036,colour,0.5
32,20,0,1,Practice,10,NA,32.42884892060829,32.98551792015496,"[39, 0, 215]",215,a,0.045589150991872884,colour,0.5
32,20,0,1,1,1,1,5.932227127341321,6.575930784078082,"[82, 0, 172]",172,l,0.11637927129049785,colour,0.5
32,20,0,1,1,2,2,8.586524430807913,9.216198535767035,"[62, 0, 192]",192,a,0.10570882477622945,colour,0.5
32,20,0,1,1,3,3,11.215921662631445,11.775927318245522,"[38, 0, 216]",216,a,0.03305463537981268,colour,0.5
32,20,0,1,1,4,4,13.783263865610934,14.41596151975682,"[48, 0, 206]",206,a,0.10984380495210644,colour,0.5
32,20,0,1,1,5,5,16.419742826998117,17.343946147186216,"[97, 0, 157]",157,l,0.4012742465711199,colour,0.5
32,20,0,1,1,6,6,19.357929225239786,20.383941121734097,"[13, 0, 241]",241,a,0.5029926323477412,colour,0.5
32,20,0,1,1,7,7,22.405124476732453,23.472045856178738,"[8, 0, 246]",246,a,0.5441447239136323,colour,0.5
32,20,0,1,1,8,8,25.48351817142975,26.359924050906557,"[20, 0, 234]",234,a,0.36496881337370723,colour,0.5
32,20,0,1,1,9,9,28.373903190498822,29.25589418798336,"[81, 0, 173]",173,l,0.35872164166357834,colour,0.5
32,20,0,1,1,10,10,31.265868316302658,32.191859693455626,"[68, 0, 186]",186,l,0.4028141810995294,colour,0.5
32,20,0,1,1,11,11,34.203646297130035,35.16795723157702,"[73, 0, 181]",181,l,0.44121408280625474,colour,0.5
32,20,0,1,1,12,12,37.18809020156914,38.15989246452227,"[71, 0, 183]",183,l,0.4483458306931425,colour,0.5
32,20,0,1,1,13,13,40.17276293004397,41.03192311828025,"[54, 0, 200]",200,a,0.3358171833824599,colour,0.5
32,20,0,1,1,14,14,43.04797152026731,44.03986815639655,"[43, 0, 211]",211,a,0.46878954450949095,colour,0.5
32,20,0,1,1,15,15,46.04812196911371,46.95187803088629,"[88, 0, 166]",166,l,0.37892117150477134,colour,0.5
32,20,0,1,1,16,16,48.97156792509486,49.89586379889806,"[10, 0, 244]",244,a,0.4006882050016429,colour,0.5
32,20,0,1,1,17,17,51.89888380347111,52.72790696118318,"[21, 0, 233]",233,a,0.31048112516873516,colour,0.5
32,20,0,1,1,18,18,54.73787912026455,55.639910534140654,"[17, 0, 237]",237,a,0.3784745511075016,colour,0.5
32,20,0,1,1,19,19,57.64860348419461,58.51982321079413,"[78, 0, 176]",176,l,0.34780858653539326,colour,0.5
32,20,0,1,1,20,20,60.539509166555945,61.359968949254835,"[27, 0, 227]",227,a,0.29730976196879055,colour,0.5
32,20,0,1,1,21,21,63.367848609079374,64.35179902554955,"[64, 0, 190]",190,l,0.46066766991862096,colour,0.5
32,20,0,1,1,22,22,66.37009116333502,67.31980737822596,"[58, 0, 196]",196,a,0.4262916840816615,colour,0.5
32,20,0,1,1,23,23,69.3378450920427,70.25584968348267,"[80, 0, 174]",174,l,0.394767924779444,colour,0.5
32,20,0,1,1,24,24,72.27684241744282,73.1438444563828,"[40, 0, 214]",214,a,0.343605864996789,colour,0.5
32,20,0,1,1,25,25,75.15256300636975,76.05576768492756,"[49, 0, 205]",205,a,0.3798384368419647,colour,0.5
32,20,0,1,1,26,26,78.07466595039295,79.01577901191195,"[28, 0, 226]",226,a,0.4177078291249927,colour,0.5
32,20,0,1,1,27,27,81.02797048840148,81.96785357153567,"[16, 0, 238]",238,a,0.4164325585588813,colour,0.5
32,20,0,1,1,28,28,83.98133843546384,84.87179474050936,"[2, 0, 252]",252,a,0.3676079696888337,colour,0.5
32,20,0,1,1,29,29,86.88775216428621,87.87176756520057,"[47, 0, 207]",207,a,0.4604924088343978,colour,0.5
32,20,0,1,1,30,30,89.88798886521545,90.76774676072819,"[67, 0, 187]",187,l,0.3563786568993237,colour,0.5
32,20,0,1,1,31,31,92.77887918760825,93.71975869896414,"[95, 0, 159]",159,l,0.41752075268595945,colour,0.5
32,20,0,1,1,32,32,95.73216009490716,97.00772290946043,"[26, 0, 228]",228,a,0.7523076371726347,colour,0.5
32,20,0,1,1,33,33,99.02193047924084,99.98368772176036,"[51, 0, 203]",203,a,0.43672542966669425,colour,0.5
32,20,0,1,1,34,34,101.98415994209063,102.90388681835611,"[90, 0, 164]",164,l,0.39630982851667795,colour,0.5
32,20,0,1,1,35,35,104.91270658654685,105.83970463190053,"[86, 0, 168]",168,l,0.40892705161240883,colour,0.5
32,20,0,1,1,36,36,107.86188283973024,108.7917039670865,"[99, 0, 155]",155,l,0.4068077708798228,colour,0.5
32,20,0,1,1,37,37,110.79954148548131,111.65567576147441,"[14, 0, 240]",240,a,0.3328326248738449,colour,0.5
32,20,0,1,1,38,38,113.6637393469864,114.75169835872657,"[65, 0, 189]",189,l,0.5646577544684988,colour,0.5
32,20,0,1,1,39,39,116.75762415278587,117.75169245105644,"[25, 0, 229]",229,a,0.47865497156453785,colour,0.5
32,20,0,1,1,40,40,119.76537856986397,120.70378355216235,"[39, 0, 215]",215,a,0.415318370636669,colour,0.5
32,20,0,1,1,41,41,122.71061085775727,123.66363379648828,"[34, 0, 220]",220,a,0.4422601355036022,colour,0.5
32,20,0,1,1,42,42,125.67303251703561,126.86364057062019,"[35, 0, 219]",219,a,0.6677282106102211,colour,0.5
32,20,0,1,1,43,43,128.8761656339484,129.95962338951358,"[57, 0, 197]",197,a,0.5602809533593245,colour,0.5
32,20,0,1,1,44,44,131.97024736231833,132.97565209925233,"[89, 0, 165]",165,l,0.48218303637986537,colour,0.5
32,20,0,1,1,45,45,134.9746564587258,135.82366646987794,"[29, 0, 225]",225,a,0.33728268116828986,colour,0.5
32,20,0,1,1,46,46,137.83394543433678,138.71159547062416,"[72, 0, 182]",182,l,0.35213615698739886,colour,0.5
32,20,0,1,1,47,47,140.73175679746782,141.58364542279742,"[22, 0, 232]",232,a,0.3288713304064004,colour,0.5
32,20,0,1,1,48,48,143.58214959893667,144.52760480318102,"[11, 0, 243]",243,a,0.42217009463638533,colour,0.5
32,20,0,1,1,49,49,146.53004309847893,147.37557466930593,"[87, 0, 167]",167,l,0.32262100794469006,colour,0.5
32,20,0,1,1,50,50,149.38973300844373,150.3036368842295,"[84, 0, 170]",170,l,0.3901634811772965,colour,0.5
32,20,0,1,2,1,51,161.4135626089701,162.53556086897152,"[78, 0, 176]",176,l,0.5982566838501953,colour,0.5
32,20,0,1,2,2,52,164.55671429174254,165.39163252357685,"[33, 0, 221]",221,a,0.3114897625928279,colour,0.5
32,20,0,1,2,3,53,167.4024376651505,168.39957795554074,"[53, 0, 201]",201,a,0.474012718826998,colour,0.5
32,20,0,1,2,4,54,170.4182430646906,171.27157592015283,"[6, 0, 248]",248,a,0.3299095061956905,colour,0.5
32,20,0,1,2,5,55,173.27798653759237,174.12756250421808,"[9, 0, 245]",245,a,0.3268406648276141,colour,0.5
32,20,0,1,2,6,56,176.13757010936388,177.12769759309595,"[50, 0, 204]",204,a,0.4667336728598457,colour,0.5
32,20,0,1,2,7,57,179.13782689640357,180.25549207210133,"[70, 0, 184]",184,l,0.5942040173104033,colour,0.5
32,20,0,1,2,8,58,182.26308461881126,183.22353193238087,"[68, 0, 186]",186,l,0.4375942520709941,colour,0.5
32,20,0,1,2,9,59,185.23206852590374,186.1115495482809,"[76, 0, 178]",178,l,0.35633021395187825,colour,0.5
32,20,0,1,2,10,60,188.12289622692333,189.07955790094275,"[62, 0, 192]",192,l,0.4321264999016421,colour,0.5
32,20,0,1,2,11,61,191.09338029018545,191.9994978474424,"[94, 0, 160]",160,l,0.38315185604733415,colour,0.5
32,20,0,1,2,12,62,194.0155423109827,194.9594780606567,"[56, 0, 198]",198,a,0.42080069505027495,colour,0.5
32,20,0,1,2,13,63,196.971545475928,197.96745539408585,"[36, 0, 218]",218,a,0.47286741714924574,colour,0.5
32,20,0,1,2,14,64,199.98757024720544,201.08750372676877,"[10, 0, 244]",244,a,0.5781327722943388,colour,0.5
32,20,0,1,2,15,65,203.09592649905244,204.15145472611766,"[2, 0, 252]",252,a,0.5308351210551336,colour,0.5
32,20,0,1,2,16,66,206.1483465002384,207.13567374498234,"[13, 0, 241]",241,a,0.46432727901265025,colour,0.5
32,20,0,1,2,17,67,209.14859816728858,210.09545979254472,"[82, 0, 172]",172,l,0.4238112473540241,colour,0.5
32,20,0,1,2,18,68,212.10178849019576,213.46349429653492,"[92, 0, 162]",162,l,0.8386471576814074,colour,0.5
32,20,0,1,2,19,69,215.4770874678943,216.5594519093429,"[86, 0, 168]",168,l,0.5595645490539027,colour,0.5
32,20,0,1,2,20,70,218.57097148601315,219.5994543669367,"[90, 0, 164]",164,l,0.505194620549446,colour,0.5
32,20,0,1,2,21,71,221.61821045431134,222.60764437673788,"[57, 0, 197]",197,a,0.46651666417892557,colour,0.5
32,20,0,1,2,22,72,224.61837429388834,225.98349906993099,"[23, 0, 231]",231,a,0.8420830627292162,colour,0.5
32,20,0,1,2,23,73,227.99489537306363,229.1514377907879,"[61, 0, 193]",193,a,0.6337362237973139,colour,0.5
32,20,0,1,2,24,74,231.16702539395192,232.10347178434313,"[52, 0, 202]",202,a,0.41375677462201566,colour,0.5
32,20,0,1,2,25,75,234.12042012249003,235.19139535003342,"[5, 0, 249]",249,a,0.5483884053537622,colour,0.5
32,20,0,1,2,26,76,237.19873859276413,238.1354169579572,"[75, 0, 179]",179,l,0.4137859191687312,colour,0.5
32,20,0,1,2,27,77,240.15376896019734,240.87935302271217,"[60, 0, 194]",194,a,0.20252383846673183,colour,0.5
32,20,0,1,2,28,78,242.88817791087786,243.8073356809182,"[43, 0, 211]",211,a,0.3962302718136925,colour,0.5
32,20,0,1,2,29,79,245.82603505458974,246.78345094206452,"[45, 0, 209]",209,a,0.4345198968658224,colour,0.5
32,20,0,1,2,30,80,248.79501226631692,250.24734262833954,"[25, 0, 229]",229,a,0.9295277127093868,colour,0.5
32,20,0,1,2,31,81,252.26547407731414,253.23132534012257,"[42, 0, 212]",212,a,0.4427721342071891,colour,0.5
32,20,0,1,2,32,82,255.25007630749315,256.1833207368618,"[40, 0, 214]",214,a,0.41042642008687835,colour,0.5
32,20,0,1,2,33,83,258.19016970394296,259.5113208817929,"[47, 0, 207]",207,a,0.798255581088597,colour,0.5
32,20,0,1,2,34,84,261.51854321407154,262.57536640399485,"[91, 0, 163]",163,l,0.5340780419937801,colour,0.5
32,20,0,1,2,35,85,264.58625897917955,265.1514303077274,"[20, 0, 234]",234,a,0.04204060621850658,colour,0.5
32,20,0,1,2,36,86,267.16474660593667,268.43132187427545,"[1, 0, 253]",253,a,0.7436221701645991,colour,0.5
32,20,0,1,2,37,87,270.44625018068473,271.33527131401934,"[69, 0, 185]",185,l,0.36429061203671154,colour,0.5
32,20,0,1,2,38,88,273.3537497405632,274.91924441597075,"[80, 0, 174]",174,l,1.0421363105997443,colour,0.5
32,20,0,1,2,39,89,276.92472437732795,277.95922796899686,"[51, 0, 203]",203,a,0.5110893008386483,colour,0.5
32,20,0,1,2,40,90,279.97178808452736,280.6871983392339,"[7, 0, 247]",247,a,0.1919947823334951,colour,0.5
32,20,0,1,2,41,91,282.7063931700977,283.6072237501212,"[15, 0, 239]",239,a,0.37747615366242826,colour,0.5
32,20,0,1,2,42,92,285.62858709236025,288.319254813483,"[35, 0, 219]",219,a,2.1673601623333525,colour,0.5
32,20,0,1,2,43,93,290.3357376266649,291.3832152651303,"[28, 0, 226]",226,a,0.5240692553052213,colour,0.5
32,20,0,1,2,44,94,293.39965711842524,294.61519399433746,"[44, 0, 210]",210,a,0.6922950892621884,colour,0.5
32,20,0,1,2,45,95,296.6343837052118,297.7112043824018,"[55, 0, 199]",199,a,0.553499727655435,colour,0.5
32,20,0,1,2,46,96,299.73014754621545,300.84722392341064,"[19, 0, 235]",235,a,0.5943139000883093,colour,0.5
32,20,0,1,2,47,97,302.8568187788478,304.0151673704095,"[84, 0, 170]",170,l,0.6350583619496319,colour,0.5
32,20,0,1,2,48,98,306.02880740932596,307.5111471960845,"[81, 0, 173]",173,l,0.9588439699728042,colour,0.5
32,20,0,1,2,49,99,309.52912662082235,310.6634947691491,"[34, 0, 220]",220,a,0.6110365649801679,colour,0.5
32,20,0,1,2,50,100,312.67122240475146,313.7111401856382,"[48, 0, 206]",206,a,0.5164140872075222,colour,0.5
32,20,0,1,3,1,101,322.0635890556732,323.1831509896001,"[31, 0, 223]",223,a,0.5955167031788733,colour,0.5
32,20,0,1,3,2,102,325.17975171214493,326.5911513235769,"[43, 0, 211]",211,a,0.8881432525085984,colour,0.5
32,20,0,1,3,3,103,328.6017658440978,329.5911324190092,"[70, 0, 184]",184,l,0.466003090099548,colour,0.5
32,20,0,1,3,4,104,331.5908141921391,332.7591132812813,"[55, 0, 199]",199,a,0.6450380040769232,colour,0.5
32,20,0,1,3,5,105,334.77435942071315,335.83931590673456,"[62, 0, 192]",192,a,0.5417320285487222,colour,0.5
32,20,0,1,3,6,106,337.85262196497933,339.3511149165279,"[16, 0, 238]",238,a,0.9750955960626015,colour,0.5
32,20,0,1,3,7,107,341.3685555611155,342.47109393245773,"[76, 0, 178]",178,l,0.5794584550458239,colour,0.5
32,20,0,1,3,8,108,344.47819377890846,345.88760092774464,"[37, 0, 217]",217,a,0.8868668003851781,colour,0.5
32,20,0,1,3,9,109,347.90034260589164,349.3990391753905,"[7, 0, 247]",247,a,0.9777221493422985,colour,0.5
32,20,0,1,3,10,110,351.4024002498627,352.43907668520114,"[4, 0, 250]",250,a,0.5133350058604265,colour,0.5
32,20,0,1,3,11,111,354.4462742052274,355.45506994887546,"[48, 0, 206]",206,a,0.4854814894788433,colour,0.5
32,20,0,1,3,12,112,357.4663756676164,358.479053936695,"[64, 0, 190]",190,l,0.48929706124181394,colour,0.5
32,20,0,1,3,13,113,360.4979616544588,361.55103898319067,"[27, 0, 227]",227,a,0.5303002793516498,colour,0.5
32,20,0,1,3,14,114,363.5606432909117,364.56712322508974,"[40, 0, 214]",214,a,0.48319403687492013,colour,0.5
32,20,0,1,3,15,115,366.57651525027177,367.6230153650831,"[63, 0, 191]",191,l,0.5212000934261596,colour,0.5
32,20,0,1,3,16,116,369.6412677245098,370.8321274451446,"[94, 0, 160]",160,l,0.6674659097479889,colour,0.5
32,20,0,1,3,17,117,372.8365613537899,373.8630135691492,"[33, 0, 221]",221,a,0.5031781333964318,colour,0.5
32,20,0,1,3,18,118,375.88358843339665,376.97499752862495,"[25, 0, 229]",229,a,0.5681011425913312,colour,0.5
32,20,0,1,3,19,119,378.99320538355096,380.3430068265152,"[30, 0, 224]",224,a,0.8264092074678047,colour,0.5
32,20,0,1,3,20,120,382.35410026273166,383.3669876635977,"[56, 0, 198]",198,a,0.48937110413680784,colour,0.5
32,20,0,1,3,21,121,385.38551335154625,386.6389440381463,"[32, 0, 222]",222,a,0.7299900081416126,colour,0.5
32,20,0,1,3,22,122,388.64830534342036,389.73493473394774,"[45, 0, 209]",209,a,0.5634679482900538,colour,0.5
32,20,0,1,3,23,123,391.736123358598,392.8149628860119,"[17, 0, 237]",237,a,0.564657360635465,colour,0.5
32,20,0,1,3,24,124,394.8365534768818,395.7829499710351,"[60, 0, 194]",194,l,0.4230688492534682,colour,0.5
32,20,0,1,3,25,125,397.7941505331255,398.7669571012084,"[95, 0, 159]",159,l,0.45117521422798745,colour,0.5
32,20,0,1,3,26,126,400.76478268216306,401.81491286767414,"[97, 0, 157]",157,l,0.5269844970753184,colour,0.5
32,20,0,1,3,27,127,403.82753639227303,404.8549058729841,"[49, 0, 205]",205,a,0.5032954992639134,colour,0.5
32,20,0,1,3,28,128,406.8767871215823,407.8710342255363,"[28, 0, 226]",226,a,0.470949391296017,colour,0.5
32,20,0,1,3,29,129,409.8926693209214,410.79890503172646,"[68, 0, 186]",186,l,0.38284386914165225,colour,0.5
32,20,0,1,3,30,130,412.8047327583481,413.638921982827,"[57, 0, 197]",197,a,0.31074500142131,colour,0.5
32,20,0,1,3,31,131,415.64884688048915,416.63889362597547,"[10, 0, 244]",244,a,0.4669270508165937,colour,0.5
32,20,0,1,3,32,132,418.6492123687931,419.75086695162463,"[9, 0, 245]",245,a,0.5784155531000579,colour,0.5
32,20,0,1,3,33,133,421.76128612495086,422.6868970476935,"[69, 0, 185]",185,l,0.40363219747086987,colour,0.5
32,20,0,1,3,34,134,424.6976450817165,425.6388928382803,"[36, 0, 218]",218,a,0.4183986335119698,colour,0.5
32,20,0,1,3,35,135,427.6530744142801,428.7029659296386,"[24, 0, 230]",230,a,0.526626885679434,colour,0.5
32,20,0,1,3,36,136,430.7158391520643,431.7428935566568,"[26, 0, 228]",228,a,0.5032376040180679,colour,0.5
32,20,0,1,3,37,137,433.76287174550816,434.7748375487281,"[77, 0, 177]",177,l,0.48685403980198316,colour,0.5
32,20,0,1,3,38,138,436.78481679702236,437.7428801659262,"[71, 0, 183]",183,l,0.4347223332733847,colour,0.5
32,20,0,1,3,39,139,439.7423701364605,440.79883374576457,"[83, 0, 171]",171,l,0.5358022960426752,colour,0.5
32,20,0,1,3,40,140,442.8126647995814,443.6628752507386,"[72, 0, 182]",182,l,0.3268887139420258,colour,0.5
32,20,0,1,3,41,141,445.6722779097472,446.6548691666103,"[39, 0, 215]",215,a,0.45929118113417644,colour,0.5
32,20,0,1,3,42,142,448.6732010827691,449.63080680360144,"[1, 0, 253]",253,a,0.4349775449227309,colour,0.5
32,20,0,1,3,43,143,451.64152726846805,452.66279057403153,"[92, 0, 162]",162,l,0.5104047979839379,colour,0.5
32,20,0,1,3,44,144,454.6796656569786,455.6707923258509,"[98, 0, 156]",156,l,0.4677549133193679,colour,0.5
32,20,0,1,3,45,145,457.67992008094734,458.7347779835836,"[21, 0, 233]",233,a,0.531562553049298,colour,0.5
32,20,0,1,3,46,146,460.74259541588253,461.7347976758465,"[58, 0, 196]",196,a,0.46885689203918446,colour,0.5
32,20,0,1,3,47,147,463.7428218768473,464.65479000374035,"[88, 0, 166]",166,l,0.3885420207225252,colour,0.5
32,20,0,1,3,48,148,466.6547927606589,467.7668070462096,"[61, 0, 193]",193,l,0.5885759701777715,colour,0.5
32,20,0,1,3,49,149,469.76311711104063,470.60676334514574,"[89, 0, 165]",165,l,0.3173127630579984,colour,0.5
32,20,0,1,3,50,150,472.62125645266497,473.6067964281392,"[53, 0, 201]",201,a,0.46184644843742717,colour,0.5
32,20,0,1,4,1,151,481.29634720443573,482.31870697488193,"[62, 0, 192]",192,a,0.498348410386825,colour,0.5
32,20,0,1,4,2,152,484.3286369925336,485.3027566403325,"[47, 0, 207]",207,a,0.4509881377744023,colour,0.5
32,20,0,1,4,3,153,487.31316202908056,488.2627238566638,"[87, 0, 167]",167,l,0.42618534588837065,colour,0.5
32,20,0,1,4,4,154,490.282173899177,491.27874744641304,"[34, 0, 220]",220,a,0.4732860745425569,colour,0.5
32,20,0,1,4,5,155,493.2980714584846,494.19871614359727,"[59, 0, 195]",195,a,0.3775281412235927,colour,0.5
32,20,0,1,4,6,156,496.22020984857227,497.1186627854622,"[14, 0, 240]",240,a,0.37371572021220345,colour,0.5
32,20,0,1,4,7,157,499.1279571370542,500.0226894188381,"[18, 0, 236]",236,a,0.3713861261785496,colour,0.5
32,20,0,1,4,8,158,502.0344291549409,502.9426596914127,"[88, 0, 166]",166,l,0.3849001346534351,colour,0.5
32,20,0,1,4,9,159,504.9565647881245,505.8546766551008,"[2, 0, 252]",252,a,0.3747369606717257,colour,0.5
32,20,0,1,4,10,160,507.86300372301775,508.79870889685117,"[9, 0, 245]",245,a,0.4124082488560816,colour,0.5
32,20,0,1,4,11,161,510.80520064638404,511.7426592187985,"[5, 0, 249]",249,a,0.4142774379142793,colour,0.5
32,20,0,1,4,12,162,513.7585185751232,514.6466637968551,"[80, 0, 174]",174,l,0.3648876812803792,colour,0.5
32,20,0,1,4,13,163,516.6651323772676,517.5346758989181,"[98, 0, 156]",156,l,0.34657270046591293,colour,0.5
32,20,0,1,4,14,164,519.5559112414921,520.6386628327164,"[19, 0, 235]",235,a,0.5594897184782894,colour,0.5
32,20,0,1,4,15,165,522.6512071944453,523.4706146229146,"[41, 0, 213]",213,a,0.29603055292682257,colour,0.5
32,20,0,1,4,16,166,525.47956317848,526.4786069224647,"[63, 0, 191]",191,l,0.4761099442403065,colour,0.5
32,20,0,1,4,17,167,528.4954048117652,529.5266095565021,"[99, 0, 155]",155,l,0.5078881274966989,colour,0.5
32,20,0,1,4,18,168,531.542552407991,532.5105973882601,"[28, 0, 226]",226,a,0.4447571137279738,colour,0.5
32,20,0,1,4,19,169,534.5270998937049,535.486639000359,"[37, 0, 217]",217,a,0.43610118511423934,colour,0.5
32,20,0,1,4,20,170,537.4973551329313,538.3586192419316,"[75, 0, 179]",179,l,0.3381010913726641,colour,0.5
32,20,0,1,4,21,171,540.3733750441606,541.222588279401,"[94, 0, 160]",160,l,0.32600689464015886,colour,0.5
32,20,0,1,4,22,172,543.2330314772844,544.1185402996198,"[78, 0, 176]",176,l,0.36223040807817597,colour,0.5
32,20,0,1,4,23,173,546.1394668675784,547.0466781328141,"[40, 0, 214]",214,a,0.3838658972963458,colour,0.5
32,20,0,1,4,24,174,549.0615552393429,549.8950757147686,"[79, 0, 175]",175,l,0.31017589518160094,colour,0.5
32,20,0,1,4,25,175,551.9055610540672,552.8145150840719,"[77, 0, 177]",177,l,0.38556533910741564,colour,0.5
32,20,0,1,4,26,176,554.8276159490051,555.7185511697462,"[73, 0, 181]",181,l,0.36759221588727087,colour,0.5
32,20,0,1,4,27,177,557.7374380137044,558.7425513052294,"[46, 0, 208]",208,a,0.4825835769006517,colour,0.5
32,20,0,1,4,28,178,560.7530992659158,561.7265584354027,"[57, 0, 197]",197,a,0.45007362935575657,colour,0.5
32,20,0,1,4,29,179,563.7377341852552,564.6865406178404,"[21, 0, 233]",233,a,0.4260652231168933,colour,0.5
32,20,0,1,4,30,180,566.706727150784,567.5825462009961,"[70, 0, 184]",184,l,0.35248825456073973,colour,0.5
32,20,0,1,4,31,181,569.5994350685214,570.5185152510676,"[42, 0, 212]",212,a,0.39574111613910645,colour,0.5
32,20,0,1,4,32,182,572.5363623438316,573.5184853188402,"[61, 0, 193]",193,l,0.4587843024346512,colour,0.5
32,20,0,1,4,33,183,575.5388943742728,576.4064867870911,"[89, 0, 165]",165,l,0.3430336079909466,colour,0.5
32,20,0,1,4,34,184,578.415335699814,579.2865562141087,"[26, 0, 228]",228,a,0.34796612459467724,colour,0.5
32,20,0,1,4,35,185,581.3061708838941,582.3744900197635,"[66, 0, 188]",188,a,0.5449595895188395,colour,0.5
32,20,0,1,4,36,186,584.3850903618586,585.238536250894,"[22, 0, 232]",232,a,0.330133210241911,colour,0.5
32,20,0,1,4,37,187,587.2489786610822,588.1267649677902,"[15, 0, 239]",239,a,0.3550222542107804,colour,0.5
32,20,0,1,4,38,188,590.1397961221228,591.0784267776908,"[0, 0, 254]",254,a,0.4158449415845098,colour,0.5
32,20,0,1,4,39,189,593.0930868755531,594.0624378463108,"[81, 0, 173]",173,l,0.44576299423351884,colour,0.5
32,20,0,1,4,40,190,596.0776780780725,596.99042916912,"[44, 0, 210]",210,a,0.38994844173430465,colour,0.5
32,20,0,1,4,41,191,598.9998389173415,599.8864883152128,"[53, 0, 201]",201,a,0.36307047976879403,colour,0.5
32,20,0,1,4,42,192,601.9073743171175,602.8064306247688,"[97, 0, 157]",157,l,0.3762741382670356,colour,0.5
32,20,0,1,4,43,193,604.8138849318348,605.8464212670078,"[68, 0, 186]",186,l,0.5098100918112323,colour,0.5
32,20,0,1,4,44,194,607.8608434823982,608.7504246635363,"[85, 0, 169]",169,l,0.3661983979254728,colour,0.5
32,20,0,1,4,45,195,610.7673111679906,611.758656027072,"[13, 0, 241]",241,a,0.46658991937874816,colour,0.5
32,20,0,1,4,46,196,613.7692177723366,614.766389570359,"[51, 0, 203]",203,a,0.47351371703553014,colour,0.5
32,20,0,1,4,47,197,616.773375989389,617.8623814476887,"[33, 0, 221]",221,a,0.5656356719700852,colour,0.5
32,20,0,1,4,48,198,619.8830299609835,621.1505181623652,"[7, 0, 247]",247,a,0.7441983656171942,colour,0.5
32,20,0,1,4,49,199,623.1644468897866,624.2784142534219,"[3, 0, 251]",251,a,0.5897106380434707,colour,0.5
32,20,0,1,4,50,200,626.2911291500932,627.2704333753791,"[43, 0, 211]",211,a,0.4558497622492723,colour,0.5
32,20,0,1,5,1,201,634.9328596426494,635.6783427311311,"[23, 0, 231]",231,a,0.22157964197685942,colour,0.5
32,20,0,1,5,2,202,637.7003949085338,638.4303557721432,"[13, 0, 241]",241,a,0.207485499617178,colour,0.5
32,20,0,1,5,3,203,640.4496864795801,641.494364666738,"[2, 0, 252]",252,a,0.5217380858957767,colour,0.5
32,20,0,1,5,4,204,643.5135433499527,644.4303018153587,"[22, 0, 232]",232,a,0.3941165049182018,colour,0.5
32,20,0,1,5,5,205,646.4511756080756,647.3903292899922,"[33, 0, 221]",221,a,0.41608085483312607,colour,0.5
32,20,0,1,5,6,206,649.4046030257596,650.3183623603836,"[36, 0, 218]",218,a,0.39045256351528224,colour,0.5
32,20,0,1,5,7,207,652.3265779701178,652.958320155929,"[52, 0, 202]",202,a,0.1086299742164556,colour,0.5
32,20,0,1,5,8,208,654.9675105324131,655.9982970135898,"[16, 0, 238]",238,a,0.5074883746710839,colour,0.5
32,20,0,1,5,9,209,658.0159298546059,658.9342743344168,"[37, 0, 217]",217,a,0.3949679981160443,colour,0.5
32,20,0,1,5,10,210,660.9536314294819,661.8864044261863,"[15, 0, 239]",239,a,0.4093657951016212,colour,0.5
32,20,0,1,5,11,211,663.9071230439149,664.8062419729395,"[55, 0, 199]",199,a,0.3758582377922721,colour,0.5
32,20,0,1,5,12,212,666.8134753328923,667.7102882985928,"[18, 0, 236]",236,a,0.373821270710323,colour,0.5
32,20,0,1,5,13,213,669.7223289323738,670.798283150245,"[97, 0, 157]",157,l,0.5529251075931825,colour,0.5
32,20,0,1,5,14,214,672.8058213463373,673.6943375701958,"[27, 0, 227]",227,a,0.36534257241874,colour,0.5
32,20,0,1,5,15,215,675.7098727919656,676.582307530829,"[10, 0, 244]",244,a,0.3493512779677985,colour,0.5
32,20,0,1,5,16,216,678.5895503430656,679.9182578338805,"[92, 0, 162]",162,l,0.8053814213053556,colour,0.5
32,20,0,1,5,17,217,681.9259460849717,682.7502320732601,"[51, 0, 203]",203,a,0.3136271601979388,colour,0.5
32,20,0,1,5,18,218,684.7603570442589,685.7022203807865,"[6, 0, 248]",248,a,0.4189224475703668,colour,0.5
32,20,0,1,5,19,219,687.7126809078472,688.8302401391993,"[58, 0, 196]",196,a,0.5944930996338371,colour,0.5
32,20,0,1,5,20,220,690.8392198085203,691.7102816032275,"[69, 0, 185]",185,l,0.3476947652961826,colour,0.5
32,20,0,1,5,21,221,693.7288387987937,694.5662079289759,"[99, 0, 155]",155,l,0.3141612142062513,colour,0.5
32,20,0,1,5,22,222,696.5617941064265,697.5102437153109,"[46, 0, 208]",208,a,0.4253838710137643,colour,0.5
32,20,0,1,5,23,223,699.523182316043,700.3662637762172,"[89, 0, 165]",165,l,0.31973648609709926,colour,0.5
32,20,0,1,5,24,224,702.3752588054922,703.4701770609681,"[60, 0, 194]",194,a,0.5716280258639017,colour,0.5
32,20,0,1,5,25,225,705.4849931214994,706.8622597495414,"[91, 0, 163]",163,l,0.8572559469612315,colour,0.5
32,20,0,1,5,26,226,708.8605354954925,709.7261858578859,"[25, 0, 229]",229,a,0.34236604046600405,colour,0.5
32,20,0,1,5,27,227,711.7326551582519,712.5982043024414,"[21, 0, 233]",233,a,0.3396394505252829,colour,0.5
32,20,0,1,5,28,228,714.6110314449907,715.5661642121559,"[45, 0, 209]",209,a,0.4317897623113822,colour,0.5
32,20,0,1,5,29,229,717.5697891628806,718.4621371061658,"[82, 0, 172]",172,l,0.36905810752068646,colour,0.5
32,20,0,1,5,30,230,720.4663154093141,721.4621827921947,"[66, 0, 188]",188,l,0.4710458833433222,colour,0.5
32,20,0,1,5,31,231,723.4792524346558,724.3263030662056,"[71, 0, 183]",183,l,0.32342130127653945,colour,0.5
32,20,0,1,5,32,232,726.3278788406315,727.1904643001035,"[76, 0, 178]",178,l,0.3396099121309817,colour,0.5
32,20,0,1,5,33,233,729.2030051172333,730.1021512215666,"[84, 0, 170]",170,l,0.3761949753970839,colour,0.5
32,20,0,1,5,34,234,732.109548814944,733.0307435520663,"[32, 0, 222]",222,a,0.39814002691127826,colour,0.5
32,20,0,1,5,35,235,735.0471105747856,735.9341191594285,"[72, 0, 182]",182,l,0.36316303338389844,colour,0.5
32,20,0,1,5,36,236,737.9555986859777,738.7741959749837,"[73, 0, 181]",181,l,0.29546538514841814,colour,0.5
32,20,0,1,5,37,237,740.7746796168212,741.654212232912,"[98, 0, 156]",156,l,0.3568237019208027,colour,0.5
32,20,0,1,5,38,238,743.6681456864753,744.5020726100774,"[56, 0, 198]",198,a,0.31110379434539936,colour,0.5
32,20,0,1,5,39,239,746.5101298940717,747.5581352850277,"[29, 0, 225]",225,a,0.525304747527116,colour,0.5
32,20,0,1,5,40,240,749.5755660834839,750.4941350550216,"[24, 0, 230]",230,a,0.39572851308912504,colour,0.5
32,20,0,1,5,41,241,752.5132905013597,753.6220374475815,"[68, 0, 186]",186,a,0.5859777737350669,colour,0.5
32,20,0,1,5,42,242,755.6385848513746,756.4220440641802,"[83, 0, 171]",171,l,0.26032140126335435,colour,0.5
32,20,0,1,5,43,243,758.4356636231678,759.286165913567,"[38, 0, 216]",216,a,0.3275976351869758,colour,0.5
32,20,0,1,5,44,244,761.2952015088958,762.1980792959948,"[59, 0, 195]",195,a,0.3800184240681119,colour,0.5
32,20,0,1,5,45,245,764.2173005144869,765.1340550414316,"[19, 0, 235]",235,a,0.3936379830556689,colour,0.5
32,20,0,1,5,46,246,767.155097793715,767.9980134450889,"[42, 0, 212]",212,a,0.32025754322239663,colour,0.5
32,20,0,1,5,47,247,770.014681759334,770.7740270154172,"[53, 0, 201]",201,a,0.2365638743940508,colour,0.5
32,20,0,1,5,48,248,772.7805427895073,773.6540184610931,"[1, 0, 253]",253,a,0.3507482466957299,colour,0.5
32,20,0,1,5,49,249,775.6713456782745,776.4939952399873,"[49, 0, 205]",205,a,0.2996039099380141,colour,0.5
32,20,0,1,5,50,250,778.5010438865575,779.3579843635671,"[61, 0, 193]",193,a,0.3337778532295488,colour,0.5
32,20,0,1,6,1,251,787.0540079848142,787.9820063968364,"[68, 0, 186]",186,l,0.4038791383791249,colour,0.5
32,20,0,1,6,2,252,789.9924129671126,790.8779336048028,"[41, 0, 213]",213,a,0.36235840774315875,colour,0.5
32,20,0,1,6,3,253,792.8991063259891,793.7419636882696,"[52, 0, 202]",202,a,0.3210420827526832,colour,0.5
32,20,0,1,6,4,254,795.7597524919547,796.6779323444935,"[64, 0, 190]",190,a,0.3954587291664211,colour,0.5
32,20,0,1,6,5,255,798.6974339807202,799.5579344239959,"[37, 0, 217]",217,a,0.3374429761461215,colour,0.5
32,20,0,1,6,6,256,801.5742742713919,802.4059409177135,"[10, 0, 244]",244,a,0.30871669891348574,colour,0.5
32,20,0,1,6,7,257,804.4177476074983,805.237906886352,"[2, 0, 252]",252,a,0.2973302419122774,colour,0.5
32,20,0,1,6,8,258,807.248153555498,808.0299302618369,"[56, 0, 198]",198,a,0.2588685065275058,colour,0.5
32,20,0,1,6,9,259,810.0451464690414,810.8941938954813,"[26, 0, 228]",228,a,0.326152223511599,colour,0.5
32,20,0,1,6,10,260,812.9069213952025,813.8859550488851,"[54, 0, 200]",200,a,0.4560967031720793,colour,0.5
32,20,0,1,6,11,261,815.8947330694791,816.7179151098389,"[73, 0, 181]",181,l,0.3046581247035647,colour,0.5
32,20,0,1,6,12,262,818.7217810937873,819.6379346130416,"[55, 0, 199]",199,a,0.3934347589529352,colour,0.5
32,20,0,1,6,13,263,821.6565780607052,822.4618822883494,"[92, 0, 162]",162,l,0.2823901201481931,colour,0.5
32,20,0,1,6,14,264,824.4694464782224,825.2538954238698,"[79, 0, 175]",175,l,0.2618471573514398,colour,0.5
32,20,0,1,6,15,265,827.268301491611,828.1098501064844,"[51, 0, 203]",203,a,0.31862347971764393,colour,0.5
32,20,0,1,6,16,266,830.127843709648,830.981853584919,"[5, 0, 249]",249,a,0.33005010891065467,colour,0.5
32,20,0,1,6,17,267,832.9765504600364,833.9659961978177,"[80, 0, 174]",174,l,0.4666340300318552,colour,0.5
32,20,0,1,6,18,268,835.9768040963099,836.7898324149573,"[99, 0, 155]",155,l,0.2902737184340367,colour,0.5
32,20,0,1,6,19,269,838.8052396370476,839.8299022200663,"[45, 0, 209]",209,a,0.5018390598997939,colour,0.5
32,20,0,1,6,20,270,841.8366432735784,842.725802646557,"[20, 0, 234]",234,a,0.36481442606600467,colour,0.5
32,20,0,1,6,21,271,844.7445481001196,845.5737792080472,"[13, 0, 241]",241,a,0.30613228706351947,colour,0.5
32,20,0,1,6,22,272,847.5880694853113,848.6058366275247,"[24, 0, 230]",230,a,0.49433158374449704,colour,0.5
32,20,0,1,6,23,273,850.6196479890932,851.5738481309527,"[1, 0, 253]",253,a,0.4309166076272959,colour,0.5
32,20,0,1,6,24,274,853.5892833160469,854.1737546321092,"[27, 0, 227]",227,a,0.061096409743186086,colour,0.5
32,20,0,1,6,25,275,856.1831824972032,857.2777372336132,"[31, 0, 223]",223,a,0.5717272748443065,colour,0.5
32,20,0,1,6,26,276,859.2928415887873,860.301773996689,"[28, 0, 226]",226,a,0.48551024016342126,colour,0.5
32,20,0,1,6,27,277,862.310912385612,863.1898313909624,"[32, 0, 222]",222,a,0.3562652295076987,colour,0.5
32,20,0,1,6,28,278,865.2016349299665,866.1899243384105,"[59, 0, 195]",195,l,0.46518310451938305,colour,0.5
32,20,0,1,6,29,279,868.2019318892126,869.1097957558522,"[30, 0, 224]",224,a,0.3849328237993177,colour,0.5
32,20,0,1,6,30,280,871.1240041133278,872.0857503281732,"[62, 0, 192]",192,l,0.4390636883035768,colour,0.5
32,20,0,1,6,31,281,874.093096327837,875.0297372777277,"[65, 0, 189]",189,l,0.4137449592817575,colour,0.5
32,20,0,1,6,32,282,877.0463480905892,878.0458132488711,"[53, 0, 201]",201,a,0.4761847748159198,colour,0.5
32,20,0,1,6,33,283,880.062223594563,880.9177470167197,"[22, 0, 232]",232,a,0.33217254040937405,colour,0.5
32,20,0,1,6,34,284,882.9387413260556,883.7656637137552,"[90, 0, 164]",164,l,0.30394132653600536,colour,0.5
32,20,0,1,6,35,285,885.7826715225237,886.6377022444067,"[6, 0, 248]",248,a,0.3321945957286516,colour,0.5
32,20,0,1,6,36,286,888.6579013803857,889.4777199831879,"[8, 0, 246]",246,a,0.29715301159012597,colour,0.5
32,20,0,1,6,37,287,891.4768200470426,892.3016676584957,"[94, 0, 160]",160,l,0.3019650115747936,colour,0.5
32,20,0,1,6,38,288,894.3206297268771,895.0697086215514,"[72, 0, 182]",182,l,0.22568429609236773,colour,0.5
32,20,0,1,6,39,289,897.0868424607615,897.7336681279703,"[81, 0, 173]",173,l,0.12364728962711524,colour,0.5
32,20,0,1,6,40,290,899.7430428239604,900.5257352202752,"[77, 0, 177]",177,l,0.25941595128097106,colour,0.5
32,20,0,1,6,41,291,902.5400546420715,903.389644787123,"[84, 0, 170]",170,l,0.3265129856590647,colour,0.5
32,20,0,1,6,42,292,905.3997217090218,906.1736266324442,"[74, 0, 180]",180,l,0.2508576962718507,colour,0.5
32,20,0,1,6,43,293,908.181266834421,909.1736931922642,"[71, 0, 183]",183,l,0.46822831517783925,colour,0.5
32,20,0,1,6,44,294,911.1836397514271,912.0296770194109,"[47, 0, 207]",207,a,0.32414243172388524,colour,0.5
32,20,0,1,6,45,295,914.0421130737377,914.8856734496076,"[17, 0, 237]",237,a,0.3169441240170272,colour,0.5
32,20,0,1,6,46,296,916.8932266118063,918.2696350512706,"[43, 0, 211]",211,a,0.8536404485203093,colour,0.5
32,20,0,1,6,47,297,920.2840966511721,921.1096413685445,"[58, 0, 196]",196,a,0.3026778712956002,colour,0.5
32,20,0,1,6,48,298,923.1259044161561,924.0216441538214,"[46, 0, 208]",208,a,0.36957640772743616,colour,0.5
32,20,0,1,6,49,299,926.0388729097176,926.8775649657473,"[39, 0, 215]",215,a,0.3153715003427351,colour,0.5
32,20,0,1,6,50,300,928.8983493556152,929.7895980770991,"[0, 0, 254]",254,a,0.3673094350815518,colour,0.5
32,20,0,1,7,1,301,937.212615726472,938.0455651264347,"[32, 0, 222]",222,a,0.30885808932362124,colour,0.5
32,20,0,1,7,2,302,940.0564159540372,940.9095680345927,"[0, 0, 254]",254,a,0.32976929734286387,colour,0.5
32,20,0,1,7,3,303,942.9172873994394,943.7415828400117,"[28, 0, 226]",226,a,0.30108791844395455,colour,0.5
32,20,0,1,7,4,304,945.7613294479233,946.8615571297996,"[91, 0, 163]",163,l,0.576915396944969,colour,0.5
32,20,0,1,7,5,305,948.8708747182536,949.5655876228702,"[35, 0, 219]",219,a,0.17157548692193814,colour,0.5
32,20,0,1,7,6,306,951.5742825421476,952.3575814599753,"[43, 0, 211]",211,a,0.26023396763775963,colour,0.5
32,20,0,1,7,7,307,954.3714144830301,955.1815846674581,"[15, 0, 239]",239,a,0.28693706236663274,colour,0.5
32,20,0,1,7,8,308,957.1996787011303,958.005550853486,"[73, 0, 181]",181,l,0.28286430971638765,colour,0.5
32,20,0,1,7,9,309,960.0124167559115,960.933502004089,"[64, 0, 190]",190,a,0.3980860701412894,colour,0.5
32,20,0,1,7,10,310,962.952032812027,963.7574607070565,"[51, 0, 203]",203,a,0.2819214444316458,colour,0.5
32,20,0,1,7,11,311,965.7670413840679,966.7174582494627,"[68, 0, 186]",186,a,0.4315861443756148,colour,0.5
32,20,0,1,7,12,312,968.7224147906236,969.5174865275476,"[19, 0, 235]",235,a,0.2717590581451077,colour,0.5
32,20,0,1,7,13,313,971.5269025772868,972.3415003688424,"[88, 0, 166]",166,l,0.29129653428390156,colour,0.5
32,20,0,1,7,14,314,974.3490358080162,975.6215089073958,"[65, 0, 189]",189,a,0.7490891346387798,colour,0.5
32,20,0,1,7,15,315,977.6328201399883,978.3334489925328,"[90, 0, 164]",164,l,0.17556513825547881,colour,0.5
32,20,0,1,7,16,316,980.3533476246666,981.1735222634743,"[74, 0, 180]",180,l,0.2966973327565938,colour,0.5
32,20,0,1,7,17,317,983.1817985253729,984.085424224395,"[31, 0, 223]",223,a,0.37915314629208297,colour,0.5
32,20,0,1,7,18,318,986.1053460933908,986.9493944433925,"[34, 0, 220]",220,a,0.32192193280206993,colour,0.5
32,20,0,1,7,19,319,988.9636543945817,990.1654563148913,"[18, 0, 236]",236,a,0.6760521277610678,colour,0.5
32,20,0,1,7,20,320,992.1852887810528,993.165390542752,"[24, 0, 230]",230,a,0.45713763587991707,colour,0.5
32,20,0,1,7,21,321,995.1854754636443,996.005440576846,"[53, 0, 201]",201,a,0.2974153124669101,colour,0.5
32,20,0,1,7,22,322,998.0149519371043,999.0294084170309,"[66, 0, 188]",188,a,0.4910477029188769,colour,0.5
32,20,0,1,7,23,323,1001.0465202009073,1001.8934207774582,"[38, 0, 216]",216,a,0.32240124234522227,colour,0.5
32,20,0,1,7,24,324,1003.907765799202,1004.757386664176,"[72, 0, 182]",182,l,0.32624871557345614,colour,0.5
32,20,0,1,7,25,325,1006.7689724068186,1007.5814052315982,"[96, 0, 158]",158,l,0.28916937664325815,colour,0.5
32,20,0,1,7,26,326,1009.5981282903376,1010.5653591926821,"[3, 0, 251]",251,a,0.44496348858228885,colour,0.5
32,20,0,1,7,27,327,1012.5705319548288,1013.429384550007,"[67, 0, 187]",187,l,0.34785584795463365,colour,0.5
32,20,0,1,7,28,328,1015.4302002033073,1016.4774029378459,"[58, 0, 196]",196,a,0.5239853662787937,colour,0.5
32,20,0,1,7,29,329,1018.4956505711307,1019.3733620472776,"[5, 0, 249]",249,a,0.35437398511567153,colour,0.5
32,20,0,1,7,30,330,1021.3844688742247,1022.213355367654,"[40, 0, 214]",214,a,0.3052248678432079,colour,0.5
32,20,0,1,7,31,331,1024.2285010765772,1025.2053414066322,"[75, 0, 179]",179,l,0.4536788878031075,colour,0.5
32,20,0,1,7,32,332,1027.2130142977694,1028.2213401841436,"[37, 0, 217]",217,a,0.48512309038778767,colour,0.5
32,20,0,1,7,33,333,1030.2288921648142,1031.2693467566278,"[60, 0, 194]",194,a,0.5168906398321269,colour,0.5
32,20,0,1,7,34,334,1033.2769649032853,1034.1335513134982,"[4, 0, 250]",250,a,0.33317408862058073,colour,0.5
32,20,0,1,7,35,335,1036.1522128780343,1037.2933051445289,"[29, 0, 225]",225,a,0.6177177540230332,colour,0.5
32,20,0,1,7,36,336,1039.3087127604667,1040.2132919585856,"[25, 0, 229]",229,a,0.381178298019222,colour,0.5
32,20,0,1,7,37,337,1042.2308413044375,1043.173274928733,"[86, 0, 168]",168,l,0.41930802195565775,colour,0.5
32,20,0,1,7,38,338,1045.184169473141,1045.8693324206688,"[71, 0, 183]",183,l,0.16212674803682603,colour,0.5
32,20,0,1,7,39,339,1047.8800005041267,1048.6693532156933,"[93, 0, 161]",161,l,0.27767933838185854,colour,0.5
32,20,0,1,7,40,340,1050.6809767674713,1051.4532539289066,"[44, 0, 210]",210,a,0.2593651452625636,colour,0.5
32,20,0,1,7,41,341,1053.4637270590174,1054.2292848284123,"[82, 0, 172]",172,l,0.24242901630350389,colour,0.5
32,20,0,1,7,42,342,1056.2345938609797,1057.7732869803876,"[17, 0, 237]",237,a,1.0153044285107171,colour,0.5
32,20,0,1,7,43,343,1059.78174953103,1060.7412575239287,"[85, 0, 169]",169,l,0.43646470419480465,colour,0.5
32,20,0,1,7,44,344,1062.7507775487757,1063.64523020052,"[6, 0, 248]",248,a,0.37116360366053414,colour,0.5
32,20,0,1,7,45,345,1065.6571802499238,1066.5492430493323,"[45, 0, 209]",209,a,0.3686563854716951,colour,0.5
32,20,0,1,7,46,346,1068.5655801398098,1069.5813008626428,"[21, 0, 233]",233,a,0.4923848071921384,colour,0.5
32,20,0,1,7,47,347,1071.5970038624364,1072.5092244440748,"[52, 0, 202]",202,a,0.38921864666917827,colour,0.5
32,20,0,1,7,48,348,1074.506661299878,1075.3092196391663,"[98, 0, 156]",156,l,0.2792346328496933,colour,0.5
32,20,0,1,7,49,349,1077.319362727052,1078.125230547099,"[56, 0, 198]",198,a,0.28282886363740545,colour,0.5
32,20,0,1,7,50,350,1080.1318723516451,1080.9812281588238,"[46, 0, 208]",208,a,0.3258056397753535,colour,0.5
32,20,0,1,8,1,351,1088.5870124049397,1089.3892395204748,"[31, 0, 223]",223,a,0.27807121429941617,colour,0.5
32,20,0,1,8,2,352,1091.4005594176415,1092.2131797127222,"[35, 0, 219]",219,a,0.28930840398243163,colour,0.5
32,20,0,1,8,3,353,1094.21623673875,1095.0213393176818,"[61, 0, 193]",193,a,0.28251496907614637,colour,0.5
32,20,0,1,8,4,354,1097.0271229336504,1097.9731409426022,"[40, 0, 214]",214,a,0.4226785487117013,colour,0.5
32,20,0,1,8,5,355,1099.9680063834385,1100.7891640597372,"[21, 0, 233]",233,a,0.29777922536595725,colour,0.5
32,20,0,1,8,6,356,1102.7914830199588,1103.6291853431321,"[83, 0, 171]",171,l,0.324396855692612,colour,0.5
32,20,0,1,8,7,357,1105.6413653981144,1106.4451675003802,"[78, 0, 176]",176,l,0.2930255144747207,colour,0.5
32,20,0,1,8,8,358,1108.4445097789867,1109.2931641479663,"[16, 0, 238]",238,a,0.3250325217668433,colour,0.5
32,20,0,1,8,9,359,1111.307544221927,1112.245185538486,"[5, 0, 249]",249,a,0.4143093393795425,colour,0.5
32,20,0,1,8,10,360,1114.258681036241,1115.2451024371549,"[88, 0, 166]",166,l,0.46309966369881295,colour,0.5
32,20,0,1,8,11,361,1117.2471823333763,1118.005148343742,"[44, 0, 210]",210,a,0.2349246908997884,colour,0.5
32,20,0,1,8,12,362,1120.0100918880198,1120.941123301498,"[56, 0, 198]",198,a,0.40771282702917233,colour,0.5
32,20,0,1,8,13,363,1122.9459100953973,1123.7651426566154,"[34, 0, 220]",220,a,0.29591436860209797,colour,0.5
32,20,0,1,8,14,364,1125.774281439386,1126.5731010067102,"[64, 0, 190]",190,a,0.28555112129834015,colour,0.5
32,20,0,1,8,15,365,1128.594563597915,1129.4290864092327,"[17, 0, 237]",237,a,0.31113175734935794,colour,0.5
32,20,0,1,8,16,366,1131.4370145120192,1132.3410450838564,"[43, 0, 211]",211,a,0.38097152933187317,colour,0.5
32,20,0,1,8,17,367,1134.3516513336217,1135.1570748963568,"[89, 0, 165]",165,l,0.28187063841323834,colour,0.5
32,20,0,1,8,18,368,1137.1567755740398,1137.9810568361863,"[24, 0, 230]",230,a,0.3009067496750504,colour,0.5
32,20,0,1,8,19,369,1140.0006841090217,1140.8210485812015,"[93, 0, 161]",161,l,0.297003744286485,colour,0.5
32,20,0,1,8,20,370,1142.8291141359368,1143.5970523053984,"[91, 0, 163]",163,l,0.24474679499689955,colour,0.5
32,20,0,1,8,21,371,1145.6105352001032,1146.405050827685,"[11, 0, 243]",243,l,0.27123012411175296,colour,0.5
32,20,0,1,8,22,372,1148.4244646364532,1149.2690596435132,"[28, 0, 226]",226,a,0.32127878368191887,colour,0.5
32,20,0,1,8,23,373,1151.2841009834665,1152.2130261131242,"[84, 0, 170]",170,l,0.4055462848918978,colour,0.5
32,20,0,1,8,24,374,1154.2111096626322,1154.8850110020721,"[80, 0, 174]",174,l,0.1506670358357951,colour,0.5
32,20,0,1,8,25,375,1156.8987751022214,1157.701073897566,"[32, 0, 222]",222,a,0.2777258121059276,colour,0.5
32,20,0,1,8,26,376,1159.712663972503,1160.6450309148786,"[41, 0, 213]",213,a,0.4089778576308163,colour,0.5
32,20,0,1,8,27,377,1162.6660823317507,1163.5330713738076,"[25, 0, 229]",229,a,0.3435940496419789,colour,0.5
32,20,0,1,8,28,378,1165.5426701676915,1166.3649463642068,"[57, 0, 197]",197,a,0.2988205519504845,colour,0.5
32,20,0,1,8,29,379,1168.3855050808052,1169.2609468273586,"[53, 0, 201]",201,a,0.3519616835837951,colour,0.5
32,20,0,1,8,30,380,1171.2783949550067,1172.132974724198,"[51, 0, 203]",203,a,0.3312903272744734,colour,0.5
32,20,0,1,8,31,381,1174.1332488404296,1175.0609715608443,"[30, 0, 224]",224,a,0.4021856042527361,colour,0.5
32,20,0,1,8,32,382,1177.0764126536233,1178.0609298132476,"[46, 0, 208]",208,a,0.4611745486181462,colour,0.5
32,20,0,1,8,33,383,1180.076812800282,1180.94095709885,"[37, 0, 217]",217,a,0.34088439503102563,colour,0.5
32,20,0,1,8,34,384,1182.947960847072,1183.7809756253264,"[3, 0, 251]",251,a,0.30969619180541486,colour,0.5
32,20,0,1,8,35,385,1185.7815014085936,1186.7489426242537,"[60, 0, 194]",194,l,0.44415256143838633,colour,0.5
32,20,0,1,8,36,386,1188.766102851092,1189.5889272800414,"[50, 0, 204]",204,a,0.2994755164254457,colour,0.5
32,20,0,1,8,37,387,1191.6127037114784,1192.292888456359,"[79, 0, 175]",175,l,0.1568870322080329,colour,0.5
32,20,0,1,8,38,388,1194.2893859914766,1195.1568783676194,"[63, 0, 191]",191,l,0.34405799920205027,colour,0.5
32,20,0,1,8,39,389,1197.1606273795624,1197.9649150929035,"[38, 0, 216]",216,a,0.2778691717394395,colour,0.5
32,20,0,1,8,40,390,1199.976622927541,1201.0689229004784,"[77, 0, 177]",177,l,0.5689888695342233,colour,0.5
32,20,0,1,8,41,391,1203.0863383389806,1203.9249197245226,"[86, 0, 168]",168,l,0.3151989961770596,colour,0.5
32,20,0,1,8,42,392,1205.9464870785305,1206.8368673714722,"[70, 0, 184]",184,l,0.3674634285271168,colour,0.5
32,20,0,1,8,43,393,1208.8530280193227,1209.4048802927427,"[90, 0, 164]",164,l,0.027200521144550294,colour,0.5
32,20,0,1,8,44,394,1211.4173726669105,1212.4288619175059,"[39, 0, 215]",215,a,0.4882112301856978,colour,0.5
32,20,0,1,8,45,395,1214.4413271163648,1215.2928640379687,"[20, 0, 234]",234,a,0.3282600827369606,colour,0.5
32,20,0,1,8,46,396,1217.2946225565393,1218.100847987982,"[58, 0, 196]",196,a,0.29510501683398616,colour,0.5
32,20,0,1,8,47,397,1220.1107291688386,1221.0368548471888,"[29, 0, 225]",225,a,0.4027180828852579,colour,0.5
32,20,0,1,8,48,398,1223.0452248442307,1224.004813575375,"[87, 0, 167]",167,l,0.4317385624453891,colour,0.5
32,20,0,1,8,49,399,1226.0197249464254,1226.7728785629733,"[76, 0, 178]",178,l,0.23568008589791134,colour,0.5
32,20,0,1,8,50,400,1228.7729317320627,1229.4848351895926,"[45, 0, 209]",209,a,0.18864512936852407,colour,0.5
32,20,0,1,9,1,401,1236.9211356603628,1237.7968105632463,"[90, 0, 164]",164,l,0.3514721340761753,colour,0.5
32,20,0,1,9,2,402,1239.807366006993,1240.6767712889996,"[40, 0, 214]",214,a,0.34614183387020603,colour,0.5
32,20,0,1,9,3,403,1242.6878812667128,1243.612795871246,"[64, 0, 190]",190,l,0.4016665163508151,colour,0.5
32,20,0,1,9,4,404,1245.6131605718547,1246.4047684407124,"[94, 0, 160]",160,l,0.2683554483955959,colour,0.5
32,20,0,1,9,5,405,1248.414421979076,1249.220758081021,"[45, 0, 209]",209,a,0.28324870257347357,colour,0.5
32,20,0,1,9,6,406,1251.2245449020847,1252.3088072833052,"[52, 0, 202]",202,a,0.5573854038666468,colour,0.5
32,20,0,1,9,7,407,1254.3219617111608,1255.140746470468,"[38, 0, 216]",216,a,0.29596084234071895,colour,0.5
32,20,0,1,9,8,408,1257.150246409219,1258.0128318686911,"[16, 0, 238]",238,a,0.3392428484658012,colour,0.5
32,20,0,1,9,9,409,1260.0263419387193,1260.788804479118,"[79, 0, 175]",175,l,0.23898365895729512,colour,0.5
32,20,0,1,9,10,410,1262.807967408531,1263.564728646612,"[76, 0, 178]",178,l,0.2335556851758156,colour,0.5
32,20,0,1,9,11,411,1265.5738024449092,1266.5727248845942,"[65, 0, 189]",189,l,0.4755152380676009,colour,0.5
32,20,0,1,9,12,412,1268.5923100159998,1269.4207821843447,"[4, 0, 250]",250,a,0.3050669359508902,colour,0.5
32,20,0,1,9,13,413,1271.4363319783733,1271.9727348882589,"[51, 0, 203]",203,a,0.01305596657039132,colour,0.5
32,20,0,1,9,14,414,1273.9833805225499,1274.9087255998165,"[5, 0, 249]",249,a,0.4019682017242303,colour,0.5
32,20,0,1,9,15,415,1276.9240170314442,1277.7406903869123,"[67, 0, 187]",187,l,0.29333389521343634,colour,0.5
32,20,0,1,9,16,416,1279.7419845620607,1280.4526930934226,"[56, 0, 198]",198,a,0.1873162958654575,colour,0.5
32,20,0,1,9,17,417,1282.4609528138099,1283.4367033743474,"[92, 0, 162]",162,l,0.45240046647086274,colour,0.5
32,20,0,1,9,18,418,1285.438233856592,1286.228706663751,"[13, 0, 241]",241,a,0.26716839913569856,colour,0.5
32,20,0,1,9,19,419,1288.2456030143367,1289.1486623640376,"[25, 0, 229]",229,a,0.3797013787261676,colour,0.5
32,20,0,1,9,20,420,1291.1459893370338,1291.7486535419157,"[28, 0, 226]",226,a,0.07375734964443836,colour,0.5
32,20,0,1,9,21,421,1293.7629977759643,1294.8446371485043,"[96, 0, 158]",158,l,0.5581849095178768,colour,0.5
32,20,0,1,9,22,422,1296.8570609936141,1297.5886452869163,"[15, 0, 239]",239,a,0.21333370616775937,colour,0.5
32,20,0,1,9,23,423,1299.5929756142868,1301.1167510611267,"[84, 0, 170]",170,l,1.0004434696456883,colour,0.5
32,20,0,1,9,24,424,1303.1235216530185,1304.0846203864494,"[98, 0, 156]",156,l,0.4377864484995371,colour,0.5
32,20,0,1,9,25,425,1306.0938655073987,1306.8845706831926,"[91, 0, 163]",163,l,0.26848266037995927,colour,0.5
32,20,0,1,9,26,426,1308.9054692881618,1309.9246282791137,"[3, 0, 251]",251,a,0.4958467060205294,colour,0.5
32,20,0,1,9,27,427,1311.9368382663088,1312.5565855043678,"[69, 0, 185]",185,l,0.09621400600008201,colour,0.5
32,20,0,1,9,28,428,1314.5702219986997,1315.3486258152116,"[93, 0, 161]",161,l,0.25490248590358533,colour,0.5
32,20,0,1,9,29,429,1317.3593065017194,1318.3005971873936,"[49, 0, 205]",205,a,0.417857884123805,colour,0.5
32,20,0,1,9,30,430,1320.3072153612302,1321.1566192175233,"[19, 0, 235]",235,a,0.326075817560195,colour,0.5
32,20,0,1,9,31,431,1323.1729184988653,1324.0205524150806,"[35, 0, 219]",219,a,0.3242696437082486,colour,0.5
32,20,0,1,9,32,432,1326.032545787457,1326.884593132374,"[88, 0, 166]",166,l,0.328705915439059,colour,0.5
32,20,0,1,9,33,433,1328.89214511303,1329.5405701853742,"[33, 0, 221]",221,a,0.12503244300023653,colour,0.5
32,20,0,1,9,34,434,1331.5486207739887,1332.38065448399,"[21, 0, 233]",233,a,0.3090561934368452,colour,0.5
32,20,0,1,9,35,435,1334.3925529396802,1335.2205217739247,"[0, 0, 254]",254,a,0.30493499782460276,colour,0.5
32,20,0,1,9,36,436,1337.2277338662389,1338.0285498346057,"[43, 0, 211]",211,a,0.27750171421212144,colour,0.5
32,20,0,1,9,37,437,1340.0404372626363,1340.90853812953,"[70, 0, 184]",184,a,0.3433931886102073,colour,0.5
32,20,0,1,9,38,438,1342.9070277333958,1343.844628090068,"[60, 0, 194]",194,a,0.4200693246239098,colour,0.5
32,20,0,1,9,39,439,1345.8564580167003,1346.8445276595448,"[31, 0, 223]",223,a,0.4657388200139394,colour,0.5
32,20,0,1,9,40,440,1348.8556872617482,1349.7404611690436,"[53, 0, 201]",201,a,0.3594573444133857,colour,0.5
32,20,0,1,9,41,441,1351.7472223086515,1352.8125395568204,"[63, 0, 191]",191,l,0.542272777936887,colour,0.5
32,20,0,1,9,42,442,1354.8132165766292,1355.6285059602524,"[54, 0, 200]",200,a,0.29265136158210225,colour,0.5
32,20,0,1,9,43,443,1357.6386659834825,1358.6365281920298,"[44, 0, 210]",210,a,0.4746026988577796,colour,0.5
32,20,0,1,9,44,444,1360.6431731473276,1361.4765573523182,"[22, 0, 232]",232,a,0.3100321417005034,colour,0.5
32,20,0,1,9,45,445,1363.485948195972,1364.4284487739496,"[1, 0, 253]",253,a,0.41905399184906855,colour,0.5
32,20,0,1,9,46,446,1366.435933800938,1367.2044899134344,"[27, 0, 227]",227,a,0.24522374145453796,colour,0.5
32,20,0,1,9,47,447,1369.2217076416564,1370.0444911107188,"[77, 0, 177]",177,l,0.2993711474555312,colour,0.5
32,20,0,1,9,48,448,1372.0617076574126,1372.9005072331638,"[11, 0, 243]",243,a,0.31548807850049343,colour,0.5
32,20,0,1,9,49,449,1374.9163248419063,1375.620420319421,"[85, 0, 169]",169,l,0.1807335680932738,colour,0.5
32,20,0,1,9,50,450,1377.6251507934649,1378.6044144526968,"[34, 0, 220]",220,a,0.45600533108517993,colour,0.5
32,20,0,1,10,1,451,1386.227954419519,1387.5004393342679,"[34, 0, 220]",220,a,0.7484125086775748,colour,0.5
32,20,0,1,10,2,452,1389.5116828254831,1390.3003726956667,"[89, 0, 165]",165,l,0.265379160628072,colour,0.5
32,20,0,1,10,3,453,1392.3086934620515,1392.8843647021858,"[20, 0, 234]",234,a,0.05227821694279555,colour,0.5
32,20,0,1,10,4,454,1394.8941411202395,1395.7243725948356,"[7, 0, 247]",247,a,0.30680812532955315,colour,0.5
32,20,0,1,10,5,455,1397.73669207099,1398.5324097139528,"[37, 0, 217]",217,a,0.27213793716509826,colour,0.5
32,20,0,1,10,6,456,1400.5392716779315,1401.2763638955948,"[4, 0, 250]",250,a,0.21382955722219776,colour,0.5
32,20,0,1,10,7,457,1403.286380559177,1404.3164329130086,"[3, 0, 251]",251,a,0.5067798472591676,colour,0.5
32,20,0,1,10,8,458,1406.3357313251472,1407.0283867827238,"[67, 0, 187]",187,l,0.17797113824053667,colour,0.5
32,20,0,1,10,9,459,1409.0465016901871,1409.924353769049,"[27, 0, 227]",227,a,0.36101145735301543,colour,0.5
32,20,0,1,10,10,460,1411.9218536400585,1412.7643364556134,"[49, 0, 205]",205,a,0.31921070282987785,colour,0.5
32,20,0,1,10,11,461,1414.7814509964082,1415.5803375174146,"[58, 0, 196]",196,l,0.2754470240906812,colour,0.5
32,20,0,1,10,12,462,1417.5956009860383,1418.4123078183475,"[56, 0, 198]",198,a,0.2934043935092632,colour,0.5
32,20,0,1,10,13,463,1420.414616932423,1421.4204222098779,"[26, 0, 228]",228,a,0.4824890540621709,colour,0.5
32,20,0,1,10,14,464,1423.430416424293,1424.22032642673,"[40, 0, 214]",214,a,0.26676864629553165,colour,0.5
32,20,0,1,10,15,465,1426.2274987406854,1426.9883386390866,"[0, 0, 254]",254,a,0.23744096753944177,colour,0.5
32,20,0,1,10,16,466,1429.0089973923605,1429.8443067124172,"[1, 0, 253]",253,a,0.31212464095733594,colour,0.5
32,20,0,1,10,17,467,1431.8529496441479,1432.7003405579017,"[45, 0, 209]",209,a,0.32402979202743154,colour,0.5
32,20,0,1,10,18,468,1434.7031518245494,1435.364266981327,"[53, 0, 201]",201,a,0.13763706303143408,colour,0.5
32,20,0,1,10,19,469,1437.3698060194583,1438.1643247977918,"[74, 0, 180]",180,l,0.2711824688449269,colour,0.5
32,20,0,1,10,20,470,1440.1729980555829,1440.9482515047857,"[76, 0, 178]",178,l,0.2519112320296699,colour,0.5
32,20,0,1,10,21,471,1442.9577120590257,1443.8043330055225,"[92, 0, 162]",162,l,0.3357888265309157,colour,0.5
32,20,0,1,10,22,472,1445.8204538750288,1446.8282437381567,"[60, 0, 194]",194,l,0.48443898136611097,colour,0.5
32,20,0,1,10,23,473,1448.836229342327,1449.6602097067953,"[5, 0, 249]",249,a,0.30053023372602183,colour,0.5
32,20,0,1,10,24,474,1451.680235157066,1452.7003354379121,"[23, 0, 231]",231,a,0.49695577393868007,colour,0.5
32,20,0,1,10,25,475,1454.711699839594,1455.9162704912742,"[61, 0, 193]",193,l,0.6812264652980957,colour,0.5
32,20,0,1,10,26,476,1457.931751362412,1459.1322165722959,"[65, 0, 189]",189,l,0.6870994841010543,colour,0.5
32,20,0,1,10,27,477,1461.1407031474955,1461.9962734372384,"[10, 0, 244]",244,a,0.3321697834908264,colour,0.5
32,20,0,1,10,28,478,1464.0158337563917,1464.7801796642743,"[35, 0, 219]",219,a,0.24087529719690792,colour,0.5
32,20,0,1,10,29,479,1466.797439140093,1467.6042226501158,"[39, 0, 215]",215,a,0.28375951973430347,colour,0.5
32,20,0,1,10,30,480,1469.6174424562778,1470.5881793681037,"[63, 0, 191]",191,l,0.44729426414414775,colour,0.5
32,20,0,1,10,31,481,1472.6020277511125,1473.316173369065,"[81, 0, 173]",173,l,0.19065373962803278,colour,0.5
32,20,0,1,10,32,482,1475.3365591876354,1476.252230246595,"[69, 0, 185]",185,l,0.3922276235825848,colour,0.5
32,20,0,1,10,33,483,1478.2600177466666,1479.036162467426,"[78, 0, 176]",176,l,0.2527906882460229,colour,0.5
32,20,0,1,10,34,484,1481.0571134537895,1481.6121881681902,"[30, 0, 224]",224,a,0.031388670424348675,colour,0.5
32,20,0,1,10,35,485,1483.6204967253725,1484.4521803070384,"[24, 0, 230]",230,a,0.3083779920852976,colour,0.5
32,20,0,1,10,36,486,1486.4644749709405,1487.2441422426928,"[66, 0, 188]",188,l,0.2563695590797579,colour,0.5
32,20,0,1,10,37,487,1489.261602185681,1490.1001500943821,"[71, 0, 183]",183,l,0.3152627990784822,colour,0.5
32,20,0,1,10,38,488,1492.1211121084198,1492.7401681482443,"[36, 0, 218]",218,a,0.0957949547591852,colour,0.5
32,20,0,1,10,39,489,1494.7619682647492,1495.4281766269414,"[73, 0, 181]",181,l,0.14128288754727691,colour,0.5
32,20,0,1,10,40,490,1497.435912927147,1498.3081310511916,"[80, 0, 174]",174,l,0.3489121406310005,colour,0.5
32,20,0,1,10,41,491,1500.3199393163377,1501.148101134706,"[84, 0, 170]",170,l,0.30550804251106456,colour,0.5
32,20,0,1,10,42,492,1503.1627655648626,1503.9561016262305,"[68, 0, 186]",186,l,0.2689812683383934,colour,0.5
32,20,0,1,10,43,493,1505.976678853549,1507.1641408721043,"[17, 0, 237]",237,a,0.6718990306981141,colour,0.5
32,20,0,1,10,44,494,1509.1657418526302,1510.012109950534,"[77, 0, 177]",177,l,0.3277484778809594,colour,0.5
32,20,0,1,10,45,495,1512.0229304520763,1512.8840866475075,"[6, 0, 248]",248,a,0.33781358442502096,colour,0.5
32,20,0,1,10,46,496,1514.8981508576544,1515.7401393975597,"[72, 0, 182]",182,l,0.3239183338591829,colour,0.5
32,20,0,1,10,47,497,1517.7429857164243,1518.4921000571485,"[91, 0, 163]",163,l,0.2257729112461675,colour,0.5
32,20,0,1,10,48,498,1520.5088203589548,1521.6122165250417,"[11, 0, 243]",243,a,0.5801323241030332,colour,0.5
32,20,0,1,10,49,499,1523.6194660326291,1524.4760323567461,"[93, 0, 161]",161,l,0.3334454479190754,colour,0.5
32,20,0,1,10,50,500,1526.4958293768286,1527.3320630514645,"[22, 0, 232]",232,l,0.3129977956559742,colour,0.5
32,20,0,1,11,1,501,1535.3102869595168,1536.1000488761783,"[11, 0, 243]",243,a,0.26557805242191534,colour,0.5
32,20,0,1,11,2,502,1538.1081943814934,1538.9400859133893,"[33, 0, 221]",221,a,0.30740637611597776,colour,0.5
32,20,0,1,11,3,503,1540.9409925449145,1541.747990306685,"[32, 0, 222]",222,a,0.2836086770403199,colour,0.5
32,20,0,1,11,4,504,1543.765159198112,1544.555969530571,"[83, 0, 171]",171,l,0.2774820219638059,colour,0.5
32,20,0,1,11,5,505,1546.563062681642,1547.619989846673,"[12, 0, 242]",242,a,0.5342895368376048,colour,0.5
32,20,0,1,11,6,506,1549.6413496442983,1550.396011687757,"[78, 0, 176]",176,l,0.23132691549835727,colour,0.5
32,20,0,1,11,7,507,1552.4072539974295,1553.3080014761363,"[93, 0, 161]",161,l,0.3775009659002535,colour,0.5
32,20,0,1,11,8,508,1555.3293128308142,1556.4360929143731,"[5, 0, 249]",249,a,0.5839199328620452,colour,0.5
32,20,0,1,11,9,509,1558.4557914731704,1559.2600480727415,"[96, 0, 158]",158,l,0.28125190768332686,colour,0.5
32,20,0,1,11,10,510,1561.2685740324523,1562.8119669059815,"[62, 0, 192]",192,l,1.0202014990500174,colour,0.5
32,20,0,1,11,11,511,1564.8312881611346,1565.6919532316824,"[43, 0, 211]",211,a,0.3373059180448763,colour,0.5
32,20,0,1,11,12,512,1567.6951937895356,1568.667952308504,"[90, 0, 164]",164,l,0.449486012395937,colour,0.5
32,20,0,1,11,13,513,1570.6797983828,1571.5079101828305,"[8, 0, 246]",246,a,0.30502597606391646,colour,0.5
32,20,0,1,11,14,514,1573.5253846980922,1574.2199054062803,"[10, 0, 244]",244,a,0.16806396360334475,colour,0.5
32,20,0,1,11,15,515,1576.2285629102698,1577.2921047045238,"[49, 0, 205]",205,a,0.5402176939678611,colour,0.5
32,20,0,1,11,16,516,1579.2944606861856,1580.4039705104515,"[70, 0, 184]",184,l,0.5862247146433219,colour,0.5
32,20,0,1,11,17,517,1582.4174199283298,1583.3639452098432,"[40, 0, 214]",214,a,0.4232366272917716,colour,0.5
32,20,0,1,11,18,518,1585.374008347164,1586.2519541611546,"[45, 0, 209]",209,a,0.35480051940248813,colour,0.5
32,20,0,1,11,19,519,1588.2648025713424,1589.1639380418637,"[53, 0, 201]",201,a,0.3757255119999172,colour,0.5
32,20,0,1,11,20,520,1591.1713659613015,1592.0039226976514,"[58, 0, 196]",196,a,0.30924523909925483,colour,0.5
32,20,0,1,11,21,521,1594.0152721332124,1594.8678736182483,"[22, 0, 232]",232,a,0.3292470586748095,colour,0.5
32,20,0,1,11,22,522,1596.8747985974478,1597.7079035662318,"[25, 0, 229]",229,a,0.3097706285334425,colour,0.5
32,20,0,1,11,23,523,1599.711346166645,1600.5398711102462,"[1, 0, 253]",253,a,0.30367311798909213,colour,0.5
32,20,0,1,11,24,524,1602.5541822613013,1603.3399049021536,"[50, 0, 204]",204,a,0.26246116193942726,colour,0.5
32,20,0,1,11,25,525,1605.3399509820301,1606.1318652624323,"[17, 0, 237]",237,a,0.2685346479411237,colour,0.5
32,20,0,1,11,26,526,1608.1339061679755,1608.931833676048,"[94, 0, 160]",160,l,0.2745459063880844,colour,0.5
32,20,0,1,11,27,527,1610.9466146843624,1611.9158506523527,"[36, 0, 218]",218,a,0.44608358418918215,colour,0.5
32,20,0,1,11,28,528,1613.9330112730386,1614.7798771912057,"[98, 0, 156]",156,l,0.32331456923566293,colour,0.5
32,20,0,1,11,29,529,1616.7814876240154,1617.659821375477,"[21, 0, 233]",233,a,0.35497381126333494,colour,0.5
32,20,0,1,11,30,530,1619.6646101385995,1620.4837985891645,"[71, 0, 183]",183,l,0.2958730148675386,colour,0.5
32,20,0,1,11,31,531,1622.4928869597497,1623.3798136246041,"[68, 0, 186]",186,l,0.36355097085470334,colour,0.5
32,20,0,1,11,32,532,1625.3993507068953,1626.3718677987927,"[79, 0, 175]",175,l,0.4491996869764989,colour,0.5
32,20,0,1,11,33,533,1628.3850950880005,1629.1637954699108,"[66, 0, 188]",188,l,0.25534398631134536,colour,0.5
32,20,0,1,11,34,534,1631.1728728128364,1631.7558167974203,"[76, 0, 178]",178,l,0.06488677543529775,colour,0.5
32,20,0,1,11,35,535,1633.77710176447,1634.5797884972853,"[20, 0, 234]",234,a,0.28879167915147264,colour,0.5
32,20,0,1,11,36,536,1636.5898327300238,1637.4679116636835,"[28, 0, 226]",226,a,0.35481469782826025,colour,0.5
32,20,0,1,11,37,537,1639.4756987699075,1640.3477459651622,"[13, 0, 241]",241,a,0.34868961812753696,colour,0.5
32,20,0,1,11,38,538,1642.3663382129453,1643.171764926432,"[15, 0, 239]",239,a,0.2821183670021128,colour,0.5
32,20,0,1,11,39,539,1645.179301153301,1645.9717845399282,"[52, 0, 202]",202,a,0.2691900062636705,colour,0.5
32,20,0,1,11,40,540,1647.991989977425,1648.7557297576423,"[48, 0, 206]",206,a,0.24044403676816728,colour,0.5
32,20,0,1,11,41,541,1650.7734401861526,1651.5317169403424,"[30, 0, 224]",224,a,0.2349313862650888,colour,0.5
32,20,0,1,11,42,542,1653.5424417375034,1654.5717607516854,"[67, 0, 187]",187,l,0.5059693139482988,colour,0.5
32,20,0,1,11,43,543,1656.5878891042375,1657.3157326563378,"[97, 0, 157]",157,l,0.204530873321346,colour,0.5
32,20,0,1,11,44,544,1659.3101014584536,1660.1237685939268,"[60, 0, 194]",194,l,0.29031113372184336,colour,0.5
32,20,0,1,11,45,545,1662.1358734244714,1662.963750492796,"[85, 0, 169]",169,l,0.30448050051927567,colour,0.5
32,20,0,1,11,46,546,1664.9676082060032,1665.667675829216,"[84, 0, 170]",170,l,0.17668562768085394,colour,0.5
32,20,0,1,11,47,547,1667.6844051894586,1668.9717467307928,"[99, 0, 155]",155,l,0.7638918044394813,colour,0.5
32,20,0,1,11,48,548,1670.9691768912162,1672.4357116722676,"[29, 0, 225]",225,a,0.9430901641462697,colour,0.5
32,20,0,1,11,49,549,1674.4399620490876,1675.2597365412366,"[38, 0, 216]",216,a,0.2963751674396917,colour,0.5
32,20,0,1,11,50,550,1677.2634871285554,1678.1156880730705,"[69, 0, 185]",185,l,0.3412424002599437,colour,0.5
32,20,0,1,12,1,551,1688.8365794706624,1689.6916649370396,"[81, 0, 173]",173,l,0.33096698042936623,colour,0.5
32,20,0,1,12,2,552,1691.7034062485181,1692.2676524348062,"[84, 0, 170]",170,l,0.040901212210883386,colour,0.5
32,20,0,1,12,3,553,1694.2765450643492,1695.355657920285,"[93, 0, 161]",161,l,0.556010490457993,colour,0.5
32,20,0,1,12,4,554,1697.3639452098432,1698.2597140920552,"[48, 0, 206]",206,a,0.37151963968062773,colour,0.5
32,20,0,1,12,5,555,1700.273378549391,1701.5396588277072,"[67, 0, 187]",187,l,0.7429435749945696,colour,0.5
32,20,0,1,12,6,556,1703.5561605454568,1704.347642777735,"[24, 0, 230]",230,a,0.2681191413139459,colour,0.5
32,20,0,1,12,7,557,1706.3688828464365,1707.147609615975,"[76, 0, 178]",178,l,0.2667355633166153,colour,0.5
32,20,0,1,12,8,558,1709.1546562933072,1710.3955611288984,"[97, 0, 157]",157,l,0.7210524802503642,colour,0.5
32,20,0,1,12,9,559,1712.4045829396491,1713.2675957211177,"[54, 0, 200]",200,a,0.3396299982414348,colour,0.5
32,20,0,1,12,10,560,1715.2798305205652,1716.1876120735687,"[52, 0, 202]",202,a,0.3846587075822754,colour,0.5
32,20,0,1,12,11,561,1718.2019070769602,1719.067566891652,"[19, 0, 235]",235,a,0.34228805913880933,colour,0.5
32,20,0,1,12,12,562,1721.0771152733505,1721.8915444991871,"[65, 0, 189]",189,l,0.30229308459092863,colour,0.5
32,20,0,1,12,13,563,1723.8940076067229,1724.731509068879,"[10, 0, 244]",244,a,0.31415333731274586,colour,0.5
32,20,0,1,12,14,564,1726.735002869158,1727.539534766489,"[12, 0, 242]",242,a,0.29263718315633014,colour,0.5
32,20,0,1,12,15,565,1729.5410368918674,1730.363563180057,"[4, 0, 250]",250,a,0.299236452425248,colour,0.5
32,20,0,1,12,16,566,1732.3850029282476,1733.2275499405514,"[79, 0, 175]",175,l,0.319104364636587,colour,0.5
32,20,0,1,12,17,567,1735.2457306201686,1736.099517185241,"[18, 0, 236]",236,a,0.33051760311354883,colour,0.5
32,20,0,1,12,18,568,1738.1107244426967,1738.9315024522803,"[20, 0, 234]",234,a,0.29749408148927614,colour,0.5
32,20,0,1,12,19,569,1740.938983540822,1741.8035106568568,"[38, 0, 216]",216,a,0.3412144372559851,colour,0.5
32,20,0,1,12,20,570,1743.8154508601438,1744.6354892285308,"[33, 0, 221]",221,a,0.2967422311048722,colour,0.5
32,20,0,1,12,21,571,1746.6328831552091,1747.4514776872966,"[96, 0, 158]",158,l,0.2951794535765657,colour,0.5
32,20,0,1,12,22,572,1749.461324209784,1750.2194371243968,"[74, 0, 180]",180,l,0.2347943281492917,colour,0.5
32,20,0,1,12,23,573,1752.2271214370267,1753.0594844015723,"[6, 0, 248]",248,a,0.30922160838963464,colour,0.5
32,20,0,1,12,24,574,1755.0710638426972,1755.8754890079872,"[94, 0, 160]",160,l,0.2810675881628413,colour,0.5
32,20,0,1,12,25,575,1757.8838995710685,1758.6755763628316,"[1, 0, 253]",253,a,0.26865358916984405,colour,0.5
32,20,0,1,12,26,576,1760.6965387707169,1761.9235302388406,"[39, 0, 215]",215,a,0.7040139515738701,colour,0.5
32,20,0,1,12,27,577,1763.932430351444,1764.8114336396538,"[59, 0, 195]",195,a,0.3556835202180082,colour,0.5
32,20,0,1,12,28,578,1766.8116459221928,1767.9234526513465,"[36, 0, 218]",218,a,0.588497988821473,colour,0.5
32,20,0,1,12,29,579,1769.936828814025,1770.6354195179447,"[0, 0, 254]",254,a,0.17551275684672873,colour,0.5
32,20,0,1,12,30,580,1772.6577832268522,1773.4834650023258,"[95, 0, 159]",159,l,0.302375004379428,colour,0.5
32,20,0,1,12,31,581,1775.5017004264228,1776.323392944425,"[85, 0, 169]",169,l,0.29828334716148674,colour,0.5
32,20,0,1,12,32,582,1778.3300863426703,1779.1793921315257,"[31, 0, 223]",223,a,0.32429130519449245,colour,0.5
32,20,0,1,12,33,583,1781.179695786137,1781.9954144609655,"[15, 0, 239]",239,a,0.2925206049840199,colour,0.5
32,20,0,1,12,34,584,1784.0080990315764,1784.563457314478,"[91, 0, 163]",163,l,0.03207789942098316,colour,0.5
32,20,0,1,12,35,585,1786.5726504478662,1787.4273763336096,"[42, 0, 212]",212,a,0.3313013549486641,colour,0.5
32,20,0,1,12,36,586,1789.4466345735418,1790.1073755774269,"[98, 0, 156]",156,l,0.1383857626497047,colour,0.5
32,20,0,1,12,37,587,1792.118722649917,1793.0113722785754,"[92, 0, 162]",162,l,0.369274722339469,colour,0.5
32,20,0,1,12,38,588,1795.0251663109666,1795.8833470063255,"[57, 0, 197]",197,a,0.3351610373647418,colour,0.5
32,20,0,1,12,39,589,1797.9007652017317,1798.7953671207797,"[16, 0, 238]",238,a,0.3713581631600391,colour,0.5
32,20,0,1,12,40,590,1800.8086668775068,1801.5713377619977,"[88, 0, 166]",166,l,0.239418070166721,colour,0.5
32,20,0,1,12,41,591,1803.590169073781,1804.3713668277633,"[3, 0, 251]",251,a,0.25784647837281227,colour,0.5
32,20,0,1,12,42,592,1806.387206097992,1807.227368377935,"[40, 0, 214]",214,a,0.3168799272389151,colour,0.5
32,20,0,1,12,43,593,1809.2341255790961,1810.0433410828991,"[41, 0, 213]",213,a,0.28566533638513647,colour,0.5
32,20,0,1,12,44,594,1812.0626993594924,1813.2033150733623,"[47, 0, 207]",207,a,0.6174011025286745,colour,0.5
32,20,0,1,12,45,595,1815.2206812812074,1815.9713422518253,"[55, 0, 199]",199,a,0.22805957616947126,colour,0.5
32,20,0,1,12,46,596,1817.9876119947876,1818.8753180791828,"[53, 0, 201]",201,a,0.36432330116804224,colour,0.5
32,20,0,1,12,47,597,1820.89401902823,1821.7393107473617,"[32, 0, 222]",222,a,0.321968406526139,colour,0.5
32,20,0,1,12,48,598,1823.7536510429636,1824.555376399774,"[17, 0, 237]",237,a,0.2785091700934572,colour,0.5
32,20,0,1,12,49,599,1826.5550680190354,1827.4273227706726,"[69, 0, 185]",185,l,0.34886960535368416,colour,0.5
32,20,0,1,12,50,600,1829.4459685814072,1830.2432419126853,"[82, 0, 172]",172,l,0.27404729842965025,colour,0.5
32,20,0,1,13,1,601,1837.6510386287264,1838.49923180505,"[90, 0, 164]",164,l,0.3241251025465317,colour,0.5
32,20,0,1,13,2,602,1840.510302792085,1841.2593202469143,"[17, 0, 237]",237,a,0.2261246149719227,colour,0.5
32,20,0,1,13,3,603,1843.2665662099025,1843.9792821699666,"[18, 0, 236]",236,a,0.18937649980944116,colour,0.5
32,20,0,1,13,4,604,1845.98556675695,1846.7712838839798,"[4, 0, 250]",250,a,0.2614277122920612,colour,0.5
32,20,0,1,13,5,605,1848.7679106003052,1849.4272337616712,"[81, 0, 173]",173,l,0.1359261997276917,colour,0.5
32,20,0,1,13,6,606,1851.4399651998392,1852.2192429587449,"[59, 0, 195]",195,a,0.25585992346168496,colour,0.5
32,20,0,1,13,7,607,1854.2370384577953,1854.9872354788386,"[9, 0, 245]",245,a,0.2268744961329503,colour,0.5
32,20,0,1,13,8,608,1857.0028360789001,1857.7153247903043,"[19, 0, 235]",235,a,0.18900982997729443,colour,0.5
32,20,0,1,13,9,609,1859.721855924363,1860.5392220534413,"[83, 0, 171]",171,l,0.2940376964979805,colour,0.5
32,20,0,1,13,10,610,1862.5511953397072,1863.3151986023295,"[69, 0, 185]",185,l,0.24421983018692117,colour,0.5
32,20,0,1,13,11,611,1865.3301438440685,1866.1072625438683,"[24, 0, 230]",230,a,0.25330268692050595,colour,0.5
32,20,0,1,13,12,612,1868.1293434719555,1870.3551758538233,"[30, 0, 224]",224,a,1.6991972254327266,colour,0.5
32,20,0,1,13,13,613,1872.3565062627313,1873.2351826594677,"[1, 0, 253]",253,a,0.3553200011374429,colour,0.5
32,20,0,1,13,14,614,1875.2363421395858,1876.1311563411728,"[21, 0, 233]",233,a,0.37143890143488534,colour,0.5
32,20,0,1,13,15,615,1878.1387209248787,1878.9712493043771,"[57, 0, 197]",197,a,0.3092204268614296,colour,0.5
32,20,0,1,13,16,616,1880.9847727651359,1881.9872764387255,"[84, 0, 170]",170,l,0.4791752409946639,colour,0.5
32,20,0,1,13,17,617,1884.0005163309834,1885.1471677217196,"[85, 0, 169]",169,l,0.6232402506575454,colour,0.5
32,20,0,1,13,18,618,1887.1471566940454,1887.9870913315099,"[39, 0, 215]",215,a,0.3152954882243648,colour,0.5
32,20,0,1,13,19,619,1890.008058071675,1890.8111055666523,"[75, 0, 179]",179,l,0.27977616993302945,colour,0.5
32,20,0,1,13,20,620,1892.822000504908,1893.611086583318,"[65, 0, 189]",189,a,0.26574464893201366,colour,0.5
32,20,0,1,13,21,621,1895.6191033012583,1896.5790713052702,"[47, 0, 207]",207,a,0.43662027301616035,colour,0.5
32,20,0,1,13,22,622,1898.5891860363045,1899.483084941763,"[61, 0, 193]",193,l,0.37059961741033476,colour,0.5
32,20,0,1,13,23,623,1901.4976765105675,1902.1551060644706,"[16, 0, 238]",238,a,0.1341893426288152,colour,0.5
32,20,0,1,13,24,624,1904.1695393075206,1905.0991095555073,"[60, 0, 194]",194,a,0.406034259009175,colour,0.5
32,20,0,1,13,25,625,1907.1073897558526,1907.8511032981041,"[93, 0, 161]",161,l,0.22071948419034015,colour,0.5
32,20,0,1,13,26,626,1909.8576620013046,1910.6352095984766,"[0, 0, 254]",254,a,0.25429753976641223,colour,0.5
32,20,0,1,13,27,627,1912.6546734255826,1913.467077499663,"[43, 0, 211]",211,a,0.28903546929359436,colour,0.5
32,20,0,1,13,28,628,1915.4846130609367,1916.1230671557132,"[88, 0, 166]",166,l,0.11560103327792604,colour,0.5
32,20,0,1,13,29,629,1918.140416034381,1918.8750396306714,"[79, 0, 175]",175,l,0.21118567475059535,colour,0.5
32,20,0,1,13,30,630,1920.8906823721627,1921.8670441803697,"[71, 0, 183]",183,l,0.452987295735511,colour,0.5
32,20,0,1,13,31,631,1923.8674683515856,1924.915010974495,"[10, 0, 244]",244,a,0.5241649596719071,colour,0.5
32,20,0,1,13,32,632,1926.9314906369254,1927.5950177013729,"[11, 0, 243]",243,a,0.14054206482251175,colour,0.5
32,20,0,1,13,33,633,1929.6036251870246,1930.3949995057337,"[51, 0, 203]",203,a,0.2681132336438168,colour,0.5
32,20,0,1,13,34,634,1932.4182383385487,1933.1550146923983,"[63, 0, 191]",191,a,0.21350148420606274,colour,0.5
32,20,0,1,13,35,635,1935.167427116001,1935.971038597214,"[44, 0, 210]",210,a,0.2802972270437749,colour,0.5
32,20,0,1,13,36,636,1937.9728258664982,1938.6269916256715,"[38, 0, 216]",216,a,0.14294885251729283,colour,0.5
32,20,0,1,13,37,637,1940.6483971093403,1941.3950164410635,"[89, 0, 165]",165,l,0.2231786532793194,colour,0.5
32,20,0,1,13,38,638,1943.4157744433178,1944.0830079844309,"[74, 0, 180]",180,l,0.14189728598285,colour,0.5
32,20,0,1,13,39,639,1946.0898534068983,1946.86700794661,"[41, 0, 213]",213,a,0.24903340554737952,colour,0.5
32,20,0,1,13,40,640,1948.8747233730246,1949.594946809244,"[95, 0, 159]",159,l,0.19683947147859726,colour,0.5
32,20,0,1,13,41,641,1951.6092867109983,1952.314996165922,"[32, 0, 222]",222,a,0.18235305932466872,colour,0.5
32,20,0,1,13,42,642,1954.3297531496792,1955.0349990488612,"[86, 0, 168]",168,l,0.18248066515661776,colour,0.5
32,20,0,1,13,43,643,1957.04817474437,1957.8189182728092,"[46, 0, 208]",208,a,0.24741864045790862,colour,0.5
32,20,0,1,13,44,644,1959.8296485837927,1960.610966066699,"[35, 0, 219]",219,a,0.2581938497896772,colour,0.5
32,20,0,1,13,45,645,1962.6267257801956,1965.9949843820796,"[45, 0, 209]",209,a,2.8436017296189675,colour,0.5
32,20,0,1,13,46,646,1968.0033591052488,1968.842905411395,"[56, 0, 198]",198,a,0.3162371719663497,colour,0.5
32,20,0,1,13,47,647,1970.8629993907234,1972.0268834758026,"[40, 0, 214]",214,a,0.640808894924703,colour,0.5
32,20,0,1,13,48,648,1974.0384877291654,1974.6669054681115,"[82, 0, 172]",172,l,0.10514247545506805,colour,0.5
32,20,0,1,13,49,649,1976.6792938671715,1977.434904289723,"[13, 0, 241]",241,a,0.2324481926189037,colour,0.5
32,20,0,1,13,50,650,1979.4451478081173,1980.170956362359,"[94, 0, 160]",160,l,0.2025510137755191,colour,0.5
32,20,0,1,14,1,651,1987.679358457768,1988.4748618489684,"[41, 0, 213]",213,a,0.27185948865371756,colour,0.5
32,20,0,1,14,2,652,1990.4928196122346,1991.2508608470234,"[42, 0, 212]",212,a,0.23455802106764168,colour,0.5
32,20,0,1,14,3,653,1993.2587247530464,1993.970865305353,"[25, 0, 229]",229,a,0.1887778551899828,colour,0.5
32,20,0,1,14,4,654,1995.9776784325368,1996.9229008742986,"[24, 0, 230]",230,a,0.42191921526682563,colour,0.5
32,20,0,1,14,5,655,1998.931803349973,1999.818904882064,"[36, 0, 218]",218,a,0.3632130517071346,colour,0.5
32,20,0,1,14,6,656,2001.839494318585,2002.5868383253837,"[53, 0, 201]",201,a,0.22402817725378554,colour,0.5
32,20,0,1,14,7,657,2004.6049252698576,2005.4428895000456,"[43, 0, 211]",211,a,0.3145928684825776,colour,0.5
32,20,0,1,14,8,658,2007.4646399920603,2008.106854126454,"[86, 0, 168]",168,l,0.11929648228397127,colour,0.5
32,20,0,1,14,9,659,2010.1228446332098,2011.0830197997857,"[34, 0, 220]",220,a,0.4371460562979337,colour,0.5
32,20,0,1,14,10,660,2013.0918758017215,2013.8428152208508,"[57, 0, 197]",197,a,0.22806863460573368,colour,0.5
32,20,0,1,14,11,661,2015.8457600010152,2016.6508373738616,"[4, 0, 250]",250,a,0.28173515568778384,colour,0.5
32,20,0,1,14,12,662,2018.6611340613454,2019.3149737167405,"[60, 0, 194]",194,a,0.13075304373342078,colour,0.5
32,20,0,1,14,13,663,2021.3293809660245,2021.9789643369295,"[85, 0, 169]",169,l,0.1286955966934329,colour,0.5
32,20,0,1,14,14,664,2023.9993084079324,2025.0268196728866,"[87, 0, 167]",167,l,0.5151722934679128,colour,0.5
32,20,0,1,14,15,665,2027.0312035631941,2027.7307351631607,"[12, 0, 242]",242,a,0.17617047822568566,colour,0.5
32,20,0,1,14,16,666,2029.7416726367082,2030.4747996214428,"[97, 0, 157]",157,l,0.21005888379295357,colour,0.5
32,20,0,1,14,17,667,2032.4849100201682,2033.1867916941264,"[31, 0, 223]",223,a,0.17881593607307877,colour,0.5
32,20,0,1,14,18,668,2035.1958331971255,2036.2347549436527,"[33, 0, 221]",221,l,0.5157327351189451,colour,0.5
32,20,0,1,14,19,669,2038.2430032425327,2039.0827441081783,"[62, 0, 192]",192,a,0.31655342962767463,colour,0.5
32,20,0,1,14,20,670,2041.1024556638731,2041.9947279888875,"[63, 0, 191]",191,a,0.36878792975039687,colour,0.5
32,20,0,1,14,21,671,2044.0100473835191,2045.1467226766981,"[91, 0, 163]",163,l,0.6130865289596841,colour,0.5
32,20,0,1,14,22,672,2047.1669678925682,2047.9227449116152,"[15, 0, 239]",239,a,0.23248403253091965,colour,0.5
32,20,0,1,14,23,673,2049.932774572095,2050.7627264166513,"[76, 0, 178]",178,l,0.306637590387254,colour,0.5
32,20,0,1,14,24,674,2052.776655931768,2053.5066853244207,"[48, 0, 206]",206,a,0.2067060800618492,colour,0.5
32,20,0,1,14,25,675,2055.5268868234853,2056.3387206097977,"[35, 0, 219]",219,a,0.2888578451384092,colour,0.5
32,20,0,1,14,26,676,2058.3552148445015,2059.10679504968,"[96, 0, 158]",158,l,0.2281407082627993,colour,0.5
32,20,0,1,14,27,677,2061.121037277844,2061.914713621416,"[56, 0, 198]",198,a,0.2701730437402148,colour,0.5
32,20,0,1,14,28,678,2063.9335413886,2064.7707108392933,"[74, 0, 180]",180,l,0.31431993380829226,colour,0.5
32,20,0,1,14,29,679,2066.777731916707,2067.5786735216825,"[90, 0, 164]",164,l,0.2776592522714054,colour,0.5
32,20,0,1,14,30,680,2069.5904979344778,2070.3546839412447,"[21, 0, 233]",233,a,0.240853635725216,colour,0.5
32,20,0,1,14,31,681,2072.3719619277836,2073.3226410940406,"[66, 0, 188]",188,a,0.42748464102623984,colour,0.5
32,20,0,1,14,32,682,2075.3417524297256,2076.0586297576083,"[13, 0, 241]",241,a,0.19343743711942807,colour,0.5
32,20,0,1,14,33,683,2078.0763614537427,2078.7306599387375,"[92, 0, 162]",162,l,0.13091924638138153,colour,0.5
32,20,0,1,14,34,684,2080.7394261439913,2081.8666621505836,"[55, 0, 199]",199,a,0.6008158896147506,colour,0.5
32,20,0,1,14,35,685,2083.8749466832232,2085.21061420544,"[72, 0, 182]",182,a,0.8216838534135604,colour,0.5
32,20,0,1,14,36,686,2087.2265452415886,2088.0266526825435,"[11, 0, 243]",243,a,0.2745982877968345,colour,0.5
32,20,0,1,14,37,687,2090.041633370347,2090.690622035094,"[40, 0, 214]",214,a,0.12695598269056063,colour,0.5
32,20,0,1,14,38,688,2092.696768382433,2093.3226190387068,"[71, 0, 183]",183,l,0.10262659264844842,colour,0.5
32,20,0,1,14,39,689,2095.3375213513355,2096.082656280705,"[22, 0, 232]",232,a,0.221816342920647,colour,0.5
32,20,0,1,14,40,690,2098.089042085907,2099.0425868694438,"[32, 0, 222]",222,a,0.430212412509718,colour,0.5
32,20,0,1,14,41,691,2101.0577514829347,2101.746579553379,"[9, 0, 245]",245,a,0.16557722535799257,colour,0.5
32,20,0,1,14,42,692,2103.762181334969,2104.5226675604354,"[75, 0, 179]",179,l,0.23742875833704602,colour,0.5
32,20,0,1,14,43,693,2106.5437709648686,2107.730567385137,"[68, 0, 186]",186,l,0.6634522338717943,colour,0.5
32,20,0,1,14,44,694,2109.7471155766107,2110.4185640484793,"[5, 0, 249]",249,a,0.14800424879649654,colour,0.5
32,20,0,1,14,45,695,2112.4349417050107,2113.466578104024,"[51, 0, 203]",203,a,0.5084820459742332,colour,0.5
32,20,0,1,14,46,696,2115.4819337324006,2116.2505564047315,"[79, 0, 175]",175,l,0.2451662400708301,colour,0.5
32,20,0,1,14,47,697,2118.263476494729,2119.594535634911,"[7, 0, 247]",247,a,0.8079024240723811,colour,0.5
32,20,0,1,14,48,698,2121.6087428108585,2123.266580782176,"[50, 0, 204]",204,l,1.1343397914752131,colour,0.5
32,20,0,1,14,49,699,2125.2809372254123,2125.882520719213,"[8, 0, 246]",246,a,0.07826293811376672,colour,0.5
32,20,0,1,14,50,700,2127.878431425066,2128.6345302156114,"[23, 0, 231]",231,a,0.2328849668992916,colour,0.5
32,20,0,1,15,1,701,2137.298956034676,2138.426501209702,"[58, 0, 196]",196,a,0.6034782827919116,colour,0.5
32,20,0,1,15,2,702,2140.4409817141714,2141.5144921229075,"[80, 0, 174]",174,l,0.5503052496787859,colour,0.5
32,20,0,1,15,3,703,2143.5349275659682,2144.162613146793,"[9, 0, 245]",245,a,0.1044107111665653,colour,0.5
32,20,0,1,15,4,704,2146.1757384301163,2146.986453696227,"[3, 0, 251]",251,a,0.28742858111218084,colour,0.5
32,20,0,1,15,5,705,2149.008190009801,2149.650475824019,"[44, 0, 210]",210,a,0.11896171391708776,colour,0.5
32,20,0,1,15,6,706,2151.6646404646744,2152.3944741162995,"[37, 0, 217]",217,a,0.20651467131392565,colour,0.5
32,20,0,1,15,7,707,2154.4148654487217,2155.250447703467,"[25, 0, 229]",229,a,0.312336923496332,colour,0.5
32,20,0,1,15,8,708,2157.2588358173816,2158.106452404405,"[47, 0, 207]",207,a,0.32428539752436336,colour,0.5
32,20,0,1,15,9,709,2160.1186277332454,2160.762446786597,"[28, 0, 226]",226,a,0.12043981475289911,colour,0.5
32,20,0,1,15,10,710,2162.7750206867204,2163.354487412522,"[71, 0, 183]",183,l,0.05606385647843126,colour,0.5
32,20,0,1,15,11,711,2165.3689096278977,2166.0584233827394,"[89, 0, 165]",165,l,0.16444964669062756,colour,0.5
32,20,0,1,15,12,712,2168.074035010475,2168.674379861288,"[79, 0, 175]",175,l,0.07831138106121216,colour,0.5
32,20,0,1,15,13,713,2170.670803747358,2171.578438396129,"[53, 0, 201]",201,a,0.38509745108603965,colour,0.5
32,20,0,1,15,14,714,2173.5928562792105,2174.2663992195594,"[87, 0, 167]",167,l,0.15023380616912618,colour,0.5
32,20,0,1,15,15,715,2176.2689292807772,2177.0344007980893,"[68, 0, 186]",186,l,0.2421588385332143,colour,0.5
32,20,0,1,15,16,716,2179.047047559565,2180.410512278322,"[31, 0, 223]",223,a,0.8401315600349335,colour,0.5
32,20,0,1,15,17,717,2182.4134389415995,2183.3304880647192,"[4, 0, 250]",250,a,0.3939215515565593,colour,0.5
32,20,0,1,15,18,718,2185.3521759353607,2186.3623615585093,"[29, 0, 225]",225,a,0.4961838374583749,colour,0.5
32,20,0,1,15,19,719,2188.383976173951,2189.2263439867093,"[16, 0, 238]",238,a,0.3188365499227075,colour,0.5
32,20,0,1,15,20,720,2191.2355186093773,2191.946340174298,"[42, 0, 212]",212,a,0.18739309566444717,colour,0.5
32,20,0,1,15,21,721,2193.958669102736,2194.8183389265905,"[22, 0, 232]",232,a,0.3345844480791129,colour,0.5
32,20,0,1,15,22,722,2196.835573196324,2197.7543442104216,"[67, 0, 187]",187,l,0.39231111876142677,colour,0.5
32,20,0,1,15,23,723,2199.7586253071495,2200.570306281559,"[21, 0, 233]",233,a,0.28844982157170307,colour,0.5
32,20,0,1,15,24,724,2202.5774451186735,2203.482308279141,"[52, 0, 202]",202,a,0.3816174353705719,colour,0.5
32,20,0,1,15,25,725,2205.49945235833,2206.354288914561,"[76, 0, 178]",178,l,0.33221034954476636,colour,0.5
32,20,0,1,15,26,726,2208.360189502535,2209.3783784528932,"[51, 0, 203]",203,a,0.49487824080279097,colour,0.5
32,20,0,1,15,27,727,2211.39170184033,2212.0982907514554,"[69, 0, 185]",185,l,0.18326756775786635,colour,0.5
32,20,0,1,15,28,728,2214.1114955914964,2214.9942872761603,"[86, 0, 168]",168,l,0.36014775493822526,colour,0.5
32,20,0,1,15,29,729,2217.0018813982606,2217.88277632471,"[7, 0, 247]",247,a,0.3573628759186249,colour,0.5
32,20,0,1,15,30,730,2219.8928745142475,2220.7062970718835,"[2, 0, 252]",252,a,0.300268720544409,colour,0.5
32,20,0,1,15,31,731,2222.7266431121097,2223.7622671932186,"[91, 0, 163]",163,l,0.5122822577977786,colour,0.5
32,20,0,1,15,32,732,2225.7738001606194,2226.762316817709,"[57, 0, 197]",197,l,0.4651685322460253,colour,0.5
32,20,0,1,15,33,733,2228.7752963783278,2230.1382372830412,"[49, 0, 205]",205,a,0.8396770627441583,colour,0.5
32,20,0,1,15,34,734,2232.1505150116136,2234.026248203576,"[88, 0, 166]",166,l,1.3522306798258796,colour,0.5
32,20,0,1,15,35,735,2236.0414959183836,2237.0102458814654,"[33, 0, 221]",221,a,0.44541050282714423,colour,0.5
32,20,0,1,15,36,736,2239.0272261210775,2240.146209890314,"[12, 0, 242]",242,a,0.5956230413576122,colour,0.5
32,20,0,1,15,37,737,2242.154629511846,2243.0342475923244,"[94, 0, 160]",160,l,0.3562616848939797,colour,0.5
32,20,0,1,15,38,738,2245.045479268185,2245.9062187754607,"[10, 0, 244]",244,a,0.33754261895956006,colour,0.5
32,20,0,1,15,39,739,2247.9207437844307,2248.498183389267,"[11, 0, 243]",243,a,0.05407612002454698,colour,0.5
32,20,0,1,15,40,740,2250.5147189777053,2251.330228914623,"[95, 0, 159]",159,l,0.2924717682035407,colour,0.5
32,20,0,1,15,41,741,2253.343061570995,2253.978523624217,"[19, 0, 235]",235,a,0.11219112202525139,colour,0.5
32,20,0,1,15,42,742,2255.999443890658,2256.634205687209,"[85, 0, 169]",169,l,0.11123644138569944,colour,0.5
32,20,0,1,15,43,743,2258.6559778406954,2259.338196795754,"[81, 0, 173]",173,l,0.15894999308511615,colour,0.5
32,20,0,1,15,44,744,2261.3592875971517,2261.8981666114705,"[77, 0, 177]",177,l,0.015791614961926825,colour,0.5
32,20,0,1,15,45,745,2263.9096239606006,2264.770196871381,"[60, 0, 194]",194,a,0.3371940660144901,colour,0.5
32,20,0,1,15,46,746,2266.784866027665,2267.4341362916894,"[5, 0, 249]",249,a,0.12595522217452526,colour,0.5
32,20,0,1,15,47,747,2269.4297236506827,2270.0981828378863,"[93, 0, 161]",161,l,0.14529538189526647,colour,0.5
32,20,0,1,15,48,748,2272.1175084253337,2272.7701196777343,"[26, 0, 228]",228,a,0.1292182292090729,colour,0.5
32,20,0,1,15,49,749,2274.7897115044907,2275.578126470762,"[41, 0, 213]",213,a,0.26509244136104826,colour,0.5
32,20,0,1,15,50,750,2277.57445307709,2278.122183367217,"[73, 0, 181]",181,l,0.024308910084073432,colour,0.5
32,20,0,1,16,1,751,2285.654018461093,2286.7301148570696,"[93, 0, 161]",161,l,0.551996026901179,colour,0.5
32,20,0,1,16,2,752,2288.750638521451,2289.3942082708236,"[31, 0, 223]",223,a,0.12017081851081457,colour,0.5
32,20,0,1,16,3,753,2291.4071189085516,2292.1380710803933,"[85, 0, 169]",169,l,0.2076528837933438,colour,0.5
32,20,0,1,16,4,754,2294.156338799774,2295.082102534434,"[64, 0, 190]",190,a,0.40004860049521085,colour,0.5
32,20,0,1,16,5,755,2297.0949556707637,2297.6740939297015,"[88, 0, 166]",166,l,0.05599099512619432,colour,0.5
32,20,0,1,16,6,756,2299.6888871472183,2301.1221888810396,"[51, 0, 203]",203,a,0.9099914181133499,colour,0.5
32,20,0,1,16,7,757,2303.1422285097506,2303.762102172099,"[28, 0, 226]",226,a,0.09419554962369148,colour,0.5
32,20,0,1,16,8,758,2305.7717186890222,2306.562042228863,"[44, 0, 210]",210,a,0.2647328607417876,colour,0.5
32,20,0,1,16,9,759,2308.570958882963,2309.3300449889357,"[43, 0, 211]",211,a,0.23413227447599638,colour,0.5
32,20,0,1,16,10,760,2311.3516934750514,2311.9940616028907,"[89, 0, 165]",165,l,0.11890893866075203,colour,0.5
32,20,0,1,16,11,761,2314.009498757223,2314.6740738436056,"[38, 0, 216]",216,a,0.14166767425194848,colour,0.5
32,20,0,1,16,12,762,2316.672366524901,2317.322034572513,"[91, 0, 163]",163,l,0.13158287544501945,colour,0.5
32,20,0,1,16,13,763,2319.3394661586644,2320.0980847704486,"[6, 0, 248]",248,a,0.2352362224191893,colour,0.5
32,20,0,1,16,14,764,2322.1072786915174,2322.898113836214,"[1, 0, 253]",253,a,0.267490170605015,colour,0.5
32,20,0,1,16,15,765,2324.90882091035,2325.4979994635796,"[76, 0, 178]",178,l,0.06576859470806085,colour,0.5
32,20,0,1,16,16,766,2327.5191127141443,2328.498042786552,"[84, 0, 170]",170,l,0.45584464227431454,colour,0.5
32,20,0,1,16,17,767,2330.5193919503654,2331.3139902854164,"[83, 0, 171]",171,l,0.27112339207087643,colour,0.5
32,20,0,1,16,18,768,2333.3204182320333,2334.090016064947,"[30, 0, 224]",224,a,0.2465758118487429,colour,0.5
32,20,0,1,16,19,769,2336.101847173122,2336.810108744583,"[54, 0, 200]",200,a,0.1836870128317969,colour,0.5
32,20,0,1,16,20,770,2338.822137169176,2339.4899764441216,"[7, 0, 247]",247,a,0.14458961138734594,colour,0.5
32,20,0,1,16,21,771,2341.5098664116667,2342.169955601843,"[17, 0, 237]",237,a,0.13684504045522772,colour,0.5
32,20,0,1,16,22,772,2344.18190762047,2351.625940059137,"[41, 0, 213]",213,a,6.921008842226001,colour,0.5
32,20,0,1,16,23,773,2353.638036225093,2355.1219187032693,"[98, 0, 156]",156,l,0.9605418363935314,colour,0.5
32,20,0,1,16,24,774,2357.1394574152946,2357.898132740782,"[4, 0, 250]",250,a,0.23559501534327865,colour,0.5
32,20,0,1,16,25,775,2359.9053436515533,2360.55390972046,"[52, 0, 202]",202,a,0.12520376563770697,colour,0.5
32,20,0,1,16,26,776,2362.562115484063,2363.2418658177485,"[62, 0, 192]",192,a,0.1565959806466708,colour,0.5
32,20,0,1,16,27,777,2365.2497368129843,2366.089886489892,"[24, 0, 230]",230,a,0.3167326291586505,colour,0.5
32,20,0,1,16,28,778,2368.109372372317,2369.242067466461,"[5, 0, 249]",249,a,0.6093576031125849,colour,0.5
32,20,0,1,16,29,779,2371.250179494935,2372.2738810957962,"[18, 0, 236]",236,a,0.5002069656329695,colour,0.5
32,20,0,1,16,30,780,2374.282461799972,2375.377900718726,"[59, 0, 195]",195,l,0.5845934080571169,colour,0.5
32,20,0,1,16,31,781,2377.3986146103125,2378.465874302754,"[13, 0, 241]",241,a,0.5439765520422952,colour,0.5
32,20,0,1,16,32,782,2380.4769539543922,2381.081928454878,"[70, 0, 184]",184,l,0.08175319377915002,colour,0.5
32,20,0,1,16,33,783,2383.102101597091,2383.873858882929,"[32, 0, 222]",222,a,0.24835087191604543,colour,0.5
32,20,0,1,16,34,784,2385.8864225430734,2386.5298406620714,"[72, 0, 182]",182,l,0.11993844987591729,colour,0.5
32,20,0,1,16,35,785,2388.54203568316,2389.0978642171685,"[15, 0, 239]",239,a,0.03246583689178806,colour,0.5
32,20,0,1,16,36,786,2391.093351933334,2392.00190502897,"[99, 0, 155]",155,l,0.38541725333197974,colour,0.5
32,20,0,1,16,37,787,2394.0175513150753,2394.849818181392,"[2, 0, 252]",252,a,0.30900696279422846,colour,0.5
32,20,0,1,16,38,788,2396.861468514646,2397.4978171132825,"[56, 0, 198]",198,a,0.11433954729000106,colour,0.5
32,20,0,1,16,39,789,2399.5049039628357,2400.121814334314,"[96, 0, 158]",158,l,0.0939623933081748,colour,0.5
32,20,0,1,16,40,790,2402.1326635865407,2402.8978346000076,"[46, 0, 208]",208,a,0.2417575103318086,colour,0.5
32,20,0,1,16,41,791,2404.908626350836,2405.721820084451,"[0, 0, 254]",254,a,0.2992935599613702,colour,0.5
32,20,0,1,16,42,792,2407.7442798915727,2408.50579562824,"[14, 0, 240]",240,a,0.23816643029567786,colour,0.5
32,20,0,1,16,43,793,2410.5257592448324,2411.24978052979,"[77, 0, 177]",177,l,0.20067079704313073,colour,0.5
32,20,0,1,16,44,794,2413.261149263766,2413.8978129385214,"[78, 0, 176]",176,l,0.11337344514322467,colour,0.5
32,20,0,1,16,45,795,2415.9085968124564,2416.6097636574705,"[69, 0, 185]",185,l,0.1779794089961797,colour,0.5
32,20,0,1,16,46,796,2418.6289549437206,2419.4737677471567,"[35, 0, 219]",219,a,0.32180653617251664,colour,0.5
32,20,0,1,16,47,797,2421.476967345123,2422.4497652486025,"[65, 0, 189]",189,a,0.44960495362465736,colour,0.5
32,20,0,1,16,48,798,2424.46045696277,2425.2257839389204,"[42, 0, 212]",212,a,0.24228762589336839,colour,0.5
32,20,0,1,16,49,799,2427.233406417872,2428.0817791875743,"[29, 0, 225]",225,a,0.32502779562491924,colour,0.5
32,20,0,1,16,50,800,2430.086944072813,2430.7217621892196,"[81, 0, 173]",173,l,0.1115523051994387,colour,0.5
