id,age,condition,counterbalance,block,trialinblock,trial,tstart,tend,trialstim,trialintensity,response,RT,trialtype,colourfreq
031,21,0,2,Practice,1,NA,5.907844752073288e-06,1.4565154374577105,"[25, 0, 229]",229,a,0.9018854205496609,colour,0.5
031,21,0,2,Practice,2,NA,3.4697797847911716,4.536555625498295,"[99, 0, 155]",155,l,0.5444928086362779,colour,0.5
031,21,0,2,Practice,3,NA,6.548219381831586,7.60060053691268,"[69, 0, 185]",185,a,0.5303076491691172,colour,0.5
031,21,0,2,Practice,4,NA,9.610910643357784,11.392465012613684,"[68, 0, 186]",186,a,1.259317811112851,colour,0.5
031,21,0,2,Practice,5,NA,13.408389790914953,14.95241589192301,"[75, 0, 179]",179,l,1.0219919793307781,colour,0.5
031,21,0,2,Practice,6,NA,16.970828990917653,17.768468434456736,"[1, 0, 253]",253,a,0.27527252212166786,colour,0.5
031,21,0,2,Practice,7,NA,19.783459403552115,20.456449665129185,"[23, 0, 231]",231,a,0.1506213708780706,colour,0.5
031,21,0,2,Practice,8,NA,22.471320511307567,23.056440921965986,"[24, 0, 230]",230,a,0.06312291696667671,colour,0.5
031,21,0,2,Practice,9,NA,25.06524417269975,26.42442169599235,"[61, 0, 193]",193,l,0.8368153278715909,colour,0.5
031,21,0,2,Practice,10,NA,28.44059774838388,29.048463960178196,"[36, 0, 218]",218,a,0.08561508124694228,colour,0.5
031,21,0,2,1,1,1,6.209244594909251,7.055983272846788,"[84, 0, 170]",170,l,0.3236711039207876,colour,0.5
031,21,0,2,1,2,2,9.069715903140604,9.631971964612603,"[86, 0, 168]",168,l,0.03993876511231065,colour,0.5
031,21,0,2,1,3,3,11.647982601542026,12.255958302877843,"[99, 0, 155]",155,l,0.08566510025411844,colour,0.5
031,21,0,2,1,4,4,14.273093370720744,14.800015517510474,"[58, 0, 196]",196,a,0.004596185404807329,colour,0.5
031,21,0,2,1,5,5,16.820237946230918,17.41600362677127,"[9, 0, 245]",245,a,0.07358150370419025,colour,0.5
031,21,0,2,1,6,6,19.429853623267263,20.095993323717266,"[70, 0, 184]",184,l,0.14385942555963993,colour,0.5
031,21,0,2,1,7,7,22.101883688010275,22.807965697720647,"[36, 0, 218]",218,a,0.18377416534349322,colour,0.5
031,21,0,2,1,8,8,24.820918512530625,25.384001650847495,"[41, 0, 213]",213,a,0.0411073062568903,colour,0.5
031,21,0,2,1,9,9,27.39930651569739,28.471983748488128,"[53, 0, 201]",201,l,0.5507636284455657,colour,0.5
031,21,0,2,1,10,10,30.47754485718906,31.0319807077758,"[37, 0, 217]",217,a,0.03196456003934145,colour,0.5
031,21,0,2,1,11,11,33.04021642636508,33.672016280237585,"[72, 0, 182]",182,l,0.10955659998580813,colour,0.5
031,21,0,2,1,12,12,35.68114760518074,36.287964610848576,"[89, 0, 165]",165,l,0.08499595522880554,colour,0.5
031,21,0,2,1,13,13,38.30628712521866,38.87999426573515,"[50, 0, 204]",204,a,0.05134455161169171,colour,0.5
031,21,0,2,1,14,14,40.90029625128955,41.424014064949006,"[78, 0, 176]",176,l,0.0018443819135427475,colour,0.5
031,21,0,2,1,15,15,43.447406955994666,44.54399262415245,"[61, 0, 193]",193,l,0.5743936146609485,colour,0.5
031,21,0,2,1,16,16,46.55709391878918,47.1759586809203,"[82, 0, 172]",172,l,0.09661914501339197,colour,0.5
031,21,0,2,1,17,17,49.18216175911948,54.74400900816545,"[92, 0, 162]",162,l,5.039801706559956,colour,0.5
031,21,0,2,1,18,18,56.760971965268254,57.35998805845156,"[83, 0, 171]",171,l,0.07709658099338412,colour,0.5
031,21,0,2,1,19,19,59.370412380900234,60.07996338792145,"[33, 0, 221]",221,a,0.18710689200088382,colour,0.5
031,21,0,2,1,20,20,62.08949564862996,62.615966053679585,"[27, 0, 227]",227,a,0.004147988744080067,colour,0.5
031,21,0,2,1,21,21,64.6365803591907,66.80002260673791,"[14, 0, 240]",240,a,1.6409689877182245,colour,0.5
031,21,0,2,1,22,22,68.8087482699193,69.59199184598401,"[52, 0, 202]",202,a,0.26142764557152987,colour,0.5
031,21,0,2,1,23,23,71.6058083656244,72.35201149107888,"[77, 0, 177]",177,l,0.2238098164089024,colour,0.5
031,21,0,2,1,24,24,74.37165181478485,75.00797656783834,"[87, 0, 167]",167,l,0.11393617000430822,colour,0.5
031,21,0,2,1,25,25,77.02805445482954,77.58397589344531,"[4, 0, 250]",250,a,0.03354073269292712,colour,0.5
031,21,0,2,1,26,26,79.59084535948932,80.13623456237838,"[16, 0, 238]",238,a,0.02304079243913293,colour,0.5
031,21,0,2,1,27,27,82.15349723631516,82.70397532638162,"[1, 0, 253]",253,a,0.028842934872955084,colour,0.5
031,21,0,2,1,28,28,84.71626687329262,88.63202828448266,"[46, 0, 208]",208,a,3.39391554845497,colour,0.5
031,21,0,2,1,29,29,90.63862442132086,91.3920223293826,"[67, 0, 187]",187,l,0.23111526994034648,colour,0.5
031,21,0,2,1,30,30,93.4045545165427,94.07201320817694,"[11, 0, 243]",243,a,0.14525285316631198,colour,0.5
031,21,0,2,1,31,31,96.09234433807433,98.3519984940067,"[28, 0, 226]",226,a,1.737502274569124,colour,0.5
031,21,0,2,1,32,32,100.35833666147664,100.96800511376932,"[20, 0, 234]",234,a,0.08741929102689028,colour,0.5
031,21,0,2,1,33,33,102.98343955352902,103.5680089732632,"[39, 0, 215]",215,a,0.06247661495581269,colour,0.5
031,21,0,2,1,34,34,105.57744907354936,107.47197941597551,"[6, 0, 248]",248,a,1.3723473469726741,colour,0.5
031,21,0,2,1,35,35,109.48398424312472,110.94402145361528,"[22, 0, 232]",232,a,0.9378636674955487,colour,0.5
031,21,0,2,1,36,36,112.953048015479,114.36801897734404,"[23, 0, 231]",231,a,0.8927060468122363,colour,0.5
031,21,0,2,1,37,37,116.37526692915708,118.15198919922113,"[49, 0, 205]",205,l,1.2543793730437756,colour,0.5
031,21,0,2,1,38,38,120.17227464308962,120.85598303610459,"[69, 0, 185]",185,l,0.16125128092244267,colour,0.5
031,21,0,2,1,39,39,122.87570212921128,125.45599477272481,"[45, 0, 209]",209,l,2.057937537319958,colour,0.5
031,21,0,2,1,40,40,127.47004129877314,128.200023079291,"[74, 0, 180]",180,l,0.20782359782606363,colour,0.5
031,21,0,2,1,41,41,130.2201163265854,131.37599515123293,"[38, 0, 216]",216,a,0.6335430173203349,colour,0.5
031,21,0,2,1,42,42,133.39225469902158,133.9999787323177,"[26, 0, 228]",228,a,0.08550125965848565,colour,0.5
031,21,0,2,1,43,43,136.01742612058297,136.62398318760097,"[71, 0, 183]",183,l,0.08469741977751255,colour,0.5
031,21,0,2,1,44,44,138.64260344952345,139.4320012666285,"[42, 0, 212]",212,a,0.26695252023637295,colour,0.5
031,21,0,2,1,45,45,141.43977382220328,142.06398386508226,"[98, 0, 156]",156,l,0.10197821073234081,colour,0.5
031,21,0,2,1,46,46,144.08045963430777,144.73603204637766,"[51, 0, 203]",203,a,0.1333579090423882,colour,0.5
031,21,0,2,1,47,47,146.75271025300026,147.4720093482174,"[40, 0, 214]",214,a,0.19700818648561835,colour,0.5
031,21,0,2,1,48,48,149.48721417598426,150.68803715705872,"[32, 0, 222]",222,a,0.678885352332145,colour,0.5
031,21,0,2,1,49,49,152.70624663773924,153.82398775639012,"[73, 0, 181]",181,l,0.5961158098652959,colour,0.5
031,21,0,2,1,50,50,155.8315421207808,157.46401348197833,"[55, 0, 199]",199,a,1.1102856090292335,colour,0.5
031,21,0,2,2,1,51,166.92524956073612,167.62399854743853,"[33, 0, 221]",221,a,0.17553608352318406,colour,0.5
031,21,0,2,2,2,52,169.62933004414663,170.24002052750438,"[22, 0, 232]",232,a,0.08834167895838618,colour,0.5
031,21,0,2,2,3,53,172.2546523087658,173.6879981663078,"[9, 0, 245]",245,a,0.911060462705791,colour,0.5
031,21,0,2,2,4,54,175.7080480903387,176.43203710671514,"[96, 0, 158]",158,l,0.20224004006013274,colour,0.5
031,21,0,2,2,5,55,178.44273475790396,179.18400102108717,"[27, 0, 227]",227,a,0.21892257872968912,colour,0.5
031,21,0,2,2,6,56,181.19302718900144,181.73611120972782,"[93, 0, 161]",161,l,0.021404361352324486,colour,0.5
031,21,0,2,2,7,57,183.75569797027856,184.3760085417889,"[3, 0, 251]",251,a,0.0986671457067132,colour,0.5
031,21,0,2,2,8,58,186.38082488719374,187.53607749659568,"[53, 0, 201]",201,a,0.6335193864069879,colour,0.5
031,21,0,2,2,9,59,189.55308023188263,190.90401770407334,"[62, 0, 192]",192,a,0.8285291967913508,colour,0.5
031,21,0,2,2,10,60,192.91272879531607,193.62398358155042,"[51, 0, 203]",203,a,0.18900877563282847,colour,0.5
031,21,0,2,2,11,61,195.6317380196415,196.3679945585318,"[18, 0, 236]",236,a,0.21413498371839523,colour,0.5
031,21,0,2,2,12,62,198.38180123222992,199.31203846167773,"[68, 0, 186]",186,l,0.40819208044558764,colour,0.5
031,21,0,2,2,13,63,201.31974524445832,202.04000296164304,"[26, 0, 228]",228,a,0.19847998954355717,colour,0.5
031,21,0,2,2,14,64,204.0544862630777,204.71205074945465,"[70, 0, 184]",184,l,0.13609198993071914,colour,0.5
031,21,0,2,2,15,65,206.72640605084598,207.824046832975,"[50, 0, 204]",204,a,0.5754447900690138,colour,0.5
031,21,0,2,2,16,66,209.83594059525058,210.54403437161818,"[11, 0, 243]",243,a,0.18578908266499639,colour,0.5
031,21,0,2,2,17,67,212.5549104353413,213.16803961480036,"[83, 0, 171]",171,l,0.09132151957601309,colour,0.5
031,21,0,2,2,18,68,215.18006137711927,215.9279946689494,"[30, 0, 224]",224,a,0.22559787845239043,colour,0.5
031,21,0,2,2,19,69,217.94603400770575,218.60805447073653,"[1, 0, 253]",253,a,0.14033765252679586,colour,0.5
031,21,0,2,2,20,70,220.61809282330796,221.3360768663697,"[97, 0, 157]",157,l,0.19589478336274624,colour,0.5
031,21,0,2,2,21,71,223.35279406327754,224.06401222199202,"[23, 0, 231]",231,a,0.18899223441258073,colour,0.5
031,21,0,2,2,22,72,226.07174578635022,227.53606765018776,"[21, 0, 233]",233,a,0.9421447762288153,colour,0.5
031,21,0,2,2,23,73,229.55629322957247,230.28000655351207,"[67, 0, 187]",187,l,0.20129638398066163,colour,0.5
031,21,0,2,2,24,74,232.2909838357009,232.9280112106353,"[66, 0, 188]",188,l,0.11463052127510309,colour,0.5
031,21,0,2,2,25,75,234.94737544795498,235.4959886763245,"[89, 0, 165]",165,l,0.026330983731895685,colour,0.5
031,21,0,2,2,26,76,237.51005134964362,238.18400771636516,"[64, 0, 190]",190,l,0.15158393140882254,colour,0.5
031,21,0,2,2,27,77,240.19787740521133,241.58401252143085,"[54, 0, 200]",200,l,0.8644298566505313,colour,0.5
031,21,0,2,2,28,78,243.60471741156653,244.28800360159948,"[95, 0, 159]",159,l,0.1619405122473836,colour,0.5
031,21,0,2,2,29,79,246.30765889119357,246.83201276697218,"[12, 0, 242]",242,a,0.0025804806500673294,colour,0.5
031,21,0,2,2,30,80,248.85479755932465,249.46403002366424,"[84, 0, 170]",170,l,0.08778911270201206,colour,0.5
031,21,0,2,2,31,81,251.4798086853698,252.50401171762496,"[31, 0, 223]",223,a,0.5017939694225788,colour,0.5
031,21,0,2,2,32,82,254.51144241448492,255.07218177430332,"[34, 0, 220]",220,a,0.03898959560319781,colour,0.5
031,21,0,2,2,33,83,257.0898347501643,257.64802080439404,"[14, 0, 240]",240,a,0.03628111444413662,colour,0.5
031,21,0,2,2,34,84,259.65253782691434,260.24801206123084,"[86, 0, 168]",168,l,0.0732735157944262,colour,0.5
031,21,0,2,2,35,85,262.26219170726836,262.8799985977821,"[17, 0, 237]",237,a,0.09556048642843962,colour,0.5
031,21,0,2,2,36,86,264.8872705749236,265.9920683307573,"[52, 0, 202]",202,a,0.583373702596873,colour,0.5
031,21,0,2,2,37,87,267.99675431335345,268.656017458532,"[43, 0, 211]",211,a,0.137314488645643,colour,0.5
031,21,0,2,2,38,88,270.66884148539975,271.28809812432155,"[42, 0, 212]",212,a,0.09768804349005222,colour,0.5
031,21,0,2,2,39,89,273.29419604549184,273.8240409255959,"[36, 0, 218]",218,a,0.007650856859982014,colour,0.5
031,21,0,2,2,40,90,275.84125633817166,276.5360243273899,"[65, 0, 189]",189,l,0.17246447736397386,colour,0.5
031,21,0,2,2,41,91,278.54457000270486,279.0800240403041,"[47, 0, 207]",207,a,0.01299850083887577,colour,0.5
031,21,0,2,2,42,92,281.09183155046776,282.39205344347283,"[87, 0, 167]",167,l,0.7781310579739511,colour,0.5
031,21,0,2,2,43,93,284.40459665842354,285.0080317063257,"[71, 0, 183]",183,l,0.08159115444868803,colour,0.5
031,21,0,2,2,44,94,287.0140926060267,288.83206121018156,"[39, 0, 215]",215,a,1.2956020766869187,colour,0.5
031,21,0,2,2,45,95,290.84264937229455,291.51205090712756,"[75, 0, 179]",179,l,0.14800426317378879,colour,0.5
031,21,0,2,2,46,96,293.53030725521967,294.1280547697097,"[74, 0, 180]",180,l,0.0754554239101708,colour,0.5
031,21,0,2,2,47,97,296.13990560313687,297.00802304176614,"[24, 0, 230]",230,a,0.34582534804940224,colour,0.5
031,21,0,2,2,48,98,299.0150205078535,299.6800097832456,"[91, 0, 163]",163,l,0.14355301298201084,colour,0.5
031,21,0,2,2,49,99,301.6871222523041,302.5600375258364,"[4, 0, 250]",250,a,0.35142190335318446,colour,0.5
031,21,0,2,2,50,100,304.57795122778043,305.296060513705,"[2, 0, 252]",252,a,0.19671634631231427,colour,0.5
031,21,0,2,3,1,101,313.57788978749886,314.3440754893236,"[8, 0, 246]",246,a,0.24396804813295603,colour,0.5
031,21,0,2,3,2,102,316.3602188527584,317.41605679597706,"[57, 0, 197]",197,a,0.5344367329962552,colour,0.5
031,21,0,2,3,3,103,319.42291523423046,319.9840484401211,"[84, 0, 170]",170,l,0.03916761418804526,colour,0.5
031,21,0,2,3,4,104,322.00136467721313,322.9040720551275,"[32, 0, 222]",222,a,0.38047830294817686,colour,0.5
031,21,0,2,3,5,105,324.923403209541,325.48799911141396,"[86, 0, 168]",168,l,0.04327306663617492,colour,0.5
031,21,0,2,3,6,106,327.50168526824564,328.2881757123396,"[46, 0, 208]",208,a,0.2649868340231478,colour,0.5
031,21,0,2,3,7,107,330.29874378815293,331.0481492774561,"[23, 0, 231]",231,a,0.2276454851962626,colour,0.5
031,21,0,2,3,8,108,333.06460141576827,334.18406915618107,"[58, 0, 196]",196,a,0.597810136154294,colour,0.5
031,21,0,2,3,9,109,336.1899173790589,337.4561944529414,"[25, 0, 229]",229,a,0.7440259433351457,colour,0.5
031,21,0,2,3,10,110,339.4714197604917,340.0160933448933,"[97, 0, 157]",157,l,0.0223322631791234,colour,0.5
031,21,0,2,3,11,111,342.034131502267,342.68810292938724,"[91, 0, 163]",163,l,0.13247529976069927,colour,0.5
031,21,0,2,3,12,112,344.7062060716562,345.3200146355666,"[73, 0, 181]",181,l,0.09148772293701768,colour,0.5
031,21,0,2,3,13,113,347.33137434208766,348.1600689548068,"[67, 0, 187]",187,l,0.30710317427292466,colour,0.5
031,21,0,2,3,14,114,350.17544037941843,350.94405808113515,"[33, 0, 221]",221,a,0.24677971610799432,colour,0.5
031,21,0,2,3,15,115,352.9568580840714,353.5920584057458,"[30, 0, 224]",224,a,0.11286372691392899,colour,0.5
031,21,0,2,3,16,116,355.5977809918113,356.1361321620643,"[1, 0, 253]",253,a,0.0162516706623137,colour,0.5
031,21,0,2,3,17,117,358.14478023769334,359.3040906446986,"[44, 0, 210]",210,a,0.6368887410499156,colour,0.5
031,21,0,2,3,18,118,361.3169796564616,362.12004275619984,"[79, 0, 175]",175,l,0.28074186481535435,colour,0.5
031,21,0,2,3,19,119,364.1296908073127,365.3200540198013,"[56, 0, 198]",198,a,0.6680179527029395,colour,0.5
031,21,0,2,3,20,120,367.3331817025319,367.96804764913395,"[49, 0, 205]",205,a,0.11299566552042961,colour,0.5
031,21,0,2,3,21,121,369.97402465948835,370.6721797264181,"[81, 0, 173]",173,l,0.17586415773257613,colour,0.5
031,21,0,2,3,22,122,372.67743796715513,373.20806620735675,"[98, 0, 156]",156,l,0.00844130665063858,colour,0.5
031,21,0,2,3,23,123,375.22438404429704,375.87205708259717,"[28, 0, 226]",226,a,0.1253789784386754,colour,0.5
031,21,0,2,3,24,124,377.88110885070637,378.8880240027793,"[62, 0, 192]",192,a,0.4848707909695804,colour,0.5
031,21,0,2,3,25,125,380.89676660113037,382.13603882072493,"[63, 0, 191]",191,a,0.7180895935744047,colour,0.5
031,21,0,2,3,26,126,384.14707281673327,384.7760736052878,"[35, 0, 219]",219,a,0.10770591674372554,colour,0.5
031,21,0,2,3,27,127,386.78781455522403,388.10402069753036,"[3, 0, 251]",251,a,0.7938888454809785,colour,0.5
031,21,0,2,3,28,128,390.11634414596483,390.64009071094915,"[24, 0, 230]",230,a,0.001756160520017147,colour,0.5
031,21,0,2,3,29,129,392.66341507202014,394.05606282968074,"[0, 0, 254]",254,a,0.8708125283010304,colour,0.5
031,21,0,2,3,30,130,396.06980294315144,396.6640066294931,"[18, 0, 236]",236,a,0.07212860509753227,colour,0.5
031,21,0,2,3,31,131,398.6794556416571,399.400080029387,"[20, 0, 234]",234,a,0.1983200879767537,colour,0.5
031,21,0,2,3,32,132,401.41410528775305,402.07205219892785,"[85, 0, 169]",169,l,0.13681666692718863,colour,0.5
031,21,0,2,3,33,133,404.0862708357163,404.91206713346764,"[72, 0, 182]",182,l,0.30343725346028805,colour,0.5
031,21,0,2,3,34,134,406.9302651924081,407.56807356420904,"[74, 0, 180]",180,l,0.11601252760738134,colour,0.5
031,21,0,2,3,35,135,409.58680489100516,410.61604324774817,"[48, 0, 206]",206,a,0.5076803956180811,colour,0.5
031,21,0,2,3,36,136,412.63381004473194,413.5200388962403,"[42, 0, 212]",212,a,0.3639729944989085,colour,0.5
031,21,0,2,3,37,137,415.5402707774192,416.0640642098151,"[41, 0, 213]",213,a,0.0015352126210927963,colour,0.5
031,21,0,2,3,38,138,418.0874133836478,418.9121565367095,"[78, 0, 176]",176,l,0.3024656348861754,colour,0.5
031,21,0,2,3,39,139,420.93126359255984,421.552051899489,"[71, 0, 183]",183,l,0.09850409300997853,colour,0.5
031,21,0,2,3,40,140,423.5722069805488,424.15206836210564,"[90, 0, 164]",164,l,0.057622460182756186,colour,0.5
031,21,0,2,3,41,141,426.1660562050529,426.8720681103878,"[69, 0, 185]",185,l,0.18396124243736267,colour,0.5
031,21,0,2,3,42,142,428.88500517141074,429.56807159492746,"[31, 0, 223]",223,a,0.16068611154332757,colour,0.5
031,21,0,2,3,43,143,431.58843698957935,432.12010852852836,"[22, 0, 232]",232,a,0.010063559282571077,colour,0.5
031,21,0,2,3,44,144,434.13541496824473,434.8720948919654,"[87, 0, 167]",167,l,0.21421690378338099,colour,0.5
031,21,0,2,3,45,145,436.8856613188982,437.56803260417655,"[43, 0, 211]",211,a,0.16024657897651196,colour,0.5
031,21,0,2,3,46,146,439.5733637069352,440.18404316250235,"[53, 0, 201]",201,a,0.08827118063345551,colour,0.5
031,21,0,2,3,47,147,442.1987552884966,442.7520674960688,"[60, 0, 194]",194,a,0.03165736049413681,colour,0.5
031,21,0,2,3,48,148,444.7613417869434,445.33605678007007,"[37, 0, 217]",217,a,0.05234846565872431,colour,0.5
031,21,0,2,3,49,149,447.3553233440034,448.20007073506713,"[64, 0, 190]",190,a,0.32257818058133125,colour,0.5
031,21,0,2,3,50,150,450.2148758084513,450.76005509123206,"[29, 0, 225]",225,a,0.022927758283913136,colour,0.5
031,21,0,2,4,1,151,458.3710657716729,459.00007680011913,"[25, 0, 229]",229,a,0.10597181180492043,colour,0.5
031,21,0,2,4,2,152,461.01273698732257,461.55205150553957,"[26, 0, 228]",228,a,0.017852261662483215,colour,0.5
031,21,0,2,4,3,153,463.55979412887245,464.1840927870944,"[97, 0, 157]",157,l,0.10199514636769891,colour,0.5
031,21,0,2,4,4,154,466.2004795470275,467.5760725811124,"[83, 0, 171]",171,l,0.8537392942234874,colour,0.5
031,21,0,2,4,5,155,469.5915058394894,470.2160455319099,"[43, 0, 211]",211,a,0.10283088823780417,colour,0.5
031,21,0,2,4,6,156,472.23234485834837,472.83209035452455,"[9, 0, 245]",245,a,0.07766962749883533,colour,0.5
031,21,0,2,4,7,157,474.841890824493,476.16008667787537,"[41, 0, 213]",213,a,0.7960030124522746,colour,0.5
031,21,0,2,4,8,158,478.1703975722194,478.89609824400395,"[49, 0, 205]",205,a,0.20381384901702404,colour,0.5
031,21,0,2,4,9,159,480.90521854162216,481.47206448670477,"[91, 0, 163]",163,l,0.0445833932608366,colour,0.5
031,21,0,2,4,10,160,483.483619147446,484.096041766461,"[14, 0, 240]",240,a,0.09011556208133698,colour,0.5
031,21,0,2,4,11,161,486.1087393690832,487.296076267492,"[28, 0, 226]",226,a,0.6652058907784522,colour,0.5
031,21,0,2,4,12,162,489.3120518522337,489.888072445523,"[40, 0, 214]",214,a,0.053506373427808285,colour,0.5
031,21,0,2,4,13,163,491.90609287982807,492.71207280503586,"[76, 0, 178]",178,l,0.2844196008518338,colour,0.5
031,21,0,2,4,14,164,494.7189493603073,495.34406288620085,"[63, 0, 191]",191,l,0.10389190958812833,colour,0.5
031,21,0,2,4,15,165,497.35970567073673,497.89609706262127,"[19, 0, 235]",235,a,0.014553799759596586,colour,0.5
031,21,0,2,4,16,166,499.90689160022885,500.4960891068913,"[62, 0, 192]",192,a,0.06705035176128149,colour,0.5
031,21,0,2,4,17,167,502.5007790280506,503.09607996977866,"[60, 0, 194]",194,a,0.07339836517348886,colour,0.5
031,21,0,2,4,18,168,505.1103171170689,505.7040919046849,"[48, 0, 206]",206,a,0.07137517677620053,colour,0.5
031,21,0,2,4,19,169,507.7201305050403,508.288089459762,"[39, 0, 215]",215,a,0.04596894420683384,colour,0.5
031,21,0,2,4,20,170,510.2983361571096,510.85607362072915,"[8, 0, 246]",246,a,0.03562732972204685,colour,0.5
031,21,0,2,4,21,171,512.8609896097332,513.5120674488135,"[93, 0, 161]",161,l,0.1294316565617919,colour,0.5
031,21,0,2,4,22,172,515.5174276959151,516.896091548726,"[37, 0, 217]",217,a,0.8563800333067775,colour,0.5
031,21,0,2,4,23,173,518.9082799083553,520.0481091048568,"[33, 0, 221]",221,a,0.6174650322645903,colour,0.5
031,21,0,2,4,24,174,522.0647774650715,523.2960758735426,"[70, 0, 184]",184,l,0.7096648286096752,colour,0.5
031,21,0,2,4,25,175,525.3150348435156,526.1281162099913,"[54, 0, 200]",200,a,0.2912819776684046,colour,0.5
031,21,0,2,4,26,176,528.143414773047,528.7360686743632,"[18, 0, 236]",236,a,0.07102859253063798,colour,0.5
031,21,0,2,4,27,177,530.7529540439136,531.3281140830368,"[71, 0, 183]",183,l,0.05352567182853818,colour,0.5
031,21,0,2,4,28,178,533.3468966097571,534.376085341908,"[68, 0, 186]",186,a,0.5075492444448173,colour,0.5
031,21,0,2,4,29,179,536.394110896159,537.1841270518489,"[85, 0, 169]",169,l,0.26777290226891637,colour,0.5
031,21,0,2,4,30,180,539.1911812317558,539.8000344224274,"[51, 0, 203]",203,a,0.08703962340950966,colour,0.5
031,21,0,2,4,31,181,541.8164794715121,542.5601068427786,"[57, 0, 197]",197,a,0.22054758807644248,colour,0.5
031,21,0,2,4,32,182,544.566663200967,545.2400973271579,"[22, 0, 232]",232,a,0.15171626349911094,colour,0.5
031,21,0,2,4,33,183,547.2544376626611,547.8000990129076,"[89, 0, 165]",165,l,0.023347598500549793,colour,0.5
031,21,0,2,4,34,184,549.8170095887035,550.3440947877243,"[36, 0, 218]",218,a,0.00529053620994091,colour,0.5
031,21,0,2,4,35,185,552.3641443178058,554.0160850738175,"[15, 0, 239]",239,a,1.1304095764644444,colour,0.5
031,21,0,2,4,36,186,556.0363697302528,556.5680857733823,"[46, 0, 208]",208,a,0.009497995488345623,colour,0.5
031,21,0,2,4,37,187,558.5834355363622,559.2000912148505,"[0, 0, 254]",254,a,0.09475034475326538,colour,0.5
031,21,0,2,4,38,188,561.2087258994579,561.8241051221266,"[80, 0, 174]",174,l,0.09329587034881115,colour,0.5
031,21,0,2,4,39,189,563.8345069950446,564.9040763871744,"[67, 0, 187]",187,l,0.5479259663261473,colour,0.5
031,21,0,2,4,40,190,566.9121309365146,567.5520778931677,"[72, 0, 182]",182,l,0.11803571553900838,colour,0.5
031,21,0,2,4,41,191,569.5686600012705,571.0721368757077,"[95, 0, 159]",159,l,0.981140673160553,colour,0.5
031,21,0,2,4,42,192,573.0846796967089,573.6081549013034,"[7, 0, 247]",247,a,0.0012252554297447205,colour,0.5
031,21,0,2,4,43,193,575.6316427090205,576.7600743896328,"[31, 0, 223]",223,a,0.6066094487905502,colour,0.5
031,21,0,2,4,44,194,578.7725695553236,579.344114874024,"[81, 0, 173]",173,l,0.049633683636784554,colour,0.5
031,21,0,2,4,45,195,581.3509039953351,582.7921318975277,"[3, 0, 251]",251,a,0.9192000823095441,colour,0.5
031,21,0,2,4,46,196,584.8041654755361,586.9440750167705,"[61, 0, 193]",193,l,1.6174079244956374,colour,0.5
031,21,0,2,4,47,197,588.9609174570069,589.6720883538947,"[96, 0, 158]",158,l,0.18914347095414996,colour,0.5
031,21,0,2,4,48,198,591.6799274692312,592.2481491197832,"[73, 0, 181]",181,l,0.04597367066890001,colour,0.5
031,21,0,2,4,49,199,594.2581866849214,594.8481021733023,"[45, 0, 209]",209,a,0.06789554562419653,colour,0.5
031,21,0,2,4,50,200,596.8677842449397,597.5760627351701,"[84, 0, 170]",170,l,0.18597458442673087,colour,0.5
031,21,0,2,5,1,201,605.9614798692055,606.696115730796,"[52, 0, 202]",202,a,0.21163563523441553,colour,0.5
031,21,0,2,5,2,202,608.7124800421298,610.432092639152,"[65, 0, 189]",189,a,1.1981794852763414,colour,0.5
031,21,0,2,5,3,203,612.4471844327636,613.5922131873667,"[92, 0, 162]",162,l,0.6233423994854093,colour,0.5
031,21,0,2,5,4,204,615.6039222357795,616.384092235472,"[20, 0, 234]",234,a,0.2588286539539695,colour,0.5
031,21,0,2,5,5,205,618.4008578760549,619.0482091419399,"[32, 0, 222]",222,a,0.12510525528341532,colour,0.5
031,21,0,2,5,6,206,621.0571482698433,621.7121102204546,"[98, 0, 156]",156,l,0.1328526046127081,colour,0.5
031,21,0,2,5,7,207,623.7292913682759,624.6081206365488,"[70, 0, 184]",184,l,0.35662342980504036,colour,0.5
031,21,0,2,5,8,208,626.6203046636656,627.9361256244592,"[26, 0, 228]",228,a,0.7945509012788534,colour,0.5
031,21,0,2,5,9,209,629.9485561992042,630.4800701993518,"[61, 0, 193]",193,a,0.010128149762749672,colour,0.5
031,21,0,2,5,10,210,632.4956346084364,633.8001041328534,"[10, 0, 244]",244,a,0.7827752926386893,colour,0.5
031,21,0,2,5,11,211,635.8084194082767,636.3920999174006,"[21, 0, 233]",233,a,0.061423076782375574,colour,0.5
031,21,0,2,5,12,212,638.4023229838349,639.336127278395,"[60, 0, 194]",194,a,0.41214984096586704,colour,0.5
031,21,0,2,5,13,213,641.3557837503031,641.9040976548567,"[51, 0, 203]",203,a,0.026147845201194286,colour,0.5
031,21,0,2,5,14,214,643.9185616578907,644.4640981592238,"[56, 0, 198]",198,a,0.023331450764089823,colour,0.5
031,21,0,2,5,15,215,646.4812564640306,648.5680743521079,"[29, 0, 225]",225,a,1.5652626836672425,colour,0.5
031,21,0,2,5,16,216,650.5751434979029,652.0961122652516,"[34, 0, 220]",220,a,0.9995238399133086,colour,0.5
031,21,0,2,5,17,217,654.106823307462,654.9040925349109,"[30, 0, 224]",224,a,0.2755434880964458,colour,0.5
031,21,0,2,5,18,218,656.9195041321218,657.4481347836554,"[95, 0, 159]",159,l,0.00731451204046607,colour,0.5
031,21,0,2,5,19,219,659.4665069226176,660.2400843305513,"[23, 0, 231]",231,a,0.25161299714818597,colour,0.5
031,21,0,2,5,20,220,662.247947470285,663.1600894345902,"[86, 0, 168]",168,l,0.3902110308408737,colour,0.5
031,21,0,2,5,21,221,665.1701778057031,665.7841293360107,"[58, 0, 196]",196,a,0.09230180270969868,colour,0.5
031,21,0,2,5,22,222,667.7952527352609,669.1520908116363,"[68, 0, 186]",186,l,0.8347031306475401,colour,0.5
031,21,0,2,5,23,223,671.1706433319487,671.8560952823609,"[44, 0, 210]",210,a,0.16403498593717813,colour,0.5
031,21,0,2,5,24,224,673.8739632982761,674.4801363651641,"[2, 0, 252]",252,a,0.08418226847425103,colour,0.5
031,21,0,2,5,25,225,676.4991106954403,677.0241388357244,"[90, 0, 164]",164,l,0.0021027452312409878,colour,0.5
031,21,0,2,5,26,226,679.0461193937808,680.0162630924024,"[62, 0, 192]",192,a,0.44869207590818405,colour,0.5
031,21,0,2,5,27,227,682.0308484002016,682.6081001567654,"[43, 0, 211]",211,a,0.055596121586859226,colour,0.5
031,21,0,2,5,28,228,684.6247240123339,685.3360843495466,"[82, 0, 172]",172,l,0.19001741614192724,colour,0.5
031,21,0,2,5,29,229,687.3437482030131,688.0003745476715,"[14, 0, 240]",240,a,0.1353531340137124,colour,0.5
031,21,0,2,5,30,230,690.0159027231857,690.5601032981649,"[6, 0, 248]",248,a,0.0229167309589684,colour,0.5
031,21,0,2,5,31,231,692.5784494429827,694.0561156049371,"[4, 0, 250]",250,a,0.9555619359016418,colour,0.5
031,21,0,2,5,32,232,696.0631154342555,697.2721233274788,"[33, 0, 221]",221,a,0.6874160612933338,colour,0.5
031,21,0,2,5,33,233,699.2822522646748,699.8480860255659,"[37, 0, 217]",217,a,0.04375119647011161,colour,0.5
031,21,0,2,5,34,234,701.8605229016393,702.440088505391,"[78, 0, 176]",176,l,0.05808798689395189,colour,0.5
031,21,0,2,5,35,235,704.4544150559232,704.9841051539406,"[7, 0, 247]",247,a,0.007401158567517996,colour,0.5
031,21,0,2,5,36,236,707.0015383632854,708.2641550307162,"[28, 0, 226]",226,a,0.7414226201362908,colour,0.5
031,21,0,2,5,37,237,710.2831297544762,711.7361249942333,"[55, 0, 199]",199,a,0.9311265340074897,colour,0.5
031,21,0,2,5,38,238,713.7521033356898,714.3120951754972,"[85, 0, 169]",169,l,0.037606407422572374,colour,0.5
031,21,0,2,5,39,239,716.3304172959179,716.8881291593425,"[38, 0, 216]",216,a,0.03636972978711128,colour,0.5
031,21,0,2,5,40,240,718.8931936281733,720.0001004310325,"[49, 0, 205]",205,a,0.5853874385356903,colour,0.5
031,21,0,2,5,41,241,722.0184217635542,724.7120972233824,"[67, 0, 187]",187,l,2.172032427508384,colour,0.5
031,21,0,2,5,42,242,726.7221485730261,727.3361292476766,"[91, 0, 163]",163,l,0.09258182719349861,colour,0.5
031,21,0,2,5,43,243,729.3470395761542,729.9761333120987,"[50, 0, 204]",204,a,0.10775002697482705,colour,0.5
031,21,0,2,5,44,244,731.9878589021973,732.896098244004,"[5, 0, 249]",249,a,0.38641002029180527,colour,0.5
031,21,0,2,5,45,245,734.9100443394855,735.7203246713616,"[42, 0, 212]",212,a,0.288166259881109,colour,0.5
031,21,0,2,5,46,246,737.7383561329916,738.5921174827963,"[80, 0, 174]",174,l,0.33147949911653996,colour,0.5
031,21,0,2,5,47,247,740.5983473425731,741.1361262546852,"[25, 0, 229]",229,a,0.016061837319284678,colour,0.5
031,21,0,2,5,48,248,743.1452036225237,744.3361339741386,"[1, 0, 253]",253,a,0.6686449563130736,colour,0.5
031,21,0,2,5,49,249,746.3485298901796,747.7281661494635,"[63, 0, 191]",191,a,0.8574382979422808,colour,0.5
031,21,0,2,5,50,250,749.7394356657751,750.2881252998486,"[53, 0, 201]",201,a,0.026463315822184086,colour,0.5
031,21,0,2,6,1,251,758.3018161826767,759.4961147070862,"[73, 0, 181]",181,l,0.6717086862772703,colour,0.5
031,21,0,2,6,2,252,761.5060144257732,762.0721388449892,"[43, 0, 211]",211,a,0.044377805665135384,colour,0.5
031,21,0,2,6,3,253,764.084274822846,764.8241827101447,"[91, 0, 163]",163,l,0.218006098177284,colour,0.5
031,21,0,2,6,4,254,766.8345424411818,767.4401184376329,"[5, 0, 249]",249,a,0.08334455825388432,colour,0.5
031,21,0,2,6,5,255,769.459726465866,770.2241107150912,"[60, 0, 194]",194,a,0.24200551258400083,colour,0.5
031,21,0,2,6,6,256,772.2413024967536,772.9281526012346,"[82, 0, 172]",172,l,0.16497667226940393,colour,0.5
031,21,0,2,6,7,257,774.9445547214709,775.9521567416377,"[94, 0, 160]",160,l,0.48525557899847627,colour,0.5
031,21,0,2,6,8,258,777.9603889151476,778.7681301203556,"[64, 0, 190]",190,a,0.2854794408194721,colour,0.5
031,21,0,2,6,9,259,780.7730126325041,781.3281522863545,"[87, 0, 167]",167,l,0.03281448036432266,colour,0.5
031,21,0,2,6,10,260,783.3357925093733,784.4400955946185,"[84, 0, 170]",170,l,0.5827852967195213,colour,0.5
031,21,0,2,6,11,261,786.4454869553447,786.9843607600778,"[19, 0, 235]",235,a,0.017673455644398928,colour,0.5
031,21,0,2,6,12,262,788.9924609954469,789.6321503766812,"[44, 0, 210]",210,a,0.11806249711662531,colour,0.5
031,21,0,2,6,13,263,791.648993210867,792.7281271587126,"[55, 0, 199]",199,a,0.5570450820960104,colour,0.5
031,21,0,2,6,14,264,794.7430507801473,795.8401043377817,"[21, 0, 233]",233,a,0.5747512271627784,colour,0.5
031,21,0,2,6,15,265,797.8525853250176,798.3841394972987,"[34, 0, 220]",220,a,0.009841036051511765,colour,0.5
031,21,0,2,6,16,266,800.3997062696144,801.5121249500662,"[38, 0, 216]",216,a,0.5904798698611557,colour,0.5
031,21,0,2,6,17,267,803.5249733957462,804.2401209580712,"[89, 0, 165]",165,l,0.19362110877409577,colour,0.5
031,21,0,2,6,18,268,806.2594643221237,806.9441006169654,"[1, 0, 253]",253,l,0.16237256163731217,colour,0.5
031,21,0,2,6,19,269,808.9628925956786,809.6081202430651,"[52, 0, 202]",202,a,0.12360351998358965,colour,0.5
031,21,0,2,6,20,270,811.6201490946114,812.2481699935161,"[96, 0, 158]",158,l,0.10640740534290671,colour,0.5
031,21,0,2,6,21,271,814.2602338972501,815.1521676117554,"[56, 0, 198]",198,a,0.36965304519981146,colour,0.5
031,21,0,2,6,22,272,817.1665473314933,817.9041460980661,"[14, 0, 240]",240,a,0.21560560539364815,colour,0.5
031,21,0,2,6,23,273,819.9167700512335,820.4402637667954,"[58, 0, 196]",196,a,0.001304812729358673,colour,0.5
031,21,0,2,6,24,274,822.4638208914548,823.5281446455047,"[30, 0, 224]",224,a,0.5419198111630976,colour,0.5
031,21,0,2,6,25,275,825.5421439097263,826.1441240902059,"[61, 0, 193]",193,a,0.07990037277340889,colour,0.5
031,21,0,2,6,26,276,828.1518198451959,828.7921519838274,"[71, 0, 183]",183,a,0.11795300804078579,colour,0.5
031,21,0,2,6,27,277,830.8082894394174,831.4001351678744,"[80, 0, 174]",174,l,0.07047287514433265,colour,0.5
031,21,0,2,6,28,278,833.4179322915152,834.3681761217304,"[37, 0, 217]",217,a,0.4286902011372149,colour,0.5
031,21,0,2,6,29,279,836.386850734707,837.0161839295179,"[41, 0, 213]",213,a,0.10704976879060268,colour,0.5
031,21,0,2,6,30,280,839.0276869963855,839.5922431196086,"[51, 0, 203]",203,a,0.04300485737621784,colour,0.5
031,21,0,2,6,31,281,841.6060864208266,842.9441179460846,"[12, 0, 242]",242,a,0.8157138344831765,colour,0.5
031,21,0,2,6,32,282,844.9502040515654,846.0001311507076,"[11, 0, 243]",243,a,0.5285195871256292,colour,0.5
031,21,0,2,6,33,283,848.0128354486078,848.8081378084607,"[10, 0, 244]",244,a,0.2731796228326857,colour,0.5
031,21,0,2,6,34,284,850.8255430548452,851.4001513156109,"[16, 0, 238]",238,a,0.05252805957570672,colour,0.5
031,21,0,2,6,35,285,853.4194009443745,854.1601650533266,"[92, 0, 162]",162,l,0.21878276346251369,colour,0.5
031,21,0,2,6,36,286,856.1697296090424,856.7761645838618,"[15, 0, 239]",239,a,0.08406293345615268,colour,0.5
031,21,0,2,6,37,287,858.7949833441526,859.8081346577965,"[66, 0, 188]",188,a,0.49083125963807106,colour,0.5
031,21,0,2,6,38,288,861.82642960269,862.5441883658059,"[20, 0, 234]",234,a,0.19567974330857396,colour,0.5
031,21,0,2,6,39,289,864.5611280859448,865.6401100093499,"[4, 0, 250]",250,a,0.5566831375472248,colour,0.5
031,21,0,2,6,40,290,867.6549391075969,869.7283075405285,"[70, 0, 184]",184,a,1.5518502504564822,colour,0.5
031,21,0,2,6,41,291,871.7333755535074,872.2641156460159,"[29, 0, 225]",225,a,0.009146291296929121,colour,0.5
031,21,0,2,6,42,292,874.2805654215626,875.4481410854496,"[93, 0, 161]",161,l,0.645929875317961,colour,0.5
031,21,0,2,6,43,293,877.4526624400169,877.9762132628821,"[85, 0, 169]",169,l,0.0011776001192629337,colour,0.5
031,21,0,2,6,44,294,879.9997412431985,880.6321448627859,"[75, 0, 179]",179,l,0.11072514159604907,colour,0.5
031,21,0,2,6,45,295,882.6406231909059,883.256204850506,"[2, 0, 252]",252,a,0.0940571753308177,colour,0.5
031,21,0,2,6,46,296,885.2657764954492,885.9761482784525,"[42, 0, 212]",212,a,0.18830379098653793,colour,0.5
031,21,0,2,6,47,297,887.9848794555292,888.5601560734212,"[47, 0, 207]",207,a,0.05344532756134868,colour,0.5
031,21,0,2,6,48,298,890.5787936649285,891.2564285551198,"[78, 0, 176]",176,l,0.15601509530097246,colour,0.5
031,21,0,2,6,49,299,893.2664905386046,894.0081593124196,"[49, 0, 205]",205,a,0.220119871199131,colour,0.5
031,21,0,2,6,50,300,896.0167951788753,896.5921686827205,"[33, 0, 221]",221,a,0.053903764579445124,colour,0.5
031,21,0,2,7,1,301,904.1572616188787,905.0081092938781,"[50, 0, 204]",204,a,0.32856661221012473,colour,0.5
031,21,0,2,7,2,302,907.0177368652076,908.1121433819644,"[23, 0, 231]",231,a,0.5731620574370027,colour,0.5
031,21,0,2,7,3,303,910.1273174895905,911.208189480938,"[5, 0, 249]",249,a,0.5594380917027593,colour,0.5
031,21,0,2,7,4,304,913.2212687204592,913.8001502128318,"[97, 0, 157]",157,l,0.05693992506712675,colour,0.5
031,21,0,2,7,5,305,915.8152550035156,916.8321490376256,"[67, 0, 187]",187,a,0.4951336355879903,colour,0.5
031,21,0,2,7,6,306,918.8467008685693,919.5201605949551,"[65, 0, 189]",189,a,0.15176588855683804,colour,0.5
031,21,0,2,7,7,307,921.5345001420937,922.1601571762003,"[44, 0, 210]",210,a,0.10404235916212201,colour,0.5
031,21,0,2,7,8,308,924.175251333043,925.2641944149509,"[68, 0, 186]",186,l,0.5670156930573285,colour,0.5
031,21,0,2,7,9,309,927.2693860963918,928.0001516309567,"[29, 0, 225]",225,a,0.20912919798865914,colour,0.5
031,21,0,2,7,10,310,930.0195237454027,930.5841759676114,"[66, 0, 188]",188,l,0.04221558989956975,colour,0.5
031,21,0,2,7,11,311,932.5977628747933,933.3121503139846,"[98, 0, 156]",156,l,0.19236513320356607,colour,0.5
031,21,0,2,7,12,312,935.3324526930228,935.9121372383088,"[96, 0, 158]",158,l,0.05754959909245372,colour,0.5
031,21,0,2,7,13,313,937.9263621764258,938.7761393776163,"[55, 0, 199]",199,a,0.32784390449523926,colour,0.5
031,21,0,2,7,14,314,940.7860505180433,941.3201217614114,"[86, 0, 168]",168,l,0.011997343972325325,colour,0.5
031,21,0,2,7,15,315,943.3330891486257,944.3681556419469,"[64, 0, 190]",190,l,0.5129417874850333,colour,0.5
031,21,0,2,7,16,316,946.3803278533742,946.9761880571023,"[32, 0, 222]",222,a,0.07388358376920223,colour,0.5
031,21,0,2,7,17,317,948.989871062804,949.6161432843655,"[94, 0, 160]",160,l,0.10450985422357917,colour,0.5
031,21,0,2,7,18,318,951.6306600626558,953.5441647348925,"[53, 0, 201]",201,a,1.3916584155522287,colour,0.5
031,21,0,2,7,19,319,955.5529081211425,956.2001904640347,"[19, 0, 235]",235,a,0.12508871359750628,colour,0.5
031,21,0,2,7,20,320,958.2092717704363,959.5361822596751,"[3, 0, 251]",251,a,0.8049090569838881,colour,0.5
031,21,0,2,7,21,321,961.5533110257238,962.1681806114502,"[74, 0, 180]",180,l,0.0924439812079072,colour,0.5
031,21,0,2,7,22,322,964.1784871737473,964.7761610392481,"[87, 0, 167]",167,l,0.07527701184153557,colour,0.5
031,21,0,2,7,23,323,966.7883742107078,967.4241582127288,"[73, 0, 181]",181,l,0.11424652067944407,colour,0.5
031,21,0,2,7,24,324,969.4288607370108,970.0722873252816,"[1, 0, 253]",253,a,0.12192337168380618,colour,0.5
031,21,0,2,7,25,325,972.0853669582866,972.8401858638972,"[62, 0, 192]",192,l,0.2327552456408739,colour,0.5
031,21,0,2,7,26,326,974.8512793309055,975.400186761748,"[27, 0, 227]",227,a,0.026972952764481306,colour,0.5
031,21,0,2,7,27,327,977.4139406601898,978.1043664943427,"[21, 0, 233]",233,a,0.1691935840062797,colour,0.5
031,21,0,2,7,28,328,980.1172783491202,980.6487789587118,"[36, 0, 218]",218,a,0.007049059960991144,colour,0.5
031,21,0,2,7,29,329,982.6642661737278,983.752163594123,"[30, 0, 224]",224,a,0.5654844189994037,colour,0.5
031,21,0,2,7,30,330,985.759105921723,986.8401626269333,"[4, 0, 250]",250,a,0.5603301534429193,colour,0.5
031,21,0,2,7,31,331,988.8523080572486,989.4321698327549,"[71, 0, 183]",183,l,0.057522423565387726,colour,0.5
031,21,0,2,7,32,332,991.44621242024,992.2241883026436,"[41, 0, 213]",213,a,0.25684051821008325,colour,0.5
031,21,0,2,7,33,333,994.2433221400715,994.8321588840336,"[93, 0, 161]",161,l,0.06665256712585688,colour,0.5
031,21,0,2,7,34,334,996.8373832539655,997.4481899221428,"[42, 0, 212]",212,a,0.08927745744585991,colour,0.5
031,21,0,2,7,35,335,999.4625531001948,1000.4962037163787,"[91, 0, 163]",163,l,0.5120383040048182,colour,0.5
031,21,0,2,7,36,336,1002.5096267834306,1003.1121575604193,"[52, 0, 202]",202,a,0.08108466817066073,colour,0.5
031,21,0,2,7,37,337,1005.1191585711204,1006.0801902436651,"[45, 0, 209]",209,a,0.43871910171583295,colour,0.5
031,21,0,2,7,38,338,1008.0881782327779,1008.7681332714856,"[83, 0, 171]",171,l,0.1585581605322659,colour,0.5
031,21,0,2,7,39,339,1010.7759605711326,1011.4481989806518,"[22, 0, 232]",232,a,0.1498466758057475,colour,0.5
031,21,0,2,7,40,340,1013.4636412975378,1014.1361463405192,"[0, 0, 254]",254,a,0.15061270631849766,colour,0.5
031,21,0,2,7,41,341,1016.1515130391344,1017.3361729648896,"[85, 0, 169]",169,l,0.6631665555760264,colour,0.5
031,21,0,2,7,42,342,1019.3547365129925,1020.3761881357059,"[57, 0, 197]",197,a,0.49943325528874993,colour,0.5
031,21,0,2,7,43,343,1022.3861764697358,1023.0641977232881,"[46, 0, 208]",208,a,0.15582289826124907,colour,0.5
031,21,0,2,7,44,344,1025.0740273375995,1025.60820216313,"[28, 0, 226]",226,a,0.01184295630082488,colour,0.5
031,21,0,2,7,45,345,1027.6211904240772,1028.1681778547354,"[49, 0, 205]",205,a,0.024982060305774212,colour,0.5
031,21,0,2,7,46,346,1030.1837391131558,1030.7202462959103,"[13, 0, 241]",241,a,0.014442735351622105,colour,0.5
031,21,0,2,7,47,347,1032.7308754180558,1033.3681686385535,"[84, 0, 170]",170,l,0.1149424472823739,colour,0.5
031,21,0,2,7,48,348,1035.3873446178623,1036.0001725046895,"[40, 0, 214]",214,a,0.09052043640986085,colour,0.5
031,21,0,2,7,49,349,1038.0124845318496,1039.4001603741199,"[2, 0, 252]",252,a,0.8658268288709223,colour,0.5
031,21,0,2,7,50,350,1041.4190157623962,1041.9761864813045,"[15, 0, 239]",239,a,0.035007021855562925,colour,0.5
031,21,0,2,8,1,351,1050.137705578003,1050.6802000110038,"[45, 0, 209]",209,a,0.019496569875627756,colour,0.5
031,21,0,2,8,2,352,1052.6855122088455,1053.8161628190428,"[28, 0, 226]",226,a,0.6083600949496031,colour,0.5
031,21,0,2,8,3,353,1055.826439449098,1056.8481454961002,"[10, 0, 244]",244,a,0.4995171441696584,colour,0.5
031,21,0,2,8,4,354,1058.8580361567438,1059.4801607839763,"[77, 0, 177]",177,l,0.10090498020872474,colour,0.5
031,21,0,2,8,5,355,1061.4987924676389,1062.2641664519906,"[48, 0, 206]",206,a,0.24403303256258368,colour,0.5
031,21,0,2,8,6,356,1064.2801849660464,1065.008205392398,"[0, 0, 254]",254,a,0.2066708100028336,colour,0.5
031,21,0,2,8,7,357,1067.0086311399937,1067.6001913305372,"[71, 0, 183]",183,l,0.07024601986631751,colour,0.5
031,21,0,2,8,8,358,1069.6182440603152,1070.6481724353507,"[95, 0, 159]",159,l,0.5084314602427185,colour,0.5
031,21,0,2,8,9,359,1072.6580796372145,1073.8562098918483,"[63, 0, 191]",191,l,0.6858426458202302,colour,0.5
031,21,0,2,8,10,360,1075.8622885146178,1076.424186175689,"[72, 0, 182]",182,l,0.04100530035793781,colour,0.5
031,21,0,2,8,11,361,1078.4306172910146,1079.0642032371834,"[58, 0, 196]",196,a,0.12405801797285676,colour,0.5
031,21,0,2,8,12,362,1081.0757165444084,1081.7121925340034,"[23, 0, 231]",231,a,0.11500231176614761,colour,0.5
031,21,0,2,8,13,363,1083.7116797463968,1085.2162932609208,"[32, 0, 222]",222,a,0.9818539284169674,colour,0.5
031,21,0,2,8,14,364,1087.219009224791,1087.9042571629398,"[52, 0, 202]",202,a,0.1629330045543611,colour,0.5
031,21,0,2,8,15,365,1089.9111931887455,1090.448159202002,"[61, 0, 193]",193,a,0.015792052261531353,colour,0.5
031,21,0,2,8,16,366,1092.4491568147205,1093.1202117162757,"[36, 0, 218]",218,a,0.14958319254219532,colour,0.5
031,21,0,2,8,17,367,1095.1300866226666,1095.9201689441688,"[62, 0, 192]",192,l,0.2688705511391163,colour,0.5
031,21,0,2,8,18,368,1097.9272550255992,1098.49623404257,"[94, 0, 160]",160,l,0.04734976962208748,colour,0.5
031,21,0,2,8,19,369,1100.4978023380972,1101.0561931924894,"[91, 0, 163]",163,l,0.036964043974876404,colour,0.5
031,21,0,2,8,20,370,1103.0604664240964,1103.7521821050905,"[29, 0, 225]",225,a,0.18291046051308513,colour,0.5
031,21,0,2,8,21,371,1105.7683274373412,1106.3441897048615,"[47, 0, 207]",207,a,0.05427634296938777,colour,0.5
031,21,0,2,8,22,372,1108.3523966725916,1109.8401649901643,"[1, 0, 253]",253,a,0.964950442314148,colour,0.5
031,21,0,2,8,23,373,1111.8529819278046,1113.192211533431,"[97, 0, 157]",157,l,0.8177362349815667,colour,0.5
031,21,0,2,8,24,374,1115.1971417004243,1115.8482053610496,"[11, 0, 243]",243,a,0.12976563815027475,colour,0.5
031,21,0,2,8,25,375,1117.853503774386,1118.7762086945586,"[67, 0, 187]",187,a,0.40127889765426517,colour,0.5
031,21,0,2,8,26,376,1120.7912910357118,1121.4402889730409,"[3, 0, 251]",251,a,0.12697917595505714,colour,0.5
031,21,0,2,8,27,377,1123.4477661438286,1124.0641815755516,"[79, 0, 175]",175,l,0.095097322948277,colour,0.5
031,21,0,2,8,28,378,1126.072880457621,1126.6161771551706,"[80, 0, 174]",174,l,0.021159388590604067,colour,0.5
031,21,0,2,8,29,379,1128.6356343408115,1130.064196147956,"[99, 0, 155]",155,l,0.9070818275213242,colour,0.5
031,21,0,2,8,30,380,1132.073383005336,1133.5921730152331,"[68, 0, 186]",186,l,0.9974372428841889,colour,0.5
031,21,0,2,8,31,381,1135.6049883775413,1136.2721615307964,"[50, 0, 204]",204,l,0.1456144042313099,colour,0.5
031,21,0,2,8,32,382,1138.2688926067203,1139.4322088235058,"[65, 0, 189]",189,l,0.6416637324728072,colour,0.5
031,21,0,2,8,33,383,1141.440997502301,1142.128167803865,"[34, 0, 220]",220,a,0.16555286943912506,colour,0.5
031,21,0,2,8,34,384,1144.1444060839713,1145.3761798650958,"[5, 0, 249]",249,a,0.7104564602486789,colour,0.5
031,21,0,2,8,35,385,1147.3954227981158,1147.9441900197417,"[22, 0, 232]",232,a,0.03909829678013921,colour,0.5
031,21,0,2,8,36,386,1149.961325481534,1150.5922545413487,"[24, 0, 230]",230,a,0.11859576497226954,colour,0.5
031,21,0,2,8,37,387,1152.6086074304767,1154.4482041005976,"[16, 0, 238]",238,a,1.3181911273859441,colour,0.5
031,21,0,2,8,38,388,1156.4439131459221,1158.096221360378,"[33, 0, 221]",221,a,1.1303709791973233,colour,0.5
031,21,0,2,8,39,389,1160.0966163882986,1160.952192187775,"[26, 0, 228]",228,a,0.33388077979907393,colour,0.5
031,21,0,2,8,40,390,1162.971884499304,1163.6001913305372,"[85, 0, 169]",169,l,0.10597653780132532,colour,0.5
031,21,0,2,8,41,391,1165.6126967361197,1166.7042569266632,"[41, 0, 213]",213,a,0.5702854050323367,colour,0.5
031,21,0,2,8,42,392,1168.722316745203,1169.7601886051707,"[93, 0, 161]",161,l,0.5154442861676216,colour,0.5
031,21,0,2,8,43,393,1171.7693805824965,1172.3201938355342,"[98, 0, 156]",156,l,0.029184399638324976,colour,0.5
031,21,0,2,8,44,394,1174.3321041394956,1174.968242996838,"[88, 0, 166]",166,l,0.11482744431123137,colour,0.5
031,21,0,2,8,45,395,1176.9886269024573,1177.8562260395847,"[9, 0, 245]",245,a,0.3463424681685865,colour,0.5
031,21,0,2,8,46,396,1179.8638347545639,1180.432171408087,"[96, 0, 158]",158,l,0.046962224412709475,colour,0.5
031,21,0,2,8,47,397,1182.442212517839,1182.9841906186193,"[82, 0, 172]",172,l,0.020752939395606518,colour,0.5
031,21,0,2,8,48,398,1184.9892586315982,1186.024299130775,"[39, 0, 215]",215,a,0.5130804209038615,colour,0.5
031,21,0,2,8,49,399,1188.0238718078472,1188.9761990844272,"[46, 0, 208]",208,a,0.43003715528175235,colour,0.5
031,21,0,2,8,50,400,1190.9956046761945,1191.6082061012276,"[20, 0, 234]",234,a,0.09076619613915682,colour,0.5
031,21,0,2,9,1,401,1199.242357217241,1200.3842166909017,"[51, 0, 203]",203,a,0.6189199001528323,colour,0.5
031,21,0,2,9,2,402,1202.399648767896,1203.13623338053,"[15, 0, 239]",239,a,0.21518300846219063,colour,0.5
031,21,0,2,9,3,403,1205.149811623618,1205.8722945717163,"[30, 0, 224]",224,a,0.2008174671791494,colour,0.5
031,21,0,2,9,4,404,1207.8721386087127,1208.736196280457,"[91, 0, 163]",163,l,0.3403327683918178,colour,0.5
031,21,0,2,9,5,405,1210.7397566502914,1211.86419551773,"[65, 0, 189]",189,l,0.6021062107756734,colour,0.5
031,21,0,2,9,6,406,1213.871416688431,1214.6322189061902,"[58, 0, 196]",196,l,0.2391524901613593,colour,0.5
031,21,0,2,9,7,407,1216.6385858240537,1217.4162143343128,"[24, 0, 230]",230,a,0.256057552061975,colour,0.5
031,21,0,2,9,8,408,1219.4303542017005,1220.1042703958228,"[78, 0, 176]",176,l,0.15246772207319736,colour,0.5
031,21,0,2,9,9,409,1222.1180778569542,1222.6561785414815,"[11, 0, 243]",243,a,0.016601406037807465,colour,0.5
031,21,0,2,9,10,410,1224.6651637493633,1225.3602034924552,"[74, 0, 180]",180,l,0.17369997268542647,colour,0.5
031,21,0,2,9,11,411,1227.3686105343513,1228.0162138617598,"[68, 0, 186]",186,l,0.12598747108131647,colour,0.5
031,21,0,2,9,12,412,1230.0233239675872,1231.512212777976,"[69, 0, 185]",185,l,0.967313913628459,colour,0.5
031,21,0,2,9,13,413,1233.5176289509982,1234.9042351073585,"[17, 0, 237]",237,a,0.8639749637804925,colour,0.5
031,21,0,2,9,14,414,1236.9104125853628,1237.5442364150658,"[92, 0, 162]",162,l,0.11245215777307749,colour,0.5
031,21,0,2,9,15,415,1239.551213400904,1240.1042357375845,"[3, 0, 251]",251,a,0.031023661606013775,colour,0.5
031,21,0,2,9,16,416,1242.1089784340002,1243.0722546358593,"[96, 0, 158]",158,l,0.44126374227926135,colour,0.5
031,21,0,2,9,17,417,1245.0686387335882,1245.736314828042,"[21, 0, 233]",233,a,0.14442026196047664,colour,0.5
031,21,0,2,9,18,418,1247.7462625964545,1248.4082113788463,"[35, 0, 219]",219,a,0.1397460950538516,colour,0.5
031,21,0,2,9,19,419,1250.4183584330603,1251.5522488225251,"[38, 0, 216]",216,a,0.6123785083182156,colour,0.5
031,21,0,2,9,20,420,1253.5592935499735,1254.640304569155,"[27, 0, 227]",227,a,0.5598551747389138,colour,0.5
031,21,0,2,9,21,421,1256.6532924366184,1257.27220170293,"[77, 0, 177]",177,l,0.09750884398818016,colour,0.5
031,21,0,2,9,22,422,1259.2784012365155,1259.952246144414,"[34, 0, 220]",220,a,0.1524842637591064,colour,0.5
031,21,0,2,9,23,423,1261.9660882642493,1262.9282498811372,"[88, 0, 166]",166,l,0.440749772824347,colour,0.5
031,21,0,2,9,24,424,1264.9364265231416,1265.912325102836,"[86, 0, 168]",168,l,0.45465175714343786,colour,0.5
031,21,0,2,9,25,425,1267.9212004276924,1268.5843185395934,"[20, 0, 234]",234,a,0.14112573862075806,colour,0.5
031,21,0,2,9,26,426,1270.5930386893451,1271.152339328546,"[53, 0, 201]",201,a,0.03719956427812576,colour,0.5
031,21,0,2,9,27,427,1273.174142261967,1273.808218547143,"[9, 0, 245]",245,a,0.11273572687059641,colour,0.5
031,21,0,2,9,28,428,1275.8109384491108,1276.336211561691,"[13, 0, 241]",241,a,0.0038699330762028694,colour,0.5
031,21,0,2,9,29,429,1278.3397557837889,1279.3762188558467,"[1, 0, 253]",253,a,0.5147704151459038,colour,0.5
031,21,0,2,9,30,430,1281.3869677069597,1282.4722078470513,"[40, 0, 214]",214,a,0.5638633482158184,colour,0.5
031,21,0,2,9,31,431,1284.4685876122676,1285.6162208723836,"[66, 0, 188]",188,l,0.6260181912221014,colour,0.5
031,21,0,2,9,32,432,1287.625525883399,1288.5922123999335,"[46, 0, 208]",208,a,0.44299193983897567,colour,0.5
031,21,0,2,9,33,433,1290.599357164465,1291.3362269215286,"[18, 0, 236]",236,a,0.21464501461014152,colour,0.5
031,21,0,2,9,34,434,1293.338619143702,1293.8802096997388,"[82, 0, 172]",172,l,0.020260238088667393,colour,0.5
031,21,0,2,9,35,435,1295.8856955836527,1296.6002429244108,"[50, 0, 204]",204,a,0.1931189550086856,colour,0.5
031,21,0,2,9,36,436,1298.6047780639492,1299.240233598277,"[98, 0, 156]",156,l,0.11354705039411783,colour,0.5
031,21,0,2,9,37,437,1301.2461121468805,1301.8082087007351,"[23, 0, 231]",231,a,0.04054765123873949,colour,0.5
031,21,0,2,9,38,438,1303.814748911187,1304.3842107835226,"[79, 0, 175]",175,l,0.04728320939466357,colour,0.5
031,21,0,2,9,39,439,1306.3955161394551,1306.9842268521897,"[90, 0, 164]",164,l,0.06668525608256459,colour,0.5
031,21,0,2,9,40,440,1308.9897659057751,1309.648227573838,"[12, 0, 242]",242,a,0.136130980681628,colour,0.5
031,21,0,2,9,41,441,1311.6493917834014,1312.6642236383632,"[57, 0, 197]",197,a,0.492609869223088,colour,0.5
031,21,0,2,9,42,442,1314.6768924901262,1315.336229678709,"[37, 0, 217]",217,a,0.1380706736817956,colour,0.5
031,21,0,2,9,43,443,1317.342903797049,1318.0722262789495,"[0, 0, 254]",254,a,0.20708277309313416,colour,0.5
031,21,0,2,9,44,444,1320.078653455712,1321.1442288532853,"[95, 0, 159]",159,l,0.5421061008237302,colour,0.5
031,21,0,2,9,45,445,1323.1488222815096,1324.0562191866338,"[64, 0, 190]",190,a,0.3857491468079388,colour,0.5
031,21,0,2,9,46,446,1326.0709923584945,1326.9682607199065,"[73, 0, 181]",181,l,0.37575569236651063,colour,0.5
031,21,0,2,9,47,447,1328.9679610030726,1330.1922119269148,"[97, 0, 157]",157,l,0.7149258265271783,colour,0.5
031,21,0,2,9,48,448,1332.206192286685,1333.0642654648982,"[8, 0, 246]",246,a,0.33557195495814085,colour,0.5
031,21,0,2,9,49,449,1335.0823193760589,1335.760251226835,"[41, 0, 213]",213,a,0.1565550584346056,colour,0.5
031,21,0,2,9,50,450,1337.7623141934164,1338.432255691383,"[4, 0, 250]",250,a,0.14868640480563045,colour,0.5
031,21,0,2,10,1,451,1346.0316995019093,1346.5604676059447,"[35, 0, 219]",219,a,0.006822992116212845,colour,0.5
031,21,0,2,10,2,452,1348.5794809265062,1349.5842945151962,"[93, 0, 161]",161,l,0.48362111672759056,colour,0.5
031,21,0,2,10,3,453,1351.5952891265042,1352.1603521299548,"[34, 0, 220]",220,a,0.04351331293582916,colour,0.5
031,21,0,2,10,4,454,1354.173665707931,1354.720254172571,"[4, 0, 250]",250,a,0.024172312580049038,colour,0.5
031,21,0,2,10,5,455,1356.7375692282803,1357.8083985345438,"[83, 0, 171]",171,l,0.5493461759760976,colour,0.5
031,21,0,2,10,6,456,1359.8158906716853,1360.5602246024646,"[41, 0, 213]",213,a,0.222982345148921,colour,0.5
031,21,0,2,10,7,457,1362.5659976005554,1363.4482619957998,"[70, 0, 184]",184,l,0.3601648951880634,colour,0.5
031,21,0,2,10,8,458,1365.4570152284577,1366.5123911900446,"[28, 0, 226]",226,a,0.5337620740756392,colour,0.5
031,21,0,2,10,9,459,1368.5196040901355,1369.504211791791,"[86, 0, 168]",168,l,0.4631537161767483,colour,0.5
031,21,0,2,10,10,460,1371.5200349576771,1372.1442520897835,"[82, 0, 172]",172,l,0.10200735507532954,colour,0.5
031,21,0,2,10,11,461,1374.1513228113763,1374.8642597147264,"[26, 0, 228]",228,a,0.19086221605539322,colour,0.5
031,21,0,2,10,12,462,1376.870374571532,1377.8882835474797,"[53, 0, 201]",201,a,0.495573956053704,colour,0.5
031,21,0,2,10,13,463,1379.9034395380877,1380.4642100115307,"[69, 0, 185]",185,l,0.03876470914110541,colour,0.5
031,21,0,2,10,14,464,1382.4699818277732,1383.2242564382032,"[61, 0, 193]",193,l,0.23245159070938826,colour,0.5
031,21,0,2,10,15,465,1385.2259444631636,1386.3602247601375,"[81, 0, 173]",173,l,0.6152976965531707,colour,0.5
031,21,0,2,10,16,466,1388.3787461668253,1388.9762286231853,"[40, 0, 214]",214,a,0.07548535661771894,colour,0.5
031,21,0,2,10,17,467,1390.9761423706077,1392.0723007158376,"[0, 0, 254]",254,a,0.5744802607223392,colour,0.5
031,21,0,2,10,18,468,1394.0857552909292,1394.7042553508654,"[84, 0, 170]",170,l,0.09686175407841802,colour,0.5
031,21,0,2,10,19,469,1396.7071619364433,1397.504298043903,"[1, 0, 253]",253,a,0.2757049649953842,colour,0.5
031,21,0,2,10,20,470,1399.5075236447155,1400.176264305599,"[21, 0, 233]",233,a,0.14637610269710422,colour,0.5
031,21,0,2,10,21,471,1402.1896948558278,1402.8484215824865,"[73, 0, 181]",181,l,0.13662131922319531,colour,0.5
031,21,0,2,10,22,472,1404.8552622976713,1405.440367741976,"[8, 0, 246]",246,a,0.06373180309310555,colour,0.5
031,21,0,2,10,23,473,1407.4429710656404,1407.9763593799435,"[15, 0, 239]",239,a,0.011690931394696236,colour,0.5
031,21,0,2,10,24,474,1409.9909738320857,1411.048236317467,"[39, 0, 215]",215,a,0.5359207456931472,colour,0.5
031,21,0,2,10,25,475,1413.0414739772677,1414.112554163672,"[45, 0, 209]",209,a,0.5473836399614811,colour,0.5
031,21,0,2,10,26,476,1416.1126455361955,1416.744358743541,"[77, 0, 177]",177,l,0.11002685222774744,colour,0.5
031,21,0,2,10,27,477,1418.7537370100617,1419.4242562805302,"[60, 0, 194]",194,l,0.14886757405474782,colour,0.5
031,21,0,2,10,28,478,1421.4415008379146,1421.9762628874741,"[7, 0, 247]",247,a,0.013330513145774603,colour,0.5
031,21,0,2,10,29,479,1423.988587517757,1425.096246960573,"[29, 0, 225]",225,a,0.5862984047271311,colour,0.5
031,21,0,2,10,30,480,1427.1138278623112,1427.784250640776,"[44, 0, 210]",210,a,0.14917162340134382,colour,0.5
031,21,0,2,10,31,481,1429.8014967734925,1430.8163368990645,"[22, 0, 232]",232,a,0.4931565276347101,colour,0.5
031,21,0,2,10,32,482,1432.833078908734,1434.1524015562609,"[68, 0, 186]",186,l,0.7979572773911059,colour,0.5
031,21,0,2,10,33,483,1436.1613954287022,1436.7362845018506,"[62, 0, 192]",192,l,0.052445351611822844,colour,0.5
031,21,0,2,10,34,484,1438.743175235577,1439.9282357026823,"[95, 0, 159]",159,l,0.6639613369479775,colour,0.5
031,21,0,2,10,35,485,1441.946455029305,1442.5602415381,"[78, 0, 176]",176,l,0.09250227035954595,colour,0.5
031,21,0,2,10,36,486,1444.571880875621,1445.4883070993237,"[91, 0, 163]",163,l,0.39531252114102244,colour,0.5
031,21,0,2,10,37,487,1447.4937555682845,1448.0722278542817,"[75, 0, 179]",179,l,0.057219949550926685,colour,0.5
031,21,0,2,10,38,488,1450.0877556358464,1450.8322711302899,"[64, 0, 190]",190,a,0.22314815502613783,colour,0.5
031,21,0,2,10,39,489,1452.839341851417,1453.4802765748464,"[51, 0, 203]",203,a,0.11956620216369629,colour,0.5
031,21,0,2,10,40,490,1455.495701956097,1456.1922706100158,"[33, 0, 221]",221,a,0.1741528958082199,colour,0.5
031,21,0,2,10,41,491,1458.1898181298748,1458.840239033103,"[2, 0, 252]",252,a,0.12594611709937453,colour,0.5
031,21,0,2,10,42,492,1460.8503821492195,1461.5762643842027,"[57, 0, 197]",197,a,0.20429867412894964,colour,0.5
031,21,0,2,10,43,493,1463.5849309707992,1464.1683192453347,"[38, 0, 216]",216,a,0.061599519569426775,colour,0.5
031,21,0,2,10,44,494,1466.178834152408,1467.3442527200095,"[46, 0, 208]",208,a,0.6441240897402167,colour,0.5
031,21,0,2,10,45,495,1469.350979220122,1469.992267223075,"[72, 0, 182]",182,l,0.11987615888938308,colour,0.5
031,21,0,2,10,46,496,1472.0074732322246,1472.5762431165203,"[18, 0, 236]",236,a,0.04695237847045064,colour,0.5
031,21,0,2,10,47,497,1474.5858230325393,1475.576265566051,"[92, 0, 162]",162,l,0.4690480185672641,colour,0.5
031,21,0,2,10,48,498,1477.5860045952722,1478.4722621976398,"[97, 0, 157]",157,l,0.3648059796541929,colour,0.5
031,21,0,2,10,49,499,1480.4925393708982,1481.1283178590238,"[10, 0, 244]",244,a,0.11445368407294154,colour,0.5
031,21,0,2,10,50,500,1483.124080073554,1483.7363313697278,"[37, 0, 217]",217,a,0.09065907029435039,colour,0.5
031,21,0,2,11,1,501,1491.1861825352535,1492.112315886654,"[76, 0, 178]",178,l,0.41529588494449854,colour,0.5
031,21,0,2,11,2,502,1494.1199675314128,1494.6722703110427,"[6, 0, 248]",248,a,0.030644781421869993,colour,0.5
031,21,0,2,11,3,503,1496.6839549411088,1497.392309837509,"[57, 0, 197]",197,a,0.1862782398238778,colour,0.5
031,21,0,2,11,4,504,1499.4028404979035,1500.1123052528128,"[7, 0, 247]",247,a,0.18462054105475545,colour,0.5
031,21,0,2,11,5,505,1502.113158323802,1503.2642519166693,"[50, 0, 204]",204,a,0.6286648376844823,colour,0.5
031,21,0,2,11,6,506,1505.263851375319,1505.928243973758,"[61, 0, 193]",193,a,0.14310875441879034,colour,0.5
031,21,0,2,11,7,507,1507.935917279683,1508.9362555937842,"[24, 0, 230]",230,a,0.47831246349960566,colour,0.5
031,21,0,2,11,8,508,1510.9524733936414,1511.5522830872796,"[71, 0, 183]",183,l,0.07797997863963246,colour,0.5
031,21,0,2,11,9,509,1513.5495667299256,1515.016267424915,"[41, 0, 213]",213,a,0.94289072137326,colour,0.5
031,21,0,2,11,10,510,1517.03827397665,1517.6642909864895,"[12, 0, 242]",242,a,0.10324757732450962,colour,0.5
031,21,0,2,11,11,511,1519.6698276763782,1520.7523939944804,"[11, 0, 243]",243,a,0.5612801108509302,colour,0.5
031,21,0,2,11,12,512,1522.7518111020327,1523.5523098688573,"[53, 0, 201]",201,a,0.27820273768156767,colour,0.5
031,21,0,2,11,13,513,1525.5645766034722,1526.6242899936624,"[39, 0, 215]",215,a,0.5384649923071265,colour,0.5
031,21,0,2,11,14,514,1528.6428720527329,1529.5842925459146,"[94, 0, 160]",160,l,0.4194485996849835,colour,0.5
031,21,0,2,11,15,515,1531.596212301869,1532.4644345040433,"[43, 0, 211]",211,a,0.34674537321552634,colour,0.5
031,21,0,2,11,16,516,1534.4718494466506,1535.4003104297444,"[99, 0, 155]",155,l,0.40618779696524143,colour,0.5
031,21,0,2,11,17,517,1537.3976192781702,1538.0722530605271,"[15, 0, 239]",239,a,0.15257209166884422,colour,0.5
031,21,0,2,11,18,518,1540.0854169768281,1540.7602780084126,"[28, 0, 226]",226,a,0.15171350678429008,colour,0.5
031,21,0,2,11,19,519,1542.7636820212938,1543.576385688968,"[47, 0, 207]",207,a,0.3002699422650039,colour,0.5
031,21,0,2,11,20,520,1545.5837640040554,1546.136283793021,"[49, 0, 205]",205,a,0.03037696611136198,colour,0.5
031,21,0,2,11,21,521,1548.1465210383758,1548.6883179694414,"[96, 0, 158]",158,l,0.01991444081068039,colour,0.5
031,21,0,2,11,22,522,1550.6935998410918,1551.3682907312177,"[32, 0, 222]",222,a,0.15322666428983212,colour,0.5
031,21,0,2,11,23,523,1553.3810871890746,1554.0002544247545,"[26, 0, 228]",228,a,0.09750175476074219,colour,0.5
031,21,0,2,11,24,524,1556.0011839019135,1556.6803559740074,"[37, 0, 217]",217,a,0.17005098750814795,colour,0.5
031,21,0,2,11,25,525,1558.6921225241385,1559.4083468620665,"[52, 0, 202]",202,a,0.19473805697634816,colour,0.5
031,21,0,2,11,26,526,1561.415498321876,1562.088381851092,"[8, 0, 246]",246,a,0.1515933834016323,colour,0.5
031,21,0,2,11,27,527,1564.1058434178121,1564.7522730836645,"[91, 0, 163]",163,l,0.12499182764440775,colour,0.5
031,21,0,2,11,28,528,1566.762754907366,1568.016305627767,"[89, 0, 165]",165,l,0.7292169313877821,colour,0.5
031,21,0,2,11,29,529,1570.030690073967,1570.7124355374835,"[70, 0, 184]",184,l,0.1702967477031052,colour,0.5
031,21,0,2,11,30,530,1572.724288733676,1573.6562888184562,"[84, 0, 170]",170,l,0.41017588367685676,colour,0.5
031,21,0,2,11,31,531,1575.6591237238608,1576.5122891841456,"[83, 0, 171]",171,l,0.3293866002932191,colour,0.5
031,21,0,2,11,32,532,1578.510828802362,1579.4163131895475,"[65, 0, 189]",189,a,0.38289573043584824,colour,0.5
031,21,0,2,11,33,533,1581.4358306336217,1582.3523750109598,"[4, 0, 250]",250,l,0.39494506223127246,colour,0.5
031,21,0,2,11,34,534,1584.3579770796932,1585.0164663172327,"[40, 0, 214]",214,a,0.13638422405347228,colour,0.5
031,21,0,2,11,35,535,1587.0298188859597,1587.5842811241746,"[95, 0, 159]",159,l,0.03226033831015229,colour,0.5
031,21,0,2,11,36,536,1589.5910304673016,1590.5122958794236,"[93, 0, 161]",161,l,0.3996814573183656,colour,0.5
031,21,0,2,11,37,537,1592.5267701223493,1593.1282772929408,"[55, 0, 199]",199,a,0.07971644634380937,colour,0.5
031,21,0,2,11,38,538,1595.1363538978621,1595.7123414082453,"[63, 0, 191]",191,a,0.054377561900764704,colour,0.5
031,21,0,2,11,39,539,1597.7303712945431,1598.9204170675948,"[34, 0, 220]",220,a,0.6685283780097961,colour,0.5
031,21,0,2,11,40,540,1600.9213110986166,1601.464281691704,"[25, 0, 229]",229,a,0.020656053442507982,colour,0.5
031,21,0,2,11,41,541,1603.4841961325146,1604.0963202160783,"[72, 0, 182]",182,l,0.0910363751463592,colour,0.5
031,21,0,2,11,42,542,1606.096859391313,1607.1603359822184,"[67, 0, 187]",187,l,0.5401861001737416,colour,0.5
031,21,0,2,11,43,543,1609.1765518132597,1610.1123056467623,"[14, 0, 240]",240,a,0.4134006965905428,colour,0.5
031,21,0,2,11,44,544,1612.1241521476768,1612.664294924587,"[78, 0, 176]",176,l,0.01811928953975439,colour,0.5
031,21,0,2,11,45,545,1614.6734959604219,1615.4082905421965,"[73, 0, 181]",181,l,0.21227957447990775,colour,0.5
031,21,0,2,11,46,546,1617.4265398010612,1618.0323119326495,"[20, 0, 234]",234,a,0.0836115856654942,colour,0.5
031,21,0,2,11,47,547,1620.0427768207155,1620.7442697342485,"[46, 0, 208]",208,a,0.1917826347053051,colour,0.5
031,21,0,2,11,48,548,1622.7465985468589,1623.2729890015908,"[77, 0, 177]",177,l,0.00396524416282773,colour,0.5
031,21,0,2,11,49,549,1625.282903292682,1626.200320827309,"[44, 0, 210]",210,a,0.3952113026753068,colour,0.5
031,21,0,2,11,50,550,1628.2075163978152,1629.2483050827868,"[2, 0, 252]",252,a,0.5186348343268037,colour,0.5
031,21,0,2,12,1,551,1637.2012936272658,1637.8243268579245,"[38, 0, 216]",216,a,0.10059187235310674,colour,0.5
031,21,0,2,12,2,552,1639.8329300349578,1640.6163279982284,"[43, 0, 211]",211,a,0.25641201343387365,colour,0.5
031,21,0,2,12,3,553,1642.6350565683097,1643.99240861414,"[35, 0, 219]",219,a,0.8337980723008513,colour,0.5
031,21,0,2,12,4,554,1645.9997180062346,1646.6083069262095,"[4, 0, 250]",250,a,0.08656110009178519,colour,0.5
031,21,0,2,12,5,555,1648.6229020794854,1649.6243388308212,"[76, 0, 178]",178,l,0.47928683925420046,colour,0.5
031,21,0,2,12,6,556,1651.638818981126,1652.4563015792519,"[53, 0, 201]",201,a,0.29517790442332625,colour,0.5
031,21,0,2,12,7,557,1654.467193396762,1655.0642745234072,"[89, 0, 165]",165,l,0.07563698710873723,colour,0.5
031,21,0,2,12,8,558,1657.067340222653,1657.6083396151662,"[80, 0, 174]",174,l,0.01962141925469041,colour,0.5
031,21,0,2,12,9,559,1659.6161673092283,1660.6723187537864,"[9, 0, 245]",245,a,0.5339526957832277,colour,0.5
031,21,0,2,12,10,560,1662.6728110616095,1663.672299849335,"[97, 0, 157]",157,l,0.47710059862583876,colour,0.5
031,21,0,2,12,11,561,1665.688856357243,1666.6642712941393,"[96, 0, 158]",158,l,0.454066501930356,colour,0.5
031,21,0,2,12,12,562,1668.669910384342,1669.2322987779044,"[37, 0, 217]",217,a,0.04093795223161578,colour,0.5
031,21,0,2,12,13,563,1671.2358272466809,1672.328339756932,"[7, 0, 247]",247,a,0.5833449517376721,colour,0.5
031,21,0,2,12,14,564,1674.3487402042374,1674.9122959580272,"[87, 0, 167]",167,l,0.042184081859886646,colour,0.5
031,21,0,2,12,15,565,1676.9271431732923,1677.6085944338702,"[31, 0, 223]",223,a,0.15933640068396926,colour,0.5
031,21,0,2,12,16,566,1679.6147675793618,1680.608320710715,"[36, 0, 218]",218,a,0.4719167947769165,colour,0.5
031,21,0,2,12,17,567,1682.6150393337011,1683.4882885883562,"[17, 0, 237]",237,a,0.34972403198480606,colour,0.5
031,21,0,2,12,18,568,1685.4925437034108,1686.4002990080044,"[5, 0, 249]",249,a,0.3863281006924808,colour,0.5
031,21,0,2,12,19,569,1688.4145054356195,1689.096308006905,"[74, 0, 180]",180,a,0.16033283155411482,colour,0.5
031,21,0,2,12,20,570,1691.0913616917096,1691.9283436168917,"[73, 0, 181]",181,l,0.32572186132892966,colour,0.5
031,21,0,2,12,21,571,1693.9409376378171,1694.8724013040774,"[98, 0, 156]",156,l,0.4097572253085673,colour,0.5
031,21,0,2,12,22,572,1696.880382597912,1697.4483183161356,"[19, 0, 235]",235,a,0.05087548075243831,colour,0.5
031,21,0,2,12,23,573,1699.4477417250164,1700.0724318665452,"[26, 0, 228]",228,a,0.10332713415846229,colour,0.5
031,21,0,2,12,24,574,1702.0886311559007,1702.8563233194873,"[83, 0, 171]",171,l,0.24625629466027021,colour,0.5
031,21,0,2,12,25,575,1704.8700114451349,1705.4723263946362,"[32, 0, 222]",222,a,0.08087829267606139,colour,0.5
031,21,0,2,12,26,576,1707.479573559016,1708.0323970033787,"[92, 0, 162]",162,l,0.031236732378602028,colour,0.5
031,21,0,2,12,27,577,1710.0431037130766,1710.9683757228777,"[75, 0, 179]",179,l,0.40337730990722775,colour,0.5
031,21,0,2,12,28,578,1712.9813253870234,1714.0723306480795,"[18, 0, 236]",236,a,0.5689581427723169,colour,0.5
031,21,0,2,12,29,579,1716.0908221225254,1716.7442854880355,"[44, 0, 210]",210,a,0.1439933329820633,colour,0.5
031,21,0,2,12,30,580,1718.7525550774299,1719.3763681235723,"[61, 0, 193]",193,a,0.10244452487677336,colour,0.5
031,21,0,2,12,31,581,1721.3825987707824,1722.0723696388304,"[71, 0, 183]",183,l,0.167624500580132,colour,0.5
031,21,0,2,12,32,582,1724.0841058627702,1724.7683573700488,"[52, 0, 202]",202,a,0.1622039950452745,colour,0.5
031,21,0,2,12,33,583,1726.7875376814045,1731.0563058326952,"[85, 0, 169]",169,l,3.755184394773096,colour,0.5
031,21,0,2,12,34,584,1733.057876885403,1733.7123205340467,"[41, 0, 213]",213,a,0.13208578573539853,colour,0.5
031,21,0,2,12,35,585,1735.7211202406324,1736.9523020708002,"[65, 0, 189]",189,l,0.7096152044832706,colour,0.5
031,21,0,2,12,36,586,1738.9713583206758,1739.7284308141097,"[12, 0, 242]",242,a,0.2348761074244976,colour,0.5
031,21,0,2,12,37,587,1741.7372364285402,1742.9363347566687,"[54, 0, 200]",200,a,0.677070114761591,colour,0.5
031,21,0,2,12,38,588,1744.942307434976,1745.6883392371237,"[21, 0, 233]",233,a,0.22318753926083446,colour,0.5
031,21,0,2,12,39,589,1747.6897094282322,1748.2163322516717,"[95, 0, 159]",159,l,0.00460288068279624,colour,0.5
031,21,0,2,12,40,590,1750.2305682175793,1750.7923477254808,"[0, 0, 254]",254,a,0.03941691853106022,colour,0.5
031,21,0,2,12,41,591,1752.7991770189255,1753.3602948649786,"[15, 0, 239]",239,a,0.03819796442985535,colour,0.5
031,21,0,2,12,42,592,1755.3741306830198,1756.0163265019655,"[30, 0, 224]",224,a,0.1207111133262515,colour,0.5
031,21,0,2,12,43,593,1758.0305711324327,1759.040316463448,"[81, 0, 173]",173,l,0.4940651310607791,colour,0.5
031,21,0,2,12,44,594,1761.055642989464,1761.6084215352312,"[55, 0, 199]",199,a,0.03127060318365693,colour,0.5
031,21,0,2,12,45,595,1763.6091131293215,1764.2483216244727,"[13, 0, 241]",241,a,0.11775687243789434,colour,0.5
031,21,0,2,12,46,596,1766.254485711921,1767.2403344227932,"[82, 0, 172]",172,l,0.4640434146858752,colour,0.5
031,21,0,2,12,47,597,1769.2519048373215,1769.8163432008587,"[34, 0, 220]",220,a,0.03922432754188776,colour,0.5
031,21,0,2,12,48,598,1771.8244544640183,1772.4323305222206,"[69, 0, 185]",185,l,0.09765929309651256,colour,0.5
031,21,0,2,12,49,599,1774.4414555453695,1775.4243370192125,"[39, 0, 215]",215,a,0.46104782028123736,colour,0.5
031,21,0,2,12,50,600,1777.4416402592324,1778.0403404878452,"[91, 0, 163]",163,l,0.0763789932243526,colour,0.5
031,21,0,2,13,1,601,1787.2855503330939,1787.9603392905556,"[74, 0, 180]",180,l,0.15180448489263654,colour,0.5
031,21,0,2,13,2,602,1789.9711196497083,1790.6163429645821,"[89, 0, 165]",165,l,0.12362163653597236,colour,0.5
031,21,0,2,13,3,603,1792.6151137705892,1793.2723395489156,"[65, 0, 189]",189,l,0.13556384202092886,colour,0.5
031,21,0,2,13,4,604,1795.2871379274875,1795.9044292736799,"[60, 0, 194]",194,l,0.09585429588332772,colour,0.5
031,21,0,2,13,5,605,1797.9125681058504,1798.5683244443499,"[18, 0, 236]",236,a,0.1344193248078227,colour,0.5
031,21,0,2,13,6,606,1800.5862731984816,1801.2483334396966,"[27, 0, 227]",227,a,0.14010882750153542,colour,0.5
031,21,0,2,13,7,607,1803.258372580167,1803.9363256981596,"[66, 0, 188]",188,l,0.15646289847791195,colour,0.5
031,21,0,2,13,8,608,1805.9482726301067,1806.5363551578484,"[45, 0, 209]",209,a,0.06677820393815637,colour,0.5
031,21,0,2,13,9,609,1808.5328152682632,1809.0567973526195,"[39, 0, 215]",215,a,0.0025060432963073254,colour,0.5
031,21,0,2,13,10,610,1811.0800110436976,1812.0963505422696,"[69, 0, 185]",185,l,0.494752393104136,colour,0.5
031,21,0,2,13,11,611,1814.110098532401,1815.0483525018208,"[64, 0, 190]",190,l,0.41653925739228725,colour,0.5
031,21,0,2,13,12,612,1817.0508825699799,1817.5843496536836,"[25, 0, 229]",229,a,0.011505036149173975,colour,0.5
031,21,0,2,13,13,613,1819.6003752569668,1821.0725807403214,"[99, 0, 155]",155,l,0.9500973192043602,colour,0.5
031,21,0,2,13,14,614,1823.0798905263655,1823.9043249040842,"[48, 0, 206]",206,a,0.30292289005592465,colour,0.5
031,21,0,2,13,15,615,1825.9242550991476,1826.6723510492593,"[81, 0, 173]",173,l,0.2266124258749187,colour,0.5
031,21,0,2,13,16,616,1828.6900682221167,1829.8083993224427,"[56, 0, 198]",198,a,0.5966219021938741,colour,0.5
031,21,0,2,13,17,617,1831.8172179334797,1832.4243712835014,"[38, 0, 216]",216,a,0.0854079183191061,colour,0.5
031,21,0,2,13,18,618,1834.430245500058,1835.0643406896852,"[10, 0, 244]",244,a,0.11226901924237609,colour,0.5
031,21,0,2,13,19,619,1837.0585842332803,1837.712444595527,"[73, 0, 181]",181,l,0.1321176872588694,colour,0.5
031,21,0,2,13,20,620,1839.7306548641063,1840.288334432058,"[54, 0, 200]",200,a,0.03595855459570885,colour,0.5
031,21,0,2,13,21,621,1842.2934063840657,1843.0323198093101,"[43, 0, 211]",211,a,0.2167796608991921,colour,0.5
031,21,0,2,13,22,622,1845.043673608452,1846.0083755338565,"[96, 0, 158]",158,l,0.44290883792564273,colour,0.5
031,21,0,2,13,23,623,1848.028259254992,1848.5523153827526,"[88, 0, 166]",166,l,0.002801034599542618,colour,0.5
031,21,0,2,13,24,624,1850.5595786948688,1851.2643649503589,"[49, 0, 205]",205,a,0.18329485412687063,colour,0.5
031,21,0,2,13,25,625,1853.2709614811465,1853.8883032398298,"[71, 0, 183]",183,a,0.10479736234992743,colour,0.5
031,21,0,2,13,26,626,1855.9009969034232,1856.8884312394075,"[87, 0, 167]",167,l,0.46619972214102745,colour,0.5
031,21,0,2,13,27,627,1858.9012871682644,1860.1605254225433,"[22, 0, 232]",232,a,0.7379248715005815,colour,0.5
031,21,0,2,13,28,628,1862.1574790216982,1863.0163950310089,"[36, 0, 218]",218,a,0.33767548808827996,colour,0.5
031,21,0,2,13,29,629,1865.0325962896459,1865.9764338168316,"[40, 0, 214]",214,a,0.42265529558062553,colour,0.5
031,21,0,2,13,30,630,1867.986068083439,1868.5363614596426,"[14, 0, 240]",240,a,0.028640103992074728,colour,0.5
031,21,0,2,13,31,631,1870.536376032047,1871.1283462159336,"[72, 0, 182]",182,l,0.07031809352338314,colour,0.5
031,21,0,2,13,32,632,1873.1428748099133,1874.2403001580387,"[85, 0, 169]",169,l,0.5757074854336679,colour,0.5
031,21,0,2,13,33,633,1876.2401544349268,1877.0963127329014,"[17, 0, 237]",237,a,0.33423917973414063,colour,0.5
031,21,0,2,13,34,634,1879.1103998250328,1879.816414881032,"[59, 0, 195]",195,a,0.1843905351124704,colour,0.5
031,21,0,2,13,35,635,1881.8293763604015,1882.8803290347569,"[94, 0, 160]",160,l,0.5285341590642929,colour,0.5
031,21,0,2,13,36,636,1884.8865301436745,1885.7523227082565,"[3, 0, 251]",251,a,0.3440947877243161,colour,0.5
031,21,0,2,13,37,637,1887.7558578718454,1888.8323392653838,"[6, 0, 248]",248,a,0.558318386785686,colour,0.5
031,21,0,2,13,38,638,1890.8363891863264,1891.4403582899831,"[79, 0, 175]",175,l,0.08122645318508148,colour,0.5
031,21,0,2,13,39,639,1893.4473340944387,1894.4323147684336,"[86, 0, 168]",168,l,0.4627736541442573,colour,0.5
031,21,0,2,13,40,640,1896.4474628819153,1897.2243407210335,"[20, 0, 234]",234,a,0.25549868401139975,colour,0.5
031,21,0,2,13,41,641,1899.2243671086617,1899.9444948569871,"[41, 0, 213]",213,a,0.1987812821753323,colour,0.5
031,21,0,2,13,42,642,1901.9584874259308,1902.7603244818747,"[61, 0, 193]",193,a,0.27966351341456175,colour,0.5
031,21,0,2,13,43,643,1904.7712454441935,1905.3764929724857,"[28, 0, 226]",226,a,0.08383213961496949,colour,0.5
031,21,0,2,13,44,644,1907.383668457158,1907.9283487368375,"[44, 0, 210]",210,a,0.02325898315757513,colour,0.5
031,21,0,2,13,45,645,1909.9463912262581,1911.176346225664,"[24, 0, 230]",230,a,0.7084872289560735,colour,0.5
031,21,0,2,13,46,646,1913.181018423289,1913.7443410204723,"[77, 0, 177]",177,l,0.041305017191916704,colour,0.5
031,21,0,2,13,47,647,1915.7593363220803,1916.8404158703052,"[7, 0, 247]",247,a,0.5597366271540523,colour,0.5
031,21,0,2,13,48,648,1918.8532521063462,1919.5203772103414,"[52, 0, 202]",202,a,0.1457648533396423,colour,0.5
031,21,0,2,13,49,649,1921.5251770140603,1922.3043367983773,"[42, 0, 212]",212,a,0.25729698594659567,colour,0.5
031,21,0,2,13,50,650,1924.309715950396,1925.2485165782273,"[35, 0, 219]",219,a,0.41739035909995437,colour,0.5
031,21,0,2,14,1,651,1933.2784654335119,1934.3046542387456,"[6, 0, 248]",248,a,0.5040644933469594,colour,0.5
031,21,0,2,14,2,652,1936.3106273105368,1940.584386675153,"[20, 0, 234]",234,a,3.752238818909973,colour,0.5
031,21,0,2,14,3,653,1942.5800094678998,1943.1925498470664,"[19, 0, 235]",235,a,0.0911789471283555,colour,0.5
031,21,0,2,14,4,654,1945.2052250006236,1945.7763461465947,"[13, 0, 241]",241,a,0.0495958742685616,colour,0.5
031,21,0,2,14,5,655,1947.7711666747928,1948.6083880583756,"[56, 0, 198]",198,a,0.3277068459428847,colour,0.5
031,21,0,2,14,6,656,1950.6067378427833,1951.1683802916668,"[14, 0, 240]",240,a,0.040386173874139786,colour,0.5
031,21,0,2,14,7,657,1953.1849998151883,1954.1283391267061,"[59, 0, 195]",195,l,0.4220475908368826,colour,0.5
031,21,0,2,14,8,658,1956.1293351640925,1957.1763769453391,"[36, 0, 218]",218,a,0.5254924846813083,colour,0.5
031,21,0,2,14,9,659,1959.1824004296213,1961.9523591785692,"[52, 0, 202]",202,a,2.248147150501609,colour,0.5
031,21,0,2,14,10,660,1963.960984410718,1964.5203846935183,"[77, 0, 177]",177,l,0.037550481501966715,colour,0.5
031,21,0,2,14,11,661,1966.5393609926105,1967.9763424447738,"[61, 0, 193]",193,l,0.9153801682405174,colour,0.5
031,21,0,2,14,12,662,1969.9927469277754,1970.936349329073,"[54, 0, 200]",200,a,0.4223154061473906,colour,0.5
031,21,0,2,14,13,663,1972.9462549556047,1973.5364039950073,"[18, 0, 236]",236,a,0.06843038881197572,colour,0.5
031,21,0,2,14,14,664,1975.5563991740346,1976.2164346519858,"[42, 0, 212]",212,a,0.13879810739308596,colour,0.5
031,21,0,2,14,15,665,1978.2278770664707,1978.9284223858267,"[72, 0, 182]",182,l,0.1789326136931777,colour,0.5
031,21,0,2,14,16,666,1980.94790083915,1981.6963847279549,"[57, 0, 197]",197,a,0.22623748471960425,colour,0.5
031,21,0,2,14,17,667,1983.7149849040434,1984.2483511627652,"[66, 0, 188]",188,l,0.011850832961499691,colour,0.5
031,21,0,2,14,18,668,1986.2621401133947,1986.9363564183004,"[60, 0, 194]",194,a,0.16021310212090611,colour,0.5
031,21,0,2,14,19,669,1988.9415390407667,1989.4963876423426,"[55, 0, 199]",199,a,0.03264945885166526,colour,0.5
031,21,0,2,14,20,670,1991.5043212808669,1992.0483335973695,"[90, 0, 164]",164,l,0.021777333691716194,colour,0.5
031,21,0,2,14,21,671,1994.0679451702163,1995.3204699214548,"[8, 0, 246]",246,a,0.7304323404096067,colour,0.5
031,21,0,2,14,22,672,1997.3334487304091,1997.9924393338151,"[37, 0, 217]",217,a,0.13692615600302815,colour,0.5
031,21,0,2,14,23,673,2000.005792690441,2001.1843503625132,"[92, 0, 162]",162,l,0.6687067900784314,colour,0.5
031,21,0,2,14,24,674,2003.19674312789,2003.7683731238358,"[4, 0, 250]",250,a,0.04988889629021287,colour,0.5
031,21,0,2,14,25,675,2005.769771671854,2006.504370905459,"[84, 0, 170]",170,l,0.2129010632634163,colour,0.5
031,21,0,2,14,26,676,2008.5199955734424,2009.2725207181647,"[73, 0, 181]",181,l,0.23026574356481433,colour,0.5
031,21,0,2,14,27,677,2011.2815291630104,2012.0883897282183,"[64, 0, 190]",190,a,0.2845858037471771,colour,0.5
031,21,0,2,14,28,678,2014.0835568411276,2015.1363479900174,"[39, 0, 215]",215,a,0.5380676011554897,colour,0.5
031,21,0,2,14,29,679,2017.143253296148,2017.8324054316618,"[17, 0, 237]",237,a,0.16659104824066162,colour,0.5
031,21,0,2,14,30,680,2019.8470864435658,2020.8643719609827,"[31, 0, 223]",223,a,0.5080289491452277,colour,0.5
031,21,0,2,14,31,681,2022.870358029846,2023.440381526947,"[74, 0, 180]",180,l,0.047734557185322046,colour,0.5
031,21,0,2,14,32,682,2025.436887322925,2026.152389741037,"[47, 0, 207]",207,a,0.19355809362605214,colour,0.5
031,21,0,2,14,33,683,2028.1708981506526,2028.7443567742594,"[12, 0, 242]",242,a,0.06275388319045305,colour,0.5
031,21,0,2,14,34,684,2030.742532084696,2031.2883604262024,"[87, 0, 167]",167,l,0.024143561720848083,colour,0.5
031,21,0,2,14,35,685,2033.292798679322,2034.3443641788326,"[81, 0, 173]",173,l,0.5300989109091461,colour,0.5
031,21,0,2,14,36,686,2036.3461171882227,2037.1924336627126,"[43, 0, 211]",211,a,0.3244721870869398,colour,0.5
031,21,0,2,14,37,687,2039.2082753395662,2039.808367814403,"[79, 0, 175]",175,l,0.07820959063246846,colour,0.5
031,21,0,2,14,38,688,2041.8067900664173,2042.3444228619337,"[32, 0, 222]",222,a,0.015387572348117828,colour,0.5
031,21,0,2,14,39,689,2044.3485318594612,2044.9443979705684,"[16, 0, 238]",238,a,0.07392572518438101,colour,0.5
031,21,0,2,14,40,690,2046.9578828718513,2047.68834711425,"[58, 0, 196]",196,a,0.20821823179721832,colour,0.5
031,21,0,2,14,41,691,2049.697934119031,2050.2245159829035,"[33, 0, 221]",221,a,0.004135779570788145,colour,0.5
031,21,0,2,14,42,692,2052.2451460422017,2052.808366239071,"[53, 0, 201]",201,a,0.04103641398251057,colour,0.5
031,21,0,2,14,43,693,2054.8209401741624,2055.6883900430985,"[80, 0, 174]",174,l,0.34316727984696627,colour,0.5
031,21,0,2,14,44,694,2057.6991329868324,2058.448376605287,"[67, 0, 187]",187,a,0.22705392772331834,colour,0.5
031,21,0,2,14,45,695,2060.464649150148,2061.056382238865,"[3, 0, 251]",251,a,0.0825399300083518,colour,0.5
031,21,0,2,14,46,696,2063.0618401598185,2063.6724932277575,"[27, 0, 227]",227,a,0.08929636189714074,colour,0.5
031,21,0,2,14,47,697,2065.687028123066,2066.360379147809,"[69, 0, 185]",185,l,0.15127515560016036,colour,0.5
031,21,0,2,14,48,698,2068.375602092594,2068.9123857552186,"[7, 0, 247]",247,a,0.015333615243434906,colour,0.5
031,21,0,2,14,49,699,2070.9229144463316,2071.472424068488,"[5, 0, 249]",249,a,0.02814425155520439,colour,0.5
031,21,0,2,14,50,700,2073.485532452818,2074.5203764224425,"[28, 0, 226]",226,a,0.5129027962684631,colour,0.5
031,21,0,2,15,1,701,2083.123948528897,2083.704410526436,"[66, 0, 188]",188,l,0.06753202574327588,colour,0.5
031,21,0,2,15,2,702,2085.701255424414,2086.6885779080912,"[93, 0, 161]",161,l,0.46569441817700863,colour,0.5
031,21,0,2,15,3,703,2088.701488581486,2089.3363931248896,"[0, 0, 254]",254,a,0.11304253293201327,colour,0.5
031,21,0,2,15,4,704,2091.335533752106,2091.8964015059173,"[58, 0, 196]",196,a,0.0393956508487463,colour,0.5
031,21,0,2,15,5,705,2093.9138930048794,2094.696405208204,"[48, 0, 206]",206,a,0.2612488395534456,colour,0.5
031,21,0,2,15,6,706,2096.699633171782,2097.2644015783444,"[21, 0, 233]",233,a,0.04287567641586065,colour,0.5
031,21,0,2,15,7,707,2099.2709988965653,2099.8323577763513,"[11, 0, 243]",243,a,0.0398477865383029,colour,0.5
031,21,0,2,15,8,708,2101.8494247091003,2102.4165341374464,"[24, 0, 230]",230,a,0.0447677131742239,colour,0.5
031,21,0,2,15,9,709,2104.427287321072,2105.4484096881934,"[74, 0, 180]",180,l,0.49874914437532425,colour,0.5
031,21,0,2,15,10,710,2107.4479591283016,2108.1284072622657,"[73, 0, 181]",181,l,0.1587889543734491,colour,0.5
031,21,0,2,15,11,711,2110.1367154484615,2110.7204117113724,"[49, 0, 205]",205,a,0.061974461656063795,colour,0.5
031,21,0,2,15,12,712,2112.7300381008536,2114.4083767943084,"[8, 0, 246]",246,a,1.1559670460410416,colour,0.5
031,21,0,2,15,13,713,2116.4139954047278,2117.312388197053,"[12, 0, 242]",242,a,0.37667099107056856,colour,0.5
031,21,0,2,15,14,714,2119.3214104264043,2119.8803904750384,"[42, 0, 212]",212,a,0.03739294270053506,colour,0.5
031,21,0,2,15,15,715,2121.899801974185,2122.7764032543637,"[63, 0, 191]",191,l,0.3542489311657846,colour,0.5
031,21,0,2,15,16,716,2124.7786363624036,2125.856493460946,"[70, 0, 184]",184,l,0.5542282937094569,colour,0.5
031,21,0,2,15,17,717,2127.8674931921996,2128.392368914094,"[4, 0, 250]",250,a,0.0026257727295160294,colour,0.5
031,21,0,2,15,18,718,2130.4127465183847,2131.6003598966636,"[43, 0, 211]",211,a,0.6663078726269305,colour,0.5
031,21,0,2,15,19,719,2133.6160562443547,2134.4963734638877,"[44, 0, 210]",210,a,0.3586970306932926,colour,0.5
031,21,0,2,15,20,720,2136.5067068077624,2137.3283964707516,"[52, 0, 202]",202,a,0.2997862990014255,colour,0.5
031,21,0,2,15,21,721,2139.3364132107235,2140.344383083284,"[54, 0, 200]",200,a,0.48618860030546784,colour,0.5
031,21,0,2,15,22,722,2142.344993938692,2143.1843602084555,"[84, 0, 170]",170,l,0.31598204374313354,colour,0.5
031,21,0,2,15,23,723,2145.1796852541156,2145.784463317599,"[53, 0, 201]",201,l,0.08210945595055819,colour,0.5
031,21,0,2,15,24,724,2147.787918924354,2148.456391769927,"[39, 0, 215]",215,a,0.15863889874890447,colour,0.5
031,21,0,2,15,25,725,2150.4585787979886,2151.144380877726,"[50, 0, 204]",204,a,0.16351117054000497,colour,0.5
031,21,0,2,15,26,726,2153.159640056081,2153.696502094157,"[29, 0, 225]",225,a,0.014699916820973158,colour,0.5
031,21,0,2,15,27,727,2155.6971050729044,2156.3524289680645,"[62, 0, 192]",192,a,0.13390299258753657,colour,0.5
031,21,0,2,15,28,728,2158.369227691088,2158.9043942210265,"[9, 0, 245]",245,a,0.012656248640269041,colour,0.5
031,21,0,2,15,29,729,2160.9125657426193,2161.584383130539,"[65, 0, 189]",189,l,0.1494851247407496,colour,0.5
031,21,0,2,15,30,730,2163.5877820234746,2164.544401042629,"[33, 0, 221]",221,a,0.44402224104851484,colour,0.5
031,21,0,2,15,31,731,2166.5549754202366,2167.448384088464,"[15, 0, 239]",239,a,0.37163803027942777,colour,0.5
031,21,0,2,15,32,732,2169.4540712279268,2170.0004277168773,"[67, 0, 187]",187,l,0.024014773778617382,colour,0.5
031,21,0,2,15,33,733,2172.0043397918344,2172.5443955287337,"[27, 0, 227]",227,a,0.016719166189432144,colour,0.5
031,21,0,2,15,34,734,2174.540040377062,2175.432396294549,"[10, 0, 244]",244,a,0.37005870696157217,colour,0.5
031,21,0,2,15,35,735,2177.434260368813,2178.0643812557682,"[97, 0, 157]",157,l,0.10851723980158567,colour,0.5
031,21,0,2,15,36,736,2180.063384036999,2180.6643937802874,"[64, 0, 190]",190,l,0.09185478743165731,colour,0.5
031,21,0,2,15,37,737,2182.666776943486,2183.616409524344,"[94, 0, 160]",160,l,0.42721564089879394,colour,0.5
031,21,0,2,15,38,738,2185.6146450932138,2186.6005264935084,"[14, 0, 240]",240,a,0.46428917441517115,colour,0.5
031,21,0,2,15,39,739,2188.6150220041163,2189.60038746614,"[30, 0, 224]",224,a,0.4642226146534085,colour,0.5
031,21,0,2,15,40,740,2191.615047210362,2192.2164374087006,"[2, 0, 252]",252,a,0.07990234158933163,colour,0.5
031,21,0,2,15,41,741,2194.2249878104776,2194.8003955790773,"[99, 0, 155]",155,l,0.05373086594045162,colour,0.5
031,21,0,2,15,42,742,2196.8193545490503,2197.3924335050397,"[46, 0, 208]",208,a,0.05100820679217577,colour,0.5
031,21,0,2,15,43,743,2199.3977027735673,2200.272495512385,"[87, 0, 167]",167,l,0.3524533864110708,colour,0.5
031,21,0,2,15,44,744,2202.2892784816213,2203.040559072513,"[78, 0, 176]",176,l,0.22927482658997178,colour,0.5
031,21,0,2,15,45,745,2205.0517163425684,2205.8643991365097,"[71, 0, 183]",183,a,0.29148677736520767,colour,0.5
031,21,0,2,15,46,746,2207.871953106951,2208.4083980619907,"[6, 0, 248]",248,a,0.014642809052020311,colour,0.5
031,21,0,2,15,47,747,2210.4074804005213,2211.016401726287,"[80, 0, 174]",174,a,0.08746891561895609,colour,0.5
031,21,0,2,15,48,748,2213.02913004905,2213.9444243581966,"[83, 0, 171]",171,l,0.3938596220687032,colour,0.5
031,21,0,2,15,49,749,2215.945490893908,2217.0724885803647,"[61, 0, 193]",193,a,0.6053629252128303,colour,0.5
031,21,0,2,15,50,750,2219.088331833016,2219.8163896747865,"[1, 0, 253]",253,a,0.20599851431325078,colour,0.5
031,21,0,2,16,1,751,2228.414661398623,2229.272425407544,"[32, 0, 222]",222,a,0.3398656668141484,colour,0.5
031,21,0,2,16,2,752,2231.286278554704,2232.304404146038,"[73, 0, 181]",181,l,0.49640891002491117,colour,0.5
031,21,0,2,16,3,753,2234.3177157547325,2235.016420631204,"[20, 0, 234]",234,a,0.17710437951609492,colour,0.5
031,21,0,2,16,4,754,2237.0210648658685,2237.8564182366244,"[83, 0, 171]",171,l,0.31378989573568106,colour,0.5
031,21,0,2,16,5,755,2239.856485977769,2240.8644393086433,"[66, 0, 188]",188,a,0.4859333881177008,colour,0.5
031,21,0,2,16,6,756,2242.87230953807,2243.9924397277646,"[46, 0, 208]",208,a,0.598439896479249,colour,0.5
031,21,0,2,16,7,757,2245.9979858705774,2246.7286450667307,"[5, 0, 249]",249,a,0.20911423210054636,colour,0.5
031,21,0,2,16,8,758,2248.7482211934403,2249.6724105202593,"[71, 0, 183]",183,l,0.4018846331164241,colour,0.5
031,21,0,2,16,9,759,2251.6860053045675,2252.3444000184536,"[2, 0, 252]",252,a,0.1365921744145453,colour,0.5
031,21,0,2,16,10,760,2254.358202359639,2255.0244424911216,"[47, 0, 207]",207,a,0.14475660724565387,colour,0.5
031,21,0,2,16,11,761,2257.0212550936267,2259.032405273989,"[51, 0, 203]",203,a,1.489064859226346,colour,0.5
031,21,0,2,16,12,762,2261.0373161425814,2261.7525601973757,"[62, 0, 192]",192,l,0.19152190815657377,colour,0.5
031,21,0,2,16,13,763,2263.758268211037,2264.5604455503635,"[88, 0, 166]",166,l,0.2806701846420765,colour,0.5
031,21,0,2,16,14,764,2266.5712585989386,2267.2804039446637,"[56, 0, 198]",198,a,0.18763622175902128,colour,0.5
031,21,0,2,16,15,765,2269.2853427762166,2270.0644241850823,"[40, 0, 214]",214,a,0.2564407642930746,colour,0.5
031,21,0,2,16,16,766,2272.0835253335536,2272.608422716614,"[52, 0, 202]",202,a,0.006758401170372963,colour,0.5
031,21,0,2,16,17,767,2274.6282170345075,2275.224458481185,"[86, 0, 168]",168,l,0.07402733759954572,colour,0.5
031,21,0,2,16,18,768,2277.2390323672444,2277.776396953035,"[35, 0, 219]",219,a,0.016014181543141603,colour,0.5
031,21,0,2,16,19,769,2279.786108807195,2280.4004230694845,"[54, 0, 200]",200,a,0.09207061491906643,colour,0.5
031,21,0,2,16,20,770,2282.4005995127372,2282.9364123446867,"[60, 0, 194]",194,a,0.013462058268487453,colour,0.5
031,21,0,2,16,21,771,2284.9438264998607,2285.53643629048,"[90, 0, 164]",164,l,0.08304759813472629,colour,0.5
031,21,0,2,16,22,772,2287.529120990541,2288.136433454696,"[25, 0, 229]",229,a,0.08558711828663945,colour,0.5
031,21,0,2,16,23,773,2290.154447193723,2290.8404477718286,"[81, 0, 173]",173,l,0.1645473800599575,colour,0.5
031,21,0,2,16,24,774,2292.8553646975197,2293.4484601006843,"[49, 0, 205]",205,a,0.07072690641507506,colour,0.5
031,21,0,2,16,25,775,2295.4650634764694,2296.152436214499,"[42, 0, 212]",212,a,0.16540163243189454,colour,0.5
031,21,0,2,16,26,776,2298.156934332568,2298.9044761410914,"[89, 0, 165]",165,l,0.2254151334054768,colour,0.5
031,21,0,2,16,27,777,2300.9148405985907,2301.688444000203,"[36, 0, 218]",218,a,0.2521781665273011,colour,0.5
031,21,0,2,16,28,778,2303.6962697249837,2305.0004166895524,"[37, 0, 217]",217,a,0.7906218911521137,colour,0.5
031,21,0,2,16,29,779,2307.0101624145173,2307.7605324327014,"[31, 0, 223]",223,l,0.23143901163712144,colour,0.5
031,21,0,2,16,30,780,2309.7731918324716,2310.392424052581,"[26, 0, 228]",228,a,0.09734539734199643,colour,0.5
031,21,0,2,16,31,781,2312.393370071426,2313.352432512678,"[14, 0, 240]",240,a,0.43750723684206605,colour,0.5
031,21,0,2,16,32,782,2315.349936708808,2315.960426724516,"[96, 0, 158]",158,l,0.08820265112444758,colour,0.5
031,21,0,2,16,33,783,2317.9773199711926,2318.5044366777875,"[19, 0, 235]",235,a,0.005611521191895008,colour,0.5
031,21,0,2,16,34,784,2320.5245791557245,2321.1604096316732,"[97, 0, 157]",157,l,0.11397279798984528,colour,0.5
031,21,0,2,16,35,785,2323.152863931842,2324.056400355883,"[0, 0, 254]",254,a,0.391046772710979,colour,0.5
031,21,0,2,16,36,786,2326.0528202936985,2326.6164804166183,"[70, 0, 184]",184,l,0.03874422889202833,colour,0.5
031,21,0,2,16,37,787,2328.628270991612,2329.576438858174,"[18, 0, 236]",236,a,0.4268800839781761,colour,0.5
031,21,0,2,16,38,788,2331.5842480412684,2332.2964571169578,"[77, 0, 177]",177,l,0.2004590672440827,colour,0.5
031,21,0,2,16,39,789,2334.3025920595974,2335.2164645842277,"[10, 0, 244]",244,a,0.39257135102525353,colour,0.5
031,21,0,2,16,40,790,2337.226578161586,2337.7684365329333,"[30, 0, 224]",224,a,0.020471733063459396,colour,0.5
031,21,0,2,16,41,791,2339.7741677830927,2340.57644358417,"[94, 0, 160]",160,l,0.2810151935555041,colour,0.5
031,21,0,2,16,42,792,2342.5854217028245,2343.720457791351,"[45, 0, 209]",209,a,0.612894841004163,colour,0.5
031,21,0,2,16,43,793,2345.7264273185283,2346.592457766179,"[17, 0, 237]",237,a,0.34435000037774444,colour,0.5
031,21,0,2,16,44,794,2348.589423180558,2349.1444604345597,"[21, 0, 233]",233,a,0.03306575398892164,colour,0.5
031,21,0,2,16,45,795,2351.154861126095,2351.9364426704124,"[58, 0, 196]",196,l,0.25990542955696583,colour,0.5
031,21,0,2,16,46,796,2353.95201416919,2355.0485462741926,"[84, 0, 170]",170,l,0.5744901071302593,colour,0.5
031,21,0,2,16,47,797,2357.061558953952,2357.7044440032914,"[65, 0, 189]",189,a,0.1211884543299675,colour,0.5
031,21,0,2,16,48,798,2359.718044301495,2360.488432736136,"[15, 0, 239]",239,a,0.2487627319060266,colour,0.5
031,21,0,2,16,49,799,2362.499617575202,2363.184450005647,"[69, 0, 185]",185,a,0.1632961304858327,colour,0.5
031,21,0,2,16,50,800,2365.202864286024,2366.176413967274,"[87, 0, 167]",167,l,0.45179873518645763,colour,0.5
