id,age,condition,counterbalance,block,trialinblock,trial,tstart,tend,trialstim,trialintensity,response,RT,trialtype,colourfreq
01,19,1,1,Practice,1,NA,5.5138953030109406e-06,0.8782297763973475,"[3, 0, 251]",251,a,0.3538761648815125,colour,0.5
01,19,1,1,Practice,2,NA,2.8914413119200617,8.32625659252517,"[10, 0, 244]",244,a,4.919691824121401,colour,0.5
01,19,1,1,Practice,3,NA,10.336373686557636,11.390214287210256,"[73, 0, 181]",181,a,0.5304826295468956,colour,0.5
01,19,1,1,Practice,4,NA,13.398836739128456,14.390180416638032,"[84, 0, 170]",170,l,0.46817081375047565,colour,0.5
01,19,1,1,Practice,5,NA,16.39907934772782,17.078157781623304,"[16, 0, 238]",238,a,0.1559075394179672,colour,0.5
01,19,1,1,Practice,6,NA,19.087671898771077,19.70220974716358,"[74, 0, 180]",180,l,0.0912421050015837,colour,0.5
01,19,1,1,Practice,7,NA,21.71266554808244,24.11817678064108,"[53, 0, 201]",201,a,1.8805818194523454,colour,0.5
01,19,1,1,Practice,8,NA,26.13739602989517,26.998161531053483,"[37, 0, 217]",217,a,0.337495751446113,colour,0.5
01,19,1,1,Practice,9,NA,29.014550215099007,30.382132978644222,"[64, 0, 190]",190,a,0.8442626015748829,colour,0.5
01,19,1,1,Practice,10,NA,32.3904998251237,33.30212727584876,"[2, 0, 252]",252,a,0.3882856275886297,colour,0.5
01,19,1,1,1,1,1,6.032943177269772,6.768102009082213,"[13, 0, 241]",241,a,0.21097378619015217,colour,0.5
01,19,1,1,1,2,2,8.783697882900015,9.536007095593959,"[32, 0, 222]",222,a,0.22706590499728918,colour,0.5
01,19,1,1,1,3,3,11.551261505577713,12.15199705096893,"[0, 0, 254]",254,a,0.07522009056992829,colour,0.5
01,19,1,1,1,4,4,14.15036810724996,15.10399362910539,"[76, 0, 178]",178,l,0.4302277723327279,colour,0.5
01,19,1,1,1,5,5,17.119048753753304,17.87193219247274,"[61, 0, 193]",193,a,0.22956012608483434,colour,0.5
01,19,1,1,1,6,6,19.884713255101815,20.943960168166086,"[69, 0, 185]",185,l,0.5358905175235122,colour,0.5
01,19,1,1,1,7,7,22.95030068117194,23.736154866172,"[96, 0, 158]",158,l,0.2622859007678926,colour,0.5
01,19,1,1,1,8,8,25.747288080863655,26.488005643012002,"[7, 0, 247]",247,a,0.22269658674485981,colour,0.5
01,19,1,1,1,9,9,28.50804842240177,29.208255860721692,"[87, 0, 167]",167,l,0.18942139809951186,colour,0.5
01,19,1,1,1,10,10,31.229896469973028,31.93608208349906,"[74, 0, 180]",180,l,0.18291074386797845,colour,0.5
01,19,1,1,1,11,11,33.94866189151071,34.71194599289447,"[25, 0, 229]",229,a,0.23988792742602527,colour,0.5
01,19,1,1,1,12,12,36.729876580648124,37.407886118860915,"[54, 0, 200]",200,a,0.15487645263783634,colour,0.5
01,19,1,1,1,13,13,39.417395510012284,40.183911110740155,"[57, 0, 197]",197,a,0.24311351915821433,colour,0.5
01,19,1,1,1,14,14,42.20061132637784,42.967867356026545,"[51, 0, 203]",203,a,0.24383543734438717,colour,0.5
01,19,1,1,1,15,15,44.98190202796832,45.75984701467678,"[72, 0, 182]",182,l,0.2545795328915119,colour,0.5
01,19,1,1,1,16,16,47.778779544867575,48.36789823346771,"[82, 0, 172]",172,l,0.06588832358829677,colour,0.5
01,19,1,1,1,17,17,50.38811745564453,51.90387106454,"[83, 0, 171]",171,l,0.9923731887247413,colour,0.5
01,19,1,1,1,18,18,53.919340514112264,54.95185558171943,"[65, 0, 189]",189,l,0.5091909673064947,colour,0.5
01,19,1,1,1,19,19,56.96627582795918,57.783835728652775,"[3, 0, 251]",251,a,0.2942168959416449,colour,0.5
01,19,1,1,1,20,20,59.79435848328285,60.567859321599826,"[68, 0, 186]",186,l,0.2501810702960938,colour,0.5
01,19,1,1,1,21,21,62.56319658900611,63.24784675007686,"[38, 0, 216]",216,a,0.161617900012061,colour,0.5
01,19,1,1,1,22,22,65.2662227768451,65.94376521464437,"[8, 0, 246]",246,a,0.15415768534876406,colour,0.5
01,19,1,1,1,23,23,67.95375155215152,68.5838080807589,"[6, 0, 248]",248,a,0.10675330203957856,colour,0.5
01,19,1,1,1,24,24,70.5943757337518,71.19178604451008,"[14, 0, 240]",240,a,0.07409605663269758,colour,0.5
01,19,1,1,1,25,25,73.20434300927445,73.94387982366607,"[86, 0, 168]",168,l,0.21630448009818792,colour,0.5
01,19,1,1,1,26,26,75.95432380912825,76.80788076249883,"[45, 0, 209]",209,a,0.33014541934244335,colour,0.5
01,19,1,1,1,27,27,78.81567495805211,80.8238125864882,"[11, 0, 243]",243,a,1.4848359774332494,colour,0.5
01,19,1,1,1,28,28,82.83127752738073,83.66378188226372,"[1, 0, 253]",253,a,0.30910896859131753,colour,0.5
01,19,1,1,1,29,29,85.66275000805035,86.24776640580967,"[88, 0, 166]",166,l,0.061953023076057434,colour,0.5
01,19,1,1,1,30,30,88.25639515905641,88.86371303815395,"[5, 0, 249]",249,a,0.08407609257847071,colour,0.5
01,19,1,1,1,31,31,90.88287281664088,91.64772008941509,"[53, 0, 201]",201,a,0.24188432842493057,colour,0.5
01,19,1,1,1,32,32,93.66406426928006,94.43177479621954,"[41, 0, 213]",213,a,0.2444431404583156,colour,0.5
01,19,1,1,1,33,33,96.44533803523518,97.1917639891617,"[18, 0, 236]",236,a,0.22319322568364441,colour,0.5
01,19,1,1,1,34,34,99.2110112013761,99.94376088236459,"[73, 0, 181]",181,l,0.20961620169691741,colour,0.5
01,19,1,1,1,35,35,101.96095261676237,102.71171835018322,"[46, 0, 208]",208,a,0.22751410049386322,colour,0.5
01,19,1,1,1,36,36,104.71979690203443,105.47973843943328,"[40, 0, 214]",214,a,0.23687461810186505,colour,0.5
01,19,1,1,1,37,37,107.5010253759101,108.28771845111623,"[50, 0, 204]",204,a,0.26328114746138453,colour,0.5
01,19,1,1,1,38,38,110.2978788681794,111.0796638452448,"[78, 0, 176]",176,l,0.2584392153657973,colour,0.5
01,19,1,1,1,39,39,113.09471424366347,113.84766818070784,"[77, 0, 177]",177,l,0.22960620606318116,colour,0.5
01,19,1,1,1,40,40,115.86054967390373,116.60768966889009,"[2, 0, 252]",252,a,0.22294234624132514,colour,0.5
01,19,1,1,1,41,41,118.62707354547456,119.3836831531953,"[75, 0, 179]",179,l,0.23326896596699953,colour,0.5
01,19,1,1,1,42,42,121.39275183156133,122.13584782462567,"[71, 0, 183]",183,l,0.21981127746403217,colour,0.5
01,19,1,1,1,43,43,124.142675523879,124.80766808614135,"[33, 0, 221]",221,a,0.1415774836204946,colour,0.5
01,19,1,1,1,44,44,126.81442765053362,127.59168498381041,"[10, 0, 244]",244,a,0.2538394979201257,colour,0.5
01,19,1,1,1,45,45,129.61135203484446,131.6556860015262,"[56, 0, 198]",198,a,1.5209700879640877,colour,0.5
01,19,1,1,1,46,46,133.6739269392565,134.46368728065863,"[81, 0, 173]",173,l,0.26653549005277455,colour,0.5
01,19,1,1,1,47,47,136.47072411188856,137.2156436080113,"[23, 0, 231]",231,a,0.22200538869947195,colour,0.5
01,19,1,1,1,48,48,139.23724010656588,140.00762208504602,"[39, 0, 215]",215,a,0.2471575210802257,colour,0.5
01,19,1,1,1,49,49,142.01671833265573,142.78362029534765,"[47, 0, 207]",207,a,0.24351051496341825,colour,0.5
01,19,1,1,1,50,50,144.78868238721043,145.51158830267377,"[22, 0, 232]",232,a,0.1995688183233142,colour,0.5
01,19,1,1,2,1,51,158.28157171001658,158.87955506518483,"[10, 0, 244]",244,a,0.07410826557315886,colour,0.5
01,19,1,1,2,2,52,160.8794443947263,161.83959396136925,"[32, 0, 222]",222,a,0.43710037018172443,colour,0.5
01,19,1,1,2,3,53,163.84811598272063,164.68752444302663,"[80, 0, 174]",174,l,0.3160831786226481,colour,0.5
01,19,1,1,2,4,54,166.70744906901382,167.47956554149278,"[5, 0, 249]",249,a,0.24881994142197073,colour,0.5
01,19,1,1,2,5,55,169.48871180741116,170.4556748950854,"[64, 0, 190]",190,l,0.4435976336244494,colour,0.5
01,19,1,1,2,6,56,172.47310136118904,173.23154431791045,"[44, 0, 210]",210,a,0.23507435200735927,colour,0.5
01,19,1,1,2,7,57,175.23864534590393,176.00761105748825,"[30, 0, 224]",224,a,0.24556559906341136,colour,0.5
01,19,1,1,2,8,58,178.01990217668936,178.7435571856331,"[75, 0, 179]",179,l,0.20025292737409472,colour,0.5
01,19,1,1,2,9,59,180.75425756443292,181.49552060221322,"[74, 0, 180]",180,l,0.21788734383881092,colour,0.5
01,19,1,1,2,10,60,183.5042745983228,184.26354817464016,"[69, 0, 185]",185,l,0.23671432328410447,colour,0.5
01,19,1,1,2,11,61,186.26052738237195,187.0155253757257,"[15, 0, 239]",239,a,0.22913753031753004,colour,0.5
01,19,1,1,2,12,62,189.02882670774125,189.8794676316902,"[29, 0, 225]",225,a,0.3274448234587908,colour,0.5
01,19,1,1,2,13,63,191.88817436620593,192.62348640384153,"[73, 0, 181]",181,l,0.21194343268871307,colour,0.5
01,19,1,1,2,14,64,194.6382969506085,195.34350267751142,"[51, 0, 203]",203,a,0.18273390759713948,colour,0.5
01,19,1,1,2,15,65,197.35709781805053,197.90347800706513,"[0, 0, 254]",254,a,0.023383373860269785,colour,0.5
01,19,1,1,2,16,66,199.91952877212316,200.57547116675414,"[43, 0, 211]",211,a,0.13258087914437056,colour,0.5
01,19,1,1,2,17,67,202.59138447977602,203.2154297500383,"[67, 0, 187]",187,l,0.10076803737320006,colour,0.5
01,19,1,1,2,18,68,205.2319247724954,205.99146104347892,"[28, 0, 226]",226,a,0.23609126033261418,colour,0.5
01,19,1,1,2,19,69,208.00767682958394,208.73556212917902,"[82, 0, 172]",172,l,0.20450172876007855,colour,0.5
01,19,1,1,2,20,70,210.7420219774358,211.45544488937594,"[3, 0, 251]",251,a,0.19016458396799862,colour,0.5
01,19,1,1,2,21,71,213.47635846049525,214.11945717106573,"[96, 0, 158]",158,l,0.1320984186604619,colour,0.5
01,19,1,1,2,22,72,216.1358749999199,216.7754873931408,"[31, 0, 223]",223,a,0.11619258858263493,colour,0.5
01,19,1,1,2,23,73,218.792110809125,219.55148914828897,"[6, 0, 248]",248,a,0.23605620814487338,colour,0.5
01,19,1,1,2,24,74,221.5577162336558,222.2875053808093,"[35, 0, 219]",219,a,0.20641620992682874,colour,0.5
01,19,1,1,2,25,75,224.3093964755535,224.9274474226404,"[33, 0, 221]",221,a,0.09472763445228338,colour,0.5
01,19,1,1,2,26,76,226.93440981721506,227.67940059909597,"[92, 0, 162]",162,l,0.22161823883652687,colour,0.5
01,19,1,1,2,27,77,229.70001130341552,230.25541290920228,"[22, 0, 232]",232,a,0.03204284724779427,colour,0.5
01,19,1,1,2,28,78,232.26245013438165,233.2233590343967,"[66, 0, 188]",188,l,0.4377254026476294,colour,0.5
01,19,1,1,2,29,79,235.23121230653487,235.9833801286295,"[65, 0, 189]",189,l,0.22875668201595545,colour,0.5
01,19,1,1,2,30,80,237.99124088394456,238.62339148717,"[39, 0, 215]",215,a,0.10878869378939271,colour,0.5
01,19,1,1,2,31,81,240.63186900387518,241.2074689581059,"[87, 0, 167]",167,l,0.05301510123535991,colour,0.5
01,19,1,1,2,32,82,243.22564609302208,243.80736837000586,"[4, 0, 250]",250,a,0.05819928483106196,colour,0.5
01,19,1,1,2,33,83,245.8224628791213,246.57537743169814,"[12, 0, 242]",242,a,0.2296707967761904,colour,0.5
01,19,1,1,2,34,84,248.58808287605643,249.3033261403907,"[85, 0, 169]",169,l,0.19208576064556837,colour,0.5
01,19,1,1,2,35,85,251.3132628533058,252.03137724893168,"[72, 0, 182]",182,l,0.19507977133616805,colour,0.5
01,19,1,1,2,36,86,254.0495638360735,255.4313218742609,"[54, 0, 200]",200,a,0.8587513770908117,colour,0.5
01,19,1,1,2,37,87,257.4401967807207,258.21535019320436,"[14, 0, 240]",240,a,0.2519285611342639,colour,0.5
01,19,1,1,2,38,88,260.2369140028022,260.9593441532925,"[78, 0, 176]",176,l,0.19906312110833824,colour,0.5
01,19,1,1,2,39,89,262.9712851443328,263.7832973424811,"[61, 0, 193]",193,l,0.28890865109860897,colour,0.5
01,19,1,1,2,40,90,265.7995084025897,266.5593829865102,"[81, 0, 173]",173,l,0.2364819545764476,colour,0.5
01,19,1,1,2,41,91,268.58319998392835,269.3833042741753,"[83, 0, 171]",171,l,0.2766608549281955,colour,0.5
01,19,1,1,2,42,92,271.3956485625822,272.1513184555806,"[49, 0, 205]",205,a,0.23235327587462962,colour,0.5
01,19,1,1,2,43,93,274.16120987641625,274.6872834097594,"[19, 0, 235]",235,a,0.002622614847496152,colour,0.5
01,19,1,1,2,44,94,276.70820761471987,277.4552786867134,"[84, 0, 170]",170,l,0.22375209163874388,colour,0.5
01,19,1,1,2,45,95,279.4738536053337,280.2872454430908,"[70, 0, 184]",184,l,0.2900767959654331,colour,0.5
01,19,1,1,2,46,96,282.3020552021917,283.0792570032645,"[45, 0, 209]",209,a,0.25390881462953985,colour,0.5
01,19,1,1,2,47,97,285.0989220852498,285.82326041557826,"[8, 0, 246]",246,a,0.20111781125888228,colour,0.5
01,19,1,1,2,48,98,287.8332613252569,288.839259193046,"[60, 0, 194]",194,a,0.4827541117556393,colour,0.5
01,19,1,1,2,49,99,290.8487910332624,291.59122536634095,"[98, 0, 156]",156,l,0.2189578148536384,colour,0.5
01,19,1,1,2,50,100,293.59886359912343,294.3833578370977,"[40, 0, 214]",214,a,0.26122566987760365,colour,0.5
01,19,1,1,3,1,101,302.41049455525354,303.4151923402678,"[92, 0, 162]",162,l,0.4806718525942415,colour,0.5
01,19,1,1,3,2,102,305.42686079023406,306.66320923133753,"[64, 0, 190]",190,l,0.7132157494779676,colour,0.5
01,19,1,1,3,3,103,308.6791536582168,309.61521289893426,"[59, 0, 195]",195,a,0.4128875583410263,colour,0.5
01,19,1,1,3,4,104,311.6322569414042,312.55121503188275,"[73, 0, 181]",181,l,0.3958391835913062,colour,0.5
01,19,1,1,3,5,105,314.5696993661113,315.39116424159147,"[38, 0, 216]",216,a,0.2988804162014276,colour,0.5
01,19,1,1,3,6,106,317.3978765443899,318.04714562697336,"[85, 0, 169]",169,l,0.12593631749041378,colour,0.5
01,19,1,1,3,7,107,320.05415528290905,320.77520264312625,"[34, 0, 220]",220,a,0.19774334598332644,colour,0.5
01,19,1,1,3,8,108,322.7884673476219,323.61547913821414,"[67, 0, 187]",187,l,0.30371289630420506,colour,0.5
01,19,1,1,3,9,109,325.6322132246569,326.33513425593264,"[3, 0, 251]",251,a,0.17855245363898575,colour,0.5
01,19,1,1,3,10,110,328.35427670530044,329.0151488597039,"[6, 0, 248]",248,a,0.13778317952528596,colour,0.5
01,19,1,1,3,11,111,331.01888881321065,332.11115806619637,"[22, 0, 232]",232,a,0.5691148999612778,colour,0.5
01,19,1,1,3,12,112,334.12834428669885,334.92712131887674,"[0, 0, 254]",254,a,0.2755407593213022,colour,0.5
01,19,1,1,3,13,113,336.92919136886485,339.0791010404937,"[98, 0, 156]",156,l,1.626760832266882,colour,0.5
01,19,1,1,3,14,114,341.0730318869464,342.04711096850224,"[15, 0, 239]",239,a,0.45080224284902215,colour,0.5
01,19,1,1,3,15,115,344.0572765057441,345.0471184516791,"[28, 0, 226]",226,a,0.46498145582154393,colour,0.5
01,19,1,1,3,16,116,347.0587577573024,347.82308082212694,"[1, 0, 253]",253,a,0.24096785089932382,colour,0.5
01,19,1,1,3,17,117,349.83997599128634,351.75907547213137,"[62, 0, 192]",192,a,1.3957808944396675,colour,0.5
01,19,1,1,3,18,118,353.77751096966676,354.5430959141813,"[54, 0, 200]",200,a,0.24223563820123672,colour,0.5
01,19,1,1,3,19,119,356.55876307422295,357.43908456200734,"[61, 0, 193]",193,l,0.35772954556159675,colour,0.5
01,19,1,1,3,20,120,359.44930444983765,360.2230337182991,"[87, 0, 167]",167,l,0.25027598696760833,colour,0.5
01,19,1,1,3,21,121,362.2309736364987,362.9350848677568,"[14, 0, 240]",240,a,0.18073790054768324,colour,0.5
01,19,1,1,3,22,122,364.94416811829433,366.0630593339447,"[48, 0, 206]",206,a,0.5956187089905143,colour,0.5
01,19,1,1,3,23,123,368.08472160459496,368.9750262792222,"[68, 0, 186]",186,l,0.36693606968037784,colour,0.5
01,19,1,1,3,24,124,370.99095613393,371.9270594851114,"[18, 0, 236]",236,a,0.4246800697874278,colour,0.5
01,19,1,1,3,25,125,373.9479687239509,374.7829940817319,"[2, 0, 252]",252,a,0.3115787715651095,colour,0.5
01,19,1,1,3,26,126,376.79169215168804,377.5750123371836,"[83, 0, 171]",171,l,0.2599744237959385,colour,0.5
01,19,1,1,3,27,127,379.57917212950997,380.38302267482504,"[36, 0, 218]",218,a,0.2807430597022176,colour,0.5
01,19,1,1,3,28,128,382.3916825419292,383.11901448923163,"[88, 0, 166]",166,l,0.20436348929069936,colour,0.5
01,19,1,1,3,29,129,385.12606707424857,385.81501093506813,"[86, 0, 168]",168,l,0.1656370898708701,colour,0.5
01,19,1,1,3,30,130,387.82914446201175,388.9430039119907,"[51, 0, 203]",203,l,0.5907598414923996,colour,0.5
01,19,1,1,3,31,131,390.95410404354334,391.73499420448206,"[46, 0, 208]",208,a,0.25754085439257324,colour,0.5
01,19,1,1,3,32,132,393.73864790587686,394.4069964226801,"[27, 0, 227]",227,a,0.14500275487080216,colour,0.5
01,19,1,1,3,33,133,396.42617274285294,397.28696069307625,"[20, 0, 234]",234,a,0.33747881604358554,colour,0.5
01,19,1,1,3,34,134,399.3011099738069,400.086966522038,"[60, 0, 194]",194,l,0.26283728424459696,colour,0.5
01,19,1,1,3,35,135,402.09795204456896,402.8630761904642,"[76, 0, 178]",178,l,0.24182525160722435,colour,0.5
01,19,1,1,3,36,136,404.8791824877262,405.84694468718953,"[66, 0, 188]",188,l,0.4445227759424597,colour,0.5
01,19,1,1,3,37,137,407.8636035490781,408.57493632496335,"[29, 0, 225]",225,a,0.1879767740610987,colour,0.5
01,19,1,1,3,38,138,410.58229571557604,411.3029996426776,"[39, 0, 215]",215,a,0.1980753573589027,colour,0.5
01,19,1,1,3,39,139,413.3174864486791,414.03106611128896,"[8, 0, 246]",246,a,0.19017758080735803,colour,0.5
01,19,1,1,3,40,140,416.02576613705605,416.7829094049521,"[58, 0, 196]",196,l,0.23371873702853918,colour,0.5
01,19,1,1,3,41,141,418.79134123562835,419.48695407644846,"[7, 0, 247]",247,a,0.17223478364758193,colour,0.5
01,19,1,1,3,42,142,421.49448203248903,422.21488151769154,"[78, 0, 176]",176,l,0.19701591413468122,colour,0.5
01,19,1,1,3,43,143,424.22889570938423,424.9109098650515,"[81, 0, 173]",173,l,0.15880269510671496,colour,0.5
01,19,1,1,3,44,144,426.9320404448081,427.8468627673574,"[70, 0, 184]",184,l,0.39155532978475094,colour,0.5
01,19,1,1,3,45,145,429.85387557395734,430.63086627423763,"[63, 0, 191]",191,l,0.2535551416222006,colour,0.5
01,19,1,1,3,46,146,432.65235328371637,433.4388888210524,"[9, 0, 245]",245,a,0.2631492093205452,colour,0.5
01,19,1,1,3,47,147,435.44923867774196,436.2628936038818,"[37, 0, 217]",217,a,0.2901547772344202,colour,0.5
01,19,1,1,3,48,148,438.2773756836541,439.0948702064343,"[32, 0, 222]",222,a,0.29415427474305034,colour,0.5
01,19,1,1,3,49,149,441.10540871485136,441.87087905057706,"[75, 0, 179]",179,l,0.24196427897550166,colour,0.5
01,19,1,1,3,50,150,443.8867553421296,444.6708415565081,"[16, 0, 238]",238,a,0.26089287060312927,colour,0.5
01,19,1,1,4,1,151,455.13585333828814,455.9748076952528,"[41, 0, 213]",213,a,0.3147807326167822,colour,0.5
01,19,1,1,4,2,152,457.9960591853596,458.81480613560416,"[60, 0, 194]",194,l,0.29573398758657277,colour,0.5
01,19,1,1,4,3,153,460.82412963174284,461.5348105940502,"[24, 0, 230]",230,a,0.1873415019363165,colour,0.5
01,19,1,1,4,4,154,463.5429297115188,464.2947915161494,"[36, 0, 218]",218,a,0.2285829964093864,colour,0.5
01,19,1,1,4,5,155,466.3084165889304,467.07081099413335,"[18, 0, 236]",236,a,0.23906912351958454,colour,0.5
01,19,1,1,4,6,156,469.0772909282241,470.0867837779224,"[68, 0, 186]",186,l,0.4861029773019254,colour,0.5
01,19,1,1,4,7,157,472.09293603291735,472.98275667172857,"[54, 0, 200]",200,a,0.3664768463931978,colour,0.5
01,19,1,1,4,8,158,474.99912999616936,475.7667920801323,"[69, 0, 185]",185,l,0.2443013561423868,colour,0.5
01,19,1,1,4,9,159,477.7892920593731,478.8147616311908,"[59, 0, 195]",195,a,0.5020694592967629,colour,0.5
01,19,1,1,4,10,160,480.8205980223138,481.56672937981784,"[34, 0, 220]",220,a,0.222769842017442,colour,0.5
01,19,1,1,4,11,161,483.5862168376334,484.3267382651102,"[26, 0, 228]",228,a,0.217484834138304,colour,0.5
01,19,1,1,4,12,162,486.3361385609023,487.07900021621026,"[81, 0, 173]",173,l,0.2193579615559429,colour,0.5
01,19,1,1,4,13,163,489.08613511477597,489.87072742008604,"[19, 0, 235]",235,a,0.2611023960635066,colour,0.5
01,19,1,1,4,14,164,491.8830307486933,492.7107179835439,"[88, 0, 166]",166,l,0.30438203923404217,colour,0.5
01,19,1,1,4,15,165,494.7267522071488,495.4866547542624,"[51, 0, 203]",203,a,0.23655205918475986,colour,0.5
01,19,1,1,4,16,166,497.5104693886824,498.1266672941856,"[2, 0, 252]",252,a,0.09288640832528472,colour,0.5
01,19,1,1,4,17,167,500.1354055365082,500.8786933319643,"[87, 0, 167]",167,l,0.2198581446427852,colour,0.5
01,19,1,1,4,18,168,502.88537491485476,503.5427229430061,"[85, 0, 169]",169,l,0.13394634029828012,colour,0.5
01,19,1,1,4,19,169,505.55733065935783,506.20667378464714,"[6, 0, 248]",248,a,0.12606313568539917,colour,0.5
01,19,1,1,4,20,170,508.21353220404126,508.8466934140306,"[90, 0, 164]",164,l,0.11006357055157423,colour,0.5
01,19,1,1,4,21,171,510.85413629957475,511.5187023275066,"[32, 0, 222]",222,a,0.14113755873404443,colour,0.5
01,19,1,1,4,22,172,513.5260912561789,514.7506617582403,"[72, 0, 182]",182,l,0.7013287153095007,colour,0.5
01,19,1,1,4,23,173,516.7603995795362,517.5108888335526,"[99, 0, 155]",155,l,0.22713561542332172,colour,0.5
01,19,1,1,4,24,174,519.5260652625002,520.1026628264226,"[31, 0, 223]",223,a,0.05325022689066827,colour,0.5
01,19,1,1,4,25,175,522.1197419210803,522.7507153211627,"[8, 0, 246]",246,a,0.10771310259588063,colour,0.5
01,19,1,1,4,26,176,524.7602999366354,525.3666918859817,"[30, 0, 224]",224,a,0.08294575707986951,colour,0.5
01,19,1,1,4,27,177,527.3855487976689,528.0306628136896,"[27, 0, 227]",227,a,0.1219880199059844,colour,0.5
01,19,1,1,4,28,178,530.0292154329363,530.8466772662941,"[50, 0, 204]",204,a,0.29435080336406827,colour,0.5
01,19,1,1,4,29,179,532.857371737482,533.5105930559803,"[11, 0, 243]",243,a,0.1299267567228526,colour,0.5
01,19,1,1,4,30,180,535.5291923929472,536.1426333824638,"[35, 0, 219]",219,a,0.09038588544353843,colour,0.5
01,19,1,1,4,31,181,538.154162411578,538.9906249102205,"[76, 0, 178]",178,l,0.31297534657642245,colour,0.5
01,19,1,1,4,32,182,540.9979338883422,541.8385991086252,"[96, 0, 158]",158,l,0.31733875698409975,colour,0.5
01,19,1,1,4,33,183,543.857220106991,544.6066239238717,"[47, 0, 207]",207,a,0.22603166732005775,colour,0.5
01,19,1,1,4,34,184,546.6104706095066,547.1346332060639,"[39, 0, 215]",215,a,0.0007691795472055674,colour,0.5
01,19,1,1,4,35,185,549.1573108094744,549.774566189386,"[10, 0, 244]",244,a,0.09388441196642816,colour,0.5
01,19,1,1,4,36,186,551.7840507682413,552.5746165227611,"[63, 0, 191]",191,a,0.26724362350068986,colour,0.5
01,19,1,1,4,37,187,554.5808948082849,555.9666188668925,"[95, 0, 159]",159,l,0.8626602899748832,colour,0.5
01,19,1,1,4,38,188,557.9856159875635,558.774527198635,"[78, 0, 176]",176,l,0.2655248832888901,colour,0.5
01,19,1,1,4,39,189,560.7825766059104,561.446503816871,"[48, 0, 206]",206,a,0.14061768306419253,colour,0.5
01,19,1,1,4,40,190,563.454373630695,564.2145369031932,"[17, 0, 237]",237,a,0.23681869241409004,colour,0.5
01,19,1,1,4,41,191,566.2355213663541,567.0465568285435,"[94, 0, 160]",160,l,0.2874849010258913,colour,0.5
01,19,1,1,4,42,192,569.0637209936976,569.814496179577,"[89, 0, 165]",165,l,0.2273632581345737,colour,0.5
01,19,1,1,4,43,193,571.8294008551165,572.6065061641857,"[44, 0, 210]",210,a,0.25439481949433684,colour,0.5
01,19,1,1,4,44,194,574.6262815229129,575.3665363169275,"[52, 0, 202]",202,a,0.21729696984402835,colour,0.5
01,19,1,1,4,45,195,577.3762524768244,578.1664889769163,"[45, 0, 209]",209,a,0.26687616598792374,colour,0.5
01,19,1,1,4,46,196,580.1736136355903,581.342508218484,"[73, 0, 181]",181,l,0.6455440949648619,colour,0.5
01,19,1,1,4,47,197,583.3611284294166,584.0304698296823,"[22, 0, 232]",232,a,0.14604289992712438,colour,0.5
01,19,1,1,4,48,198,586.0496158236638,587.0144852306694,"[67, 0, 187]",187,l,0.44041182030923665,colour,0.5
01,19,1,1,4,49,199,589.0323622555006,589.6304649459198,"[40, 0, 214]",214,a,0.0746718579903245,colour,0.5
01,19,1,1,4,50,200,591.6417151326314,592.5264149969444,"[92, 0, 162]",162,l,0.361718803178519,colour,0.5
01,19,1,1,5,1,201,621.4689096673392,622.366379172774,"[98, 0, 156]",156,l,0.37335810880176723,colour,0.4
01,19,1,1,5,2,202,624.3759783606511,625.1664681029506,"[22, 0, 232]",232,a,0.2672672541812062,colour,0.4
01,19,1,1,5,3,203,627.1727558407001,628.2063516194467,"[69, 0, 185]",185,l,0.5194010087288916,colour,0.4
01,19,1,1,5,4,204,630.2260966519825,631.0143418710213,"[18, 0, 236]",236,a,0.2654224836733192,colour,0.4
01,19,1,1,5,5,205,633.0324374800548,633.9423213785049,"[48, 0, 206]",206,a,0.3865212013479322,colour,0.4
01,19,1,1,5,6,206,635.9542659139261,636.7504620787222,"[57, 0, 197]",197,a,0.2727728155441582,colour,0.4
01,19,1,1,5,7,207,638.7667751447298,639.5263492248487,"[65, 0, 189]",189,a,0.23692975658923388,colour,0.4
01,19,1,1,5,8,208,641.5323348834645,642.2703408217058,"[97, 0, 157]",157,l,0.22087032673880458,colour,0.4
01,19,1,1,5,9,209,644.2917159793433,645.2944882554002,"[31, 0, 223]",223,a,0.4794974063988775,colour,0.4
01,19,1,1,5,10,210,647.307313428726,648.0143525048625,"[36, 0, 218]",218,a,0.19624043302610517,colour,0.4
01,19,1,1,5,11,211,650.0292311867233,650.7264158634935,"[14, 0, 240]",240,a,0.17400551144964993,colour,0.4
01,19,1,1,5,12,212,652.7479517098982,653.7742960115429,"[59, 0, 195]",195,a,0.5078810381237417,colour,0.4
01,19,1,1,5,13,213,655.789836747339,656.5183069070335,"[91, 0, 163]",163,l,0.20588097465224564,colour,0.4
01,19,1,1,5,14,214,658.5398325133137,659.2302639274858,"[21, 0, 233]",233,a,0.1670785630121827,colour,0.4
01,19,1,1,5,15,215,661.2430012733676,661.8862563404255,"[20, 0, 234]",234,a,0.11884356033988297,colour,0.4
01,19,1,1,5,16,216,663.9003949873149,664.5905483467504,"[47, 0, 207]",207,a,0.16688479133881629,colour,0.4
01,19,1,1,5,17,217,666.6034830089193,667.3983629432041,"[60, 0, 194]",194,a,0.2716881660744548,colour,0.4
01,19,1,1,5,18,218,669.415928436676,670.3583561533596,"[76, 0, 178]",178,l,0.41938403411768377,colour,0.4
01,19,1,1,5,19,219,672.3689805199392,673.0062129071448,"[95, 0, 159]",159,l,0.11374877952039242,colour,0.4
01,19,1,1,5,20,220,675.0253533874638,675.9342692145146,"[71, 0, 183]",183,a,0.3856043298728764,colour,0.4
01,19,1,1,5,21,221,677.9502475119662,678.9822490054648,"[77, 0, 177]",177,l,0.5087002362124622,colour,0.4
01,19,1,1,5,22,222,680.9970910598058,681.9582721067127,"[89, 0, 165]",165,l,0.4378041713498533,colour,0.4
01,19,1,1,5,23,223,683.9666086270008,684.4942126425449,"[58, 0, 196]",196,a,0.004355139564722776,colour,0.4
01,19,1,1,5,24,224,686.5134362240788,687.4542243634351,"[29, 0, 225]",225,a,0.41747664217837155,colour,0.4
01,19,1,1,5,25,225,689.4665119380224,690.6702082534321,"[99, 0, 155]",155,l,0.6803698521107435,colour,0.4
01,19,1,1,5,26,226,692.6791784705129,693.4702144763432,"[46, 0, 208]",208,a,0.2679753878619522,colour,0.4
01,19,1,1,5,27,227,695.489443965489,696.278190549463,"[4, 0, 250]",250,a,0.2652011427562684,colour,0.4
01,19,1,1,5,28,228,698.2866692475509,699.0622554959264,"[87, 0, 167]",167,l,0.25225860346108675,colour,0.4
01,19,1,1,5,29,229,701.0835038353689,701.9742299243808,"[16, 0, 238]",238,a,0.3672779274638742,colour,0.4
01,19,1,1,5,30,230,703.9897675092798,704.774165648967,"[82, 0, 172]",172,l,0.26106734410859644,colour,0.4
01,19,1,1,5,31,231,706.7866170632187,707.726163408719,"[75, 0, 179]",179,l,0.416206885362044,colour,0.4
01,19,1,1,5,32,232,709.7398168384098,710.5182159286924,"[90, 0, 164]",164,l,0.2550757776480168,colour,0.4
01,19,1,1,5,33,233,712.5374536886811,713.486182533903,"[64, 0, 190]",190,l,0.4262377272825688,colour,0.4
01,19,1,1,5,34,234,715.5054620413575,716.3021347587928,"[50, 0, 204]",204,a,0.2733954847790301,colour,0.4
01,19,1,1,5,35,235,718.3179212538525,719.0781132769771,"[70, 0, 184]",184,l,0.23716803290881217,colour,0.4
01,19,1,1,5,36,236,721.0886222468689,721.8382316511124,"[37, 0, 217]",217,a,0.22631562990136445,colour,0.4
01,19,1,1,5,37,237,723.8543844220694,724.5980963888578,"[8, 0, 246]",246,a,0.22043749107979238,colour,0.4
01,19,1,1,5,38,238,726.5943060230929,727.2061031032354,"[85, 0, 169]",169,l,0.08852929971180856,colour,0.4
01,19,1,1,5,39,239,729.2166467315983,730.0221518201288,"[42, 0, 212]",212,a,0.2822247052099556,colour,0.4
01,19,1,1,5,40,240,732.0316962634679,732.8064274739008,"[49, 0, 205]",205,a,0.25130983046256006,colour,0.4
01,19,1,1,5,41,241,734.8037016717717,735.7660898540635,"[56, 0, 198]",198,l,0.43897546688094735,colour,0.4
01,19,1,1,5,42,242,737.7724484840874,738.414095481392,"[83, 0, 171]",171,l,0.1307266561780125,colour,0.4
01,19,1,1,5,43,243,740.4337345696986,741.0541001446545,"[38, 0, 216]",216,a,0.09680083533748984,colour,0.4
01,19,1,1,5,44,244,743.0743575696833,743.7900588759221,"[73, 0, 181]",181,l,0.19228031998500228,colour,0.4
01,19,1,1,5,45,245,745.7961634756066,746.5100597895216,"[41, 0, 213]",213,a,0.19070178852416575,colour,0.4
01,19,1,1,5,46,246,748.5305361924693,749.2540927403606,"[3, 0, 251]",251,a,0.20018754922784865,colour,0.4
01,19,1,1,5,47,247,751.264917967841,751.9180282221641,"[88, 0, 166]",166,l,0.12979127396829426,colour,0.4
01,19,1,1,5,48,248,753.9367457127664,754.7260767626576,"[72, 0, 182]",182,l,0.2658891899045557,colour,0.4
01,19,1,1,5,49,249,756.7260799135547,757.4942189441063,"[79, 0, 175]",175,l,0.24480075179599226,colour,0.4
01,19,1,1,5,50,250,759.4948746962473,760.2383306636475,"[96, 0, 158]",158,l,0.22031815582886338,colour,0.4
01,19,1,1,6,1,251,768.4158508493565,769.2380360674579,"[35, 0, 219]",219,a,0.2964433026500046,colour,0.28
01,19,1,1,6,2,252,771.2482752536889,771.965979262488,"[59, 0, 195]",195,a,0.19433067785575986,colour,0.28
01,19,1,1,6,3,253,773.9826932628639,774.7019852551166,"[2, 0, 252]",252,a,0.19664451805874705,colour,0.28
01,19,1,1,6,4,254,776.717078976566,777.5580226453021,"[83, 0, 171]",171,l,0.3175923931412399,colour,0.28
01,19,1,1,6,5,255,779.57639473374,780.2140063936822,"[41, 0, 213]",213,a,0.1143072519917041,colour,0.28
01,19,1,1,6,6,256,782.2325966721401,783.7660177804064,"[88, 0, 166]",166,l,1.009995395783335,colour,0.28
01,19,1,1,6,7,257,785.7743787190411,787.5659661081154,"[71, 0, 183]",183,a,1.268211301183328,colour,0.28
01,19,1,1,6,8,258,789.5872321706265,790.437959740404,"[54, 0, 200]",200,a,0.32775950571522117,colour,0.28
01,19,1,1,6,9,259,792.4465467459522,792.9899171704892,"[30, 0, 224]",224,a,0.019999456591904163,colour,0.28
01,19,1,1,6,10,260,795.0090493799653,795.701953353826,"[38, 0, 216]",216,a,0.16949834767729044,colour,0.28
01,19,1,1,6,11,261,797.7060706110206,798.2859095204622,"[55, 0, 199]",199,a,0.05654198466800153,colour,0.28
01,19,1,1,6,12,262,800.299766961718,800.9099402183201,"[77, 0, 177]",177,l,0.0870874326210469,colour,0.28
01,19,1,1,6,13,263,802.9247397372965,803.613906514598,"[81, 0, 173]",173,l,0.1659009661525488,colour,0.28
01,19,1,1,6,14,264,805.6278919556644,806.3579012621194,"[76, 0, 178]",178,l,0.20677775982767344,colour,0.28
01,19,1,1,6,15,265,808.3778774817474,809.1179152673576,"[70, 0, 184]",184,l,0.21682671876624227,colour,0.28
01,19,1,1,6,16,266,811.1278555248864,811.9979417652357,"[65, 0, 189]",189,l,0.34683933365158737,colour,0.28
01,19,1,1,6,17,267,814.0184796079993,814.5419376157224,"[50, 0, 204]",204,a,0.0005234202835708857,colour,0.28
01,19,1,1,6,18,268,816.5659712280612,817.1979316039942,"[24, 0, 230]",230,a,0.10908210836350918,colour,0.28
01,19,1,1,6,19,269,819.2065954096615,819.7499414156191,"[60, 0, 194]",194,a,0.03249301225878298,colour,0.28
01,19,1,1,6,20,270,821.7566627766937,822.2859508742113,"[19, 0, 235]",235,a,0.005936034256592393,colour,0.28
01,19,1,1,6,21,271,824.3073236686178,825.3018823040184,"[94, 0, 160]",160,l,0.4713014888111502,colour,0.28
01,19,1,1,6,22,272,827.3128780666739,828.0699437470175,"[66, 0, 188]",188,a,0.23384358594194055,colour,0.28
01,19,1,1,6,23,273,830.0785925865639,830.7340513393283,"[62, 0, 192]",192,a,0.13240640563890338,colour,0.28
01,19,1,1,6,24,274,832.7504179682583,833.4378258329816,"[75, 0, 179]",179,l,0.16394434333778918,colour,0.28
01,19,1,1,6,25,275,835.4535721556749,836.5579001593869,"[74, 0, 180]",180,l,0.580947189591825,colour,0.28
01,19,1,1,6,26,276,838.5785935712047,839.1658686706796,"[98, 0, 156]",156,l,0.06421684473752975,colour,0.28
01,19,1,1,6,27,277,841.1600673317444,841.7418628640007,"[46, 0, 208]",208,a,0.0584194443654269,colour,0.28
01,19,1,1,6,28,278,843.7538121256512,844.4378018083517,"[86, 0, 168]",168,l,0.16061517037451267,colour,0.28
01,19,1,1,6,29,279,846.4568698210642,847.0298286497127,"[78, 0, 176]",176,l,0.04950160859152675,colour,0.28
01,19,1,1,6,30,280,849.0507260730956,850.0378083463293,"[14, 0, 240]",240,a,0.46461596759036183,colour,0.28
01,19,1,1,6,31,281,852.0432197786868,852.7899293007795,"[90, 0, 164]",164,l,0.22479656897485256,colour,0.28
01,19,1,1,6,32,282,854.8074120867532,855.4538194905035,"[58, 0, 196]",196,a,0.1234255547169596,colour,0.28
01,19,1,1,6,33,283,857.4636486838572,858.197801635135,"[84, 0, 170]",170,l,0.2108776879031211,colour,0.28
01,19,1,1,6,34,284,860.2135814346839,860.8298151802737,"[49, 0, 205]",205,a,0.09305261098779738,colour,0.28
01,19,1,1,6,35,285,862.8385967453942,863.613785604015,"[52, 0, 202]",202,a,0.2518092261161655,colour,0.28
01,19,1,1,6,36,286,865.6354368471075,866.4537635645829,"[69, 0, 185]",185,l,0.29523695493116975,colour,0.28
01,19,1,1,6,37,287,868.4635632194113,869.0777521210257,"[43, 0, 211]",211,a,0.0908364444039762,colour,0.28
01,19,1,1,6,38,288,871.0886025547516,871.8057835372165,"[99, 0, 155]",155,l,0.19465008634142578,colour,0.28
01,19,1,1,6,39,289,873.8229358871467,874.4457173082046,"[44, 0, 210]",210,a,0.09939981950446963,colour,0.28
01,19,1,1,6,40,290,876.4634442781098,877.0777308533434,"[72, 0, 182]",182,l,0.09079036442562938,colour,0.28
01,19,1,1,6,41,291,879.0780605017208,879.853769629728,"[68, 0, 186]",186,l,0.2524823076091707,colour,0.28
01,19,1,1,6,42,292,881.8750376615208,882.6137284964789,"[93, 0, 161]",161,l,0.2154667715076357,colour,0.28
01,19,1,1,6,43,293,884.6249314215966,885.2457329831086,"[82, 0, 172]",172,l,0.09745067963376641,colour,0.28
01,19,1,1,6,44,294,887.2682042119559,888.5098337226082,"[64, 0, 190]",190,a,0.718177804723382,colour,0.28
01,19,1,1,6,45,295,890.5182876086328,891.0696716001257,"[92, 0, 162]",162,l,0.02837299811653793,colour,0.28
01,19,1,1,6,46,296,893.0806492457632,893.7337516231928,"[79, 0, 175]",175,l,0.129656185163185,colour,0.28
01,19,1,1,6,47,297,895.7528826510534,896.7977077425458,"[63, 0, 191]",191,a,0.5214927203487605,colour,0.28
01,19,1,1,6,48,298,898.8153661834076,899.4696481269784,"[13, 0, 241]",241,a,0.13089916040189564,colour,0.28
01,19,1,1,6,49,299,901.4748657874297,902.1417090280447,"[56, 0, 198]",198,a,0.14351086970418692,colour,0.28
01,19,1,1,6,50,300,904.1623157938011,904.8137010061182,"[6, 0, 248]",248,a,0.1281922624912113,colour,0.28
01,19,1,1,7,1,301,912.7149112529587,913.5177484345622,"[60, 0, 194]",194,a,0.27866080054081976,colour,0.14
01,19,1,1,7,2,302,915.517003279645,916.4619764173403,"[69, 0, 185]",185,l,0.4216805452015251,colour,0.14
01,19,1,1,7,3,303,918.4722179665696,919.0216480921954,"[53, 0, 201]",201,a,0.026149348355829716,colour,0.14
01,19,1,1,7,4,304,921.022249493748,921.581637600204,"[55, 0, 199]",199,a,0.03609945229254663,colour,0.14
01,19,1,1,7,5,305,923.5909402226098,924.3656304732431,"[68, 0, 186]",186,l,0.2513799350708723,colour,0.14
01,19,1,1,7,6,306,926.3597011344973,926.9736340367235,"[9, 0, 245]",245,a,0.09056705422699451,colour,0.14
01,19,1,1,7,7,307,928.9853954343125,929.565658121137,"[13, 0, 241]",241,a,0.05679798382334411,colour,0.14
01,19,1,1,7,8,308,931.5792087572627,932.3095772506204,"[67, 0, 187]",187,l,0.20583765162155032,colour,0.14
01,19,1,1,7,9,309,934.3308314976748,935.0695995264687,"[83, 0, 171]",171,l,0.2247367047239095,colour,0.14
01,19,1,1,7,10,310,937.0746545288712,938.1496166507713,"[62, 0, 192]",192,l,0.5515789447817951,colour,0.14
01,19,1,1,7,11,311,940.168410153361,940.733760681469,"[93, 0, 161]",161,l,0.04188346187584102,colour,0.14
01,19,1,1,7,12,312,942.7449265853502,943.3575739769731,"[78, 0, 176]",176,l,0.08952415245585144,colour,0.14
01,19,1,1,7,13,313,945.3698016870767,946.0535625459161,"[50, 0, 204]",204,a,0.1605171028058976,colour,0.14
01,19,1,1,7,14,314,948.0730011670385,948.7415320340078,"[23, 0, 231]",231,a,0.14525087736546993,colour,0.14
01,19,1,1,7,15,315,950.760468502529,951.3655706087593,"[90, 0, 164]",164,l,0.08183668903075159,colour,0.14
01,19,1,1,7,16,316,953.3835220704786,954.1735506202094,"[44, 0, 210]",210,a,0.26659771730192006,colour,0.14
01,19,1,1,7,17,317,956.1791920582764,956.7975442968309,"[72, 0, 182]",182,l,0.09519709786400199,colour,0.14
01,19,1,1,7,18,318,958.8042057934217,959.3735093453433,"[51, 0, 203]",203,a,0.04602080537006259,colour,0.14
01,19,1,1,7,19,319,961.3846445290837,962.6855115005746,"[84, 0, 170]",170,l,0.7777004092931747,colour,0.14
01,19,1,1,7,20,320,964.6970452554524,965.4215056777466,"[61, 0, 193]",193,a,0.21034757210873067,colour,0.14
01,19,1,1,7,21,321,967.4378482822794,968.2694857839961,"[74, 0, 180]",180,l,0.3086083915550262,colour,0.14
01,19,1,1,7,22,322,970.2815134208649,971.0055228904821,"[58, 0, 196]",196,a,0.20123596489429474,colour,0.14
01,19,1,1,7,23,323,973.0159826297313,973.7014606534503,"[47, 0, 207]",207,a,0.16217361553572118,colour,0.14
01,19,1,1,7,24,324,975.7190608053934,976.4134791137185,"[80, 0, 174]",174,l,0.17110208491794765,colour,0.14
01,19,1,1,7,25,325,978.4241542865057,979.0695459635463,"[52, 0, 202]",202,a,0.12219360726885498,colour,0.14
01,19,1,1,7,26,326,981.076127903536,981.9094983239193,"[95, 0, 159]",159,l,0.310090824496001,colour,0.14
01,19,1,1,7,27,327,983.91981076519,984.8695813308004,"[59, 0, 195]",195,a,0.4264429206959903,colour,0.14
01,19,1,1,7,28,328,986.8885843590833,987.6534706223756,"[91, 0, 163]",163,l,0.2415857936721295,colour,0.14
01,19,1,1,7,29,329,989.6698021991178,990.4214690502267,"[85, 0, 169]",169,l,0.22840143367648125,colour,0.14
01,19,1,1,7,30,330,992.4280352364294,993.4294329930563,"[87, 0, 167]",167,l,0.4782162280753255,colour,0.14
01,19,1,1,7,31,331,995.4436492272653,996.0374633378815,"[86, 0, 168]",168,l,0.0704833148047328,colour,0.14
01,19,1,1,7,32,332,998.0530017104466,998.845433897106,"[76, 0, 178]",178,l,0.2691262031439692,colour,0.14
01,19,1,1,7,33,333,1000.8655763193965,1001.6694052033126,"[98, 0, 156]",156,l,0.27308474108576775,colour,0.14
01,19,1,1,7,34,334,1003.6854256421793,1004.2454242086969,"[97, 0, 157]",157,l,0.03659884794615209,colour,0.14
01,19,1,1,7,35,335,1006.2635225746781,1006.7976140072569,"[56, 0, 198]",198,a,0.010685806395485997,colour,0.14
01,19,1,1,7,36,336,1008.8103911315557,1009.4933879307937,"[64, 0, 190]",190,a,0.1597160219680518,colour,0.14
01,19,1,1,7,37,337,1011.5134783654939,1012.197367223911,"[96, 0, 158]",158,l,0.16044187848456204,colour,0.14
01,19,1,1,7,38,338,1014.2167318020947,1014.8054156857543,"[92, 0, 162]",162,l,0.06538814026862383,colour,0.14
01,19,1,1,7,39,339,1016.8260007901117,1018.7734397922177,"[70, 0, 184]",184,a,1.4241857940796763,colour,0.14
01,19,1,1,7,40,340,1020.7947645375971,1021.4053710238077,"[46, 0, 208]",208,l,0.08754271757788956,colour,0.14
01,19,1,1,7,41,341,1023.419751097681,1026.453375627054,"[75, 0, 179]",179,l,2.5103421765379608,colour,0.14
01,19,1,1,7,42,342,1028.4666742021218,1029.3333229620475,"[81, 0, 173]",173,l,0.34363540331833065,colour,0.14
01,19,1,1,7,43,343,1031.3415279379115,1031.9173137871549,"[36, 0, 218]",218,a,0.05267954524606466,colour,0.14
01,19,1,1,7,44,344,1033.935301876394,1034.9253281420097,"[77, 0, 177]",177,l,0.46663639321923256,colour,0.14
01,19,1,1,7,45,345,1036.9353924607858,1037.5892963130027,"[89, 0, 165]",165,l,0.1304627798963338,colour,0.14
01,19,1,1,7,46,346,1039.607270223787,1040.1573273511603,"[88, 0, 166]",166,l,0.026683796430006623,colour,0.14
01,19,1,1,7,47,347,1042.1698705311865,1043.0292851433624,"[66, 0, 188]",188,a,0.3363224866334349,colour,0.14
01,19,1,1,7,48,348,1045.044712845469,1045.5973543846048,"[57, 0, 197]",197,a,0.029400933999568224,colour,0.14
01,19,1,1,7,49,349,1047.6072418668773,1048.5972897938918,"[94, 0, 160]",160,l,0.4666592360008508,colour,0.14
01,19,1,1,7,50,350,1050.6072276886553,1051.4614159755874,"[82, 0, 172]",172,l,0.3308228328824043,colour,0.14
01,19,1,1,8,1,351,1059.6532295893412,1060.597238200251,"[78, 0, 176]",176,l,0.4198022976052016,colour,0.06
01,19,1,1,8,2,352,1062.6071406488772,1063.2452316184063,"[58, 0, 196]",196,a,0.11472354643046856,colour,0.06
01,19,1,1,8,3,353,1065.2634241133928,1066.021295207087,"[66, 0, 188]",188,a,0.2447137120179832,colour,0.06
01,19,1,1,8,4,354,1068.0364885712042,1068.741263431497,"[79, 0, 175]",175,l,0.181453910889104,colour,0.06
01,19,1,1,8,5,355,1070.7427218400408,1071.4932315743063,"[73, 0, 181]",181,l,0.22709780628792942,colour,0.06
01,19,1,1,8,6,356,1073.5084422675427,1074.5012943721376,"[69, 0, 185]",185,a,0.4695020103827119,colour,0.06
01,19,1,1,8,7,357,1076.5083729508333,1077.1492373780347,"[67, 0, 187]",187,a,0.11779002472758293,colour,0.06
01,19,1,1,8,8,358,1079.1616273524705,1079.8132445395458,"[84, 0, 170]",170,l,0.12848370801657438,colour,0.06
01,19,1,1,8,9,359,1081.833553952165,1082.4452265771106,"[85, 0, 169]",169,l,0.08834734302945435,colour,0.06
01,19,1,1,8,10,360,1084.4552952281665,1085.0852013081312,"[57, 0, 197]",197,a,0.10670879762619734,colour,0.06
01,19,1,1,8,11,361,1087.0960737972055,1087.7252173926681,"[99, 0, 155]",155,l,0.1057651445735246,colour,0.06
01,19,1,1,8,12,362,1089.7366700156126,1090.813187038293,"[97, 0, 157]",157,l,0.5518550304695964,colour,0.06
01,19,1,1,8,13,363,1092.8317970091011,1093.621179652866,"[87, 0, 167]",167,l,0.26604121434502304,colour,0.06
01,19,1,1,8,14,364,1095.628611904569,1096.3971861340106,"[83, 0, 171]",171,l,0.2457518877927214,colour,0.06
01,19,1,1,8,15,365,1098.4010513301473,1101.4131541915704,"[98, 0, 156]",156,l,2.488752373494208,colour,0.06
01,19,1,1,8,16,366,1103.4334206751082,1104.0371431417298,"[56, 0, 198]",198,a,0.08090445748530328,colour,0.06
01,19,1,1,8,17,367,1106.0597045610193,1107.0291413899977,"[60, 0, 194]",194,a,0.4538407581858337,colour,0.06
01,19,1,1,8,18,368,1109.036309765419,1109.693162336247,"[50, 0, 204]",204,a,0.13353792275302112,colour,0.06
01,19,1,1,8,19,369,1111.7082068270538,1112.445140718948,"[92, 0, 162]",162,l,0.21364641934633255,colour,0.06
01,19,1,1,8,20,370,1114.458193928469,1115.1891287711915,"[64, 0, 190]",190,a,0.20771353598684072,colour,0.06
01,19,1,1,8,21,371,1117.2093621718232,1117.9411201507319,"[81, 0, 173]",173,l,0.20846578013151884,colour,0.06
01,19,1,1,8,22,372,1119.9592504182365,1120.7171786194667,"[88, 0, 166]",166,l,0.23441308620385826,colour,0.06
01,19,1,1,8,23,373,1122.7250145624857,1123.477152058389,"[93, 0, 161]",161,l,0.22888310626149178,colour,0.06
01,19,1,1,8,24,374,1125.490518375067,1126.3090821872465,"[55, 0, 199]",199,a,0.2950636630412191,colour,0.06
01,19,1,1,8,25,375,1128.318599061342,1129.1731335383374,"[75, 0, 179]",179,l,0.33115760143846273,colour,0.06
01,19,1,1,8,26,376,1131.1936095473357,1131.9970981490333,"[71, 0, 183]",183,l,0.2784004688728601,colour,0.06
01,19,1,1,8,27,377,1134.0038321132306,1135.8771144067869,"[70, 0, 184]",184,a,1.349920384120196,colour,0.06
01,19,1,1,8,28,378,1137.8944120856468,1138.5010970556177,"[90, 0, 164]",164,l,0.08340576803311706,colour,0.06
01,19,1,1,8,29,379,1140.519450633321,1141.1090801393148,"[89, 0, 165]",165,l,0.0663778732996434,colour,0.06
01,19,1,1,8,30,380,1143.1287909070961,1143.893044655444,"[65, 0, 189]",189,a,0.24112814594991505,colour,0.06
01,19,1,1,8,31,381,1145.9006852512248,1146.5330233245622,"[80, 0, 174]",174,l,0.10897419485263526,colour,0.06
01,19,1,1,8,32,382,1148.5413488172926,1149.5090290969238,"[63, 0, 191]",191,a,0.4443423948250711,colour,0.06
01,19,1,1,8,33,383,1151.525729706511,1152.173079187749,"[77, 0, 177]",177,l,0.12320382008329034,colour,0.06
01,19,1,1,8,34,384,1154.1840627409983,1154.7809964991175,"[86, 0, 168]",168,l,0.07409251178614795,colour,0.06
01,19,1,1,8,35,385,1156.7947940761223,1157.4530432217289,"[61, 0, 193]",193,a,0.13513614633120596,colour,0.06
01,19,1,1,8,36,386,1159.4666281223763,1160.1330558562186,"[62, 0, 192]",192,a,0.14301935071125627,colour,0.06
01,19,1,1,8,37,387,1162.15410766704,1162.7889990385156,"[95, 0, 159]",159,l,0.11152316047810018,colour,0.06
01,19,1,1,8,38,388,1164.7979991878383,1165.4369971829,"[23, 0, 231]",231,a,0.11581331584602594,colour,0.06
01,19,1,1,8,39,389,1167.4543342462275,1168.284981227247,"[72, 0, 182]",182,l,0.30644539394415915,colour,0.06
01,19,1,1,8,40,390,1170.2985543126706,1170.940980729647,"[74, 0, 180]",180,l,0.11933271610178053,colour,0.06
01,19,1,1,8,41,391,1172.954848017078,1173.740988921607,"[96, 0, 158]",158,l,0.26276009040884674,colour,0.06
01,19,1,1,8,42,392,1175.7515778420493,1176.5009844158776,"[91, 0, 163]",163,l,0.22655587526969612,colour,0.06
01,19,1,1,8,43,393,1178.5202375359368,1179.277059820015,"[42, 0, 212]",212,a,0.2335025160573423,colour,0.06
01,19,1,1,8,44,394,1181.285788609879,1181.9409145636018,"[53, 0, 201]",201,a,0.13178373663686216,colour,0.06
01,19,1,1,8,45,395,1183.9575478255283,1184.692947690608,"[82, 0, 172]",172,l,0.21137826493941247,colour,0.06
01,19,1,1,8,46,396,1186.7076759238262,1187.3490176911,"[54, 0, 200]",200,a,0.11796489194966853,colour,0.06
01,19,1,1,8,47,397,1189.3639066130854,1190.0289846395608,"[76, 0, 178]",178,l,0.1416704310104251,colour,0.06
01,19,1,1,8,48,398,1192.045860904036,1192.6049374791328,"[94, 0, 160]",160,l,0.03592261578887701,colour,0.06
01,19,1,1,8,49,399,1194.6239802855998,1195.1729858464096,"[12, 0, 242]",242,a,0.025727934204041958,colour,0.06
01,19,1,1,8,50,400,1197.1792767348234,1197.828879010398,"[52, 0, 202]",202,a,0.12640814413316548,colour,0.06
01,19,1,1,9,1,401,1207.7989452038892,1208.6288600270636,"[99, 0, 155]",155,l,0.3057140235323459,colour,0.06
01,19,1,1,9,2,402,1210.6434661680833,1211.4368947830517,"[56, 0, 198]",198,a,0.27105289371684194,colour,0.06
01,19,1,1,9,3,403,1213.4560155710205,1214.0850059608929,"[75, 0, 179]",179,l,0.10575332934968174,colour,0.06
01,19,1,1,9,4,404,1216.0969650687184,1216.8209182184655,"[78, 0, 176]",176,l,0.2007771353237331,colour,0.06
01,19,1,1,9,5,405,1218.8313149425667,1219.604861072963,"[63, 0, 191]",191,a,0.2502740176860243,colour,0.06
01,19,1,1,9,6,406,1221.6125390841626,1222.2848524400033,"[82, 0, 172]",172,l,0.14908141526393592,colour,0.06
01,19,1,1,9,7,407,1224.3000387148932,1224.9808607012965,"[55, 0, 199]",199,a,0.15749394753947854,colour,0.06
01,19,1,1,9,8,408,1226.987446973566,1227.6687915925868,"[85, 0, 169]",169,l,0.1583292931318283,colour,0.06
01,19,1,1,9,9,409,1229.6749962288886,1230.4288540405687,"[72, 0, 182]",182,l,0.23061011731624603,colour,0.06
01,19,1,1,9,10,410,1232.4311702437699,1234.3488471561577,"[97, 0, 157]",157,l,1.394288221374154,colour,0.06
01,19,1,1,9,11,411,1236.3686422070023,1237.5728304351214,"[65, 0, 189]",189,a,0.680856644641608,colour,0.06
01,19,1,1,9,12,412,1239.5885279211216,1240.3729575683828,"[53, 0, 201]",201,a,0.26158170588314533,colour,0.06
01,19,1,1,9,13,413,1242.3853900779504,1243.3728500485886,"[96, 0, 158]",158,l,0.4642461468465626,colour,0.06
01,19,1,1,9,14,414,1245.3853652656544,1246.1568586754147,"[68, 0, 186]",186,a,0.2481634016148746,colour,0.06
01,19,1,1,9,15,415,1248.1590027683415,1248.9247834540438,"[93, 0, 161]",161,l,0.24246879457496107,colour,0.06
01,19,1,1,9,16,416,1250.9428696108516,1251.6768027965445,"[57, 0, 197]",197,a,0.21062405151315033,colour,0.06
01,19,1,1,9,17,417,1253.6928429277614,1254.2927340690512,"[67, 0, 187]",187,a,0.0766320254188031,colour,0.06
01,19,1,1,9,18,418,1256.302222586237,1257.028744787909,"[58, 0, 196]",196,a,0.20321661210618913,colour,0.06
01,19,1,1,9,19,419,1259.0365149588324,1259.9887777764816,"[91, 0, 163]",163,l,0.42877842229790986,colour,0.06
01,19,1,1,9,20,420,1262.0067768935114,1263.0768194955308,"[94, 0, 160]",160,l,0.5466113758739084,colour,0.06
01,19,1,1,9,21,421,1265.0849464901257,1265.7007088030223,"[88, 0, 166]",166,l,0.09238031739369035,colour,0.06
01,19,1,1,9,22,422,1267.7099172964226,1268.3647230539937,"[64, 0, 190]",190,a,0.1313591713551432,colour,0.06
01,19,1,1,9,23,423,1270.381821447052,1270.980760664679,"[59, 0, 195]",195,a,0.07523426902480423,colour,0.06
01,19,1,1,9,24,424,1272.9914890064392,1273.9486953681335,"[9, 0, 245]",245,a,0.43387556611560285,colour,0.06
01,19,1,1,9,25,425,1275.9613161359448,1276.7887119255029,"[87, 0, 167]",167,l,0.30422331974841654,colour,0.06
01,19,1,1,9,26,426,1278.805079342099,1279.5887083020061,"[76, 0, 178]",178,l,0.2602591735776514,colour,0.06
01,19,1,1,9,27,427,1281.6042206808925,1282.2606829511933,"[62, 0, 192]",192,a,0.13391640805639327,colour,0.06
01,19,1,1,9,28,428,1284.2637297371402,1285.076689132955,"[70, 0, 184]",184,l,0.28963726479560137,colour,0.06
01,19,1,1,9,29,429,1287.0918092417996,1287.724685307825,"[95, 0, 159]",159,l,0.10947831650264561,colour,0.06
01,19,1,1,9,30,430,1289.7324479955714,1290.4366970728152,"[81, 0, 173]",173,l,0.18089386308565736,colour,0.06
01,19,1,1,9,31,431,1292.4510972327553,1293.1167164028157,"[48, 0, 206]",206,a,0.14216273766942322,colour,0.06
01,19,1,1,9,32,432,1295.1230364358053,1295.932629243238,"[89, 0, 165]",165,l,0.2861686705145985,colour,0.06
01,19,1,1,9,33,433,1297.951106488239,1298.6686316912528,"[73, 0, 181]",181,l,0.19451932958327234,colour,0.06
01,19,1,1,9,34,434,1300.6855138635729,1301.428651604103,"[74, 0, 180]",180,l,0.2198597202077508,colour,0.06
01,19,1,1,9,35,435,1303.4356695308816,1304.156822047662,"[71, 0, 183]",183,l,0.19798477296717465,colour,0.06
01,19,1,1,9,36,436,1306.169862654293,1306.9326536615845,"[60, 0, 194]",194,a,0.23945075925439596,colour,0.06
01,19,1,1,9,37,437,1308.9510340206325,1309.628613479901,"[77, 0, 177]",177,l,0.1540513471700251,colour,0.06
01,19,1,1,9,38,438,1311.6385950914118,1312.3326171915978,"[79, 0, 175]",175,l,0.17156091472133994,colour,0.06
01,19,1,1,9,39,439,1314.3416760237888,1315.0606312786695,"[66, 0, 188]",188,a,0.19573316047899425,colour,0.06
01,19,1,1,9,40,440,1317.0635559726506,1317.788579987362,"[69, 0, 185]",185,a,0.2016380806453526,colour,0.06
01,19,1,1,9,41,441,1319.797978707822,1320.4846134546679,"[54, 0, 200]",200,a,0.16328937886282802,colour,0.06
01,19,1,1,9,42,442,1322.5010186803993,1323.1726069673896,"[84, 0, 170]",170,l,0.14812082704156637,colour,0.06
01,19,1,1,9,43,443,1325.1885399727616,1325.7806672444567,"[90, 0, 164]",164,l,0.06865508574992418,colour,0.06
01,19,1,1,9,44,444,1327.7986829029396,1328.476583346026,"[83, 0, 171]",171,l,0.1544893030077219,colour,0.06
01,19,1,1,9,45,445,1330.487295146333,1331.2525626518764,"[61, 0, 193]",193,a,0.2422793551813811,colour,0.06
01,19,1,1,9,46,446,1333.268702425994,1333.8765303345863,"[7, 0, 247]",247,a,0.08458690973930061,colour,0.06
01,19,1,1,9,47,447,1335.8937027705833,1336.5885708502028,"[80, 0, 174]",174,l,0.17163968365639448,colour,0.06
01,19,1,1,9,48,448,1338.5967667675577,1339.2925422664266,"[52, 0, 202]",202,a,0.17243918939493597,colour,0.06
01,19,1,1,9,49,449,1341.3000174472108,1341.9325847388245,"[86, 0, 168]",168,l,0.10925973276607692,colour,0.06
01,19,1,1,9,50,450,1343.9405293830205,1344.6445386083797,"[51, 0, 203]",203,a,0.18062959285452962,colour,0.06
01,19,1,1,10,1,451,1352.4240258929785,1353.3725223694928,"[58, 0, 196]",196,a,0.42430946161039174,colour,0.06
01,19,1,1,10,2,452,1355.3937045428902,1356.0205307535361,"[79, 0, 175]",175,l,0.10369036835618317,colour,0.06
01,19,1,1,10,3,453,1358.0341097465716,1358.8765338792,"[66, 0, 188]",188,a,0.3191543829161674,colour,0.06
01,19,1,1,10,4,454,1360.8862102604471,1361.5644714657683,"[45, 0, 209]",209,a,0.15488984365947545,colour,0.06
01,19,1,1,10,5,455,1363.5738382847048,1364.300828768406,"[92, 0, 162]",162,l,0.20366874639876187,colour,0.06
01,19,1,1,10,6,456,1366.3081995802931,1367.1804330642335,"[80, 0, 174]",174,l,0.3488416422624141,colour,0.06
01,19,1,1,10,7,457,1369.1986582484096,1370.348455674015,"[67, 0, 187]",187,a,0.626386285526678,colour,0.06
01,19,1,1,10,8,458,1372.3549399406184,1373.100483681308,"[72, 0, 182]",182,l,0.22215465595945716,colour,0.06
01,19,1,1,10,9,459,1375.1205552113242,1375.8764102116693,"[85, 0, 169]",169,l,0.23245685710571706,colour,0.06
01,19,1,1,10,10,460,1377.877038788516,1378.9166178626474,"[65, 0, 189]",189,l,0.5166665418073535,colour,0.06
01,19,1,1,10,11,461,1380.923894545529,1381.5564397815615,"[51, 0, 203]",203,a,0.1091864772606641,colour,0.06
01,19,1,1,10,12,462,1383.5646034039091,1384.7564248943236,"[68, 0, 186]",186,l,0.6689959981013089,colour,0.06
01,19,1,1,10,13,463,1386.7675801641308,1387.4763954819646,"[70, 0, 184]",184,a,0.1854124483652413,colour,0.06
01,19,1,1,10,14,464,1389.4863420410547,1390.1244448260404,"[64, 0, 190]",190,a,0.11477553378790617,colour,0.06
01,19,1,1,10,15,465,1392.1435187463649,1392.7643971077632,"[75, 0, 179]",179,l,0.09763893764466047,colour,0.06
01,19,1,1,10,16,466,1394.7841334757395,1396.2204134664498,"[69, 0, 185]",185,a,0.9130082719493657,colour,0.06
01,19,1,1,10,17,467,1398.224728433881,1399.0203952707816,"[73, 0, 181]",181,l,0.27229074900969863,colour,0.06
01,19,1,1,10,18,468,1401.0371573201846,1401.7723724718671,"[74, 0, 180]",180,l,0.21181228221394122,colour,0.06
01,19,1,1,10,19,469,1403.7871641141828,1404.5084036707412,"[62, 0, 192]",192,a,0.19799855770543218,colour,0.06
01,19,1,1,10,20,470,1406.5215218649246,1407.2123959609307,"[93, 0, 161]",161,l,0.1675929247867316,colour,0.06
01,19,1,1,10,21,471,1409.224714255426,1409.9086279261392,"[60, 0, 194]",194,a,0.16072268993593752,colour,0.06
01,19,1,1,10,22,472,1411.9278026709799,1412.6043455298059,"[97, 0, 157]",157,l,0.15337747824378312,colour,0.06
01,19,1,1,10,23,473,1414.6152507080697,1415.3244007942267,"[63, 0, 191]",191,a,0.1857318568509072,colour,0.06
01,19,1,1,10,24,474,1417.3340515755117,1417.9883327314164,"[84, 0, 170]",170,l,0.13116264273412526,colour,0.06
01,19,1,1,10,25,475,1420.0078898998909,1420.652327683987,"[86, 0, 168]",168,l,0.12110580690205097,colour,0.06
01,19,1,1,10,26,476,1422.6593897212297,1423.2603603918105,"[52, 0, 202]",202,a,0.07769028726033866,colour,0.06
01,19,1,1,10,27,477,1425.2687697734218,1425.9643026636913,"[90, 0, 164]",164,l,0.1722233621403575,colour,0.06
01,19,1,1,10,28,478,1427.971880244324,1428.636329300236,"[57, 0, 197]",197,a,0.141227355459705,colour,0.06
01,19,1,1,10,29,479,1430.6402598747518,1431.2603473949712,"[61, 0, 193]",193,a,0.09763263608328998,colour,0.06
01,19,1,1,10,30,480,1433.2807607827708,1434.0523026352748,"[82, 0, 172]",172,l,0.24814843549393117,colour,0.06
01,19,1,1,10,31,481,1436.0620577856898,1436.9085062281229,"[91, 0, 163]",163,l,0.3231239481829107,colour,0.06
01,19,1,1,10,32,482,1438.92149957316,1440.0683136219159,"[94, 0, 160]",160,l,0.6235706866718829,colour,0.06
01,19,1,1,10,33,483,1442.07771864417,1443.0523428076413,"[76, 0, 178]",178,l,0.45145641965791583,colour,0.06
01,19,1,1,10,34,484,1445.062003041152,1445.780287184054,"[78, 0, 176]",176,l,0.19535546307452023,colour,0.06
01,19,1,1,10,35,485,1447.7963966319803,1448.4363276460208,"[77, 0, 177]",177,l,0.11693341145291924,colour,0.06
01,19,1,1,10,36,486,1450.452612749068,1450.9802656013053,"[98, 0, 156]",156,l,0.004288186086341739,colour,0.06
01,19,1,1,10,37,487,1452.9994084446225,1453.5962642212398,"[96, 0, 158]",158,l,0.0733768951613456,colour,0.06
01,19,1,1,10,38,488,1455.6088062198833,1456.3482733238488,"[55, 0, 199]",199,a,0.2255842594895512,colour,0.06
01,19,1,1,10,39,489,1458.365006228676,1459.044235111447,"[54, 0, 200]",200,a,0.1558374350424856,colour,0.06
01,19,1,1,10,40,490,1461.0625181905925,1463.7242004845757,"[71, 0, 183]",183,a,2.1383503167890012,colour,0.06
01,19,1,1,10,41,491,1465.7343380586244,1466.548307273304,"[95, 0, 159]",159,l,0.29048836417496204,colour,0.06
01,19,1,1,10,42,492,1468.562516024569,1469.140228170203,"[89, 0, 165]",165,l,0.056551436660811305,colour,0.06
01,19,1,1,10,43,493,1471.1417354156729,1471.8761853261385,"[83, 0, 171]",171,l,0.21109981648623943,colour,0.06
01,19,1,1,10,44,494,1473.8791761861648,1474.5882077249698,"[59, 0, 195]",195,a,0.18566214619204402,colour,0.06
01,19,1,1,10,45,495,1476.5979301861953,1477.3323225954082,"[81, 0, 173]",173,l,0.2110210475511849,colour,0.06
01,19,1,1,10,46,496,1479.339524447685,1480.2202007900923,"[50, 0, 204]",204,a,0.3575649184640497,colour,0.06
01,19,1,1,10,47,497,1482.2302599889226,1483.1882103243843,"[53, 0, 201]",201,a,0.4345624321140349,colour,0.06
01,19,1,1,10,48,498,1485.1990071951877,1485.8682887309697,"[25, 0, 229]",229,a,0.1459566478151828,colour,0.06
01,19,1,1,10,49,499,1487.8865300628822,1488.4121817878913,"[10, 0, 244]",244,a,0.0023382585495710373,colour,0.06
01,19,1,1,10,50,500,1490.4334419427905,1491.1721642853227,"[99, 0, 155]",155,l,0.21548567595891654,colour,0.06
01,19,1,1,11,1,501,1498.8544119910803,1499.6761620105244,"[90, 0, 164]",164,l,0.29756654892116785,colour,0.06
01,19,1,1,11,2,502,1501.683375678258,1502.8604575141799,"[73, 0, 181]",181,l,0.6538605291862041,colour,0.06
01,19,1,1,11,3,503,1504.8708120968658,1506.5720900062006,"[98, 0, 156]",156,l,1.1880716907326132,colour,0.06
01,19,1,1,11,4,504,1508.5671937232837,1509.3561309282668,"[94, 0, 160]",160,l,0.26570487045682967,colour,0.06
01,19,1,1,11,5,505,1511.3639814436901,1512.1560926465318,"[64, 0, 190]",190,a,0.2687465366907418,colour,0.06
01,19,1,1,11,6,506,1514.1774595333263,1515.0601173106115,"[82, 0, 172]",172,l,0.35945537500083447,colour,0.06
01,19,1,1,11,7,507,1517.0680528965313,1517.660079343943,"[54, 0, 200]",200,a,0.066438919166103,colour,0.06
01,19,1,1,11,8,508,1519.6804171134718,1520.3161064153537,"[79, 0, 175]",175,l,0.11243294295854867,colour,0.06
01,19,1,1,11,9,509,1522.3366052675992,1523.0041282847524,"[87, 0, 167]",167,l,0.1443383381702006,colour,0.06
01,19,1,1,11,10,510,1525.024105685996,1525.7160652191378,"[66, 0, 188]",188,a,0.16862046672031283,colour,0.06
01,19,1,1,11,11,511,1527.7272169445641,1528.3320650206879,"[99, 0, 155]",155,l,0.0817035692743957,colour,0.06
01,19,1,1,11,12,512,1530.352200353751,1531.2600169589277,"[52, 0, 202]",202,a,0.38458427088335156,colour,0.06
01,19,1,1,11,13,513,1533.2740583261475,1533.844060165342,"[77, 0, 177]",177,l,0.04663362819701433,colour,0.06
01,19,1,1,11,14,514,1535.842071247287,1536.4200177309103,"[50, 0, 204]",204,a,0.05618397914804518,colour,0.06
01,19,1,1,11,15,515,1538.4348712067585,1539.188062238507,"[86, 0, 168]",168,l,0.2296979718375951,colour,0.06
01,19,1,1,11,16,516,1541.2005936033092,1541.7960086944513,"[59, 0, 195]",195,a,0.0720984737854451,colour,0.06
01,19,1,1,11,17,517,1543.809938209597,1544.3879981206264,"[58, 0, 196]",196,a,0.05481773056089878,colour,0.06
01,19,1,1,11,18,518,1546.4036428313702,1547.01201424608,"[62, 0, 192]",192,a,0.08502132073044777,colour,0.06
01,19,1,1,11,19,519,1549.03016263037,1549.6520527799148,"[57, 0, 197]",197,a,0.09851878765039146,colour,0.06
01,19,1,1,11,20,520,1551.6708951194305,1552.2839836175554,"[67, 0, 187]",187,a,0.08982111164368689,colour,0.06
01,19,1,1,11,21,521,1554.2957398951985,1555.0280264143366,"[76, 0, 178]",178,l,0.2088702591136098,colour,0.06
01,19,1,1,11,22,522,1557.045766381314,1557.6280554013792,"[84, 0, 170]",170,l,0.059675810392946005,colour,0.06
01,19,1,1,11,23,523,1559.6395288982894,1560.1640038138721,"[51, 0, 203]",203,a,0.001945988740772009,colour,0.06
01,19,1,1,11,24,524,1562.1863911536057,1563.1239828455728,"[55, 0, 199]",199,a,0.4142376594245434,colour,0.06
01,19,1,1,11,25,525,1565.1417039080989,1565.907976506278,"[60, 0, 194]",194,a,0.2429469225462526,colour,0.06
01,19,1,1,11,26,526,1567.9229879139457,1568.7719384545926,"[80, 0, 174]",174,l,0.3256429817993194,colour,0.06
01,19,1,1,11,27,527,1570.7722259615548,1571.3880733449478,"[92, 0, 162]",162,l,0.09262568294070661,colour,0.06
01,19,1,1,11,28,528,1573.397152657155,1574.084018591093,"[96, 0, 158]",158,l,0.16353631974197924,colour,0.06
01,19,1,1,11,29,529,1576.0940707006957,1576.9638922770973,"[69, 0, 185]",185,l,0.3465927867218852,colour,0.06
01,19,1,1,11,30,530,1578.9827956624795,1579.8359225369059,"[70, 0, 184]",184,l,0.3298000171780586,colour,0.06
01,19,1,1,11,31,531,1581.8420586443972,1582.3879547975957,"[89, 0, 165]",165,l,0.022429874865338206,colour,0.06
01,19,1,1,11,32,532,1584.4046731302515,1585.1159035062883,"[21, 0, 233]",233,a,0.1878936728462577,colour,0.06
01,19,1,1,11,33,533,1587.1233444227837,1587.9802478782367,"[63, 0, 191]",191,a,0.33349585998803377,colour,0.06
01,19,1,1,11,34,534,1589.998333641095,1590.867939390475,"[74, 0, 180]",180,l,0.3462769228499383,colour,0.06
01,19,1,1,11,35,535,1592.8889837181196,1593.531993025681,"[91, 0, 163]",163,l,0.11968914582394063,colour,0.06
01,19,1,1,11,36,536,1595.5451986535918,1596.2279016443063,"[53, 0, 201]",201,a,0.1596214990131557,colour,0.06
01,19,1,1,11,37,537,1598.249318155693,1598.8838995711412,"[61, 0, 193]",193,a,0.11115885409526527,colour,0.06
01,19,1,1,11,38,538,1600.9010156872682,1601.5558844599873,"[95, 0, 159]",159,l,0.14393464685417712,colour,0.06
01,19,1,1,11,39,539,1603.5761040758807,1604.275920032058,"[88, 0, 166]",166,l,0.17644223128445446,colour,0.06
01,19,1,1,11,40,540,1606.2947840329725,1607.0438806507736,"[71, 0, 183]",183,l,0.22594777843914926,colour,0.06
01,19,1,1,11,41,541,1609.0604524728842,1609.7078271603677,"[85, 0, 169]",169,l,0.12421009433455765,colour,0.06
01,19,1,1,11,42,542,1611.7166043932084,1612.5318547862116,"[68, 0, 186]",186,a,0.29185973294079304,colour,0.06
01,19,1,1,11,43,543,1614.5447677869815,1615.2118595438078,"[97, 0, 157]",157,l,0.1440338958054781,colour,0.06
01,19,1,1,11,44,544,1617.2197911911644,1617.8278487115167,"[6, 0, 248]",248,a,0.08457154966890812,colour,0.06
01,19,1,1,11,45,545,1619.844889997039,1620.7798051175196,"[72, 0, 182]",182,l,0.4118206319399178,colour,0.06
01,19,1,1,11,46,546,1622.7987451306544,1623.4918334239628,"[81, 0, 173]",173,l,0.16968345479108393,colour,0.06
01,19,1,1,11,47,547,1625.5019174350891,1626.2597975872923,"[24, 0, 230]",230,a,0.234641122398898,colour,0.06
01,19,1,1,11,48,548,1628.2674157337751,1628.9238244411536,"[56, 0, 198]",198,a,0.1329459734261036,colour,0.06
01,19,1,1,11,49,549,1630.9393167337403,1631.571796197677,"[83, 0, 171]",171,l,0.10985325719229877,colour,0.06
01,19,1,1,11,50,550,1633.5730100285728,1634.1318274533842,"[65, 0, 189]",189,a,0.035574850626289845,colour,0.06
01,19,1,1,12,1,551,1642.1691367977764,1643.2357797287405,"[97, 0, 157]",157,l,0.5429194716271013,colour,0.06
01,19,1,1,12,2,552,1645.2480684849434,1645.9877742589451,"[83, 0, 171]",171,l,0.21628912002779543,colour,0.06
01,19,1,1,12,3,553,1648.0010547172278,1648.5637432460207,"[63, 0, 191]",191,a,0.03998670377768576,colour,0.06
01,19,1,1,12,4,554,1650.567160246428,1651.1957410373725,"[33, 0, 221]",221,a,0.10541501641273499,colour,0.06
01,19,1,1,12,5,555,1653.207665486727,1653.8277234686539,"[71, 0, 183]",183,l,0.09656137740239501,colour,0.06
01,19,1,1,12,6,556,1655.8482183823362,1656.4757578466088,"[54, 0, 200]",200,a,0.10412950557656586,colour,0.06
01,19,1,1,12,7,557,1658.4888933699112,1659.0597226778045,"[35, 0, 219]",219,a,0.047448887722566724,colour,0.06
01,19,1,1,12,8,558,1661.063966753194,1661.7397089248989,"[72, 0, 182]",182,l,0.1524487913120538,colour,0.06
01,19,1,1,12,9,559,1663.7509937698487,1664.9157214711886,"[79, 0, 175]",175,l,0.6413138045463711,colour,0.06
01,19,1,1,12,10,560,1666.9229603449348,1667.58765555406,"[73, 0, 181]",181,l,0.14137189649045467,colour,0.06
01,19,1,1,12,11,561,1669.5972405632492,1671.4756621422712,"[74, 0, 180]",180,l,1.355147497029975,colour,0.06
01,19,1,1,12,12,562,1673.4848485803232,1674.8436871939339,"[61, 0, 193]",193,a,0.8354786734562367,colour,0.06
01,19,1,1,12,13,563,1676.8598923464306,1677.627729691565,"[52, 0, 202]",202,a,0.24451994034461677,colour,0.06
01,19,1,1,12,14,564,1679.6411090048496,1680.267674490111,"[58, 0, 196]",196,a,0.1035434640944004,colour,0.06
01,19,1,1,12,15,565,1682.2825575042516,1683.5876744585112,"[91, 0, 163]",163,l,0.7816813956014812,colour,0.06
01,19,1,1,12,16,566,1685.5852334063966,1686.6436800260562,"[59, 0, 195]",195,a,0.5351981376297772,colour,0.06
01,19,1,1,12,17,567,1688.6508783337194,1689.2756809680723,"[92, 0, 162]",162,l,0.10126270679756999,colour,0.06
01,19,1,1,12,18,568,1691.2915127552114,1692.0516283723991,"[65, 0, 189]",189,a,0.2367285017389804,colour,0.06
01,19,1,1,12,19,569,1694.0728290565312,1694.723743624054,"[50, 0, 204]",204,a,0.12838879134505987,colour,0.06
01,19,1,1,12,20,570,1696.7447036688682,1697.6516739008948,"[93, 0, 161]",161,l,0.3839655399788171,colour,0.06
01,19,1,1,12,21,571,1699.6664824783802,1700.2916320902295,"[62, 0, 192]",192,a,0.10182984382845461,colour,0.06
01,19,1,1,12,22,572,1702.3105216911063,1702.9315717690624,"[64, 0, 190]",190,a,0.09795165085233748,colour,0.06
01,19,1,1,12,23,573,1704.950963128591,1706.1636300550308,"[67, 0, 187]",187,l,0.6891900142654777,colour,0.06
01,19,1,1,12,24,574,1708.1698264207225,1708.7876607528888,"[53, 0, 201]",201,a,0.09455276723019779,colour,0.06
01,19,1,1,12,25,575,1710.7947767470032,1711.7795963794924,"[90, 0, 164]",164,l,0.4618464482482523,colour,0.06
01,19,1,1,12,26,576,1713.7869506499264,1714.5155996154062,"[77, 0, 177]",177,l,0.21785386698320508,colour,0.06
01,19,1,1,12,27,577,1716.5244276544545,1718.547556210542,"[69, 0, 185]",185,l,1.499777280492708,colour,0.06
01,19,1,1,12,28,578,1720.5578087873291,1721.3235461502336,"[84, 0, 170]",170,l,0.24258852354250848,colour,0.06
01,19,1,1,12,29,579,1723.3391841654666,1724.2115673106164,"[68, 0, 186]",186,l,0.3493997207842767,colour,0.06
01,19,1,1,12,30,580,1726.2297814672347,1726.923562140204,"[95, 0, 159]",159,l,0.17047153878957033,colour,0.06
01,19,1,1,12,31,581,1728.9230131201912,1729.691636973992,"[60, 0, 194]",194,a,0.24529305822215974,colour,0.06
01,19,1,1,12,32,582,1731.7041970896535,1732.3635230078362,"[75, 0, 179]",179,l,0.13594589196145535,colour,0.06
01,19,1,1,12,33,583,1734.3761449570302,1734.9555553630926,"[96, 0, 158]",158,l,0.05614183796569705,colour,0.06
01,19,1,1,12,34,584,1736.9697692343034,1737.8195303082466,"[94, 0, 160]",160,l,0.3263971952255815,colour,0.06
01,19,1,1,12,35,585,1739.8291684866417,1740.523571828846,"[99, 0, 155]",155,l,0.17102528526447713,colour,0.06
01,19,1,1,12,36,586,1742.5323222803418,1743.1795126481447,"[55, 0, 199]",199,a,0.12390210735611618,colour,0.06
01,19,1,1,12,37,587,1745.1885517879855,1746.1554995158222,"[78, 0, 176]",176,l,0.443666162667796,colour,0.06
01,19,1,1,12,38,588,1748.173498632852,1748.8996084784158,"[56, 0, 198]",198,a,0.2029810925014317,colour,0.06
01,19,1,1,12,39,589,1750.908284886973,1751.5634947298095,"[87, 0, 167]",167,l,0.13188534858636558,colour,0.06
01,19,1,1,12,40,590,1753.5801409885753,1754.3634989832062,"[76, 0, 178]",178,l,0.26002956205047667,colour,0.06
01,19,1,1,12,41,591,1756.3770125978626,1757.131491109496,"[66, 0, 188]",188,l,0.2312871371395886,colour,0.06
01,19,1,1,12,42,592,1759.141546369996,1759.9074794738553,"[98, 0, 156]",156,l,0.24254086846485734,colour,0.06
01,19,1,1,12,43,593,1761.9242946922313,1762.5714748201426,"[80, 0, 174]",174,l,0.12388989818282425,colour,0.06
01,19,1,1,12,44,594,1764.5825847978704,1765.195488582598,"[89, 0, 165]",165,l,0.08767701871693134,colour,0.06
01,19,1,1,12,45,595,1767.209352325648,1767.8194602036383,"[82, 0, 172]",172,l,0.08674872550182045,colour,0.06
01,19,1,1,12,46,596,1769.8343802392483,1770.3874672173988,"[88, 0, 166]",166,l,0.029683714965358377,colour,0.06
01,19,1,1,12,47,597,1772.3970648297109,1773.115465156734,"[86, 0, 168]",168,l,0.1950451130978763,colour,0.06
01,19,1,1,12,48,598,1775.1316616444383,1775.7874618610367,"[51, 0, 203]",203,a,0.1332082743756473,colour,0.06
01,19,1,1,12,49,599,1777.8059139000252,1778.5634498314466,"[81, 0, 173]",173,l,0.2342783911153674,colour,0.06
01,19,1,1,12,50,600,1780.5605416789185,1781.2035620142706,"[18, 0, 236]",236,a,0.11992269614711404,colour,0.06
01,19,1,1,13,1,601,1789.387854367029,1790.1714266133495,"[97, 0, 157]",157,l,0.2597704117652029,colour,0.06
01,19,1,1,13,2,602,1792.1791763042565,1792.7793970939238,"[51, 0, 203]",203,a,0.07756110606715083,colour,0.06
01,19,1,1,13,3,603,1794.7885512367357,1795.4353969900403,"[50, 0, 204]",204,a,0.12357206526212394,colour,0.06
01,19,1,1,13,4,604,1797.4448059506249,1798.0833750481252,"[75, 0, 179]",179,l,0.11542498460039496,colour,0.06
01,19,1,1,13,5,605,1800.1009610216133,1800.8114300949965,"[94, 0, 160]",160,l,0.18700949056074023,colour,0.06
01,19,1,1,13,6,606,1802.8197611013893,1804.0913382030558,"[69, 0, 185]",185,l,0.7482612722087651,colour,0.06
01,19,1,1,13,7,607,1806.1011540056206,1807.0513503176626,"[41, 0, 213]",213,a,0.4267906858585775,colour,0.06
01,19,1,1,13,8,608,1809.0698606458027,1809.819336142391,"[83, 0, 171]",171,l,0.22609428875148296,colour,0.06
01,19,1,1,13,9,609,1811.8354696149472,1812.539308305597,"[88, 0, 166]",166,l,0.1805204979609698,colour,0.06
01,19,1,1,13,10,610,1814.5542047105264,1815.5554795872886,"[74, 0, 180]",180,l,0.4779326596762985,colour,0.06
01,19,1,1,13,11,611,1817.5697919197846,1818.2353701298125,"[78, 0, 176]",176,l,0.1422371743246913,colour,0.06
01,19,1,1,13,12,612,1820.2343008401804,1821.043366288999,"[63, 0, 191]",191,a,0.2858402037527412,colour,0.06
01,19,1,1,13,13,613,1823.0581799864303,1823.691379005555,"[77, 0, 177]",177,l,0.10888282302767038,colour,0.06
01,19,1,1,13,14,614,1825.7023818572052,1826.4356234509032,"[53, 0, 201]",201,a,0.21023099403828382,colour,0.06
01,19,1,1,13,15,615,1828.4524571802467,1829.1553211039864,"[86, 0, 168]",168,l,0.17979779210872948,colour,0.06
01,19,1,1,13,16,616,1831.1717688648496,1831.8192841550335,"[66, 0, 188]",188,a,0.12463702261447906,colour,0.06
01,19,1,1,13,17,617,1833.8278652529698,1834.8112922492437,"[70, 0, 184]",184,l,0.46033802162855864,colour,0.06
01,19,1,1,13,18,618,1836.8278920343146,1837.4832858028822,"[15, 0, 239]",239,a,0.13235875056125224,colour,0.06
01,19,1,1,13,19,619,1839.4997875206172,1840.6512765111402,"[65, 0, 189]",189,l,0.628276348579675,colour,0.06
01,19,1,1,13,20,620,1842.6716020714957,1843.3232558863238,"[80, 0, 174]",174,l,0.128356889821589,colour,0.06
01,19,1,1,13,21,621,1845.3438079075422,1846.04324459075,"[82, 0, 172]",172,l,0.17614999832585454,colour,0.06
01,19,1,1,13,22,622,1848.0625154338777,1848.7952442411333,"[99, 0, 155]",155,l,0.20936847338452935,colour,0.06
01,19,1,1,13,23,623,1850.8148774215952,1851.3953035541344,"[93, 0, 161]",161,l,0.05707525089383125,colour,0.06
01,19,1,1,13,24,624,1853.408574166242,1854.2352448869497,"[76, 0, 178]",178,l,0.30337379570119083,colour,0.06
01,19,1,1,13,25,625,1856.2541809615213,1857.0592287960462,"[58, 0, 196]",196,a,0.28167056501843035,colour,0.06
01,19,1,1,13,26,626,1859.0667728998233,1860.683200811036,"[60, 0, 194]",194,a,1.093231416773051,colour,0.06
01,19,1,1,13,27,627,1862.6917594599072,1863.315236411523,"[89, 0, 165]",165,l,0.10019932501018047,colour,0.06
01,19,1,1,13,28,628,1865.3292175203096,1865.9631542111747,"[56, 0, 198]",198,a,0.11084102070890367,colour,0.06
01,19,1,1,13,29,629,1867.9697522989009,1868.8751920487266,"[67, 0, 187]",187,l,0.3819266038481146,colour,0.06
01,19,1,1,13,30,630,1870.891673680395,1871.5391704596113,"[95, 0, 159]",159,l,0.12416992196813226,colour,0.06
01,19,1,1,13,31,631,1873.547917760443,1874.187203262234,"[52, 0, 202]",202,a,0.11588420788757503,colour,0.06
01,19,1,1,13,32,632,1876.2041854711715,1876.971168959979,"[68, 0, 186]",186,l,0.2437196469400078,colour,0.06
01,19,1,1,13,33,633,1878.985455692513,1879.6112000106368,"[54, 0, 200]",200,a,0.1024867775849998,colour,0.06
01,19,1,1,13,34,634,1881.6260664833244,1883.4992329864763,"[62, 0, 192]",192,l,1.3499117195606232,colour,0.06
01,19,1,1,13,35,635,1885.5165818652604,1886.211143927183,"[73, 0, 181]",181,l,0.1714262196328491,colour,0.06
01,19,1,1,13,36,636,1888.2198018250056,1888.9071352530736,"[81, 0, 173]",173,l,0.16403650306165218,colour,0.06
01,19,1,1,13,37,637,1890.9118038935121,1891.7391189448535,"[90, 0, 164]",164,l,0.3039413266815245,colour,0.06
01,19,1,1,13,38,638,1893.7555434689857,1894.7151723722927,"[64, 0, 190]",190,a,0.4363095292355865,colour,0.06
01,19,1,1,13,39,639,1896.7242229336407,1897.5871388292871,"[46, 0, 208]",208,a,0.33953508152626455,colour,0.06
01,19,1,1,13,40,640,1899.5992538996506,1900.3231558497064,"[96, 0, 158]",158,l,0.20055618812330067,colour,0.06
01,19,1,1,13,41,641,1902.329199009575,1903.0351124762092,"[59, 0, 195]",195,a,0.18284575967118144,colour,0.06
01,19,1,1,13,42,642,1905.047865575878,1905.8191762412898,"[85, 0, 169]",169,l,0.24781406088732183,colour,0.06
01,19,1,1,13,43,643,1907.819968657801,1908.5711034240667,"[87, 0, 167]",167,l,0.22776340460404754,colour,0.06
01,19,1,1,13,44,644,1910.5731904094573,1911.4194084524643,"[98, 0, 156]",156,l,0.3218467084225267,colour,0.06
01,19,1,1,13,45,645,1913.429220316466,1914.2110836687498,"[61, 0, 193]",193,a,0.2591571949888021,colour,0.06
01,19,1,1,13,46,646,1916.2212047013454,1917.2350826228503,"[72, 0, 182]",182,a,0.49049198743887246,colour,0.06
01,19,1,1,13,47,647,1919.252500818111,1920.0190416250844,"[84, 0, 170]",170,l,0.24310918687842786,colour,0.06
01,19,1,1,13,48,648,1922.0337044799235,1922.8030494642444,"[79, 0, 175]",175,l,0.24592636129818857,colour,0.06
01,19,1,1,13,49,649,1924.8161664768122,1925.507034271257,"[92, 0, 162]",162,l,0.16755866026505828,colour,0.06
01,19,1,1,13,50,650,1927.5067514902912,1928.1310137691908,"[57, 0, 197]",197,a,0.100776701932773,colour,0.06
01,19,1,1,14,1,651,1936.3184726370964,1937.2111297487281,"[76, 0, 178]",178,l,0.36843780148774385,colour,0.06
01,19,1,1,14,2,652,1939.2255263642874,1939.8590629084501,"[94, 0, 160]",160,l,0.11030736076645553,colour,0.06
01,19,1,1,14,3,653,1941.86630532681,1942.6269963518716,"[84, 0, 170]",170,l,0.23747247527353466,colour,0.06
01,19,1,1,14,4,654,1944.6474054071587,1945.411001434084,"[54, 0, 200]",200,a,0.24031288642436266,colour,0.06
01,19,1,1,14,5,655,1947.4287024103105,1948.291078737937,"[70, 0, 184]",184,l,0.3391223319340497,colour,0.06
01,19,1,1,14,6,656,1950.303615222685,1950.8989779325202,"[89, 0, 165]",165,l,0.07200592034496367,colour,0.06
01,19,1,1,14,7,657,1952.912952345796,1953.6989735213574,"[71, 0, 183]",183,l,0.2625931000802666,colour,0.06
01,19,1,1,14,8,658,1955.7099039056338,1956.3469850562979,"[92, 0, 162]",162,l,0.11387717304751277,colour,0.06
01,19,1,1,14,9,659,1958.3660601582378,1959.0109741010237,"[20, 0, 234]",234,a,0.12157684564590454,colour,0.06
01,19,1,1,14,10,660,1961.0129547484685,1962.0030782937538,"[68, 0, 186]",186,l,0.467043629148975,colour,0.06
01,19,1,1,14,11,661,1964.012907880824,1964.7308990026359,"[86, 0, 168]",168,l,0.1946587509009987,colour,0.06
01,19,1,1,14,12,662,1966.7472258531488,1967.746983638499,"[65, 0, 189]",189,a,0.47638918040320277,colour,0.06
01,19,1,1,14,13,663,1969.762838662602,1970.7629599669017,"[50, 0, 204]",204,a,0.47681492706760764,colour,0.06
01,19,1,1,14,14,664,1972.7785274838097,1973.5469008521177,"[15, 0, 239]",239,a,0.24516190774738789,colour,0.06
01,19,1,1,14,15,665,1975.5597067270428,1976.5949042739812,"[62, 0, 192]",192,a,0.5119600924663246,colour,0.06
01,19,1,1,14,16,666,1978.6066806376912,1979.4349133481737,"[51, 0, 203]",203,a,0.3049180624075234,colour,0.06
01,19,1,1,14,17,667,1981.4503166317008,1982.203124846099,"[98, 0, 156]",156,l,0.2293884097598493,colour,0.06
01,19,1,1,14,18,668,1984.2159452934284,1984.986902285833,"[99, 0, 155]",155,l,0.24756239401176572,colour,0.06
01,19,1,1,14,19,669,1986.9971934594214,1987.9628989996854,"[78, 0, 176]",176,l,0.44250392564572394,colour,0.06
01,19,1,1,14,20,670,1989.9815432350151,1990.634868528461,"[95, 0, 159]",159,l,0.12991848587989807,colour,0.06
01,19,1,1,14,21,671,1992.6534174534027,1993.3548989805859,"[74, 0, 180]",180,l,0.17810977157205343,colour,0.06
01,19,1,1,14,22,672,1995.372142702574,1996.1068718493916,"[61, 0, 193]",193,l,0.21143340319395065,colour,0.06
01,19,1,1,14,23,673,1998.110009219963,1998.730911212042,"[91, 0, 163]",163,l,0.09753732569515705,colour,0.06
01,19,1,1,14,24,674,2000.7506676658522,2001.3308622175828,"[82, 0, 172]",172,l,0.05673181777819991,colour,0.06
01,19,1,1,14,25,675,2003.3444321521092,2004.6188595111016,"[64, 0, 190]",190,a,0.7512103845365345,colour,0.06
01,19,1,1,14,26,676,2006.6268541736063,2007.3628861601464,"[75, 0, 179]",179,l,0.21296388539485633,colour,0.06
01,19,1,1,14,27,677,2009.3767514785286,2010.2428472798783,"[72, 0, 182]",182,l,0.342871343716979,colour,0.06
01,19,1,1,14,28,678,2012.2516820142046,2012.9148215348832,"[60, 0, 194]",194,a,0.13973468216136098,colour,0.06
01,19,1,1,14,29,679,2014.923607826233,2015.66691373894,"[39, 0, 215]",215,a,0.21988886478357017,colour,0.06
01,19,1,1,14,30,680,2017.6735397896264,2018.4267938365228,"[57, 0, 197]",197,a,0.22992167598567903,colour,0.06
01,19,1,1,14,31,681,2020.4393114168197,2021.1467963256873,"[97, 0, 157]",157,l,0.18415411305613816,colour,0.06
01,19,1,1,14,32,682,2023.158096136758,2023.9628084152937,"[93, 0, 161]",161,l,0.281375969061628,colour,0.06
01,19,1,1,14,33,683,2025.9581626178697,2026.7627933702897,"[85, 0, 169]",169,l,0.2812117354478687,colour,0.06
01,19,1,1,14,34,684,2028.7698861274403,2029.546813418623,"[55, 0, 199]",199,a,0.25369535060599446,colour,0.06
01,19,1,1,14,35,685,2031.566667940002,2032.9948209363502,"[67, 0, 187]",187,a,0.9037619694136083,colour,0.06
01,19,1,1,14,36,686,2034.999068162404,2035.6109184115194,"[58, 0, 196]",196,a,0.08850527508184314,colour,0.06
01,19,1,1,14,37,687,2037.6178524489515,2038.146746701328,"[83, 0, 171]",171,l,0.0055240720976144075,colour,0.06
01,19,1,1,14,38,688,2040.1666902317666,2040.9307706879918,"[69, 0, 185]",185,l,0.24074178375303745,colour,0.06
01,19,1,1,14,39,689,2042.9507047662046,2043.6427611852996,"[90, 0, 164]",164,l,0.16954363975673914,colour,0.06
01,19,1,1,14,40,690,2045.6530476328917,2047.4027602244169,"[63, 0, 191]",191,a,1.226393217453733,colour,0.06
01,19,1,1,14,41,691,2049.4186089467257,2050.1068033203483,"[56, 0, 198]",198,a,0.16492895619012415,colour,0.06
01,19,1,1,14,42,692,2052.109277061885,2052.7547254525125,"[81, 0, 173]",173,l,0.12145475368015468,colour,0.06
01,19,1,1,14,43,693,2054.7663584565744,2055.4110360923223,"[73, 0, 181]",181,l,0.12134605250321329,colour,0.06
01,19,1,1,14,44,694,2057.422625379637,2058.1226831567474,"[77, 0, 177]",177,l,0.17673367680981755,colour,0.06
01,19,1,1,14,45,695,2060.1413762287702,2060.8347067369614,"[53, 0, 201]",201,a,0.16990518965758383,colour,0.06
01,19,1,1,14,46,696,2062.844561530277,2063.4586941117886,"[96, 0, 158]",158,l,0.09102942841127515,colour,0.06
01,19,1,1,14,47,697,2065.4696705760434,2066.10668398533,"[79, 0, 175]",175,l,0.11232384783215821,colour,0.06
01,19,1,1,14,48,698,2068.125533020124,2068.9306856174953,"[88, 0, 166]",166,l,0.2818206201773137,colour,0.06
01,19,1,1,14,49,699,2070.9380127124023,2071.8587293217424,"[66, 0, 188]",188,l,0.39741338277235627,colour,0.06
01,19,1,1,14,50,700,2073.875567383133,2074.538694694871,"[87, 0, 167]",167,l,0.13980399910360575,colour,0.06
01,19,1,1,15,1,701,2083.2827315838076,2084.250796256354,"[64, 0, 190]",190,a,0.443960758857429,colour,0.06
01,19,1,1,15,2,702,2086.267984446138,2087.0106602064334,"[71, 0, 183]",183,l,0.21939261979423463,colour,0.06
01,19,1,1,15,3,703,2089.016574579058,2089.626629682025,"[84, 0, 170]",170,l,0.08675699634477496,colour,0.06
01,19,1,1,15,4,704,2091.641717101913,2092.282648482593,"[56, 0, 198]",198,a,0.11839300161227584,colour,0.06
01,19,1,1,15,5,705,2094.2978969849646,2095.0345941761043,"[67, 0, 187]",187,l,0.21327108494006097,colour,0.06
01,19,1,1,15,6,706,2097.0486394816544,2097.706620024983,"[81, 0, 173]",173,l,0.1353693027049303,colour,0.06
01,19,1,1,15,7,707,2099.7216936601326,2100.474602698814,"[69, 0, 185]",185,l,0.22986850677989423,colour,0.06
01,19,1,1,15,8,708,2102.487305780174,2103.2026156042702,"[53, 0, 201]",201,a,0.1923082829453051,colour,0.06
01,19,1,1,15,9,709,2105.2216694387607,2105.8745886778925,"[85, 0, 169]",169,l,0.1295719020999968,colour,0.06
01,19,1,1,15,10,710,2107.885691172676,2108.538572208956,"[94, 0, 160]",160,l,0.12971565569750965,colour,0.06
01,19,1,1,15,11,711,2110.5574263636954,2111.2666063820943,"[73, 0, 181]",181,l,0.1858992411289364,colour,0.06
01,19,1,1,15,12,712,2113.276201631408,2113.9385471604764,"[82, 0, 172]",172,l,0.1390950777567923,colour,0.06
01,19,1,1,15,13,713,2115.947972662514,2116.7625397341326,"[95, 0, 159]",159,l,0.29033830924890935,colour,0.06
01,19,1,1,15,14,714,2118.7768953896593,2119.7545994219836,"[57, 0, 197]",197,a,0.45460363617166877,colour,0.06
01,19,1,1,15,15,715,2121.7612609188072,2122.4265571357682,"[11, 0, 243]",243,a,0.14242818928323686,colour,0.06
01,19,1,1,15,16,716,2124.4331784602255,2125.2025466815103,"[72, 0, 182]",182,l,0.24642811994999647,colour,0.06
01,19,1,1,15,17,717,2127.21360624698,2129.3145530901384,"[89, 0, 165]",165,l,1.577644010540098,colour,0.06
01,19,1,1,15,18,718,2131.3230050068814,2132.4265220835805,"[20, 0, 234]",234,a,0.5825847978703678,colour,0.06
01,19,1,1,15,19,719,2134.4456625636667,2135.202493906254,"[74, 0, 180]",180,l,0.23349818377755582,colour,0.06
01,19,1,1,15,20,720,2137.201069762232,2137.762524374062,"[51, 0, 203]",203,a,0.03812933014705777,colour,0.06
01,19,1,1,15,21,721,2139.779142276151,2140.4105126720387,"[78, 0, 176]",176,l,0.10784819140098989,colour,0.06
01,19,1,1,15,22,722,2142.4201295829844,2143.1546161212027,"[75, 0, 179]",179,l,0.22343662194907665,colour,0.06
01,19,1,1,15,23,723,2145.173434042139,2145.94646226638,"[70, 0, 184]",184,l,0.2501759503502399,colour,0.06
01,19,1,1,15,24,724,2147.9541576064657,2148.5784687222913,"[88, 0, 166]",166,l,0.10083853569813073,colour,0.06
01,19,1,1,15,25,725,2150.594819203485,2151.2345261196606,"[83, 0, 171]",171,l,0.11633634218014777,colour,0.06
01,19,1,1,15,26,726,2153.251020354219,2153.9944759279024,"[50, 0, 204]",204,a,0.22011571959592402,colour,0.06
01,19,1,1,15,27,727,2155.9975904554594,2156.6664541214705,"[77, 0, 177]",177,l,0.1454363784287125,colour,0.06
01,19,1,1,15,28,728,2158.685091661522,2159.338443342829,"[65, 0, 189]",189,a,0.12998859025537968,colour,0.06
01,19,1,1,15,29,729,2161.3570300766733,2162.1704526343383,"[68, 0, 186]",186,l,0.2900224451441318,colour,0.06
01,19,1,1,15,30,730,2164.1832758383825,2164.962511455873,"[76, 0, 178]",178,l,0.25590245868079364,colour,0.06
01,19,1,1,15,31,731,2166.981488884194,2167.6904700107407,"[97, 0, 157]",157,l,0.1859587114304304,colour,0.06
01,19,1,1,15,32,732,2169.7013858228456,2170.4104067278095,"[90, 0, 164]",164,l,0.18567159841768444,colour,0.06
01,19,1,1,15,33,733,2172.420208745869,2173.0264140123036,"[91, 0, 163]",163,l,0.08328800834715366,colour,0.06
01,19,1,1,15,34,734,2175.0468589076772,2175.706397108501,"[16, 0, 238]",238,a,0.13618613756261766,colour,0.06
01,19,1,1,15,35,735,2177.7187358830124,2178.8423859295435,"[66, 0, 188]",188,a,0.600674499059096,colour,0.06
01,19,1,1,15,36,736,2180.8593504154123,2181.658421255881,"[80, 0, 174]",174,l,0.2805138418916613,colour,0.06
01,19,1,1,15,37,737,2183.6669779357035,2184.3703814272303,"[58, 0, 196]",196,a,0.18002700991928577,colour,0.06
01,19,1,1,15,38,738,2186.385752809467,2187.0423497746233,"[59, 0, 195]",195,a,0.13324214494787157,colour,0.06
01,19,1,1,15,39,739,2189.057548652636,2189.698371332139,"[99, 0, 155]",155,l,0.11736545944586396,colour,0.06
01,19,1,1,15,40,740,2191.715895865811,2192.6343722837046,"[62, 0, 192]",192,a,0.39519642828963697,colour,0.06
01,19,1,1,15,41,741,2194.6443668920547,2195.3063473266084,"[92, 0, 162]",162,l,0.13889027829281986,colour,0.06
01,19,1,1,15,42,742,2197.3162328395993,2198.034342508996,"[55, 0, 199]",199,a,0.19476272608153522,colour,0.06
01,19,1,1,15,43,743,2200.0505807443988,2200.8583917962387,"[79, 0, 175]",175,l,0.28422661987133324,colour,0.06
01,19,1,1,15,44,744,2202.8812588392757,2203.5383177849,"[61, 0, 193]",193,a,0.13360999641008675,colour,0.06
01,19,1,1,15,45,745,2205.553263420472,2206.61032921914,"[63, 0, 191]",191,a,0.5338326764758676,colour,0.06
01,19,1,1,15,46,746,2208.620234424481,2209.3383444875944,"[60, 0, 194]",194,a,0.19479895965196192,colour,0.06
01,19,1,1,15,47,747,2211.3546165938023,2211.930295316968,"[93, 0, 161]",161,l,0.0523329614661634,colour,0.06
01,19,1,1,15,48,748,2213.9482589878608,2214.546317567583,"[86, 0, 168]",168,l,0.07458206149749458,colour,0.06
01,19,1,1,15,49,749,2216.557679606136,2217.090298451949,"[98, 0, 156]",156,l,0.009330191649496555,colour,0.06
01,19,1,1,15,50,750,2219.1044926310424,2219.7143645957112,"[96, 0, 158]",158,l,0.08677314384840429,colour,0.06
01,19,1,1,16,1,751,2227.3721686964855,2228.586367286509,"[89, 0, 165]",165,l,0.690087981056422,colour,0.06
01,19,1,1,16,2,752,2230.60810517543,2231.6422629712615,"[76, 0, 178]",178,l,0.5106820650398731,colour,0.06
01,19,1,1,16,3,753,2233.654232712928,2234.330269086873,"[50, 0, 204]",204,a,0.15273275366052985,colour,0.06
01,19,1,1,16,4,754,2236.3425507538486,2237.106574496487,"[74, 0, 180]",180,l,0.24067719327285886,colour,0.06
01,19,1,1,16,5,755,2239.1238410614897,2239.89026922849,"[58, 0, 196]",196,a,0.2431438451167196,colour,0.06
01,19,1,1,16,6,756,2241.9050179414917,2242.5222489030566,"[94, 0, 160]",160,l,0.09406676236540079,colour,0.06
01,19,1,1,16,7,757,2244.5320698255673,2245.226188417757,"[24, 0, 230]",230,a,0.17107687890529633,colour,0.06
01,19,1,1,16,8,758,2247.2371510975063,2247.8901959734503,"[57, 0, 197]",197,a,0.1297290464863181,colour,0.06
01,19,1,1,16,9,759,2249.9090198022313,2250.5462781831156,"[85, 0, 169]",169,l,0.11394176376052201,colour,0.06
01,19,1,1,16,10,760,2252.565241039032,2253.2582005450968,"[73, 0, 181]",181,l,0.1698941618669778,colour,0.06
01,19,1,1,16,11,761,2255.2683901067358,2255.8742054665927,"[56, 0, 198]",198,a,0.08240185678005219,colour,0.06
01,19,1,1,16,12,762,2257.8933144393377,2258.546200201614,"[77, 0, 177]",177,l,0.12970147700980306,colour,0.06
01,19,1,1,16,13,763,2260.565198897617,2261.362504130462,"[71, 0, 183]",183,l,0.2742812423966825,colour,0.06
01,19,1,1,16,14,764,2263.37770852237,2264.746176255867,"[95, 0, 159]",159,l,0.8452290976420045,colour,0.06
01,19,1,1,16,15,765,2266.752649100963,2267.426171167521,"[99, 0, 155]",155,l,0.15016015712171793,colour,0.06
01,19,1,1,16,16,766,2269.440122737782,2270.0341837895103,"[98, 0, 156]",156,l,0.07064203475601971,colour,0.06
01,19,1,1,16,17,767,2272.0496638729237,2272.658170770388,"[90, 0, 164]",164,l,0.08526865555904806,colour,0.06
01,19,1,1,16,18,768,2274.67456299928,2275.3941558895167,"[80, 0, 174]",174,l,0.19636449427343905,colour,0.06
01,19,1,1,16,19,769,2277.4089262639172,2278.1541970698163,"[63, 0, 191]",191,a,0.22193016414530575,colour,0.06
01,19,1,1,16,20,770,2280.1745628023054,2280.9141429397278,"[66, 0, 188]",188,a,0.21628793864510953,colour,0.06
01,19,1,1,16,21,771,2282.9120165698696,2283.6101326902863,"[96, 0, 158]",158,l,0.17477784166112542,colour,0.06
01,19,1,1,16,22,772,2285.630790655967,2286.394455605652,"[60, 0, 194]",194,a,0.2410253523848951,colour,0.06
01,19,1,1,16,23,773,2288.4119832899887,2289.146126789041,"[83, 0, 171]",171,l,0.21069218683987856,colour,0.06
01,19,1,1,16,24,774,2291.1620211976115,2292.12210420426,"[64, 0, 190]",190,a,0.4367140082176775,colour,0.06
01,19,1,1,16,25,775,2294.130696723936,2294.986163432244,"[54, 0, 200]",200,a,0.3317393106408417,colour,0.06
01,19,1,1,16,26,776,2297.005957301706,2297.7061186600477,"[59, 0, 195]",195,a,0.18478347780182958,colour,0.06
01,19,1,1,16,27,777,2299.704943426186,2300.354073087452,"[26, 0, 228]",228,a,0.1259095361456275,colour,0.06
01,19,1,1,16,28,778,2302.361071715597,2303.282086071791,"[79, 0, 175]",175,l,0.3978477939963341,colour,0.06
01,19,1,1,16,29,779,2305.300127330236,2305.946158217732,"[53, 0, 201]",201,a,0.12256776005961001,colour,0.06
01,19,1,1,16,30,780,2307.956470265286,2308.962094374001,"[62, 0, 192]",192,a,0.4826268998440355,colour,0.06
01,19,1,1,16,31,781,2310.972036206862,2311.594095316017,"[33, 0, 221]",221,a,0.09869719971902668,colour,0.06
01,19,1,1,16,32,782,2313.6126426653937,2314.290068918839,"[55, 0, 199]",199,a,0.15404740860685706,colour,0.06
01,19,1,1,16,33,783,2316.300035564229,2317.5060945567675,"[72, 0, 182]",182,l,0.6826502154581249,colour,0.06
01,19,1,1,16,34,784,2319.518848050153,2320.3063512649387,"[92, 0, 162]",162,l,0.26418541604653,colour,0.06
01,19,1,1,16,35,785,2322.3180594935548,2324.698008206906,"[68, 0, 186]",186,l,1.8566265823319554,colour,0.06
01,19,1,1,16,36,786,2326.710595103912,2327.449997223448,"[84, 0, 170]",170,l,0.21633165539242327,colour,0.06
01,19,1,1,16,37,787,2329.4631981248967,2330.09807531815,"[51, 0, 203]",203,a,0.11173977539874613,colour,0.06
01,19,1,1,16,38,788,2332.1193933682516,2332.6900407196954,"[91, 0, 163]",163,l,0.047288198955357075,colour,0.06
01,19,1,1,16,39,789,2334.685173975071,2335.482058187481,"[67, 0, 187]",187,a,0.27353333053179085,colour,0.06
01,19,1,1,16,40,790,2337.4976725720335,2338.0900026741438,"[87, 0, 167]",167,l,0.06899970024824142,colour,0.06
01,19,1,1,16,41,791,2340.106981732184,2342.0420264278073,"[70, 0, 184]",184,a,1.4116489153821021,colour,0.06
01,19,1,1,16,42,792,2344.060155119747,2345.2100068961736,"[69, 0, 185]",185,l,0.6271668868139386,colour,0.06
01,19,1,1,16,43,793,2347.216416725889,2347.9219973934814,"[97, 0, 157]",157,l,0.18223017966374755,colour,0.06
01,19,1,1,16,44,794,2349.9350683263037,2350.5140017857775,"[86, 0, 168]",168,l,0.055500264279544353,colour,0.06
01,19,1,1,16,45,795,2352.52876979718,2353.2579579364974,"[93, 0, 161]",161,l,0.20560449524782598,colour,0.06
01,19,1,1,16,46,796,2355.2732009252068,2355.9299534594174,"[61, 0, 193]",193,a,0.13308500102721155,colour,0.06
01,19,1,1,16,47,797,2357.938930371776,2358.753941700561,"[52, 0, 202]",202,a,0.2919960031285882,colour,0.06
01,19,1,1,16,48,798,2360.7669890027028,2361.5299466063734,"[88, 0, 166]",166,l,0.23953701136633754,colour,0.06
01,19,1,1,16,49,799,2363.5492950368207,2364.625938877696,"[82, 0, 172]",172,l,0.5535020907409489,colour,0.06
01,19,1,1,16,50,800,2366.642870280426,2367.665897224564,"[75, 0, 179]",179,l,0.5002644669730216,colour,0.06
