id,age,condition,counterbalance,block,trialinblock,trial,tstart,tend,trialstim,trialintensity,response,RT,trialtype,colourfreq
17,19,1,2,Practice,1,NA,5.907611921429634e-06,1.0346493552206084,"[26, 0, 228]",228,a,0.479039536556229,colour,0.5
17,19,1,2,Practice,2,NA,3.0478061616886407,3.7308608755702153,"[50, 0, 204]",204,a,0.15980443207081407,colour,0.5
17,19,1,2,Practice,3,NA,5.751197487581521,6.298718111240305,"[58, 0, 196]",196,a,0.024280581856146455,colour,0.5
17,19,1,2,Practice,4,NA,8.313977265614085,11.90658021485433,"[11, 0, 243]",243,a,3.0695677071344107,colour,0.5
17,19,1,2,Practice,5,NA,13.924155181390233,15.154601731454022,"[54, 0, 200]",200,a,0.7076011415338144,colour,0.5
17,19,1,2,Practice,6,NA,17.173997446196154,18.082718999823555,"[62, 0, 192]",192,a,0.3854106195503846,colour,0.5
17,19,1,2,Practice,7,NA,20.096069184481166,20.626579616218805,"[65, 0, 189]",189,a,0.007342463708482683,colour,0.5
17,19,1,2,Practice,8,NA,22.643173907184973,23.5465927234618,"[33, 0, 221]",221,a,0.3801401775563136,colour,0.5
17,19,1,2,Practice,9,NA,25.565330716082826,26.386597276316024,"[30, 0, 224]",224,a,0.29807102296035737,colour,0.5
17,19,1,2,Practice,10,NA,28.393641205038875,29.21860203705728,"[3, 0, 251]",251,a,0.3016727410722524,colour,0.5
17,19,1,2,1,1,1,6.488947510602884,7.288016538368538,"[99, 0, 155]",155,l,0.27531304815784097,colour,0.5
17,19,1,2,1,2,2,9.302459250786342,10.167985393083654,"[44, 0, 210]",210,a,0.34247790335211903,colour,0.5
17,19,1,2,1,3,3,12.177771668764763,13.0240363975754,"[42, 0, 212]",212,a,0.32338623725809157,colour,0.5
17,19,1,2,1,4,4,15.037337745423429,18.57604174129665,"[76, 0, 178]",178,l,3.015576200094074,colour,0.5
17,19,1,2,1,5,5,20.584569286438636,21.624023952055722,"[30, 0, 224]",224,a,0.5161173439119011,colour,0.5
17,19,1,2,1,6,6,23.631738993804902,24.567956090904772,"[43, 0, 211]",211,a,0.41295381844975054,colour,0.5
17,19,1,2,1,7,7,26.585177777917124,27.384021919919178,"[49, 0, 205]",205,a,0.27567302307579666,colour,0.5
17,19,1,2,1,8,8,29.397773039410822,30.2240477403393,"[10, 0, 244]",244,a,0.30291808082256466,colour,0.5
17,19,1,2,1,9,9,32.241729045286775,33.09595300001092,"[80, 0, 174]",174,l,0.3311434204224497,colour,0.5
17,19,1,2,1,10,10,35.116917401901446,37.64796582679264,"[67, 0, 187]",187,l,2.0076862908899784,colour,0.5
17,19,1,2,1,11,11,39.66420211212244,40.55196989758406,"[78, 0, 176]",176,l,0.36451789748389274,colour,0.5
17,19,1,2,1,12,12,42.57069174258504,43.439983442774974,"[7, 0, 247]",247,a,0.34603354148566723,colour,0.5
17,19,1,2,1,13,13,45.46158784371801,46.28790901845787,"[95, 0, 159]",159,l,0.3031496620969847,colour,0.5
17,19,1,2,1,14,14,48.3055753572844,49.18395110638812,"[26, 0, 228]",228,a,0.3554094299906865,colour,0.5
17,19,1,2,1,15,15,51.19646555068903,51.98395433591213,"[86, 0, 168]",168,l,0.26429994334466755,colour,0.5
17,19,1,2,1,16,16,53.99342435365543,54.78391739318613,"[85, 0, 169]",169,l,0.267632664879784,colour,0.5
17,19,1,2,1,17,17,56.79114564170595,57.59995683457237,"[39, 0, 215]",215,a,0.28609693492762744,colour,0.5
17,19,1,2,1,18,18,59.61892089457251,60.40792086534202,"[41, 0, 213]",213,a,0.26570242759771645,colour,0.5
17,19,1,2,1,19,19,62.41604590031784,63.471941650961526,"[68, 0, 186]",186,l,0.5326470441650599,colour,0.5
17,19,1,2,1,20,20,65.47876502620056,66.46391980361659,"[70, 0, 184]",184,l,0.4619466371368617,colour,0.5
17,19,1,2,1,21,21,68.47904859506525,69.38395181531087,"[74, 0, 180]",180,l,0.38182465522550046,colour,0.5
17,19,1,2,1,22,22,71.40101596410386,72.27991158957593,"[75, 0, 179]",179,l,0.35552443307824433,colour,0.5
17,19,1,2,1,23,23,74.29199044057168,76.12790096830577,"[56, 0, 198]",198,a,1.3126641843700781,colour,0.5
17,19,1,2,1,24,24,78.13604608934838,79.35997055610642,"[72, 0, 182]",182,l,0.7008758338633925,colour,0.5
17,19,1,2,1,25,25,81.37059296609368,81.99189780803863,"[94, 0, 160]",160,l,0.0980411694617942,colour,0.5
17,19,1,2,1,26,26,84.01146090729162,84.7758955458412,"[17, 0, 237]",237,a,0.24113591376226395,colour,0.5
17,19,1,2,1,27,27,86.79284351016395,87.50388804380782,"[52, 0, 202]",202,a,0.18777337798383087,colour,0.5
17,19,1,2,1,28,28,89.51195990969427,90.32790876645595,"[3, 0, 251]",251,a,0.2927529256558046,colour,0.5
17,19,1,2,1,29,29,92.34011049731635,92.9518783679232,"[32, 0, 222]",222,a,0.08867197623476386,colour,0.5
17,19,1,2,1,30,30,94.96542941383086,95.74387510993984,"[27, 0, 227]",227,a,0.255039845360443,colour,0.5
17,19,1,2,1,31,31,97.76233347225934,98.56787220179103,"[25, 0, 229]",229,a,0.28209625114686787,colour,0.5
17,19,1,2,1,32,32,100.57529264700133,101.58386509050615,"[5, 0, 249]",249,a,0.48539541696663946,colour,0.5
17,19,1,2,1,33,33,103.59116186818574,104.37585868185852,"[28, 0, 226]",226,a,0.2615981624694541,colour,0.5
17,19,1,2,1,34,34,106.38816635718103,107.327853628085,"[47, 0, 207]",207,a,0.4164393520914018,colour,0.5
17,19,1,2,1,35,35,109.34151770768221,110.15987177961506,"[40, 0, 214]",214,a,0.29507740249391645,colour,0.5
17,19,1,2,1,36,36,112.16986521810759,112.99987121252343,"[89, 0, 165]",165,l,0.3072578657884151,colour,0.5
17,19,1,2,1,37,37,115.01386769779492,115.78386658721138,"[20, 0, 234]",234,a,0.24681319831870496,colour,0.5
17,19,1,2,1,38,38,117.80515551776625,118.59982450236566,"[97, 0, 157]",157,l,0.27139822277240455,colour,0.5
17,19,1,2,1,39,39,120.61779843457043,121.38386910781264,"[33, 0, 221]",221,a,0.24269987468142062,colour,0.5
17,19,1,2,1,40,40,123.39933424338233,125.87982903944794,"[61, 0, 193]",193,a,1.9575233570067212,colour,0.5
17,19,1,2,1,41,41,127.89975802123081,128.79185456386767,"[77, 0, 177]",177,l,0.36887895001564175,colour,0.5
17,19,1,2,1,42,42,130.80617242713924,131.59184834104963,"[79, 0, 175]",175,l,0.2623917614109814,colour,0.5
17,19,1,2,1,43,43,133.60314934700727,134.7358453857014,"[58, 0, 196]",196,a,0.6094138553598896,colour,0.5
17,19,1,2,1,44,44,136.74409408809152,137.65580808056984,"[35, 0, 219]",219,a,0.38852436281740665,colour,0.5
17,19,1,2,1,45,45,139.66627295233775,140.46382055443246,"[98, 0, 156]",156,l,0.2743221325799823,colour,0.5
17,19,1,2,1,46,46,142.4789056290174,143.3838084555464,"[62, 0, 192]",192,a,0.3816769630648196,colour,0.5
17,19,1,2,1,47,47,145.40097657951992,146.19983529380988,"[0, 0, 254]",254,a,0.2754619219340384,colour,0.5
17,19,1,2,1,48,48,148.21377270226367,149.03182430076413,"[51, 0, 203]",203,a,0.2947772921761498,colour,0.5
17,19,1,2,1,49,49,151.04205365281086,151.59979102551006,"[37, 0, 217]",217,a,0.03443943557795137,colour,0.5
17,19,1,2,1,50,50,153.62038206169382,154.43182729394175,"[16, 0, 238]",238,a,0.28817210730630904,colour,0.5
17,19,1,2,2,1,51,172.7617289192276,173.28781882789917,"[43, 0, 211]",211,a,0.0020897448994219303,colour,0.5
17,19,1,2,2,2,52,175.30970601004083,177.11975545343012,"[28, 0, 226]",226,a,1.2873406993458048,colour,0.5
17,19,1,2,2,3,53,179.13803619123064,179.9677542843856,"[46, 0, 208]",208,a,0.3065335835563019,colour,0.5
17,19,1,2,2,4,54,181.9820489109261,182.76778272003867,"[10, 0, 244]",244,a,0.26259695494081825,colour,0.5
17,19,1,2,2,5,55,184.77898250776343,185.5837465430377,"[5, 0, 249]",249,a,0.2813818152062595,colour,0.5
17,19,1,2,2,6,56,187.59177863039076,188.5201274799183,"[17, 0, 237]",237,a,0.4050843892619014,colour,0.5
17,19,1,2,2,7,57,190.52969714056235,191.4317264695419,"[60, 0, 194]",194,a,0.371337334276177,colour,0.5
17,19,1,2,2,8,58,193.44403493253049,194.2557625520276,"[51, 0, 203]",203,a,0.2889972139382735,colour,0.5
17,19,1,2,2,9,59,196.2723316368647,197.21573208412156,"[73, 0, 181]",181,l,0.4201962453080341,colour,0.5
17,19,1,2,2,10,60,199.2257377319038,199.82414045161568,"[1, 0, 253]",253,a,0.07523435784969479,colour,0.5
17,19,1,2,2,11,61,201.83532487927005,202.48774982616305,"[79, 0, 175]",175,l,0.12930424022488296,colour,0.5
17,19,1,2,2,12,62,204.50736609450541,205.3197301684413,"[94, 0, 160]",160,l,0.28909331222530454,colour,0.5
17,19,1,2,2,13,63,207.33574905106798,208.25574522279203,"[58, 0, 196]",196,a,0.39669547777157277,colour,0.5
17,19,1,2,2,14,64,210.27338517387398,211.0557579046581,"[21, 0, 233]",233,a,0.2591456858208403,colour,0.5
17,19,1,2,2,15,65,213.07059721963014,213.86369830474723,"[97, 0, 157]",157,l,0.2698988525662571,colour,0.5
17,19,1,2,2,16,66,215.8832523454912,216.71974103862885,"[35, 0, 219]",219,a,0.31325574044603854,colour,0.5
17,19,1,2,2,17,67,218.72729932970833,219.5917179781245,"[93, 0, 161]",161,l,0.34122350497636944,colour,0.5
17,19,1,2,2,18,68,221.60246248031035,223.79974447295535,"[70, 0, 184]",184,a,1.6741128431167454,colour,0.5
17,19,1,2,2,19,69,225.82160999358166,226.6397537519224,"[98, 0, 156]",156,l,0.2949734271969646,colour,0.5
17,19,1,2,2,20,70,228.64993072254583,229.39975762739778,"[65, 0, 189]",189,a,0.22729420976247638,colour,0.5
17,19,1,2,2,21,71,231.41576114995405,232.2076665199129,"[26, 0, 228]",228,a,0.26863697124645114,colour,0.5
17,19,1,2,2,22,72,234.2283938267501,235.09569936350454,"[91, 0, 163]",163,l,0.3440135073615238,colour,0.5
17,19,1,2,2,23,73,237.10364007868338,237.91165215871297,"[30, 0, 224]",224,a,0.28507096704561263,colour,0.5
17,19,1,2,2,24,74,239.93199861678295,240.71970913710538,"[55, 0, 199]",199,a,0.2652113020885736,colour,0.5
17,19,1,2,2,25,75,242.7290424904786,243.56768551899586,"[50, 0, 204]",204,a,0.31530019303318113,colour,0.5
17,19,1,2,2,26,76,245.58866291772574,246.4156792301219,"[84, 0, 170]",170,l,0.3038786704419181,colour,0.5
17,19,1,2,2,27,77,248.43270084355026,249.6236474356847,"[77, 0, 177]",177,l,0.6677203349536285,colour,0.5
17,19,1,2,2,28,78,251.63602206483483,252.58363547851332,"[75, 0, 179]",179,l,0.42438558116555214,colour,0.5
17,19,1,2,2,29,79,254.60495079681277,255.40770621947013,"[4, 0, 250]",250,a,0.27941967628430575,colour,0.5
17,19,1,2,2,30,80,257.41763939964585,258.1836659621913,"[12, 0, 242]",242,a,0.24270775157492608,colour,0.5
17,19,1,2,2,31,81,260.19927997142076,261.1996722416952,"[29, 0, 225]",225,a,0.47708803159184754,colour,0.5
17,19,1,2,2,32,82,263.2151050819084,264.01566599681973,"[13, 0, 241]",241,a,0.27732520538847893,colour,0.5
17,19,1,2,2,33,83,266.02788111846894,266.8476254653651,"[0, 0, 254]",254,a,0.29685600916855037,colour,0.5
17,19,1,2,2,34,84,268.8561408013338,269.6397234258475,"[34, 0, 220]",220,a,0.26035203493665904,colour,0.5
17,19,1,2,2,35,85,271.65322130266577,272.50364582880866,"[61, 0, 193]",193,a,0.32713919214438647,colour,0.5
17,19,1,2,2,36,86,274.5128417300293,275.3196663655108,"[19, 0, 235]",235,a,0.2835432399297133,colour,0.5
17,19,1,2,2,37,87,277.34114670509007,278.10369206627365,"[15, 0, 239]",239,a,0.23928799014538527,colour,0.5
17,19,1,2,2,38,88,280.1227341077756,290.5760141721694,"[68, 0, 186]",186,a,9.930135333212093,colour,0.5
17,19,1,2,2,39,89,292.59241705411114,293.39158021099865,"[11, 0, 243]",243,a,0.27594044420402497,colour,0.5
17,19,1,2,2,40,90,295.4050520939054,296.19969469087664,"[14, 0, 240]",240,a,0.271304881433025,colour,0.5
17,19,1,2,2,41,91,298.2178320689127,298.9036401574267,"[48, 0, 206]",206,a,0.1625428405823186,colour,0.5
17,19,1,2,2,42,92,300.92114541330375,301.7035839163,"[25, 0, 229]",229,a,0.25923627032898366,colour,0.5
17,19,1,2,2,43,93,303.71826766221784,304.51989629259333,"[22, 0, 232]",232,a,0.27847050852142274,colour,0.5
17,19,1,2,2,44,94,306.53099131723866,307.3595940397354,"[56, 0, 198]",198,a,0.2979701985605061,colour,0.5
17,19,1,2,2,45,95,309.36665687302593,310.27157545334194,"[76, 0, 178]",178,l,0.38173840299714357,colour,0.5
17,19,1,2,2,46,96,312.2887329434743,313.191549176001,"[59, 0, 195]",195,a,0.37950057233683765,colour,0.5
17,19,1,2,2,47,97,315.2109232292278,316.08757826697547,"[71, 0, 183]",183,l,0.35367650946136564,colour,0.5
17,19,1,2,2,48,98,318.1017086597858,318.8555689374916,"[53, 0, 201]",201,a,0.23059030366130173,colour,0.5
17,19,1,2,2,49,99,320.8674953703303,321.60759192553815,"[96, 0, 158]",158,l,0.21671551663894206,colour,0.5
17,19,1,2,2,50,100,323.6177712591598,324.4315531774191,"[47, 0, 207]",207,a,0.29050406720489264,colour,0.5
17,19,1,2,3,1,101,375.326836718712,376.0955343421083,"[3, 0, 251]",251,a,0.2448097055312246,colour,0.5
17,19,1,2,3,2,102,378.1091369818896,378.67952506942675,"[76, 0, 178]",178,l,0.04722642106935382,colour,0.5
17,19,1,2,3,3,103,380.6873811078258,381.5834747895133,"[48, 0, 206]",206,a,0.37279574456624687,colour,0.5
17,19,1,2,3,4,104,383.5938388367649,384.5035997488303,"[64, 0, 190]",190,a,0.38647045800462365,colour,0.5
17,19,1,2,3,5,105,386.5161019839579,387.27151677035727,"[49, 0, 205]",205,a,0.23226099682506174,colour,0.5
17,19,1,2,3,6,106,389.2819528913824,389.9995447144611,"[56, 0, 198]",198,a,0.19450380571652204,colour,0.5
17,19,1,2,3,7,107,392.01646707882173,392.7835133076878,"[42, 0, 212]",212,a,0.24374553479719907,colour,0.5
17,19,1,2,3,8,108,394.8048089336371,395.63188747363165,"[41, 0, 213]",213,a,0.3042335252976045,colour,0.5
17,19,1,2,3,9,109,397.64888033631723,398.5034859274747,"[82, 0, 172]",172,l,0.3317790871951729,colour,0.5
17,19,1,2,3,10,110,400.52494815026876,401.5437038659584,"[0, 0, 254]",254,a,0.4960650885477662,colour,0.5
17,19,1,2,3,11,111,403.556213190197,404.3754813778214,"[97, 0, 157]",157,l,0.29597025050316006,colour,0.5
17,19,1,2,3,12,112,406.38468279282097,407.44751298311166,"[15, 0, 239]",239,a,0.539635440800339,colour,0.5
17,19,1,2,3,13,113,409.46298599557485,410.2155587921152,"[96, 0, 158]",158,l,0.22933748085051775,colour,0.5
17,19,1,2,3,14,114,412.228815635317,413.1914648929378,"[24, 0, 230]",230,a,0.43936116655822843,colour,0.5
17,19,1,2,3,15,115,415.19780856429134,415.95944847434293,"[34, 0, 220]",220,a,0.2389851228799671,colour,0.5
17,19,1,2,3,16,116,417.97930892696604,418.60749188868795,"[57, 0, 197]",197,a,0.10490747378207743,colour,0.5
17,19,1,2,3,17,117,420.6201394528616,421.5917546058772,"[26, 0, 228]",228,a,0.44833139434922487,colour,0.5
17,19,1,2,3,18,118,423.60473812022246,424.4714643100742,"[14, 0, 240]",240,a,0.3434404619038105,colour,0.5
17,19,1,2,3,19,119,426.4799638922559,427.2474283850752,"[9, 0, 245]",245,a,0.2442004265030846,colour,0.5
17,19,1,2,3,20,120,429.26140320894774,429.93543019366916,"[86, 0, 168]",168,l,0.15075425372924656,colour,0.5
17,19,1,2,3,21,121,431.9490619779099,432.73542751546483,"[30, 0, 224]",224,a,0.2629766220925376,colour,0.5
17,19,1,2,3,22,122,434.74623503291514,435.51142664265353,"[6, 0, 248]",248,a,0.24195786949712783,colour,0.5
17,19,1,2,3,23,123,437.5277495740447,438.40740689681843,"[65, 0, 189]",189,a,0.3612292866455391,colour,0.5
17,19,1,2,3,24,124,440.4137899526395,441.06339023879264,"[80, 0, 174]",174,l,0.12663121009245515,colour,0.5
17,19,1,2,3,25,125,443.0702226724243,443.8874022967648,"[88, 0, 166]",166,l,0.2938868071651086,colour,0.5
17,19,1,2,3,26,126,445.898600902874,446.5274478882784,"[1, 0, 253]",253,a,0.10556795285083354,colour,0.5
17,19,1,2,3,27,127,448.53812661825214,449.7594154700637,"[18, 0, 236]",236,a,0.6979952470865101,colour,0.5
17,19,1,2,3,28,128,451.7726896426175,452.3193859474268,"[54, 0, 200]",200,a,0.02336174005176872,colour,0.5
17,19,1,2,3,29,129,454.33536820230074,455.1754231674131,"[19, 0, 235]",235,a,0.31718710740096867,colour,0.5
17,19,1,2,3,30,130,457.19494333746843,457.79154618270695,"[60, 0, 194]",194,a,0.07344787416514009,colour,0.5
17,19,1,2,3,31,131,459.80462815857027,460.4713981440291,"[87, 0, 167]",167,l,0.14353782054968178,colour,0.5
17,19,1,2,3,32,132,462.49234088440426,463.03137610445265,"[61, 0, 193]",193,a,0.015875128912739456,colour,0.5
17,19,1,2,3,33,133,465.0393479334889,465.6874346708646,"[83, 0, 171]",171,l,0.12486441864166409,colour,0.5
17,19,1,2,3,34,134,467.6957834101049,468.41538817819674,"[89, 0, 165]",165,l,0.1963458217214793,colour,0.5
17,19,1,2,3,35,135,470.43045749887824,473.7513361212332,"[75, 0, 179]",179,l,2.797813447890803,colour,0.5
17,19,1,2,3,36,136,475.7589306461159,476.28734700079076,"[23, 0, 231]",231,a,0.005132596008479595,colour,0.5
17,19,1,2,3,37,137,478.3059904704569,479.19941230362747,"[5, 0, 249]",249,a,0.3704472432145849,colour,0.5
17,19,1,2,3,38,138,481.212441110285,481.8633383299457,"[85, 0, 169]",169,l,0.12757210724521428,colour,0.5
17,19,1,2,3,39,139,483.88451895304024,484.66333210712764,"[90, 0, 164]",164,l,0.25551718624774367,colour,0.5
17,19,1,2,3,40,140,486.6817006726051,487.3913403589977,"[25, 0, 229]",229,a,0.1863039401359856,colour,0.5
17,19,1,2,3,41,141,489.4006091216579,490.1753633029293,"[44, 0, 210]",210,a,0.2514428534777835,colour,0.5
17,19,1,2,3,42,142,492.18209569971077,492.87932609859854,"[50, 0, 204]",204,a,0.1739171016961336,colour,0.5
17,19,1,2,3,43,143,494.9010163579369,495.7033342181239,"[38, 0, 216]",216,a,0.2790203168988228,colour,0.5
17,19,1,2,3,44,144,497.7159593331162,498.4953234771965,"[12, 0, 242]",242,a,0.25613512995187193,colour,0.5
17,19,1,2,3,45,145,500.5130839450285,501.46329201362096,"[68, 0, 186]",186,a,0.42698496219236404,colour,0.5
17,19,1,2,3,46,146,503.48208514472935,504.23932107316796,"[94, 0, 160]",160,l,0.23404669272713363,colour,0.5
17,19,1,2,3,47,147,506.2478624029318,506.95133919327054,"[53, 0, 201]",201,a,0.18019697011914104,colour,0.5
17,19,1,2,3,48,148,508.9668708887184,509.53531495435163,"[2, 0, 252]",252,a,0.04597596125677228,colour,0.5
17,19,1,2,3,49,149,511.5451508546248,512.1913428008556,"[45, 0, 209]",209,a,0.12307399651035666,colour,0.5
17,19,1,2,3,50,150,514.201630835887,515.567319242633,"[71, 0, 183]",183,a,0.8424452141625807,colour,0.5
17,19,1,2,4,1,151,526.4987558417488,527.0552703237627,"[16, 0, 238]",238,a,0.03247375215869397,colour,0.5
17,19,1,2,4,2,152,529.062065735925,529.8712416298222,"[51, 0, 203]",203,a,0.2858771689934656,colour,0.5
17,19,1,2,4,3,153,531.8904546002159,532.5353141666856,"[99, 0, 155]",155,l,0.12143874948378652,colour,0.5
17,19,1,2,4,4,154,534.5469763290603,535.2632696431829,"[65, 0, 189]",189,a,0.19294654007535428,colour,0.5
17,19,1,2,4,5,155,537.2815740118967,538.0473595408257,"[7, 0, 247]",247,a,0.24256596714258194,colour,0.5
17,19,1,2,4,6,156,540.0630066331942,540.623283128487,"[91, 0, 163]",163,l,0.03734719776548445,colour,0.5
17,19,1,2,4,7,157,542.6413110175636,543.7993325104471,"[53, 0, 201]",201,a,0.6347259188769385,colour,0.5
17,19,1,2,4,8,158,545.8134479371365,546.5912756895414,"[17, 0, 237]",237,a,0.25456289830617607,colour,0.5
17,19,1,2,4,9,159,548.6105544322636,549.3592864462407,"[39, 0, 215]",215,a,0.22592441469896585,colour,0.5
17,19,1,2,4,10,160,551.3764053395716,552.1592932203785,"[23, 0, 231]",231,a,0.25966792507097125,colour,0.5
17,19,1,2,4,11,161,554.1734893855173,554.8232137329178,"[0, 0, 254]",254,a,0.12644925341010094,colour,0.5
17,19,1,2,4,12,162,556.8299760620575,557.5272777470527,"[55, 0, 199]",199,a,0.17405258468352258,colour,0.5
17,19,1,2,4,13,163,559.5333248524694,560.1912270102184,"[61, 0, 193]",193,a,0.13471764815039933,colour,0.5
17,19,1,2,4,14,164,562.2053511015838,562.9752499541501,"[95, 0, 159]",159,l,0.24669465073384345,colour,0.5
17,19,1,2,4,15,165,564.9868451626971,565.7992293229327,"[35, 0, 219]",219,a,0.2892922043101862,colour,0.5
17,19,1,2,4,16,166,567.8151867655106,568.6072130460525,"[41, 0, 213]",213,a,0.2688059309730306,colour,0.5
17,19,1,2,4,17,167,570.6278651283355,571.4072922877967,"[30, 0, 224]",224,a,0.26808598125353456,colour,0.5
17,19,1,2,4,18,168,573.4285426215502,574.1912325241137,"[4, 0, 250]",250,a,0.23987757705617696,colour,0.5
17,19,1,2,4,19,169,576.2100937904324,576.9672229867429,"[29, 0, 225]",225,a,0.2339470498263836,colour,0.5
17,19,1,2,4,20,170,578.9760116515681,579.727207169868,"[49, 0, 205]",205,a,0.2280980485957116,colour,0.5
17,19,1,2,4,21,171,581.7417022637092,582.5032098416705,"[96, 0, 158]",158,l,0.23818207159638405,colour,0.5
17,19,1,2,4,22,172,584.5232810017187,585.2712489552796,"[63, 0, 191]",191,a,0.22481928393244743,colour,0.5
17,19,1,2,4,23,173,587.2889720078092,588.0072310054675,"[56, 0, 198]",198,a,0.19492285756859928,colour,0.5
17,19,1,2,4,24,174,590.0236090751132,590.8073571147397,"[14, 0, 240]",240,a,0.26048712397459894,colour,0.5
17,19,1,2,4,25,175,592.8207080871798,593.6071783875814,"[10, 0, 244]",244,a,0.26325822167564183,colour,0.5
17,19,1,2,4,26,176,595.6177661392139,596.3912076330744,"[67, 0, 187]",187,a,0.2500919629819691,colour,0.5
17,19,1,2,4,27,177,598.3993259726558,599.111192855984,"[31, 0, 223]",223,a,0.1886075431248173,colour,0.5
17,19,1,2,4,28,178,601.1182426924352,601.8791827388341,"[40, 0, 214]",214,a,0.2378398198634386,colour,0.5
17,19,1,2,4,29,179,603.8998147350503,605.1271719600772,"[72, 0, 182]",182,a,0.7042152507929131,colour,0.5
17,19,1,2,4,30,180,607.1343111994211,607.9032167734113,"[48, 0, 206]",206,a,0.24565411056391895,colour,0.5
17,19,1,2,4,31,181,609.9158143191598,612.4791446933523,"[70, 0, 184]",184,a,2.0400174709502608,colour,0.5
17,19,1,2,4,32,182,614.4943802169291,615.2552210143767,"[82, 0, 172]",172,l,0.23798554274253547,colour,0.5
17,19,1,2,4,33,183,617.275780149037,618.0311776062008,"[3, 0, 251]",251,a,0.23218616610392928,colour,0.5
17,19,1,2,4,34,184,620.0416168780066,620.6391598327318,"[92, 0, 162]",162,l,0.0743226051563397,colour,0.5
17,19,1,2,4,35,185,622.6511110778665,623.1992575222393,"[24, 0, 230]",230,a,0.02478824893478304,colour,0.5
17,19,1,2,4,36,186,625.2139869543025,625.9351852216059,"[76, 0, 178]",178,l,0.19811300688888878,colour,0.5
17,19,1,2,4,37,187,627.9484534864314,628.6151576996781,"[90, 0, 164]",164,l,0.14348110684659332,colour,0.5
17,19,1,2,4,38,188,630.6361540030921,631.4071615310386,"[83, 0, 171]",171,l,0.24772810155991465,colour,0.5
17,19,1,2,4,39,189,633.4175893813372,634.207122225198,"[62, 0, 192]",192,a,0.26655037712771446,colour,0.5
17,19,1,2,4,40,190,636.2154540291522,637.271110715461,"[74, 0, 180]",180,l,0.5330676713492721,colour,0.5
17,19,1,2,4,41,191,639.2774969220627,639.9751786680426,"[36, 0, 218]",218,a,0.17449841788038611,colour,0.5
17,19,1,2,4,42,192,641.9964297895785,642.6630863475148,"[97, 0, 157]",157,l,0.14347559306770563,colour,0.5
17,19,1,2,4,43,193,644.684020423214,645.36711412773,"[33, 0, 221]",221,a,0.1596047522034496,colour,0.5
17,19,1,2,4,44,194,647.3874987888848,648.127119578654,"[32, 0, 222]",222,a,0.21643824933562428,colour,0.5
17,19,1,2,4,45,195,650.1377561669797,650.7990753292106,"[47, 0, 207]",207,a,0.1381011757766828,colour,0.5
17,19,1,2,4,46,196,652.8097611484118,653.5351286653895,"[88, 0, 166]",166,l,0.2021361398510635,colour,0.5
17,19,1,2,4,47,197,655.5444549295353,656.3751462151995,"[57, 0, 197]",197,a,0.3076016929699108,colour,0.5
17,19,1,2,4,48,198,658.3883845476666,660.2790742737707,"[71, 0, 183]",183,l,1.367495370330289,colour,0.5
17,19,1,2,4,49,199,662.294917894993,662.9110905348789,"[46, 0, 208]",208,a,0.09345247421879321,colour,0.5
17,19,1,2,4,50,200,664.9201328362105,665.5271379317855,"[6, 0, 248]",248,a,0.0838300382019952,colour,0.5
17,19,1,2,5,1,201,709.4384273587493,710.071052111336,"[84, 0, 170]",170,l,0.10851746273692697,colour,0.4
17,19,1,2,5,2,202,712.0801495510386,713.2870327120181,"[68, 0, 186]",186,a,0.6837825404945761,colour,0.4
17,19,1,2,5,3,203,715.2990544554777,716.2630077359499,"[5, 0, 249]",249,a,0.44105312740430236,colour,0.4
17,19,1,2,5,4,204,718.2743032280123,719.1110376807628,"[64, 0, 190]",190,a,0.3260108244139701,colour,0.4
17,19,1,2,5,5,205,721.1188925376628,721.9989893921884,"[12, 0, 242]",242,a,0.357205759966746,colour,0.4
17,19,1,2,5,6,206,724.0097035681829,724.8389663757989,"[41, 0, 213]",213,a,0.30586522759404033,colour,0.4
17,19,1,2,5,7,207,726.8536926570814,727.6230657257838,"[99, 0, 155]",155,l,0.2460916731506586,colour,0.4
17,19,1,2,5,8,208,729.6352091674926,730.2390044212807,"[13, 0, 241]",241,a,0.08057529816869646,colour,0.4
17,19,1,2,5,9,209,732.2603555795504,732.8549919537036,"[8, 0, 246]",246,a,0.07141326763667166,colour,0.4
17,19,1,2,5,10,210,734.86991830857,735.7909975558287,"[66, 0, 188]",188,a,0.398141285055317,colour,0.4
17,19,1,2,5,11,211,737.8077241788851,738.6870329483645,"[34, 0, 220]",220,a,0.3560789676848799,colour,0.4
17,19,1,2,5,12,212,740.6985663231462,741.5350089363055,"[98, 0, 156]",156,l,0.3132139928638935,colour,0.4
17,19,1,2,5,13,213,743.5425337506458,744.4630297124386,"[75, 0, 179]",179,l,0.3972799446200952,colour,0.4
17,19,1,2,5,14,214,746.480261245626,747.3189889510395,"[65, 0, 189]",189,a,0.3155274420278147,colour,0.4
17,19,1,2,5,15,215,749.3398257469526,750.0069923349656,"[18, 0, 236]",236,a,0.14391788165085018,colour,0.4
17,19,1,2,5,16,216,752.0275877035456,752.6229794735555,"[88, 0, 166]",166,l,0.07235140795819461,colour,0.4
17,19,1,2,5,17,217,754.6371248324867,755.4789501336636,"[30, 0, 224]",224,a,0.3188818250782788,colour,0.4
17,19,1,2,5,18,218,757.4967188722221,758.1749607926467,"[96, 0, 158]",158,l,0.15499124478083104,colour,0.4
17,19,1,2,5,19,219,760.1843579489505,760.7829961883835,"[87, 0, 167]",167,l,0.07527059165295213,colour,0.4
17,19,1,2,5,20,220,762.7940317423781,763.6629922183929,"[70, 0, 184]",184,a,0.3458468586904928,colour,0.4
17,19,1,2,5,21,221,765.6692216744414,766.246977431816,"[85, 0, 169]",169,l,0.054894595057703555,colour,0.4
17,19,1,2,5,22,222,768.2631719695637,768.8229478871217,"[81, 0, 173]",173,l,0.03647010354325175,colour,0.4
17,19,1,2,5,23,223,770.8415255845757,771.7190092734527,"[2, 0, 252]",252,a,0.35431965929456055,colour,0.4
17,19,1,2,5,24,224,773.7322483937023,774.4709381323773,"[60, 0, 194]",194,a,0.21528782637324184,colour,0.4
17,19,1,2,5,25,225,776.4826455869479,778.174926134292,"[74, 0, 180]",180,a,1.1690562593284994,colour,0.4
17,19,1,2,5,26,226,780.1860172204906,780.9269459714415,"[83, 0, 171]",171,l,0.21768004447221756,colour,0.4
17,19,1,2,5,27,227,782.9362170970999,783.5909393454203,"[27, 0, 227]",227,a,0.13139949890319258,colour,0.4
17,19,1,2,5,28,228,785.6082461030455,786.2469675857574,"[59, 0, 195]",195,a,0.1157197174616158,colour,0.4
17,19,1,2,5,29,229,788.2647607427789,789.0069305012003,"[29, 0, 225]",225,a,0.2188497659517452,colour,0.4
17,19,1,2,5,30,230,791.0149787362898,791.8309279868845,"[10, 0, 244]",244,a,0.2926308335736394,colour,0.4
17,19,1,2,5,31,231,793.8376107591903,794.5509010006208,"[92, 0, 162]",162,l,0.18993874127045274,colour,0.4
17,19,1,2,5,32,232,796.5722064727452,797.3749244801002,"[93, 0, 161]",161,l,0.2794216455658898,colour,0.4
17,19,1,2,5,33,233,799.3849840846378,800.3829561736202,"[58, 0, 196]",196,a,0.4748218439053744,colour,0.4
17,19,1,2,5,34,234,802.4006922229892,803.1188960822765,"[14, 0, 240]",240,a,0.1947964330902323,colour,0.4
17,19,1,2,5,35,235,805.1353698564926,805.846936629503,"[55, 0, 199]",199,a,0.1884110141545534,colour,0.4
17,19,1,2,5,36,236,807.8543078439543,808.4389373888262,"[61, 0, 193]",193,a,0.0613383031450212,colour,0.4
17,19,1,2,5,37,237,810.4483046127716,811.750900134095,"[78, 0, 176]",176,l,0.7794114055577666,colour,0.4
17,19,1,2,5,38,238,813.7610585939838,814.5109158249106,"[51, 0, 203]",203,a,0.2268314411630854,colour,0.4
17,19,1,2,5,39,239,816.5269035936799,817.182932621683,"[63, 0, 191]",191,a,0.13772938551846892,colour,0.4
17,19,1,2,5,40,240,819.1941442246316,819.9668850671733,"[95, 0, 159]",159,l,0.24969378497917205,colour,0.4
17,19,1,2,5,41,241,821.9755697567016,822.7189297166187,"[43, 0, 211]",211,a,0.22012385656125844,colour,0.4
17,19,1,2,5,42,242,824.7257696334273,825.2948666950688,"[26, 0, 228]",228,a,0.045886558247730136,colour,0.4
17,19,1,2,5,43,243,827.3041283685016,828.0148597948719,"[15, 0, 239]",239,a,0.187933279434219,colour,0.4
17,19,1,2,5,44,244,830.0230935312575,830.7189513781341,"[50, 0, 204]",204,a,0.17260205128695816,colour,0.4
17,19,1,2,5,45,245,832.726470284746,833.4308521322673,"[21, 0, 233]",233,a,0.1812142733251676,colour,0.4
17,19,1,2,5,46,246,835.4453031154117,836.1188748145942,"[56, 0, 198]",198,a,0.1502698236145079,colour,0.4
17,19,1,2,5,47,247,838.1330524688819,838.9748702869983,"[1, 0, 253]",253,a,0.3185891978209838,colour,0.4
17,19,1,2,5,48,248,840.992650053231,841.8149075289257,"[44, 0, 210]",210,a,0.299235230544582,colour,0.4
17,19,1,2,5,49,249,843.8366363851819,844.3829416013323,"[39, 0, 215]",215,a,0.023050602059811354,colour,0.4
17,19,1,2,5,50,250,846.3994476709049,847.1028677474242,"[77, 0, 177]",177,l,0.1802040592301637,colour,0.4
17,19,1,2,6,1,251,859.6651544307824,860.334843599936,"[93, 0, 161]",161,l,0.14550586708355695,colour,0.28
17,19,1,2,6,2,252,862.3537304662168,863.0868193265051,"[58, 0, 196]",196,a,0.20990159374196082,colour,0.28
17,19,1,2,6,3,253,865.10396972741,865.8388214405859,"[42, 0, 212]",212,a,0.21165538823697716,colour,0.28
17,19,1,2,6,4,254,867.8541672410211,868.5828698426485,"[70, 0, 184]",184,a,0.20578787627164274,colour,0.28
17,19,1,2,6,5,255,870.6043127669254,871.2629143944941,"[6, 0, 248]",248,a,0.13529187499079853,colour,0.28
17,19,1,2,6,6,256,873.276461501955,874.1668318192242,"[67, 0, 187]",187,a,0.36719998612534255,colour,0.28
17,19,1,2,6,7,257,876.1829353786306,876.8628026999068,"[84, 0, 170]",170,l,0.15661979641299695,colour,0.28
17,19,1,2,6,8,258,878.870614233776,879.6308244842803,"[56, 0, 198]",198,a,0.23693948879372329,colour,0.28
17,19,1,2,6,9,259,881.6521094765048,882.3667911743978,"[13, 0, 241]",241,a,0.1915566590614617,colour,0.28
17,19,1,2,6,10,260,884.3866323286202,885.0228127193404,"[51, 0, 203]",203,a,0.11291908123530447,colour,0.28
17,19,1,2,6,11,261,887.0430748944636,889.0388225434581,"[68, 0, 186]",186,a,1.4725572317838669,colour,0.28
17,19,1,2,6,12,262,891.0590539985569,892.5428043225547,"[66, 0, 188]",188,a,0.9612156596267596,colour,0.28
17,19,1,2,6,13,263,894.5594068842474,895.1268033205997,"[57, 0, 197]",197,a,0.04421035142149776,colour,0.28
17,19,1,2,6,14,264,897.1376604625257,897.6947731961263,"[83, 0, 171]",171,l,0.03387347946409136,colour,0.28
17,19,1,2,6,15,265,899.716139320517,901.2068126626546,"[73, 0, 181]",181,l,0.9678078475408256,colour,0.28
17,19,1,2,6,16,266,903.2163681448437,903.7667858968489,"[0, 0, 254]",254,a,0.02727735321968794,colour,0.28
17,19,1,2,6,17,267,905.7790136215044,906.3828155708034,"[87, 0, 167]",167,l,0.0806426458293572,colour,0.28
17,19,1,2,6,18,268,908.4041261628736,909.0947947000386,"[18, 0, 236]",236,a,0.1673946245573461,colour,0.28
17,19,1,2,6,19,269,911.1075371810002,911.654745879001,"[92, 0, 162]",162,l,0.02400764694903046,colour,0.28
17,19,1,2,6,20,270,913.6701503624208,914.1987805751851,"[9, 0, 245]",245,a,0.0053086449624970555,colour,0.28
17,19,1,2,6,21,271,916.2172066421481,916.8307507564314,"[90, 0, 164]",164,l,0.09020206646528095,colour,0.28
17,19,1,2,6,22,272,918.8424999585841,919.5188837155001,"[55, 0, 199]",199,a,0.1531760103534907,colour,0.28
17,19,1,2,6,23,273,921.5301933860173,922.2067323181545,"[50, 0, 204]",204,a,0.14468351751565933,colour,0.28
17,19,1,2,6,24,274,924.2264411401702,924.8387580314884,"[47, 0, 207]",207,a,0.08914222789462656,colour,0.28
17,19,1,2,6,25,275,926.8515903091757,927.4387306198478,"[29, 0, 225]",225,a,0.0639073580969125,colour,0.28
17,19,1,2,6,26,276,929.445596136502,930.3587606623769,"[30, 0, 224]",224,a,0.38996347470674664,colour,0.28
17,19,1,2,6,27,277,932.3676773270126,933.1027322645532,"[80, 0, 174]",174,l,0.21226151660084724,colour,0.28
17,19,1,2,6,28,278,935.1178917759098,935.9186716689728,"[64, 0, 190]",190,a,0.27746777748689055,colour,0.28
17,19,1,2,6,29,279,937.930630003335,938.6147047772538,"[75, 0, 179]",179,l,0.1607232738751918,colour,0.28
17,19,1,2,6,30,280,940.6340055753244,941.3107229194138,"[62, 0, 192]",192,a,0.15343555470462888,colour,0.28
17,19,1,2,6,31,281,943.3217060918687,943.8627298384672,"[95, 0, 159]",159,l,0.017764012445695698,colour,0.28
17,19,1,2,6,32,282,945.8843566885917,946.478748090798,"[20, 0, 234]",234,a,0.07108676969073713,colour,0.28
17,19,1,2,6,33,283,948.4939359590644,949.0546779800206,"[91, 0, 163]",163,l,0.03746653301641345,colour,0.28
17,19,1,2,6,34,284,951.0722785465186,951.718678443227,"[52, 0, 202]",202,a,0.12311535037588328,colour,0.28
17,19,1,2,6,35,285,953.728710478521,954.358691345551,"[49, 0, 205]",205,a,0.10662109614349902,colour,0.28
17,19,1,2,6,36,286,956.3696359212045,957.3507250304101,"[8, 0, 246]",246,a,0.4579010549932718,colour,0.28
17,19,1,2,6,37,287,959.3697777056368,959.8947294005193,"[40, 0, 214]",214,a,0.0016313085798174143,colour,0.28
17,19,1,2,6,38,288,961.9169458375545,963.0786852330202,"[74, 0, 180]",180,a,0.6385942704509944,colour,0.28
17,19,1,2,6,39,289,965.089028800372,965.7106762879994,"[86, 0, 168]",168,l,0.09834718750789762,colour,0.28
17,19,1,2,6,40,290,967.7298526308732,968.3906334061176,"[97, 0, 157]",157,l,0.13759665959514678,colour,0.28
17,19,1,2,6,41,291,970.4020246027503,971.4226782604819,"[12, 0, 242]",242,a,0.4975538249127567,colour,0.28
17,19,1,2,6,42,292,973.4335294946795,974.2307478418807,"[71, 0, 183]",183,a,0.27418310509528965,colour,0.28
17,19,1,2,6,43,293,976.2461562637473,976.8386745362077,"[61, 0, 193]",193,a,0.06926562753506005,colour,0.28
17,19,1,2,6,44,294,978.8557150543202,979.4946653612424,"[88, 0, 166]",166,l,0.11562676983885467,colour,0.28
17,19,1,2,6,45,295,981.5121757370653,982.2306934911758,"[96, 0, 158]",158,l,0.1952363585587591,colour,0.28
17,19,1,2,6,46,296,984.246786022908,984.8466778729344,"[69, 0, 185]",185,a,0.07664865744300187,colour,0.28
17,19,1,2,6,47,297,986.8563176380703,987.6466574716615,"[59, 0, 195]",195,a,0.26705646875780076,colour,0.28
17,19,1,2,6,48,298,989.6534272838617,993.014644755167,"[76, 0, 178]",178,a,2.8379506479250267,colour,0.28
17,19,1,2,6,49,299,995.0288810924394,995.726621521404,"[99, 0, 155]",155,l,0.17461381468456239,colour,0.28
17,19,1,2,6,50,300,997.7477564584697,998.4386195553234,"[60, 0, 194]",194,a,0.16755925200413913,colour,0.28
17,19,1,2,7,1,301,1005.9195168616716,1006.774658082868,"[76, 0, 178]",178,a,0.33100124215707183,colour,0.14
17,19,1,2,7,2,302,1008.7955622264417,1009.4626331100008,"[64, 0, 190]",190,a,0.14374222652986646,colour,0.14
17,19,1,2,7,3,303,1011.4832702261629,1012.0705932811834,"[94, 0, 160]",160,l,0.06408892094623297,colour,0.14
17,19,1,2,7,4,304,1014.0772264288971,1014.662641695817,"[20, 0, 234]",234,a,0.06231937254779041,colour,0.14
17,19,1,2,7,5,305,1016.6711885393597,1017.5425995228579,"[78, 0, 176]",176,a,0.3481713355286047,colour,0.14
17,19,1,2,7,6,306,1019.5620515575865,1020.4306288217194,"[67, 0, 187]",187,a,0.34527814551256597,colour,0.14
17,19,1,2,7,7,307,1022.4372548803221,1023.2946343261283,"[51, 0, 203]",203,a,0.3342055700486526,colour,0.14
17,19,1,2,7,8,308,1025.3124897107482,1026.038618137478,"[99, 0, 155]",155,l,0.20297069859225303,colour,0.14
17,19,1,2,7,9,309,1028.0470795166912,1028.8705756368581,"[82, 0, 172]",172,l,0.30033051525242627,colour,0.14
17,19,1,2,7,10,310,1030.8910355224507,1031.6865957797272,"[77, 0, 177]",177,l,0.2723564491607249,colour,0.14
17,19,1,2,7,11,311,1033.7037579960888,1034.4865710461745,"[72, 0, 182]",182,a,0.2595572544960305,colour,0.14
17,19,1,2,7,12,312,1036.5007238882827,1037.1506238908041,"[73, 0, 181]",181,a,0.12645043490920216,colour,0.14
17,19,1,2,7,13,313,1039.1580144037725,1039.686609958182,"[58, 0, 196]",196,a,0.006060890154913068,colour,0.14
17,19,1,2,7,14,314,1041.7043779090745,1042.5265810340643,"[11, 0, 243]",243,a,0.29887722490821034,colour,0.14
17,19,1,2,7,15,315,1044.52101757098,1045.238544409629,"[55, 0, 199]",199,a,0.19434784282930195,colour,0.14
17,19,1,2,7,16,316,1047.255563266226,1048.3025785859209,"[54, 0, 200]",200,a,0.523815056309104,colour,0.14
17,19,1,2,7,17,317,1050.3182670320384,1051.1665758196032,"[59, 0, 195]",195,a,0.3250837118830532,colour,0.14
17,19,1,2,7,18,318,1053.177896911744,1053.8945919483667,"[70, 0, 184]",184,a,0.1937235975638032,colour,0.14
17,19,1,2,7,19,319,1055.9125422497746,1056.6625645020977,"[68, 0, 186]",186,a,0.22694053640589118,colour,0.14
17,19,1,2,7,20,320,1058.6783332925988,1059.390544397058,"[88, 0, 166]",166,l,0.18923336383886635,colour,0.14
17,19,1,2,7,21,321,1061.3972980615217,1062.1585567290895,"[53, 0, 201]",201,a,0.2380005088634789,colour,0.14
17,19,1,2,7,22,322,1064.1788279627217,1065.078553688596,"[69, 0, 185]",185,a,0.37649986252654344,colour,0.14
17,19,1,2,7,23,323,1067.0852900239406,1067.8225245031063,"[80, 0, 174]",174,l,0.21409329259768128,colour,0.14
17,19,1,2,7,24,324,1069.8354879313847,1070.5345501062693,"[50, 0, 204]",204,a,0.17603835428599268,colour,0.14
17,19,1,2,7,25,325,1072.5543987434357,1073.1905373865739,"[22, 0, 232]",232,a,0.11291947506833822,colour,0.14
17,19,1,2,7,26,326,1075.2109149585012,1075.8385485056788,"[84, 0, 170]",170,l,0.10521506727673113,colour,0.14
17,19,1,2,7,27,327,1077.851772659691,1078.502489104285,"[33, 0, 221]",221,a,0.1275870733661577,colour,0.14
17,19,1,2,7,28,328,1080.5237618872197,1083.3185316963354,"[74, 0, 180]",180,l,2.2715407949872315,colour,0.14
17,19,1,2,7,29,329,1085.3366430805763,1085.9345491610002,"[57, 0, 197]",197,a,0.07493779214564711,colour,0.14
17,19,1,2,7,30,330,1087.9461223143153,1089.014558503055,"[56, 0, 198]",198,a,0.545473808189854,colour,0.14
17,19,1,2,7,31,331,1091.0245728153968,1091.6465432564728,"[91, 0, 163]",163,l,0.09886470064520836,colour,0.14
17,19,1,2,7,32,332,1093.6653753782157,1094.4225325376028,"[83, 0, 171]",171,l,0.23386788694188,colour,0.14
17,19,1,2,7,33,333,1096.4312558239326,1097.1665364350192,"[96, 0, 158]",158,l,0.21218038443475962,colour,0.14
17,19,1,2,7,34,334,1099.181425374467,1099.9585158479167,"[62, 0, 192]",192,a,0.2537787517067045,colour,0.14
17,19,1,2,7,35,335,1101.9785937033594,1102.7424793210812,"[66, 0, 188]",188,a,0.24063572974409908,colour,0.14
17,19,1,2,7,36,336,1104.7600483800052,1105.4785291126464,"[95, 0, 159]",159,l,0.1952796815894544,colour,0.14
17,19,1,2,7,37,337,1107.494529878255,1108.2945335017284,"[89, 0, 165]",165,l,0.27675216004718095,colour,0.14
17,19,1,2,7,38,338,1110.3073590840213,1111.5024942242308,"[79, 0, 175]",175,l,0.672138101188466,colour,0.14
17,19,1,2,7,39,339,1113.5106606129557,1114.5024930427317,"[75, 0, 179]",179,a,0.4670307900523767,colour,0.14
17,19,1,2,7,40,340,1116.5109599356074,1117.3504615476122,"[52, 0, 202]",202,a,0.3165274158818647,colour,0.14
17,19,1,2,7,41,341,1119.3705480676144,1119.942479636171,"[60, 0, 194]",194,a,0.04860488069243729,colour,0.14
17,19,1,2,7,42,342,1121.9489253134234,1122.4944857675582,"[48, 0, 206]",206,a,0.02229126763995737,colour,0.14
17,19,1,2,7,43,343,1124.5116050547222,1125.5104719609953,"[4, 0, 250]",250,a,0.47576904273591936,colour,0.14
17,19,1,2,7,44,344,1127.5274624605663,1128.1904657066334,"[87, 0, 167]",167,l,0.1448690186953172,colour,0.14
17,19,1,2,7,45,345,1130.2101701964857,1130.9184593862155,"[85, 0, 169]",169,l,0.18521928926929832,colour,0.14
17,19,1,2,7,46,346,1132.9290794330882,1133.51061098848,"[90, 0, 164]",164,l,0.058257248951122165,colour,0.14
17,19,1,2,7,47,347,1135.5230045220815,1136.910475348006,"[3, 0, 251]",251,a,0.8644442483782768,colour,0.14
17,19,1,2,7,48,348,1138.9295536233112,1139.6384457907407,"[71, 0, 183]",183,a,0.18568678409792483,colour,0.14
17,19,1,2,7,49,349,1141.648563290597,1142.2944448863855,"[86, 0, 168]",168,l,0.12270535703282803,colour,0.14
17,19,1,2,7,50,350,1144.3049341766164,1144.9984553374816,"[81, 0, 173]",173,l,0.17044062656350434,colour,0.14
17,19,1,2,8,1,351,1152.4141318106558,1153.2063754940173,"[65, 0, 189]",189,a,0.2681785349268466,colour,0.06
17,19,1,2,8,2,352,1155.2277211383916,1156.2147734639002,"[81, 0, 173]",173,l,0.4641167263034731,colour,0.06
17,19,1,2,8,3,353,1158.227934208815,1158.7744560401188,"[60, 0, 194]",194,a,0.023505887598730624,colour,0.06
17,19,1,2,8,4,354,1160.7906367932446,1161.3984094938496,"[83, 0, 171]",171,l,0.08457086188718677,colour,0.06
17,19,1,2,8,5,355,1163.415879697539,1163.9744323305786,"[9, 0, 245]",245,a,0.035753698321059346,colour,0.06
17,19,1,2,8,6,356,1165.9940919219516,1166.6064647394232,"[45, 0, 209]",209,a,0.08917767403181642,colour,0.06
17,19,1,2,8,7,357,1168.619224943337,1169.230409134645,"[97, 0, 157]",157,l,0.08784490043763071,colour,0.06
17,19,1,2,8,8,358,1171.2445375582902,1172.0143623679178,"[58, 0, 196]",196,a,0.2467982320813462,colour,0.06
17,19,1,2,8,9,359,1174.0260962101165,1174.702405924094,"[85, 0, 169]",169,l,0.1531838873634115,colour,0.06
17,19,1,2,8,10,360,1176.7137207146734,1177.5503708843607,"[92, 0, 162]",162,l,0.3134503001347184,colour,0.06
17,19,1,2,8,11,361,1179.5576735697687,1180.246430774103,"[55, 0, 199]",199,a,0.16543406120035797,colour,0.06
17,19,1,2,8,12,362,1182.2609967602184,1182.9024330206448,"[63, 0, 191]",191,a,0.11840968288015574,colour,0.06
17,19,1,2,8,13,363,1184.917434993782,1185.8384102658601,"[79, 0, 175]",175,l,0.3976379503728822,colour,0.06
17,19,1,2,8,14,364,1187.8552408640971,1188.5186533158412,"[52, 0, 202]",202,a,0.14024920982774347,colour,0.06
17,19,1,2,8,15,365,1190.5272781408858,1191.1824588254094,"[93, 0, 161]",161,l,0.13665970088914037,colour,0.06
17,19,1,2,8,16,366,1193.1946018732851,1193.7903890643502,"[68, 0, 186]",186,a,0.07272241055034101,colour,0.06
17,19,1,2,8,17,367,1195.804046448553,1196.4783940236084,"[76, 0, 178]",178,a,0.15137180360034108,colour,0.06
17,19,1,2,8,18,368,1198.4918237651,1199.4303728220984,"[54, 0, 200]",200,a,0.4152582091046497,colour,0.06
17,19,1,2,8,19,369,1201.4451199772302,1202.2223660196178,"[69, 0, 185]",185,a,0.25436243088915944,colour,0.06
17,19,1,2,8,20,370,1204.242226866074,1204.8623619866557,"[98, 0, 156]",156,l,0.09686435875482857,colour,0.06
17,19,1,2,8,21,371,1206.8830774780363,1207.606394634815,"[89, 0, 165]",165,l,0.20015588402748108,colour,0.06
17,19,1,2,8,22,372,1209.6176538931904,1210.310364125995,"[91, 0, 163]",163,l,0.16939693572930992,colour,0.06
17,19,1,2,8,23,373,1212.320973932976,1213.3423333619721,"[70, 0, 184]",184,a,0.4981012702919543,colour,0.06
17,19,1,2,8,24,374,1215.3524106895784,1215.9743468661327,"[75, 0, 179]",179,a,0.09858349489513785,colour,0.06
17,19,1,2,8,25,375,1217.9933144707466,1218.5186655250145,"[71, 0, 183]",183,a,0.0022248338209465146,colour,0.06
17,19,1,2,8,26,376,1220.540415648953,1221.2304374915548,"[84, 0, 170]",170,l,0.16688420076388866,colour,0.06
17,19,1,2,8,27,377,1223.2436840948649,1224.0383235410554,"[59, 0, 195]",195,a,0.27147856738884,colour,0.06
17,19,1,2,8,28,378,1226.0563817560906,1226.7823424045928,"[50, 0, 204]",204,a,0.20260717917699367,colour,0.06
17,19,1,2,8,29,379,1228.7910523003666,1229.5823420896195,"[95, 0, 159]",159,l,0.2680781043600291,colour,0.06
17,19,1,2,8,30,380,1231.6037578384858,1232.1347298573237,"[62, 0, 192]",192,a,0.007775300065986812,colour,0.06
17,19,1,2,8,31,381,1234.1664320660057,1234.7503259072546,"[82, 0, 172]",172,l,0.0605915718479082,colour,0.06
17,19,1,2,8,32,382,1236.7603673948906,1237.422294654767,"[53, 0, 201]",201,a,0.13876126101240516,colour,0.06
17,19,1,2,8,33,383,1239.4323932500556,1240.0943134207046,"[64, 0, 190]",190,a,0.13854228286072612,colour,0.06
17,19,1,2,8,34,384,1242.1046286311466,1242.7342814247822,"[61, 0, 193]",193,a,0.10647813021205366,colour,0.06
17,19,1,2,8,35,385,1244.7453788125422,1246.0863400163362,"[72, 0, 182]",182,a,0.8176695682341233,colour,0.06
17,19,1,2,8,36,386,1248.1049374061404,1248.8383031397825,"[73, 0, 181]",181,a,0.210090639651753,colour,0.06
17,19,1,2,8,37,387,1250.855214082636,1251.398345690919,"[88, 0, 166]",166,l,0.019914015661925077,colour,0.06
17,19,1,2,8,38,388,1253.417931239237,1254.2622984199552,"[80, 0, 174]",174,l,0.32133115094620734,colour,0.06
17,19,1,2,8,39,389,1256.277548909653,1256.9742606139043,"[99, 0, 155]",155,l,0.17368000675924122,colour,0.06
17,19,1,2,8,40,390,1258.980885491008,1259.582286163466,"[90, 0, 164]",164,l,0.07803066167980433,colour,0.06
17,19,1,2,8,41,391,1261.590446250746,1262.3343213606859,"[87, 0, 167]",167,l,0.2206500342581421,colour,0.06
17,19,1,2,8,42,392,1264.3408115424681,1265.0142832049169,"[57, 0, 197]",197,a,0.15037694957572967,colour,0.06
17,19,1,2,8,43,393,1267.0283694870304,1267.5902627186151,"[66, 0, 188]",188,a,0.03864531288854778,colour,0.06
17,19,1,2,8,44,394,1269.606635274482,1270.4222273072228,"[74, 0, 180]",180,a,0.29225668020080775,colour,0.06
17,19,1,2,8,45,395,1272.435058403411,1273.9983033131575,"[78, 0, 176]",176,l,1.0399583942489699,colour,0.06
17,19,1,2,8,46,396,1276.0134494337253,1276.7102592055453,"[51, 0, 203]",203,a,0.17342597630340606,colour,0.06
17,19,1,2,8,47,397,1278.7267184074735,1279.8222153342795,"[77, 0, 177]",177,l,0.5722308912081644,colour,0.06
17,19,1,2,8,48,398,1281.8363488778705,1282.5183004301507,"[13, 0, 241]",241,a,0.1586291966959834,colour,0.06
17,19,1,2,8,49,399,1284.5240899606142,1285.1822193672415,"[67, 0, 187]",187,a,0.1349405647488311,colour,0.06
17,19,1,2,8,50,400,1287.1962272741366,1287.7663132820744,"[94, 0, 160]",160,l,0.046857387642376125,colour,0.06
17,19,1,2,9,1,401,1295.1491595729021,1295.7662805928849,"[98, 0, 156]",156,l,0.09315512073226273,colour,0.06
17,19,1,2,9,2,402,1297.7751184884692,1298.8862479352392,"[78, 0, 176]",176,a,0.5879819587571546,colour,0.06
17,19,1,2,9,3,403,1300.9003881742246,1301.7022125459043,"[60, 0, 194]",194,a,0.27856818214058876,colour,0.06
17,19,1,2,9,4,404,1303.713072838611,1304.270254101255,"[54, 0, 200]",200,a,0.03385260561481118,colour,0.06
17,19,1,2,9,5,405,1306.29132523539,1308.0702317308169,"[87, 0, 167]",167,l,1.2556443982757628,colour,0.06
17,19,1,2,9,6,406,1310.0885991147952,1310.670216528466,"[80, 0, 174]",174,l,0.05840809177607298,colour,0.06
17,19,1,2,9,7,407,1312.6825281422352,1313.7022377520334,"[58, 0, 196]",196,a,0.496347869746387,colour,0.06
17,19,1,2,9,8,408,1315.7140271265525,1316.2862367500784,"[64, 0, 190]",190,a,0.04902787087485194,colour,0.06
17,19,1,2,9,9,409,1318.3079730892787,1319.2062029895606,"[45, 0, 209]",209,a,0.3753651933511719,colour,0.06
17,19,1,2,9,10,410,1321.2144639012404,1321.990174733568,"[97, 0, 157]",157,l,0.25248142424970865,colour,0.06
17,19,1,2,9,11,411,1324.0115294364514,1324.838184198481,"[71, 0, 183]",183,a,0.303426141734235,colour,0.06
17,19,1,2,9,12,412,1326.855504740728,1327.6221839054488,"[90, 0, 164]",164,l,0.2433922552736476,colour,0.06
17,19,1,2,9,13,413,1329.6369275158504,1330.2461952544982,"[63, 0, 191]",191,a,0.08585834316909313,colour,0.06
17,19,1,2,9,14,414,1332.2621613616357,1332.9741633341182,"[6, 0, 248]",248,a,0.18877847213298082,colour,0.06
17,19,1,2,9,15,415,1334.9811139213853,1335.5821869143983,"[85, 0, 169]",169,l,0.07778372045140713,colour,0.06
17,19,1,2,9,16,416,1337.5907109149266,1338.254151329631,"[95, 0, 159]",159,l,0.14045204024296254,colour,0.06
17,19,1,2,9,17,417,1340.2628702837974,1341.2061336727347,"[15, 0, 239]",239,a,0.4201316547114402,colour,0.06
17,19,1,2,9,18,418,1343.2161574374186,1343.9582582729636,"[91, 0, 163]",163,l,0.21885291684884578,colour,0.06
17,19,1,2,9,19,419,1345.9663864586037,1346.7421425831271,"[66, 0, 188]",188,a,0.2524534611729905,colour,0.06
17,19,1,2,9,20,420,1348.763438996859,1350.5503641890828,"[79, 0, 175]",175,a,1.2636307997163385,colour,0.06
17,19,1,2,9,21,421,1352.5606778240763,1353.3421829129802,"[56, 0, 198]",198,a,0.2583997423062101,colour,0.06
17,19,1,2,9,22,422,1355.3577622637386,1356.0061207546387,"[88, 0, 166]",166,l,0.1251290829386562,colour,0.06
17,19,1,2,9,23,423,1358.0141792297363,1359.0703341307817,"[52, 0, 202]",202,a,0.5330192283727229,colour,0.06
17,19,1,2,9,24,424,1361.0768778756028,1361.7021932473872,"[99, 0, 155]",155,l,0.1022525605512783,colour,0.06
17,19,1,2,9,25,425,1363.7176741368603,1364.4781628362834,"[62, 0, 192]",192,a,0.23704976553563029,colour,0.06
17,19,1,2,9,26,426,1366.4992603579303,1367.3021638665814,"[61, 0, 193]",193,a,0.2795484638772905,colour,0.06
17,19,1,2,9,27,427,1369.3120706590125,1370.0541466822615,"[68, 0, 186]",186,a,0.21887221524957567,colour,0.06
17,19,1,2,9,28,428,1372.0622445418267,1372.7181538408622,"[96, 0, 158]",158,l,0.13271809404250234,colour,0.06
17,19,1,2,9,29,429,1374.7342440093635,1375.6461198724573,"[84, 0, 170]",170,l,0.3884585907217115,colour,0.06
17,19,1,2,9,30,430,1377.6564106644364,1378.2941199637717,"[93, 0, 161]",161,l,0.11477724486030638,colour,0.06
17,19,1,2,9,31,431,1380.3128733163467,1381.0301181615796,"[67, 0, 187]",187,a,0.1940083479275927,colour,0.06
17,19,1,2,9,32,432,1383.047459577676,1383.6461056940025,"[89, 0, 165]",165,l,0.07558960665483028,colour,0.06
17,19,1,2,9,33,433,1385.659100236022,1386.2941030284856,"[94, 0, 160]",160,l,0.11183994438033551,colour,0.06
17,19,1,2,9,34,434,1388.3155865188455,1388.9261118064169,"[53, 0, 201]",201,a,0.08717299974523485,colour,0.06
17,19,1,2,9,35,435,1390.9408223339124,1392.1661162017845,"[75, 0, 179]",179,a,0.7019608785631135,colour,0.06
17,19,1,2,9,36,436,1394.1754944535205,1394.8861278123222,"[51, 0, 203]",203,a,0.18737992632668465,colour,0.06
17,19,1,2,9,37,437,1396.8944651300553,1397.5340550423134,"[82, 0, 172]",172,l,0.1166409223806113,colour,0.06
17,19,1,2,9,38,438,1399.550761579303,1400.2301235966152,"[65, 0, 189]",189,a,0.1565083380555734,colour,0.06
17,19,1,2,9,39,439,1402.2301346242893,1403.0380982613424,"[83, 0, 171]",171,l,0.284812604309991,colour,0.06
17,19,1,2,9,40,440,1405.0584490516922,1405.8140670624562,"[69, 0, 185]",185,a,0.23240356892347336,colour,0.06
17,19,1,2,9,41,441,1407.8243094114587,1408.494067503605,"[72, 0, 182]",182,a,0.1465082042850554,colour,0.06
17,19,1,2,9,42,442,1410.5119736941997,1411.1340425967937,"[73, 0, 181]",181,a,0.09869810403324664,colour,0.06
17,19,1,2,9,43,443,1413.1528664476937,1413.7020967552671,"[92, 0, 162]",162,l,0.0260599764296785,colour,0.06
17,19,1,2,9,44,444,1415.7155198013643,1416.3100592895644,"[57, 0, 197]",197,a,0.07133804319892079,colour,0.06
17,19,1,2,9,45,445,1418.3251211271854,1419.1500599038554,"[76, 0, 178]",178,a,0.30166407639626414,colour,0.06
17,19,1,2,9,46,446,1421.1690830407897,1421.7820509588346,"[77, 0, 177]",177,a,0.09045018907636404,colour,0.06
17,19,1,2,9,47,447,1423.7943436681526,1424.3820432395441,"[70, 0, 184]",184,a,0.06475255079567432,colour,0.06
17,19,1,2,9,48,448,1426.388191169477,1426.950088733458,"[59, 0, 195]",195,a,0.038571269949898124,colour,0.06
17,19,1,2,9,49,449,1428.9665699907346,1429.9020009719534,"[55, 0, 199]",199,a,0.41217597329523414,colour,0.06
17,19,1,2,9,50,450,1431.9199114950607,1432.6620229643304,"[50, 0, 204]",204,a,0.21857013565022498,colour,0.06
17,19,1,2,10,1,451,1440.0607187839923,1440.9980650364887,"[65, 0, 189]",189,a,0.41385690646711737,colour,0.06
17,19,1,2,10,2,452,1443.0148861825,1444.3420505807735,"[77, 0, 177]",177,a,0.8037951750447974,colour,0.06
17,19,1,2,10,3,453,1446.3532641530037,1446.9340781216742,"[88, 0, 166]",166,l,0.057554628350771964,colour,0.06
17,19,1,2,10,4,454,1448.9470817222027,1449.510009192396,"[98, 0, 156]",156,l,0.03947987174615264,colour,0.06
17,19,1,2,10,5,455,1451.5255487647373,1452.2379910565214,"[95, 0, 159]",159,l,0.18916286539752036,colour,0.06
17,19,1,2,10,6,456,1454.2443890784634,1455.0219584681327,"[97, 0, 157]",157,l,0.25475942727643996,colour,0.06
17,19,1,2,10,7,457,1457.0416050626663,1457.7579948690254,"[64, 0, 190]",190,a,0.1932513767387718,colour,0.06
17,19,1,2,10,8,458,1459.7762437053025,1460.590021685115,"[74, 0, 180]",180,a,0.290643488522619,colour,0.06
17,19,1,2,10,9,459,1462.6045270189643,1463.2939789670054,"[67, 0, 187]",187,a,0.16617803543340415,colour,0.06
17,19,1,2,10,10,460,1465.3078230341198,1465.949994604336,"[69, 0, 185]",185,a,0.11919067881535739,colour,0.06
17,19,1,2,10,11,461,1467.9643672121456,1468.6539826062508,"[68, 0, 186]",186,a,0.1663785029668361,colour,0.06
17,19,1,2,10,12,462,1470.6675352274906,1471.278159370413,"[54, 0, 200]",200,a,0.08641563472338021,colour,0.06
17,19,1,2,10,13,463,1473.2927757686703,1473.8299855143996,"[92, 0, 162]",162,l,0.013884239364415407,colour,0.06
17,19,1,2,10,14,464,1475.8397489470663,1476.3740111520747,"[78, 0, 176]",176,a,0.010800821939483285,colour,0.06
17,19,1,2,10,15,465,1478.3869860019768,1478.9739762573736,"[55, 0, 199]",199,a,0.06380574591457844,colour,0.06
17,19,1,2,10,16,466,1480.9809055770747,1481.8380132694729,"[61, 0, 193]",193,a,0.3337876999285072,colour,0.06
17,19,1,2,10,17,467,1483.8561545859557,1484.8779606359312,"[80, 0, 174]",174,l,0.4984970851801336,colour,0.06
17,19,1,2,10,18,468,1486.887588585727,1487.573964205687,"[94, 0, 160]",160,l,0.16381102334707975,colour,0.06
17,19,1,2,10,19,469,1489.5908987793373,1490.2539532253286,"[53, 0, 201]",201,a,0.13970058283302933,colour,0.06
17,19,1,2,10,20,470,1492.263073901995,1493.0779889139812,"[50, 0, 204]",204,a,0.2915997456293553,colour,0.06
17,19,1,2,10,21,471,1495.0914438616019,1495.766020260984,"[56, 0, 198]",198,a,0.15166521864011884,colour,0.06
17,19,1,2,10,22,472,1497.7791821875144,1498.3580690694507,"[87, 0, 167]",167,l,0.05606077192351222,colour,0.06
17,19,1,2,10,23,473,1500.3730509565212,1503.469923979952,"[62, 0, 192]",192,a,2.573777129058726,colour,0.06
17,19,1,2,10,24,474,1505.4828917405102,1506.2539323514793,"[9, 0, 245]",245,a,0.2478269567945972,colour,0.06
17,19,1,2,10,25,475,1508.264305063407,1508.9739475066308,"[60, 0, 194]",194,a,0.18641618604306132,colour,0.06
17,19,1,2,10,26,476,1510.9832603799878,1511.6139281137148,"[52, 0, 202]",202,a,0.10735601198393852,colour,0.06
17,19,1,2,10,27,477,1513.6240511274664,1514.2299077692442,"[89, 0, 165]",165,l,0.08257367077749223,colour,0.06
17,19,1,2,10,28,478,1516.2493976131082,1516.9899151893333,"[57, 0, 197]",197,a,0.2172235775506124,colour,0.06
17,19,1,2,10,29,479,1518.999575434369,1519.781963131274,"[34, 0, 220]",220,a,0.2593733285320923,colour,0.06
17,19,1,2,10,30,480,1521.7966689325403,1522.7259685253957,"[70, 0, 184]",184,a,0.4061591939534992,colour,0.06
17,19,1,2,10,31,481,1524.7342782740016,1525.8779121929547,"[72, 0, 182]",182,a,0.6201678097713739,colour,0.06
17,19,1,2,10,32,482,1527.890881135012,1528.6859624759527,"[51, 0, 203]",203,a,0.271874382160604,colour,0.06
17,19,1,2,10,33,483,1530.7035299594281,1531.2938891702797,"[58, 0, 196]",196,a,0.06707702751737088,colour,0.06
17,19,1,2,10,34,484,1533.3131245898549,1533.8779543343699,"[85, 0, 169]",169,l,0.04193352989386767,colour,0.06
17,19,1,2,10,35,485,1535.8914687526412,1536.653945584665,"[66, 0, 188]",188,a,0.23924230400007218,colour,0.06
17,19,1,2,10,36,486,1538.6743609658442,1539.3020591036184,"[84, 0, 170]",170,l,0.10435608995612711,colour,0.06
17,19,1,2,10,37,487,1541.315168254776,1542.1018780134618,"[79, 0, 175]",175,l,0.2644740231335163,colour,0.06
17,19,1,2,10,38,488,1544.1122215806972,1544.853884853772,"[99, 0, 155]",155,l,0.21859731106087565,colour,0.06
17,19,1,2,10,39,489,1546.862508497201,1547.4378795194207,"[71, 0, 183]",183,a,0.052069934317842126,colour,0.06
17,19,1,2,10,40,490,1549.4564591861563,1550.101865016506,"[59, 0, 195]",195,a,0.12219335767440498,colour,0.06
17,19,1,2,10,41,491,1552.112946256646,1552.7818804237759,"[13, 0, 241]",241,a,0.1456752207595855,colour,0.06
17,19,1,2,10,42,492,1554.8005672164727,1555.3898752533132,"[90, 0, 164]",164,l,0.06594826595392078,colour,0.06
17,19,1,2,10,43,493,1557.4101827207487,1558.109846297768,"[91, 0, 163]",163,l,0.17645228595938534,colour,0.06
17,19,1,2,10,44,494,1560.1291660004063,1560.7818997221766,"[93, 0, 161]",161,l,0.12942515080794692,colour,0.06
17,19,1,2,10,45,495,1562.8012930739205,1563.5178597168997,"[75, 0, 179]",179,a,0.1932828843127936,colour,0.06
17,19,1,2,10,46,496,1565.5359494396253,1566.365880997153,"[81, 0, 173]",173,l,0.30669545417185873,colour,0.06
17,19,1,2,10,47,497,1568.3797557841754,1569.2138624989893,"[73, 0, 181]",181,a,0.3107965684030205,colour,0.06
17,19,1,2,10,48,498,1571.2237779560965,1571.9178788578138,"[63, 0, 191]",191,a,0.17083132138941437,colour,0.06
17,19,1,2,10,49,499,1573.9271153251175,1576.0938664060086,"[76, 0, 178]",178,l,1.644203813513741,colour,0.06
17,19,1,2,10,50,500,1578.1150399398757,1578.861861802754,"[83, 0, 171]",171,l,0.22374920547008514,colour,0.06
17,19,1,2,11,1,501,1585.9428738756105,1586.9498776321998,"[90, 0, 164]",164,l,0.48309260176029056,colour,0.06
17,19,1,2,11,2,502,1588.95958474488,1589.6138123230776,"[79, 0, 175]",175,l,0.13097532710526139,colour,0.06
17,19,1,2,11,3,503,1591.6318323351443,1592.2058827930596,"[94, 0, 160]",160,l,0.05122040933929384,colour,0.06
17,19,1,2,11,4,504,1594.2542942955624,1595.97383171611,"[80, 0, 174]",174,l,1.1937826744979247,colour,0.06
17,19,1,2,11,5,505,1597.9914058948634,1598.821822276339,"[50, 0, 204]",204,a,0.30718618573155254,colour,0.06
17,19,1,2,11,6,506,1600.8354713898152,1601.381792753702,"[93, 0, 161]",161,l,0.02308722969610244,colour,0.06
17,19,1,2,11,7,507,1603.3981330142124,1604.1098230609205,"[86, 0, 168]",168,l,0.18835114955436438,colour,0.06
17,19,1,2,11,8,508,1606.1171190508176,1606.7017938880017,"[71, 0, 183]",183,a,0.06139304768294096,colour,0.06
17,19,1,2,11,9,509,1608.711223733495,1609.9098231396638,"[77, 0, 177]",177,l,0.6755763733526692,colour,0.06
17,19,1,2,11,10,510,1611.9301282439847,1612.501808932866,"[63, 0, 191]",191,a,0.048437496297992766,colour,0.06
17,19,1,2,11,11,511,1614.508401908446,1615.0938029967947,"[72, 0, 182]",182,a,0.06208582210820168,colour,0.06
17,19,1,2,11,12,512,1617.1023951326497,1617.9577636028407,"[59, 0, 195]",195,a,0.3321225206600502,colour,0.06
17,19,1,2,11,13,513,1619.9776780123357,1620.7977594911354,"[60, 0, 194]",194,a,0.2971297319745645,colour,0.06
17,19,1,2,11,14,514,1622.8059924397385,1623.4457587947836,"[87, 0, 167]",167,l,0.11657593783456832,colour,0.06
17,19,1,2,11,15,515,1625.4624094056198,1626.1178260036977,"[97, 0, 157]",157,l,0.13253219879698008,colour,0.06
17,19,1,2,11,16,516,1628.1344265962252,1628.773729395005,"[58, 0, 196]",196,a,0.11630615359172225,colour,0.06
17,19,1,2,11,17,517,1630.791019611177,1631.5897538701538,"[66, 0, 188]",188,a,0.27550288185011595,colour,0.06
17,19,1,2,11,18,518,1633.6036861586617,1634.2057666087057,"[89, 0, 165]",165,l,0.07878802681807429,colour,0.06
17,19,1,2,11,19,519,1636.2132662168005,1636.8457535172347,"[31, 0, 223]",223,a,0.10991679620929062,colour,0.06
17,19,1,2,11,20,520,1638.8540809887927,1639.4777217291994,"[70, 0, 184]",184,a,0.10039242776110768,colour,0.06
17,19,1,2,11,21,521,1641.4949319947045,1642.1017381981947,"[64, 0, 190]",190,a,0.08404665335547179,colour,0.06
17,19,1,2,11,22,522,1644.1201032190584,1644.805744710844,"[83, 0, 171]",171,l,0.16240341926459223,colour,0.06
17,19,1,2,11,23,523,1646.8242062238278,1647.4617851603543,"[53, 0, 201]",201,a,0.11509507824666798,colour,0.06
17,19,1,2,11,24,524,1649.479965861421,1650.389686995186,"[96, 0, 158]",158,l,0.38656576874200255,colour,0.06
17,19,1,2,11,25,525,1652.402004516567,1653.0937427384779,"[61, 0, 193]",193,a,0.1685627707047388,colour,0.06
17,19,1,2,11,26,526,1655.105341491755,1655.7577605308034,"[52, 0, 202]",202,a,0.12919514498207718,colour,0.06
17,19,1,2,11,27,527,1657.7774110637838,1658.429703284637,"[65, 0, 189]",189,a,0.12912897893693298,colour,0.06
17,19,1,2,11,28,528,1660.4495239588432,1661.1657704053214,"[3, 0, 251]",251,a,0.19298986322246492,colour,0.06
17,19,1,2,11,29,529,1663.1841271554586,1663.8937601464568,"[68, 0, 186]",186,a,0.1871837911894545,colour,0.06
17,19,1,2,11,30,530,1665.9030241828877,1666.8697123272577,"[76, 0, 178]",178,l,0.4433728780131787,colour,0.06
17,19,1,2,11,31,531,1668.887599219568,1669.557711378904,"[84, 0, 170]",170,l,0.14706431422382593,colour,0.06
17,19,1,2,11,32,532,1671.5753347884165,1672.325740646338,"[69, 0, 185]",185,a,0.22707168699707836,colour,0.06
17,19,1,2,11,33,533,1674.341201055795,1675.069714611629,"[73, 0, 181]",181,a,0.20522940333466977,colour,0.06
17,19,1,2,11,34,534,1677.0914355908753,1677.9016941662412,"[85, 0, 169]",169,l,0.28735842229798436,colour,0.06
17,19,1,2,11,35,535,1679.9197311137104,1680.7977618541336,"[55, 0, 199]",199,a,0.3546812095446512,colour,0.06
17,19,1,2,11,36,536,1682.8106819593813,1683.7657158183865,"[74, 0, 180]",180,a,0.4318005124805495,colour,0.06
17,19,1,2,11,37,537,1685.7796603160677,1686.4697069709655,"[81, 0, 173]",173,l,0.16678022546693683,colour,0.06
17,19,1,2,11,38,538,1688.48297641729,1689.173754443531,"[91, 0, 163]",163,l,0.1675265629310161,colour,0.06
17,19,1,2,11,39,539,1691.1862984262407,1692.0776494190795,"[67, 0, 187]",187,a,0.36814639705698937,colour,0.06
17,19,1,2,11,40,540,1694.0928743089316,1694.7016749465838,"[92, 0, 162]",162,l,0.08583550015464425,colour,0.06
17,19,1,2,11,41,541,1696.718198739225,1697.3177341589471,"[99, 0, 155]",155,l,0.07646433764602989,colour,0.06
17,19,1,2,11,42,542,1699.3276311053196,1700.189635874005,"[78, 0, 176]",176,a,0.33896834508050233,colour,0.06
17,19,1,2,11,43,543,1702.202737542102,1702.9176957196323,"[54, 0, 200]",200,a,0.19196901540271938,colour,0.06
17,19,1,2,11,44,544,1704.9373584616696,1705.9897080265218,"[98, 0, 156]",156,l,0.5290961322607473,colour,0.06
17,19,1,2,11,45,545,1708.0001327259233,1708.6856363718398,"[25, 0, 229]",229,a,0.16212733346037567,colour,0.06
17,19,1,2,11,46,546,1710.6941824277164,1711.2296864279779,"[62, 0, 192]",192,a,0.012447884306311607,colour,0.06
17,19,1,2,11,47,547,1713.241410030285,1713.8136625830084,"[51, 0, 203]",203,a,0.04914169223047793,colour,0.06
17,19,1,2,11,48,548,1715.8196324948221,1716.5416653209832,"[57, 0, 197]",197,a,0.19873843365348876,colour,0.06
17,19,1,2,11,49,549,1718.5542404175503,1719.3176502698334,"[82, 0, 172]",172,l,0.24014854279812425,colour,0.06
17,19,1,2,11,50,550,1721.3357734694146,1722.0216177917318,"[88, 0, 166]",166,l,0.16266256966628134,colour,0.06
17,19,1,2,12,1,551,1729.5542943744222,1730.1176082071615,"[52, 0, 202]",202,a,0.03928216127678752,colour,0.06
17,19,1,2,12,2,552,1732.1335672250716,1732.893675469677,"[66, 0, 188]",188,a,0.23727937752846628,colour,0.06
17,19,1,2,12,3,553,1734.9148840557318,1736.9096069184598,"[93, 0, 161]",161,l,1.471411928650923,colour,0.06
17,19,1,2,12,4,554,1738.930766273872,1739.6056187590584,"[32, 0, 222]",222,a,0.15150807425379753,colour,0.06
17,19,1,2,12,5,555,1741.6185317750787,1742.5656536695315,"[84, 0, 170]",170,l,0.4242410399019718,colour,0.06
17,19,1,2,12,6,556,1744.5718866700772,1745.7896289422642,"[62, 0, 192]",192,a,0.694507350330241,colour,0.06
17,19,1,2,12,7,557,1747.8065406727837,1748.34161695675,"[82, 0, 172]",172,l,0.011803946807049215,colour,0.06
17,19,1,2,12,8,558,1750.353655241779,1751.1175963917049,"[99, 0, 155]",155,l,0.24076451733708382,colour,0.06
17,19,1,2,12,9,559,1753.1351378813852,1754.0616120258346,"[98, 0, 156]",156,l,0.40337194863241166,colour,0.06
17,19,1,2,12,10,560,1756.0727846381487,1756.6135980710387,"[61, 0, 193]",193,a,0.01758560026064515,colour,0.06
17,19,1,2,12,11,561,1758.6200102714356,1759.2455647076713,"[90, 0, 164]",164,l,0.10242270189337432,colour,0.06
17,19,1,2,12,12,562,1761.2606600222643,1761.8615526339272,"[64, 0, 190]",190,a,0.07763681607320905,colour,0.06
17,19,1,2,12,13,563,1763.8703448433662,1764.5815555799054,"[65, 0, 189]",189,a,0.18802937772125006,colour,0.06
17,19,1,2,12,14,564,1766.5892907077214,1767.2055807135766,"[71, 0, 183]",183,a,0.09314173005986959,colour,0.06
17,19,1,2,12,15,565,1769.2144591751276,1769.877634531702,"[78, 0, 176]",176,a,0.13995815778616816,colour,0.06
17,19,1,2,12,16,566,1771.8865062979748,1772.7899018772878,"[58, 0, 196]",196,a,0.38015396206174046,colour,0.06
17,19,1,2,12,17,567,1774.8086339622969,1775.3575594333233,"[73, 0, 181]",181,a,0.02567085693590343,colour,0.06
17,19,1,2,12,18,568,1777.371336152777,1778.2855148310773,"[95, 0, 159]",159,l,0.39097368880175054,colour,0.06
17,19,1,2,12,19,569,1780.2933838663157,1781.1095154675422,"[86, 0, 168]",168,l,0.2929191285511479,colour,0.06
17,19,1,2,12,20,570,1783.121764066047,1783.741565599339,"[70, 0, 184]",184,a,0.09653628536034375,colour,0.06
17,19,1,2,12,21,571,1785.7626505179796,1786.3815647170413,"[53, 0, 201]",201,a,0.09565800963900983,colour,0.06
17,19,1,2,12,22,572,1788.387805200764,1789.3255118220113,"[81, 0, 173]",173,l,0.41455322538968176,colour,0.06
17,19,1,2,12,23,573,1791.341104957508,1792.021533508785,"[56, 0, 198]",198,a,0.1570538142696023,colour,0.06
17,19,1,2,12,24,574,1794.028963012388,1794.573567603249,"[88, 0, 166]",166,l,0.02147246280219406,colour,0.06
17,19,1,2,12,25,575,1796.5915718614124,1797.3335431216983,"[33, 0, 221]",221,a,0.21871073846705258,colour,0.06
17,19,1,2,12,26,576,1799.3417918242048,1800.0535393723985,"[24, 0, 230]",230,a,0.18851302016992122,colour,0.06
17,19,1,2,12,27,577,1802.0607727408642,1802.661543260445,"[80, 0, 174]",174,l,0.07762657618150115,colour,0.06
17,19,1,2,12,28,578,1804.6703260175418,1805.9255289149005,"[77, 0, 177]",177,l,0.7318687264341861,colour,0.06
17,19,1,2,12,29,579,1807.936251361738,1808.621484435629,"[51, 0, 203]",203,a,0.16203281050547957,colour,0.06
17,19,1,2,12,30,580,1810.6395371368853,1811.645538556273,"[79, 0, 175]",175,l,0.48275546985678375,colour,0.06
17,19,1,2,12,31,581,1813.655386272003,1814.229496200569,"[83, 0, 171]",171,l,0.05088721599895507,colour,0.06
17,19,1,2,12,32,582,1816.2494574777083,1816.8935013898881,"[57, 0, 197]",197,a,0.1208680672571063,colour,0.06
17,19,1,2,12,33,583,1818.9058374221204,1819.501608859282,"[89, 0, 165]",165,l,0.07248846616130322,colour,0.06
17,19,1,2,12,34,584,1821.51543677866,1822.2135167026427,"[97, 0, 157]",157,l,0.17486036207992584,colour,0.06
17,19,1,2,12,35,585,1824.2342581878183,1825.1334569483297,"[91, 0, 163]",163,l,0.3758708911482245,colour,0.06
17,19,1,2,12,36,586,1827.1408998427214,1827.7495362467598,"[67, 0, 187]",187,a,0.08543732215184718,colour,0.06
17,19,1,2,12,37,587,1829.7660769748036,1830.421477031312,"[50, 0, 204]",204,a,0.13221475924365222,colour,0.06
17,19,1,2,12,38,588,1832.4381284299307,1833.1817274540663,"[69, 0, 185]",185,a,0.22056653897743672,colour,0.06
17,19,1,2,12,39,589,1835.1883267312078,1835.9495231710607,"[55, 0, 199]",199,a,0.23802886565681547,colour,0.06
17,19,1,2,12,40,590,1837.9698735676939,1838.5815122568747,"[63, 0, 191]",191,a,0.08846087497659028,colour,0.06
17,19,1,2,12,41,591,1840.594971142942,1841.1894929079572,"[59, 0, 195]",195,a,0.07131559390109032,colour,0.06
17,19,1,2,12,42,592,1843.2045988563914,1843.8934557037428,"[72, 0, 182]",182,a,0.1656447685090825,colour,0.06
17,19,1,2,12,43,593,1845.9078700592509,1846.5814563308377,"[74, 0, 180]",180,a,0.1502713990630582,colour,0.06
17,19,1,2,12,44,594,1848.5956383174052,1849.4294461034006,"[94, 0, 160]",160,l,0.31055829185061157,colour,0.06
17,19,1,2,12,45,595,1851.439584477106,1852.2374121034518,"[75, 0, 179]",179,a,0.274665959761478,colour,0.06
17,19,1,2,12,46,596,1854.2523991105845,1854.901465735864,"[54, 0, 200]",200,a,0.125865574227646,colour,0.06
17,19,1,2,12,47,597,1856.9087664518738,1857.549494184088,"[87, 0, 167]",167,l,0.11741049657575786,colour,0.06
17,19,1,2,12,48,598,1859.565236980794,1860.1574740475044,"[96, 0, 158]",158,l,0.06896906183101237,colour,0.06
17,19,1,2,12,49,599,1862.1748264912749,1862.8454841268249,"[92, 0, 162]",162,l,0.14742940908763558,colour,0.06
17,19,1,2,12,50,600,1864.862533309497,1865.7494551145937,"[60, 0, 194]",194,a,0.36366916028782725,colour,0.06
17,19,1,2,13,1,601,1873.1592502912972,1873.685439055087,"[16, 0, 238]",238,a,0.002212624531239271,colour,0.06
17,19,1,2,13,2,602,1875.7071580651682,1876.741420270293,"[93, 0, 161]",161,l,0.511050914064981,colour,0.06
17,19,1,2,13,3,603,1878.7542108003981,1879.5254857494729,"[83, 0, 171]",171,l,0.24790887674316764,colour,0.06
17,19,1,2,13,4,604,1881.535745821544,1882.229400102282,"[51, 0, 203]",203,a,0.1704445651266724,colour,0.06
17,19,1,2,13,5,605,1884.2422575860983,1885.0454308788758,"[79, 0, 175]",175,l,0.2831206435803324,colour,0.06
17,19,1,2,13,6,606,1887.051728470251,1887.8218281840673,"[58, 0, 196]",196,a,0.24685809668153524,colour,0.06
17,19,1,2,13,7,607,1889.8333170543192,1890.4454090598738,"[77, 0, 177]",177,l,0.08890710212290287,colour,0.06
17,19,1,2,13,8,608,1892.4584788264474,1893.0933863081736,"[2, 0, 252]",252,a,0.11173478746786714,colour,0.06
17,19,1,2,13,9,609,1895.1149694415508,1895.973367765895,"[68, 0, 186]",186,a,0.33587311231531203,colour,0.06
17,19,1,2,13,10,610,1897.9900837552268,1899.0933819758939,"[75, 0, 179]",179,a,0.5800944126676768,colour,0.06
17,19,1,2,13,11,611,1901.0997626686003,1901.773369420087,"[84, 0, 170]",170,l,0.15041082038078457,colour,0.06
17,19,1,2,13,12,612,1903.7874986313982,1904.325418480672,"[87, 0, 167]",167,l,0.014687684364616871,colour,0.06
17,19,1,2,13,13,613,1906.334517495823,1907.045461205067,"[80, 0, 174]",174,l,0.18769224593415856,colour,0.06
17,19,1,2,13,14,614,1909.0534440616611,1909.7654082248919,"[90, 0, 164]",164,l,0.18874105671420693,colour,0.06
17,19,1,2,13,15,615,1911.7725025658729,1912.6455046855845,"[88, 0, 166]",166,l,0.349807370104827,colour,0.06
17,19,1,2,13,16,616,1914.6631918981439,1915.317532903864,"[67, 0, 187]",187,a,0.1312967052217573,colour,0.06
17,19,1,2,13,17,617,1917.3353697777493,1918.1973568233661,"[73, 0, 181]",181,a,0.33881159452721477,colour,0.06
17,19,1,2,13,18,618,1920.210622725077,1920.9334463932319,"[65, 0, 189]",189,a,0.2000448196195066,colour,0.06
17,19,1,2,13,19,619,1922.9450549926842,1923.5733446865343,"[63, 0, 191]",191,a,0.10536787926685065,colour,0.06
17,19,1,2,13,20,620,1925.5860670813126,1926.2134970102925,"[70, 0, 184]",184,a,0.10418909939471632,colour,0.06
17,19,1,2,13,21,621,1928.2268519211793,1928.877362778294,"[61, 0, 193]",193,a,0.1274299289798364,colour,0.06
17,19,1,2,13,22,622,1930.8989908100339,1934.5893537229858,"[76, 0, 178]",178,l,3.16711696353741,colour,0.06
17,19,1,2,13,23,623,1936.6025404616958,1937.5653555283789,"[74, 0, 180]",180,a,0.4399377566296607,colour,0.06
17,19,1,2,13,24,624,1939.5870930491947,1940.2614512580913,"[98, 0, 156]",156,l,0.15117488091345876,colour,0.06
17,19,1,2,13,25,625,1942.274817984202,1942.909388334141,"[56, 0, 198]",198,a,0.11130549584049731,colour,0.06
17,19,1,2,13,26,626,1944.9156225163024,1945.5573466778733,"[57, 0, 197]",197,a,0.11835257534403354,colour,0.06
17,19,1,2,13,27,627,1947.5721363682533,1948.197330829571,"[60, 0, 194]",194,a,0.10194772412069142,colour,0.06
17,19,1,2,13,28,628,1950.212958623306,1951.277333476115,"[52, 0, 202]",202,a,0.5411588355200365,colour,0.06
17,19,1,2,13,29,629,1953.291281124577,1954.6536324773915,"[72, 0, 182]",182,a,0.8388856374658644,colour,0.06
17,19,1,2,13,30,630,1956.6665427365806,1957.349337118445,"[71, 0, 183]",183,a,0.15975480747874826,colour,0.06
17,19,1,2,13,31,631,1959.3699297300773,1960.317277298076,"[55, 0, 199]",199,a,0.42411579692270607,colour,0.06
17,19,1,2,13,32,632,1962.3388427082682,1963.0133360062027,"[92, 0, 162]",162,l,0.15121899149380624,colour,0.06
17,19,1,2,13,33,633,1965.026649169391,1965.7253253755625,"[81, 0, 173]",173,l,0.17551020730752498,colour,0.06
17,19,1,2,13,34,634,1967.7455202031415,1968.4213336715475,"[50, 0, 204]",204,a,0.15253049752209336,colour,0.06
17,19,1,2,13,35,635,1970.4332825534511,1971.157259795582,"[54, 0, 200]",200,a,0.20079824631102383,colour,0.06
17,19,1,2,13,36,636,1973.1678731470602,1973.877313941368,"[91, 0, 163]",163,l,0.1862377739744261,colour,0.06
17,19,1,2,13,37,637,1975.8868044391274,1976.6052729625953,"[64, 0, 190]",190,a,0.1952115462627262,colour,0.06
17,19,1,2,13,38,638,1978.6213855803944,1979.3173312548315,"[94, 0, 160]",160,l,0.17266900499816984,colour,0.06
17,19,1,2,13,39,639,1981.3247146785725,1982.013260781765,"[53, 0, 201]",201,a,0.16523201845120639,colour,0.06
17,19,1,2,13,40,640,1984.02813711809,1984.645281375153,"[40, 0, 214]",214,a,0.09417399950325489,colour,0.06
17,19,1,2,13,41,641,1986.653257536469,1987.285228111432,"[85, 0, 169]",169,l,0.10871556703932583,colour,0.06
17,19,1,2,13,42,642,1989.2941455637338,1989.869266887894,"[59, 0, 195]",195,a,0.05199667904525995,colour,0.06
17,19,1,2,13,43,643,1991.8881446956657,1992.8212665602332,"[78, 0, 176]",176,l,0.4098727642558515,colour,0.06
17,19,1,2,13,44,644,1994.8414342124015,1995.4852556018159,"[96, 0, 158]",158,l,0.12084286112803966,colour,0.06
17,19,1,2,13,45,645,1997.4979535782477,1998.1572731862543,"[89, 0, 165]",165,l,0.13611580000724643,colour,0.06
17,19,1,2,13,46,646,2000.1700775009813,2000.8136208354263,"[99, 0, 155]",155,l,0.12066090444568545,colour,0.06
17,19,1,2,13,47,647,2002.8265330637805,2003.437268664944,"[97, 0, 157]",157,l,0.08756487618666142,colour,0.06
17,19,1,2,13,48,648,2005.4517739987932,2006.2453020126559,"[66, 0, 188]",188,a,0.2704258180456236,colour,0.06
17,19,1,2,13,49,649,2008.2644212477608,2009.02927415038,"[82, 0, 172]",172,l,0.2415939561324194,colour,0.06
17,19,1,2,13,50,650,2011.0458641090663,2011.669264603639,"[86, 0, 168]",168,l,0.10018250811845064,colour,0.06
17,19,1,2,14,1,651,2019.1081756047206,2019.7332219800446,"[73, 0, 181]",181,a,0.1012431342387572,colour,0.06
17,19,1,2,14,2,652,2021.7498702278826,2022.2932164819213,"[95, 0, 159]",159,l,0.020196796744130552,colour,0.06
17,19,1,2,14,3,653,2024.3125787199242,2025.1892436037306,"[63, 0, 191]",191,a,0.3537726077483967,colour,0.06
17,19,1,2,14,4,654,2027.2034007781185,2027.7572292331606,"[87, 0, 167]",167,l,0.03069711464922875,colour,0.06
17,19,1,2,14,5,655,2029.766065159347,2030.6372150231618,"[75, 0, 179]",179,a,0.3478326281765476,colour,0.06
17,19,1,2,14,6,656,2032.6569758328842,2033.5731690314133,"[82, 0, 172]",172,l,0.3929630029015243,colour,0.06
17,19,1,2,14,7,657,2035.594665124896,2036.3411896342877,"[92, 0, 162]",162,l,0.22341719351243228,colour,0.06
17,19,1,2,14,8,658,2038.3605183953186,2039.0372065948322,"[99, 0, 155]",155,l,0.15361554210539907,colour,0.06
17,19,1,2,14,9,659,2041.048213004251,2041.6932521644048,"[84, 0, 170]",170,l,0.12171759223565459,colour,0.06
17,19,1,2,14,10,660,2043.7047181916423,2044.4691839440493,"[61, 0, 193]",193,a,0.2412391013931483,colour,0.06
17,19,1,2,14,11,661,2046.4861823206302,2047.2212545872899,"[88, 0, 166]",166,l,0.211866095662117,colour,0.06
17,19,1,2,14,12,662,2049.2363782587927,2049.9731858092127,"[83, 0, 171]",171,l,0.2135608132230118,colour,0.06
17,19,1,2,14,13,663,2051.9865808923496,2052.6372347153956,"[51, 0, 203]",203,a,0.1275209072045982,colour,0.06
17,19,1,2,14,14,664,2054.6586626735516,2055.557138727396,"[80, 0, 174]",174,l,0.3752068674657494,colour,0.06
17,19,1,2,14,15,665,2057.565152304014,2058.1171529216226,"[90, 0, 164]",164,l,0.028805868001654744,colour,0.06
17,19,1,2,14,16,666,2060.1278099899646,2060.8531432424206,"[93, 0, 161]",161,l,0.2026193883502856,colour,0.06
17,19,1,2,14,17,667,2062.8624612357235,2063.5491625660798,"[65, 0, 189]",189,a,0.16346995311323553,colour,0.06
17,19,1,2,14,18,668,2065.565702506341,2066.229146071826,"[54, 0, 200]",200,a,0.14012199768330902,colour,0.06
17,19,1,2,14,19,669,2068.237888656673,2068.8611489421455,"[86, 0, 168]",168,l,0.10016714804805815,colour,0.06
17,19,1,2,14,20,670,2070.878716425621,2071.7731500481023,"[77, 0, 177]",177,l,0.371217999025248,colour,0.06
17,19,1,2,14,21,671,2073.785363594303,2074.4692749223905,"[72, 0, 182]",182,a,0.16077880607917905,colour,0.06
17,19,1,2,14,22,672,2076.488542243489,2077.037165634916,"[85, 0, 169]",169,l,0.025778770563192666,colour,0.06
17,19,1,2,14,23,673,2079.051101861871,2079.6291270096553,"[94, 0, 160]",160,l,0.054669709177687764,colour,0.06
17,19,1,2,14,24,674,2081.6451533753425,2083.909098857548,"[79, 0, 175]",175,l,1.7407511265482754,colour,0.06
17,19,1,2,14,25,675,2085.9267317194026,2086.589153255569,"[67, 0, 187]",187,a,0.13929452805314213,colour,0.06
17,19,1,2,14,26,676,2088.5987697838573,2089.2771849964047,"[39, 0, 215]",215,a,0.15508576785214245,colour,0.06
17,19,1,2,14,27,677,2091.2864825096913,2091.9251271924004,"[56, 0, 198]",198,a,0.11542354547418654,colour,0.06
17,19,1,2,14,28,678,2093.9428707249463,2095.3331067408435,"[20, 0, 234]",234,a,0.8668727005133405,colour,0.06
17,19,1,2,14,29,679,2097.349562004325,2100.9251417646883,"[71, 0, 183]",183,a,3.0531246529426426,colour,0.06
17,19,1,2,14,30,680,2102.9437304898165,2103.5411261463305,"[98, 0, 156]",156,l,0.07429897447582334,colour,0.06
17,19,1,2,14,31,681,2105.5533534772694,2106.0772595119197,"[2, 0, 252]",252,a,0.0007242819992825389,colour,0.06
17,19,1,2,14,32,682,2108.10033728939,2108.7090780625585,"[91, 0, 163]",163,l,0.08540738990996033,colour,0.06
17,19,1,2,14,33,683,2110.72549748607,2111.6690885545686,"[50, 0, 204]",204,a,0.42030770366545767,colour,0.06
17,19,1,2,14,34,684,2113.6789122456685,2114.245103514404,"[89, 0, 165]",165,l,0.042918537743389606,colour,0.06
17,19,1,2,14,35,685,2116.25717803312,2116.7970903473906,"[96, 0, 158]",158,l,0.016654549399390817,colour,0.06
17,19,1,2,14,36,686,2118.804296934395,2119.4210898810998,"[60, 0, 194]",194,a,0.09348516340833157,colour,0.06
17,19,1,2,14,37,687,2121.42959930934,2122.5171374040656,"[70, 0, 184]",184,a,0.5644567726412788,colour,0.06
17,19,1,2,14,38,688,2124.523586625932,2125.1250826091273,"[55, 0, 199]",199,a,0.07840796583332121,colour,0.06
17,19,1,2,14,39,689,2127.133088308852,2127.885082939989,"[74, 0, 180]",180,l,0.22880303231067955,colour,0.06
17,19,1,2,14,40,690,2129.8988490256015,2130.5970872753533,"[76, 0, 178]",178,l,0.1749796972144395,colour,0.06
17,19,1,2,14,41,691,2132.617757474538,2133.2130665370496,"[97, 0, 157]",157,l,0.07191975321620703,colour,0.06
17,19,1,2,14,42,692,2135.2274643511046,2135.861034333124,"[52, 0, 202]",202,a,0.11046660470310599,colour,0.06
17,19,1,2,14,43,693,2137.8683535598684,2138.75715755322,"[69, 0, 185]",185,a,0.3657002220861614,colour,0.06
17,19,1,2,14,44,694,2140.774745910545,2141.389088349766,"[59, 0, 195]",195,a,0.09115714195650071,colour,0.06
17,19,1,2,14,45,695,2143.3999600640964,2144.093036179431,"[68, 0, 186]",186,a,0.16982898430433124,colour,0.06
17,19,1,2,14,46,696,2146.10335099604,2147.1170536724385,"[58, 0, 196]",196,a,0.49046657304279506,colour,0.06
17,19,1,2,14,47,697,2149.1347570327343,2149.7410524184816,"[64, 0, 190]",190,a,0.0834019280737266,colour,0.06
17,19,1,2,14,48,698,2151.759973549284,2152.421035924228,"[78, 0, 176]",176,l,0.13781957619357854,colour,0.06
17,19,1,2,14,49,699,2154.4320419398136,2155.037034878158,"[66, 0, 188]",188,a,0.08181709330528975,colour,0.06
17,19,1,2,14,50,700,2157.057309656404,2157.6690424747067,"[57, 0, 197]",197,a,0.08858926873654127,colour,0.06
17,19,1,2,15,1,701,2164.869572512107,2165.5730300039286,"[76, 0, 178]",178,l,0.17932105739600956,colour,0.06
17,19,1,2,15,2,702,2167.5894084675238,2168.933011587709,"[64, 0, 190]",190,a,0.8207561363233253,colour,0.06
17,19,1,2,15,3,703,2170.948927676538,2171.9250035248697,"[83, 0, 171]",171,l,0.45266605901997536,colour,0.06
17,19,1,2,15,4,704,2173.933631894528,2174.701023526024,"[88, 0, 166]",166,l,0.24417167576029897,colour,0.06
17,19,1,2,15,5,705,2176.714992442052,2177.61297343194,"[59, 0, 195]",195,a,0.37465942197013646,colour,0.06
17,19,1,2,15,6,706,2179.621528546326,2180.389052509796,"[56, 0, 198]",198,a,0.24432330625131726,colour,0.06
17,19,1,2,15,7,707,2182.4030009460403,2183.0850332366535,"[95, 0, 159]",159,l,0.15889661794062704,colour,0.06
17,19,1,2,15,8,708,2185.106323348824,2185.7330057588406,"[73, 0, 181]",181,a,0.10347663273569196,colour,0.06
17,19,1,2,15,9,709,2187.7471845946275,2188.4689842642983,"[50, 0, 204]",204,a,0.19862736924551427,colour,0.06
17,19,1,2,15,10,710,2190.4817468313267,2191.109034188208,"[86, 0, 168]",168,l,0.10411033034324646,colour,0.06
17,19,1,2,15,11,711,2193.122582083335,2193.781130147865,"[67, 0, 187]",187,a,0.1357782743871212,colour,0.06
17,19,1,2,15,12,712,2195.7945358647266,2196.453036667779,"[63, 0, 191]",191,a,0.1354045148473233,colour,0.06
17,19,1,2,15,13,713,2198.4667216212256,2199.181129596429,"[51, 0, 203]",203,a,0.1911958963610232,colour,0.06
17,19,1,2,15,14,714,2201.2011708242353,2201.7970198490657,"[54, 0, 200]",200,a,0.07261095230933279,colour,0.06
17,19,1,2,15,15,715,2203.8108418607153,2204.4289904240286,"[60, 0, 194]",194,a,0.0957576526561752,colour,0.06
17,19,1,2,15,16,716,2206.4361375403823,2207.052960025496,"[0, 0, 254]",254,a,0.09359347098506987,colour,0.06
17,19,1,2,15,17,717,2209.061379656894,2209.6609765165485,"[58, 0, 196]",196,a,0.07656122371554375,colour,0.06
17,19,1,2,15,18,718,2211.6708415613975,2212.4129215230932,"[99, 0, 155]",155,l,0.21876745228655636,colour,0.06
17,19,1,2,15,19,719,2214.421167862485,2215.4049784448,"[77, 0, 177]",177,l,0.46065049117896706,colour,0.06
17,19,1,2,15,20,720,2217.421365966904,2218.0609854174545,"[53, 0, 201]",201,a,0.11645108868833631,colour,0.06
17,19,1,2,15,21,721,2220.0778943910263,2220.788965312415,"[52, 0, 202]",202,a,0.18809633143246174,colour,0.06
17,19,1,2,15,22,722,2222.796815443202,2223.468964178115,"[74, 0, 180]",180,l,0.1489638314815238,colour,0.06
17,19,1,2,15,23,723,2225.484475393663,2226.180924009066,"[72, 0, 182]",182,l,0.1732325981138274,colour,0.06
17,19,1,2,15,24,724,2228.1878497841535,2228.8369112893706,"[7, 0, 247]",247,a,0.12584666954353452,colour,0.06
17,19,1,2,15,25,725,2230.844211611664,2231.4288998395205,"[93, 0, 161]",161,l,0.061572247417643666,colour,0.06
17,19,1,2,15,26,726,2233.438210743596,2234.028953560046,"[97, 0, 157]",157,l,0.0675575191853568,colour,0.06
17,19,1,2,15,27,727,2236.0478175833123,2236.700934516848,"[96, 0, 158]",158,l,0.12990446097683161,colour,0.06
17,19,1,2,15,28,728,2238.719913542969,2239.2449652745854,"[90, 0, 164]",164,l,0.001730557531118393,colour,0.06
17,19,1,2,15,29,729,2241.266911927494,2241.884910435532,"[91, 0, 163]",163,l,0.09472735249437392,colour,0.06
17,19,1,2,15,30,730,2243.8921323824907,2245.164931120351,"[68, 0, 186]",186,a,0.7494878037832677,colour,0.06
17,19,1,2,15,31,731,2247.1736477114027,2248.004955759272,"[75, 0, 179]",179,a,0.3080049908021465,colour,0.06
17,19,1,2,15,32,732,2250.017574966536,2250.95690462552,"[80, 0, 174]",174,a,0.41575169761199504,colour,0.06
17,19,1,2,15,33,733,2252.9710716459667,2253.5889208866283,"[61, 0, 193]",193,a,0.09469387563876808,colour,0.06
17,19,1,2,15,34,734,2255.595973480027,2256.204951348249,"[65, 0, 189]",189,a,0.08542117453180254,colour,0.06
17,19,1,2,15,35,735,2258.221361319418,2258.8288520267233,"[82, 0, 172]",172,l,0.08421364391688257,colour,0.06
17,19,1,2,15,36,736,2260.8466187960003,2261.4529035480227,"[71, 0, 183]",183,a,0.08299902407452464,colour,0.06
17,19,1,2,15,37,737,2263.471762451227,2264.3408623485593,"[66, 0, 188]",188,a,0.34622967650648206,colour,0.06
17,19,1,2,15,38,738,2266.3470346969552,2266.876902372809,"[92, 0, 162]",162,l,0.006679621641524136,colour,0.06
17,19,1,2,15,39,739,2268.8942095242674,2269.4208831121214,"[17, 0, 237]",237,a,0.003645828808657825,colour,0.06
17,19,1,2,15,40,740,2271.4411838841625,2272.1088983113877,"[81, 0, 173]",173,l,0.14462444058153778,colour,0.06
17,19,1,2,15,41,741,2274.1289206346264,2274.7408956679283,"[87, 0, 167]",167,l,0.08883542218245566,colour,0.06
17,19,1,2,15,42,742,2276.7540619267384,2280.0448416859144,"[70, 0, 184]",184,a,2.7674589790403843,colour,0.06
17,19,1,2,15,43,743,2282.0513968522428,2282.7168443041155,"[84, 0, 170]",170,l,0.1423200499266386,colour,0.06
17,19,1,2,15,44,744,2284.7234679996036,2285.4448234114097,"[89, 0, 165]",165,l,0.19818153604865074,colour,0.06
17,19,1,2,15,45,745,2287.4580983716296,2288.3488349652616,"[85, 0, 169]",169,l,0.3675028533907607,colour,0.06
17,19,1,2,15,46,746,2290.3645060821436,2291.3488133037463,"[79, 0, 175]",175,l,0.4610329151619226,colour,0.06
17,19,1,2,15,47,747,2293.3647963464027,2294.2368642642396,"[57, 0, 197]",197,a,0.3488377222092822,colour,0.06
17,19,1,2,15,48,748,2296.255664878292,2296.9329808678012,"[98, 0, 156]",156,l,0.15409209532663226,colour,0.06
17,19,1,2,15,49,749,2298.9433232535375,2299.628859194694,"[69, 0, 185]",185,a,0.16235615778714418,colour,0.06
17,19,1,2,15,50,750,2301.646731120767,2302.260854975786,"[94, 0, 160]",160,l,0.09097715455573052,colour,0.06
17,19,1,2,16,1,751,2309.333970050444,2310.0847788123647,"[80, 0, 174]",174,l,0.2268286842154339,colour,0.06
17,19,1,2,16,2,752,2312.1005885628983,2312.9568514564307,"[15, 0, 239]",239,a,0.3330370301846415,colour,0.06
17,19,1,2,16,3,753,2314.97587656253,2315.7809481911827,"[73, 0, 181]",181,a,0.2818863313877955,colour,0.06
17,19,1,2,16,4,754,2317.7885435037315,2318.5088146586204,"[51, 0, 203]",203,a,0.1969594331458211,colour,0.06
17,19,1,2,16,5,755,2320.523168755695,2321.412793917116,"[70, 0, 184]",184,a,0.3667257960187271,colour,0.06
17,19,1,2,16,6,756,2323.4296111246804,2324.172786764917,"[63, 0, 191]",191,a,0.22003012138884515,colour,0.06
17,19,1,2,16,7,757,2326.1797783122165,2327.0847634524107,"[86, 0, 168]",168,l,0.3816789323464036,colour,0.06
17,19,1,2,16,8,758,2329.1019162164303,2329.9808500448707,"[93, 0, 161]",161,l,0.35576743574347347,colour,0.06
17,19,1,2,16,9,759,2331.992805228336,2333.2687988417456,"[78, 0, 176]",176,l,0.7529823958175257,colour,0.06
17,19,1,2,16,10,760,2335.2898636743193,2336.0768061956624,"[90, 0, 164]",164,l,0.2636776673607528,colour,0.06
17,19,1,2,16,11,761,2338.086959141656,2338.9488752951147,"[57, 0, 197]",197,a,0.3389506220119074,colour,0.06
17,19,1,2,16,12,762,2340.962163252174,2341.6847939360887,"[97, 0, 157]",157,l,0.19937488832511008,colour,0.06
17,19,1,2,16,13,763,2343.6968483686214,2344.4448364083655,"[61, 0, 193]",193,a,0.22478423174470663,colour,0.06
17,19,1,2,16,14,764,2346.4626480761217,2347.1247986464296,"[56, 0, 198]",198,a,0.13894203619565815,colour,0.06
17,19,1,2,16,15,765,2349.1347038635286,2349.836776988115,"[81, 0, 173]",173,l,0.17877715663053095,colour,0.06
17,19,1,2,16,16,766,2351.8536930509144,2352.6287619147915,"[64, 0, 190]",190,a,0.25180912984069437,colour,0.06
17,19,1,2,16,17,767,2354.6352505212417,2355.26876103261,"[62, 0, 192]",192,a,0.1104402169585228,colour,0.06
17,19,1,2,16,18,768,2357.2760641117347,2357.892794830841,"[94, 0, 160]",160,l,0.09394241822883487,colour,0.06
17,19,1,2,16,19,769,2359.901201859233,2360.5967816512566,"[72, 0, 182]",182,a,0.17230666719842702,colour,0.06
17,19,1,2,16,20,770,2362.6045474989805,2363.7727849532384,"[91, 0, 163]",163,l,0.6449883540626615,colour,0.06
17,19,1,2,16,21,771,2365.7923177263,2366.3247804507846,"[58, 0, 196]",196,a,0.009225439629517496,colour,0.06
17,19,1,2,16,22,772,2368.3393992121564,2369.0927447336726,"[98, 0, 156]",156,l,0.23013226117473096,colour,0.06
17,19,1,2,16,23,773,2371.10520679655,2371.900740666082,"[82, 0, 172]",172,l,0.27230840001720935,colour,0.06
17,19,1,2,16,24,774,2373.917997011449,2374.668749847333,"[84, 0, 170]",170,l,0.22760140930768102,colour,0.06
17,19,1,2,16,25,775,2376.6836726575857,2377.3247453984804,"[53, 0, 201]",201,a,0.11783427442424,colour,0.06
17,19,1,2,16,26,776,2379.340198324877,2379.988747437019,"[48, 0, 206]",206,a,0.12527441186830401,colour,0.06
17,19,1,2,16,27,777,2381.9966743676923,2382.652725844877,"[59, 0, 195]",195,a,0.13294219214003533,colour,0.06
17,19,1,2,16,28,778,2384.6687789919088,2385.356738265138,"[55, 0, 199]",199,a,0.16487598198000342,colour,0.06
17,19,1,2,16,29,779,2387.372102970141,2388.0047190580517,"[83, 0, 171]",171,l,0.10949026129674166,colour,0.06
17,19,1,2,16,30,780,2390.012979969848,2390.636719959206,"[67, 0, 187]",187,a,0.10040936316363513,colour,0.06
17,19,1,2,16,31,781,2392.6481509342557,2393.508748098742,"[75, 0, 179]",179,l,0.3373323103878647,colour,0.06
17,19,1,2,16,32,782,2395.523357801605,2396.140777750523,"[65, 0, 189]",189,a,0.09416218404658139,colour,0.06
17,19,1,2,16,33,783,2398.1487558811205,2398.860690111993,"[69, 0, 185]",185,a,0.18890292721334845,colour,0.06
17,19,1,2,16,34,784,2400.867463074974,2401.5247220828896,"[92, 0, 162]",162,l,0.133945710840635,colour,0.06
17,19,1,2,16,35,785,2403.5396279576235,2404.500707740546,"[74, 0, 180]",180,l,0.4378086272627115,colour,0.06
17,19,1,2,16,36,786,2406.5086102527566,2407.0687650498003,"[66, 0, 188]",188,a,0.036915149074047804,colour,0.06
17,19,1,2,16,37,787,2409.0869508709293,2409.780724486918,"[52, 0, 202]",202,a,0.17093214590568095,colour,0.06
17,19,1,2,16,38,788,2411.7902618522057,2412.5006892298115,"[54, 0, 200]",200,a,0.18711565586272627,colour,0.06
17,19,1,2,16,39,789,2414.5091915688245,2415.084695317084,"[89, 0, 165]",165,l,0.05225937406066805,colour,0.06
17,19,1,2,16,40,790,2417.1031174456,2417.7246897086734,"[68, 0, 186]",186,a,0.09833222127053887,colour,0.06
17,19,1,2,16,41,791,2419.74404367595,2420.4926776223583,"[99, 0, 155]",155,l,0.22546046460047364,colour,0.06
17,19,1,2,16,42,792,2422.509839444887,2423.2206831172807,"[87, 0, 167]",167,l,0.18762450444046408,colour,0.06
17,19,1,2,16,43,793,2425.228790823021,2425.916672114865,"[96, 0, 158]",158,l,0.1646644868887961,colour,0.06
17,19,1,2,16,44,794,2427.932193570421,2428.5886550408322,"[50, 0, 204]",204,a,0.1332486040191725,colour,0.06
17,19,1,2,16,45,795,2430.604184767115,2431.2446832811693,"[8, 0, 246]",246,a,0.11715607240330428,colour,0.06
17,19,1,2,16,46,796,2433.260720674414,2434.0766675620107,"[76, 0, 178]",178,l,0.29278285801410675,colour,0.06
17,19,1,2,16,47,797,2436.0891119018197,2436.780653594644,"[77, 0, 177]",177,l,0.16845525079406798,colour,0.06
17,19,1,2,16,48,798,2438.792309061624,2439.3486581286415,"[88, 0, 166]",166,l,0.03311256971210241,colour,0.06
17,19,1,2,16,49,799,2441.355083719711,2441.972686019144,"[85, 0, 169]",169,l,0.09433390072081238,colour,0.06
17,19,1,2,16,50,800,2443.9802691225195,2444.972665933077,"[71, 0, 183]",183,a,0.46922214701771736,colour,0.06
