id,age,condition,counterbalance,block,trialinblock,trial,tstart,tend,trialstim,trialintensity,response,RT,trialtype,colourfreq
19,18,0,2,Practice,1,NA,6.695394404232502e-06,1.156127095571719,"[40, 0, 214]",214,a,0.6001710864948109,colour,0.5
19,18,0,2,Practice,2,NA,3.1728962539928034,4.356084087630734,"[92, 0, 162]",162,l,0.6597961612278596,colour,0.5
19,18,0,2,Practice,3,NA,6.37631436123047,6.940027159638703,"[15, 0, 239]",239,a,0.04037429520394653,colour,0.5
19,18,0,2,Practice,4,NA,8.954578573349863,17.220097862766124,"[43, 0, 211]",211,a,7.742479321081191,colour,0.5
19,18,0,2,Practice,5,NA,19.237044251756743,20.908002391457558,"[53, 0, 201]",201,a,1.1481359681347385,colour,0.5
19,18,0,2,Practice,6,NA,22.924530122545548,24.060032311128452,"[71, 0, 183]",183,l,0.6121530515374616,colour,0.5
19,18,0,2,Practice,7,NA,26.080997500685044,27.13999517937191,"[80, 0, 174]",174,l,0.5356804431648925,colour,0.5
19,18,0,2,Practice,8,NA,29.15935072186403,30.316002025967464,"[36, 0, 218]",218,a,0.6333344624144956,colour,0.5
19,18,0,2,Practice,9,NA,32.33142856473569,33.435984334442765,"[83, 0, 171]",171,l,0.5818430872168392,colour,0.5
19,18,0,2,Practice,10,NA,35.45670376427006,36.52400016388856,"[1, 0, 253]",253,a,0.5439074841560796,colour,0.5
19,18,0,2,1,1,1,6.245105877518654,7.423928720294498,"[67, 0, 187]",187,l,0.654663959168829,colour,0.5
19,18,0,2,1,2,2,9.43370081752073,10.495878799585626,"[33, 0, 221]",221,a,0.5388721680501476,colour,0.5
19,18,0,2,1,3,3,12.512000869610347,13.743891257676296,"[24, 0, 230]",230,a,0.7086424693698063,colour,0.5
19,18,0,2,1,4,4,15.762264155433513,16.85588755866047,"[29, 0, 225]",225,a,0.570210857084021,colour,0.5
19,18,0,2,1,5,5,18.871850908966735,19.903902852442116,"[92, 0, 162]",162,l,0.5086260065436363,colour,0.5
19,18,0,2,1,6,6,21.918955631670542,22.895914088119753,"[27, 0, 227]",227,a,0.4536030178423971,colour,0.5
19,18,0,2,1,7,7,24.90366615122184,26.00785328145139,"[52, 0, 202]",202,a,0.5809242452960461,colour,0.5
19,18,0,2,1,8,8,28.02885864325799,29.03992964338977,"[77, 0, 177]",177,l,0.48771280457731336,colour,0.5
19,18,0,2,1,9,9,31.06036629213486,31.959981741267256,"[16, 0, 238]",238,a,0.37632814585231245,colour,0.5
19,18,0,2,1,10,10,33.96693075331859,35.071893365471624,"[14, 0, 240]",240,a,0.5816599489189684,colour,0.5
19,18,0,2,1,11,11,37.092089768499136,38.079899852979,"[44, 0, 210]",210,a,0.4644810336176306,colour,0.5
19,18,0,2,1,12,12,40.09234813111834,41.02403127762955,"[51, 0, 203]",203,a,0.4083363724639639,colour,0.5
19,18,0,2,1,13,13,43.045658521703444,43.91985793202184,"[97, 0, 157]",157,l,0.3507789872819558,colour,0.5
19,18,0,2,1,14,14,45.93649712135084,46.92793176707346,"[7, 0, 247]",247,a,0.46798271499574184,colour,0.5
19,18,0,2,1,15,15,48.936744850245304,50.11185333505273,"[56, 0, 198]",198,l,0.6517227201256901,colour,0.5
19,18,0,2,1,16,16,52.12450956378598,53.15186332294252,"[46, 0, 208]",208,a,0.5040058037266135,colour,0.5
19,18,0,2,1,17,17,55.17157096345909,56.215825031744316,"[4, 0, 250]",250,a,0.5207765374798328,colour,0.5
19,18,0,2,1,18,18,58.23423652630299,59.31984320213087,"[37, 0, 217]",217,a,0.5620917297201231,colour,0.5
19,18,0,2,1,19,19,61.3283376643667,62.27185587142594,"[36, 0, 218]",218,a,0.4204061650671065,colour,0.5
19,18,0,2,1,20,20,64.28171146393288,65.19183038175106,"[62, 0, 192]",192,l,0.3867059777257964,colour,0.5
19,18,0,2,1,21,21,67.20390096202027,68.17585442832205,"[88, 0, 166]",166,l,0.44858778780326247,colour,0.5
19,18,0,2,1,22,22,70.18838502035942,71.1278489807155,"[17, 0, 237]",237,a,0.41608764801640064,colour,0.5
19,18,0,2,1,23,23,73.14172888768371,74.1037826507818,"[40, 0, 214]",214,a,0.4385734754614532,colour,0.5
19,18,0,2,1,24,24,76.11074859811924,77.05581028619781,"[80, 0, 174]",174,l,0.4218425201252103,colour,0.5
19,18,0,2,1,25,25,79.06406371481717,80.0798230530927,"[31, 0, 223]",223,a,0.49236490903422236,colour,0.5
19,18,0,2,1,26,26,82.09559538820758,83.03988041274715,"[75, 0, 179]",179,l,0.4209079244174063,colour,0.5
19,18,0,2,1,27,27,85.04903614160139,85.95979112002533,"[25, 0, 229]",229,a,0.3873030475806445,colour,0.5
19,18,0,2,1,28,28,87.97109842754435,88.87179695209488,"[99, 0, 155]",155,l,0.3774242182262242,colour,0.5
19,18,0,2,1,29,29,90.89312369190156,91.76785164303146,"[59, 0, 195]",195,l,0.35137842025142163,colour,0.5
19,18,0,2,1,30,30,93.78397647012025,94.63176931987982,"[71, 0, 183]",183,l,0.3243629743810743,colour,0.5
19,18,0,2,1,31,31,96.6436425835127,97.5197848342359,"[43, 0, 211]",211,a,0.3529423811705783,colour,0.5
19,18,0,2,1,32,32,99.53438862948678,100.56776310654823,"[9, 0, 245]",245,a,0.5099895000457764,colour,0.5
19,18,0,2,1,33,33,102.58158629981335,103.3998458487913,"[69, 0, 185]",185,l,0.29491041193250567,colour,0.5
19,18,0,2,1,34,34,105.40984795195982,106.47180026036222,"[73, 0, 181]",181,l,0.5388516879174858,colour,0.5
19,18,0,2,1,35,35,108.48832602228504,109.73578670271672,"[54, 0, 200]",200,a,0.7241430510766804,colour,0.5
19,18,0,2,1,36,36,111.75426396948751,113.31174613023177,"[32, 0, 222]",222,a,1.034155866713263,colour,0.5
19,18,0,2,1,37,37,115.33259395381901,116.31979200220667,"[49, 0, 205]",205,a,0.46381858515087515,colour,0.5
19,18,0,2,1,38,38,118.33281253813766,119.10371687856968,"[65, 0, 189]",189,l,0.2475299972575158,colour,0.5
19,18,0,2,1,39,39,121.11426209483761,121.95173815882299,"[50, 0, 204]",204,a,0.31408990547060966,colour,0.5
19,18,0,2,1,40,40,123.95822676527314,124.81579643848818,"[28, 0, 226]",226,a,0.3341807577526197,colour,0.5
19,18,0,2,1,41,41,126.83354154636618,127.7197571862489,"[63, 0, 191]",191,l,0.3629677211865783,colour,0.5
19,18,0,2,1,42,42,129.7400292075472,130.65570922533516,"[20, 0, 234]",234,a,0.3923899575602263,colour,0.5
19,18,0,2,1,43,43,132.66212260734756,133.4958008180838,"[78, 0, 176]",176,l,0.31024006463121623,colour,0.5
19,18,0,2,1,44,44,135.50616525916848,136.31170044420287,"[87, 0, 167]",167,l,0.28213996801059693,colour,0.5
19,18,0,2,1,45,45,138.3188664651243,139.19977739849128,"[12, 0, 242]",242,a,0.3576129963621497,colour,0.5
19,18,0,2,1,46,46,141.2095758834621,142.3677123793168,"[11, 0, 243]",243,a,0.6347334020538256,colour,0.5
19,18,0,2,1,47,47,144.38177227368578,145.22375471924897,"[15, 0, 239]",239,a,0.3184631671756506,colour,0.5
19,18,0,2,1,48,48,147.24228554905858,148.55175249476451,"[53, 0, 201]",201,a,0.7870594934793189,colour,0.5
19,18,0,2,1,49,49,150.56983867299277,151.51971079129726,"[61, 0, 193]",193,l,0.42663404578343034,colour,0.5
19,18,0,2,1,50,50,153.5387705557514,154.42368808062747,"[90, 0, 164]",164,l,0.36160147085320204,colour,0.5
19,18,0,2,2,1,51,175.97717034537345,177.46365592698567,"[47, 0, 207]",207,a,0.9624665132723749,colour,0.5
19,18,0,2,2,2,52,179.47829871298745,180.14366345736198,"[62, 0, 192]",192,l,0.14253981586080045,colour,0.5
19,18,0,2,2,3,53,182.15034150355496,182.7836822674144,"[14, 0, 240]",240,a,0.1100168329430744,colour,0.5
19,18,0,2,2,4,54,184.79110586328898,185.85565558355302,"[31, 0, 223]",223,a,0.5412277585128322,colour,0.5
19,18,0,2,2,5,55,187.86956424138043,189.13563530845568,"[28, 0, 226]",226,a,0.7427581638330594,colour,0.5
19,18,0,2,2,6,56,191.15099331806414,191.99163747613784,"[73, 0, 181]",181,l,0.31713472586125135,colour,0.5
19,18,0,2,2,7,57,194.01073150523007,194.8076493482804,"[68, 0, 186]",186,l,0.27364471822511405,colour,0.5
19,18,0,2,2,8,58,196.82408098096494,197.66367002669722,"[90, 0, 164]",164,l,0.31688030168879777,colour,0.5
19,18,0,2,2,9,59,199.68303462769836,200.52769404184073,"[1, 0, 253]",253,a,0.3212838894687593,colour,0.5
19,18,0,2,2,10,60,202.54255186754744,203.37565742677543,"[87, 0, 167]",167,l,0.3097264899406582,colour,0.5
19,18,0,2,2,11,61,205.3865480456734,206.26366230729036,"[12, 0, 242]",242,a,0.35375764151103795,colour,0.5
19,18,0,2,2,12,62,208.2773445037892,209.2236381409457,"[60, 0, 194]",194,l,0.4233611887320876,colour,0.5
19,18,0,2,2,13,63,211.23071082041133,212.2956402078271,"[57, 0, 197]",197,l,0.5415345642250031,colour,0.5
19,18,0,2,2,14,64,214.30905065091792,215.04759624204598,"[38, 0, 216]",216,a,0.2151708541205153,colour,0.5
19,18,0,2,2,15,65,217.05932614591438,217.95959892333485,"[21, 0, 233]",233,a,0.3769295481033623,colour,0.5
19,18,0,2,2,16,66,219.9658059302019,220.87164098920766,"[17, 0, 237]",237,a,0.382493011187762,colour,0.5
19,18,0,2,2,17,67,222.88793083757628,223.68765561829787,"[79, 0, 175]",175,l,0.2763886406319216,colour,0.5
19,18,0,2,2,18,68,225.70054618513677,226.64767004875466,"[53, 0, 201]",201,l,0.423739280551672,colour,0.5
19,18,0,2,2,19,69,228.66957456013188,229.38368912029546,"[82, 0, 172]",172,l,0.19066735554952174,colour,0.5
19,18,0,2,2,20,70,231.40418051357847,232.17559803486802,"[2, 0, 252]",252,a,0.24799985508434474,colour,0.5
19,18,0,2,2,21,71,234.1857076578308,235.15956261078827,"[61, 0, 193]",193,l,0.45059364347252995,colour,0.5
19,18,0,2,2,22,72,237.1702956914669,238.19161100976635,"[45, 0, 209]",209,a,0.49801265506539494,colour,0.5
19,18,0,2,2,23,73,240.20180137106217,241.15955827850848,"[67, 0, 187]",187,l,0.4344944164622575,colour,0.5
19,18,0,2,2,24,74,243.17069938313216,243.94360682240222,"[88, 0, 166]",166,l,0.24950316385366023,colour,0.5
19,18,0,2,2,25,75,245.9523123857798,247.3676312470343,"[56, 0, 198]",198,l,0.8920866963453591,colour,0.5
19,18,0,2,2,26,76,249.37436718854588,250.8795883997809,"[35, 0, 219]",219,a,0.9818496250081807,colour,0.5
19,18,0,2,2,27,77,252.89020372054074,253.75957182678394,"[81, 0, 173]",173,l,0.34598588617518544,colour,0.5
19,18,0,2,2,28,78,255.7810663448181,256.43158586660866,"[26, 0, 228]",228,a,0.12703175109345466,colour,0.5
19,18,0,2,2,29,79,258.4531634860905,259.26356305822264,"[40, 0, 214]",214,a,0.2870264104567468,colour,0.5
19,18,0,2,2,30,80,261.28161103336606,261.8556118666893,"[4, 0, 250]",250,a,0.05064106243662536,colour,0.5
19,18,0,2,2,31,81,263.87543844862375,264.99958212976344,"[58, 0, 196]",196,l,0.6008165994426236,colour,0.5
19,18,0,2,2,32,82,267.0163851589896,267.575542738894,"[33, 0, 221]",221,a,0.03577929828315973,colour,0.5
19,18,0,2,2,33,83,269.59467024484184,270.479588951217,"[86, 0, 168]",168,l,0.3618086335482076,colour,0.5
19,18,0,2,2,34,84,272.5010429031681,273.40756522282027,"[65, 0, 189]",189,l,0.38306802581064403,colour,0.5
19,18,0,2,2,35,85,275.42319813661743,276.02357953670435,"[7, 0, 247]",247,a,0.07807674154173583,colour,0.5
19,18,0,2,2,36,86,278.0327774070902,279.4394986188272,"[51, 0, 203]",203,a,0.8836225604172796,colour,0.5
19,18,0,2,2,37,87,281.4548979821848,282.1355210931506,"[18, 0, 236]",236,a,0.15712352492846549,colour,0.5
19,18,0,2,2,38,88,284.1426812063437,284.9835077150492,"[42, 0, 212]",212,a,0.317463587038219,colour,0.5
19,18,0,2,2,39,89,287.0022429507226,288.519570188364,"[71, 0, 183]",183,l,0.9940218174597248,colour,0.5
19,18,0,2,2,40,90,290.53385733184405,292.18351511936635,"[39, 0, 215]",215,a,1.1263527612900361,colour,0.5
19,18,0,2,2,41,91,294.1904357743915,294.8314986692276,"[34, 0, 220]",220,a,0.11779252684209496,colour,0.5
19,18,0,2,2,42,92,296.84674088819884,298.59968193026725,"[55, 0, 199]",199,a,1.230172433424741,colour,0.5
19,18,0,2,2,43,93,300.6127087677596,301.1835147255333,"[49, 0, 205]",205,a,0.04746194079052657,colour,0.5
19,18,0,2,2,44,94,303.19103796430863,305.6475404734956,"[50, 0, 204]",204,a,1.9330887814285234,colour,0.5
19,18,0,2,2,45,95,307.66016007459257,308.27154552110005,"[32, 0, 222]",222,a,0.08805678936187178,colour,0.5
19,18,0,2,2,46,96,310.2853832866531,311.21552964753937,"[59, 0, 195]",195,l,0.406962639070116,colour,0.5
19,18,0,2,2,47,97,313.22302886180114,313.8155443773139,"[66, 0, 188]",188,l,0.06913093233015388,colour,0.5
19,18,0,2,2,48,98,315.83244547399227,317.0555145080434,"[46, 0, 208]",208,a,0.6995166726410389,colour,0.5
19,18,0,2,2,49,99,319.0673030948965,320.0314702335745,"[94, 0, 160]",160,l,0.4408751091687009,colour,0.5
19,18,0,2,2,50,100,322.0519100331003,322.79951840557624,"[27, 0, 227]",227,a,0.22438093379605561,colour,0.5
19,18,0,2,3,1,101,336.817908632569,337.8314742507646,"[66, 0, 188]",188,l,0.48949928826186806,colour,0.5
19,18,0,2,3,2,102,339.8502453264082,340.4554355813889,"[8, 0, 246]",246,a,0.081816699472256,colour,0.5
19,18,0,2,3,3,103,342.4664447477553,343.74345448287204,"[52, 0, 202]",202,l,0.7538035640027374,colour,0.5
19,18,0,2,3,4,104,345.7632629479049,346.6474865167402,"[78, 0, 176]",176,l,0.36071137979160994,colour,0.5
19,18,0,2,3,5,105,348.65410587983206,349.3674717396498,"[10, 0, 244]",244,a,0.1900100273778662,colour,0.5
19,18,0,2,3,6,106,351.38868741493206,351.95941499748733,"[13, 0, 241]",241,a,0.047350088600069284,colour,0.5
19,18,0,2,3,7,107,353.96714264224283,355.6954194967402,"[35, 0, 219]",219,a,1.205035631195642,colour,0.5
19,18,0,2,3,8,108,357.7172881681472,358.47950033599045,"[7, 0, 247]",247,a,0.23904813826084137,colour,0.5
19,18,0,2,3,9,109,360.49879010627046,361.3434180127224,"[2, 0, 252]",252,a,0.3212007879046723,colour,0.5
19,18,0,2,3,10,110,363.3583845398389,363.9754197015427,"[56, 0, 198]",198,l,0.09362852317281067,colour,0.5
19,18,0,2,3,11,111,365.98377198539674,366.93543688894715,"[55, 0, 199]",199,l,0.4283579079201445,colour,0.5
19,18,0,2,3,12,112,368.952699535992,369.76740502216853,"[99, 0, 155]",155,l,0.2912602508440614,colour,0.5
19,18,0,2,3,13,113,371.7809552804101,372.5754060745239,"[22, 0, 232]",232,a,0.2710551832569763,colour,0.5
19,18,0,2,3,14,114,374.593823870644,375.5194473086158,"[74, 0, 180]",180,l,0.40238536533433944,colour,0.5
19,18,0,2,3,15,115,377.5314981965348,378.06342726026196,"[0, 0, 254]",254,a,0.008600406581535935,colour,0.5
19,18,0,2,3,16,116,380.07862418703735,380.623412703746,"[79, 0, 175]",175,l,0.021558321081101894,colour,0.5
19,18,0,2,3,17,117,382.6412235838361,383.9273839277448,"[36, 0, 218]",218,a,0.7630746896611527,colour,0.5
19,18,0,2,3,18,118,385.9384505955968,386.911396552925,"[21, 0, 233]",233,a,0.4496046971762553,colour,0.5
19,18,0,2,3,19,119,388.92306698602624,390.1033923497889,"[61, 0, 193]",193,l,0.6573515615891665,colour,0.5
19,18,0,2,3,20,120,392.1107470226707,393.2313799641561,"[60, 0, 194]",194,l,0.597410622634925,colour,0.5
19,18,0,2,3,21,121,395.2516078747576,396.2313626349205,"[15, 0, 239]",239,a,0.4563154325587675,colour,0.5
19,18,0,2,3,22,122,398.25184772664215,398.9833986198064,"[96, 0, 158]",158,l,0.2081572514725849,colour,0.5
19,18,0,2,3,23,123,401.00206020637415,401.98335372144356,"[25, 0, 229]",229,a,0.4578813627595082,colour,0.5
19,18,0,2,3,24,124,404.0023343228968,405.7673459453508,"[95, 0, 159]",159,l,1.2417353468481451,colour,0.5
19,18,0,2,3,25,125,407.7838071164442,409.12735982448794,"[53, 0, 201]",201,l,0.8201393741182983,colour,0.5
19,18,0,2,3,26,126,411.1434523561038,411.96740533725824,"[23, 0, 231]",231,a,0.3005758810322732,colour,0.5
19,18,0,2,3,27,127,413.9875655063661,414.8793678462971,"[68, 0, 186]",186,l,0.3685930180363357,colour,0.5
19,18,0,2,3,28,128,416.89389129704796,418.13540924107656,"[49, 0, 205]",205,a,0.7182448192033917,colour,0.5
19,18,0,2,3,29,129,420.1441762443865,421.2153118508868,"[69, 0, 185]",185,l,0.5478959585307166,colour,0.5
19,18,0,2,3,30,130,423.22257278859615,424.0793433490908,"[29, 0, 225]",225,a,0.33347144187428057,colour,0.5
19,18,0,2,3,31,131,426.09783164365217,426.97533423709683,"[16, 0, 238]",238,a,0.35421292716637254,colour,0.5
19,18,0,2,3,32,132,428.9886974187102,429.8153604514664,"[27, 0, 227]",227,a,0.3033446157351136,colour,0.5
19,18,0,2,3,33,133,431.8325884400401,432.94337130268104,"[67, 0, 187]",187,l,0.5874026118544862,colour,0.5
19,18,0,2,3,34,134,434.95791326416656,435.78335025557317,"[83, 0, 171]",171,l,0.30205358983948827,colour,0.5
19,18,0,2,3,35,135,437.8019358299207,439.00736333755776,"[59, 0, 195]",195,l,0.6821772258263081,colour,0.5
19,18,0,2,3,36,136,441.02092698658817,442.31129517708905,"[18, 0, 236]",236,a,0.7671257857000455,colour,0.5
19,18,0,2,3,37,137,444.31785900797695,445.3353697777493,"[58, 0, 196]",196,l,0.4940647466573864,colour,0.5
19,18,0,2,3,38,138,447.3494442444062,448.335324485437,"[40, 0, 214]",214,a,0.4629005311289802,colour,0.5
19,18,0,2,3,39,139,450.3497660163557,451.04729652556125,"[28, 0, 226]",226,a,0.17425226443447173,colour,0.5
19,18,0,2,3,40,140,453.068688249914,454.15931527572684,"[71, 0, 183]",183,l,0.5672971871681511,colour,0.5
19,18,0,2,3,41,141,456.17832423420623,457.0873372334754,"[98, 0, 156]",156,l,0.3863231597933918,colour,0.5
19,18,0,2,3,42,142,459.10054405836854,459.66330768878106,"[86, 0, 168]",168,l,0.03957439470104873,colour,0.5
19,18,0,2,3,43,143,461.67866372910794,462.7272654590197,"[54, 0, 200]",200,l,0.525366414221935,colour,0.5
19,18,0,2,3,44,144,464.74157741467934,465.35129295580555,"[73, 0, 181]",181,l,0.08648849616292864,colour,0.5
19,18,0,2,3,45,145,467.36680968513247,468.2552627619589,"[41, 0, 213]",213,a,0.3652248503640294,colour,0.5
19,18,0,2,3,46,146,470.2731437465409,470.99924736109097,"[11, 0, 243]",243,a,0.20316289539914578,colour,0.5
19,18,0,2,3,47,147,473.00773591548204,474.4152964121895,"[43, 0, 211]",211,a,0.8842692549806088,colour,0.5
19,18,0,2,3,48,148,476.4298269521678,477.22326831996907,"[30, 0, 224]",224,a,0.2700768708018586,colour,0.5
19,18,0,2,3,49,149,479.2425580902491,479.87927726178896,"[33, 0, 221]",221,a,0.1133078068960458,colour,0.5
19,18,0,2,3,50,150,481.89897860074416,483.03126582771074,"[65, 0, 189]",189,l,0.6091098065953702,colour,0.5
19,18,0,2,4,1,151,490.24262110551354,491.38330039475113,"[81, 0, 173]",173,l,0.61664289154578,colour,0.5
19,18,0,2,4,2,152,493.39995770098176,498.5032492262544,"[90, 0, 164]",164,l,4.579997132765129,colour,0.5
19,18,0,2,4,3,153,500.50982014648616,501.5672574088676,"[8, 0, 246]",246,a,0.5340857623377815,colour,0.5
19,18,0,2,4,4,154,503.58817336766515,504.47922897629905,"[18, 0, 236]",236,a,0.3676422747084871,colour,0.5
19,18,0,2,4,5,155,506.49469214270357,507.53524248686153,"[88, 0, 166]",166,l,0.5174245175439864,colour,0.5
19,18,0,2,4,6,156,509.54178623168264,510.30325284972787,"[0, 0, 254]",254,a,0.23797687818296254,colour,0.5
19,18,0,2,4,7,157,512.3232696589548,513.1192009187071,"[49, 0, 205]",205,a,0.27259984565898776,colour,0.5
19,18,0,2,4,8,158,515.1359893756453,515.8392239508685,"[48, 0, 206]",206,a,0.1798338444205001,colour,0.5
19,18,0,2,4,9,159,517.8549525691196,518.5832361191278,"[37, 0, 217]",217,a,0.20456695498432964,colour,0.5
19,18,0,2,4,10,160,520.589468725957,521.6152053549886,"[5, 0, 249]",249,a,0.5027573130792007,colour,0.5
19,18,0,2,4,11,161,523.6367404392222,524.5754517605528,"[57, 0, 197]",197,l,0.41522079368587583,colour,0.5
19,18,0,2,4,12,162,526.5900386205176,527.655457951827,"[85, 0, 169]",169,l,0.5423754246439785,colour,0.5
19,18,0,2,4,13,163,529.6684753369773,530.5592142937239,"[12, 0, 242]",242,a,0.367489856434986,colour,0.5
19,18,0,2,4,14,164,532.5748322415166,533.6472230339423,"[87, 0, 167]",167,l,0.5497537283226848,colour,0.5
19,18,0,2,4,15,165,535.668879028759,536.7032140952069,"[70, 0, 184]",184,l,0.5110859662527218,colour,0.5
19,18,0,2,4,16,166,538.7160069884267,539.7751866237959,"[26, 0, 228]",228,a,0.5358391629997641,colour,0.5
19,18,0,2,4,17,167,541.7942735635443,542.8631685824366,"[41, 0, 213]",213,a,0.5456778201041743,colour,0.5
19,18,0,2,4,18,168,544.8728457629913,547.0951562504051,"[74, 0, 180]",180,l,1.6991275532636791,colour,0.5
19,18,0,2,4,19,169,549.1074619564461,550.0472252395703,"[24, 0, 230]",230,a,0.41644762293435633,colour,0.5
19,18,0,2,4,20,170,552.0606774302432,553.1671724957414,"[23, 0, 231]",231,a,0.5830935470294207,colour,0.5
19,18,0,2,4,21,171,555.1862385617569,556.5351542653516,"[52, 0, 202]",202,l,0.8255334835266694,colour,0.5
19,18,0,2,4,22,172,558.5454978327034,559.6551286969334,"[60, 0, 194]",194,l,0.5860812597675249,colour,0.5
19,18,0,2,4,23,173,561.6709010321647,562.519178705872,"[62, 0, 192]",192,l,0.3256752679590136,colour,0.5
19,18,0,2,4,24,174,564.5305364256492,565.5191605889704,"[11, 0, 243]",243,a,0.46540105692110956,colour,0.5
19,18,0,2,4,25,175,567.530757372966,568.4231532382546,"[66, 0, 188]",188,l,0.3690392451826483,colour,0.5
19,18,0,2,4,26,176,570.4371694158763,571.303134302143,"[16, 0, 238]",238,a,0.34253382938914,colour,0.5
19,18,0,2,4,27,177,573.3124176370911,574.2631507018814,"[98, 0, 156]",156,l,0.42739574320148677,colour,0.5
19,18,0,2,4,28,178,576.281345581403,577.17518174008,"[94, 0, 160]",160,l,0.3707670458825305,colour,0.5
19,18,0,2,4,29,179,579.1878871994559,580.0871284953319,"[82, 0, 172]",172,l,0.3758582881418988,colour,0.5
19,18,0,2,4,30,180,582.0943543807371,583.6791729715187,"[61, 0, 193]",193,a,1.0616640135413036,colour,0.5
19,18,0,2,4,31,181,585.6883452419424,586.8230987300631,"[80, 0, 174]",174,l,0.6114279818721116,colour,0.5
19,18,0,2,4,32,182,588.8448906014673,589.9911242952803,"[95, 0, 159]",159,l,0.6229652951005846,colour,0.5
19,18,0,2,4,33,183,592.0013390750391,592.9511418766342,"[14, 0, 240]",240,a,0.42636150459293276,colour,0.5
19,18,0,2,4,34,184,594.9703749330947,596.2950695256004,"[54, 0, 200]",200,l,0.8012970123672858,colour,0.5
19,18,0,2,4,35,185,598.3142265699571,599.2391568395542,"[46, 0, 208]",208,a,0.4017678153468296,colour,0.5
19,18,0,2,4,36,186,601.2521084524924,602.1270994924707,"[78, 0, 176]",176,l,0.3520192070864141,colour,0.5
19,18,0,2,4,37,187,604.1428993968293,605.1350788045675,"[19, 0, 235]",235,a,0.46880033833440393,colour,0.5
19,18,0,2,4,38,188,607.1432219564449,608.1030910578556,"[73, 0, 181]",181,l,0.43665899184998125,colour,0.5
19,18,0,2,4,39,189,610.1121010639472,611.2710713309934,"[45, 0, 209]",209,a,0.6354903732426465,colour,0.5
19,18,0,2,4,40,190,613.2842974542873,614.5350912500871,"[63, 0, 191]",191,l,0.7275639940053225,colour,0.5
19,18,0,2,4,41,191,616.5501688416116,617.4870641409652,"[33, 0, 221]",221,a,0.4135642792098224,colour,0.5
19,18,0,2,4,42,192,619.5034611151787,620.1671157819219,"[38, 0, 216]",216,a,0.14055128931067884,colour,0.5
19,18,0,2,4,43,193,622.1756204840494,622.775051928591,"[20, 0, 234]",234,a,0.07610948279034346,colour,0.5
19,18,0,2,4,44,194,624.7851304376964,626.0390726353507,"[40, 0, 214]",214,a,0.7306155097903684,colour,0.5
19,18,0,2,4,45,195,628.051023092703,629.6870786343934,"[53, 0, 201]",201,a,1.1126229093642905,colour,0.5
19,18,0,2,4,46,196,631.7076964521548,632.7831127666868,"[2, 0, 252]",252,a,0.5521892695687711,colour,0.5
19,18,0,2,4,47,197,634.8015825503971,635.8550557567505,"[86, 0, 168]",168,l,0.5301807830110192,colour,0.5
19,18,0,2,4,48,198,637.8643650853774,638.6790918392362,"[99, 0, 155]",155,l,0.29147529043257236,colour,0.5
19,18,0,2,4,49,199,640.6927358327666,641.5750598842278,"[29, 0, 225]",225,a,0.3590091789374128,colour,0.5
19,18,0,2,4,50,200,643.5835476509528,644.9030682935845,"[32, 0, 222]",222,a,0.7948442458873615,colour,0.5
19,18,0,2,5,1,201,653.4428612726042,655.4550082589267,"[60, 0, 194]",194,l,1.4880570257082582,colour,0.5
19,18,0,2,5,2,202,657.4753216339741,658.3430253487313,"[67, 0, 187]",187,l,0.3444120790809393,colour,0.5
19,18,0,2,5,3,203,660.3505647352431,661.3593179539312,"[50, 0, 204]",204,l,0.4855793429305777,colour,0.5
19,18,0,2,5,4,204,663.3663272242993,664.215003075893,"[96, 0, 158]",158,l,0.3252605485031381,colour,0.5
19,18,0,2,5,5,205,666.225909448578,670.9989956937497,"[82, 0, 172]",172,l,4.249743803520687,colour,0.5
19,18,0,2,5,6,206,673.0076827462763,673.98304061417,"[51, 0, 203]",203,a,0.4520646568853408,colour,0.5
19,18,0,2,5,7,207,675.9923267059494,677.2069650808116,"[53, 0, 201]",201,l,0.6913124746643007,colour,0.5
19,18,0,2,5,8,208,679.2268255334347,680.1829842154402,"[17, 0, 237]",237,a,0.43284341564867646,colour,0.5
19,18,0,2,5,9,209,682.1958720253315,683.3429981733207,"[32, 0, 222]",222,a,0.6240200136089697,colour,0.5
19,18,0,2,5,10,210,685.3523850896163,686.1189370421926,"[47, 0, 207]",207,a,0.24315122177358717,colour,0.5
19,18,0,2,5,11,211,688.1338476431556,688.6629752829904,"[16, 0, 238]",238,a,0.005765505833551288,colour,0.5
19,18,0,2,5,12,212,690.6810449196491,692.3509601561818,"[29, 0, 225]",225,a,1.1473675753222778,colour,0.5
19,18,0,2,5,13,213,694.3687182610156,695.5509332959773,"[62, 0, 192]",192,l,0.6589509686455131,colour,0.5
19,18,0,2,5,14,214,697.5721162821865,698.4869786764029,"[64, 0, 190]",190,l,0.3915069557260722,colour,0.5
19,18,0,2,5,15,215,700.4941758110654,701.5669628123287,"[39, 0, 215]",215,a,0.5495079687098041,colour,0.5
19,18,0,2,5,16,216,703.5882123584161,704.4471246514004,"[34, 0, 220]",220,a,0.33554070675745606,colour,0.5
19,18,0,2,5,17,217,706.46346176113,707.4789536782773,"[49, 0, 205]",205,a,0.4921234817011282,colour,0.5
19,18,0,2,5,18,218,709.4948611024301,710.6149339954136,"[94, 0, 160]",160,l,0.5969821186736226,colour,0.5
19,18,0,2,5,19,219,712.6357912712265,713.6869344869629,"[25, 0, 229]",229,a,0.5278649708488956,colour,0.5
19,18,0,2,5,20,220,715.6984918863745,716.8149299782235,"[1, 0, 253]",253,a,0.59304838872049,colour,0.5
19,18,0,2,5,21,221,718.8237332153367,719.8149169812677,"[72, 0, 182]",182,l,0.46777555206790566,colour,0.5
19,18,0,2,5,22,222,721.8239636149956,722.9909029541304,"[36, 0, 218]",218,a,0.6435437282780185,colour,0.5
19,18,0,2,5,23,223,725.0117043039063,726.0869248771342,"[15, 0, 239]",239,a,0.552002192940563,colour,0.5
19,18,0,2,5,24,224,728.1057404573075,729.838895483641,"[45, 0, 209]",209,a,1.210055981297046,colour,0.5
19,18,0,2,5,25,225,731.8559856262291,733.4549145236379,"[66, 0, 188]",188,l,1.0754505790537223,colour,0.5
19,18,0,2,5,26,226,735.4656822626712,736.134896060219,"[57, 0, 197]",197,l,0.14580164523795247,colour,0.5
19,18,0,2,5,27,227,738.1534288593102,739.5349415887613,"[23, 0, 231]",231,a,0.8581691063009202,colour,0.5
19,18,0,2,5,28,228,741.5443005419802,742.7268920934293,"[89, 0, 165]",165,l,0.6594038910698146,colour,0.5
19,18,0,2,5,29,229,744.7476217632648,746.1588517194614,"[56, 0, 198]",198,a,0.8878024438163266,colour,0.5
19,18,0,2,5,30,230,748.1704993095482,749.5588854326634,"[40, 0, 214]",214,a,0.8657526035094634,colour,0.5
19,18,0,2,5,31,231,751.5763119193725,752.6548809680389,"[97, 0, 157]",157,l,0.5552108531119302,colour,0.5
19,18,0,2,5,32,232,754.6703197159804,755.6068865479901,"[22, 0, 232]",232,a,0.4132779532810673,colour,0.5
19,18,0,2,5,33,233,757.623668309534,758.3909102795878,"[77, 0, 177]",177,l,0.2437274178955704,colour,0.5
19,18,0,2,5,34,234,760.4050981738837,761.2229504864663,"[73, 0, 181]",181,l,0.29448230168782175,colour,0.5
19,18,0,2,5,35,235,763.2334811304463,764.0548622998176,"[84, 0, 170]",170,l,0.2979993431363255,colour,0.5
19,18,0,2,5,36,236,766.0618392747128,766.6468516375171,"[30, 0, 224]",224,a,0.0619298592209816,colour,0.5
19,18,0,2,5,37,237,768.6557423083577,769.7828217147617,"[85, 0, 169]",169,l,0.6037160909036174,colour,0.5
19,18,0,2,5,38,238,771.7966748402687,772.926867596223,"[63, 0, 191]",191,a,0.6069401110289618,colour,0.5
19,18,0,2,5,39,239,774.9375573537545,775.5428602485918,"[75, 0, 179]",179,l,0.08205182536039501,colour,0.5
19,18,0,2,5,40,240,777.5627262151102,778.1348700664239,"[0, 0, 254]",254,a,0.048804560443386436,colour,0.5
19,18,0,2,5,41,241,780.1410432024859,781.5668560802005,"[9, 0, 245]",245,a,0.9025271497666836,colour,0.5
19,18,0,2,5,42,242,783.5787864513695,784.4148533358239,"[79, 0, 175]",175,l,0.3127043566200882,colour,0.5
19,18,0,2,5,43,243,786.4227960202843,786.9828429037007,"[27, 0, 227]",227,a,0.036700109485536814,colour,0.5
19,18,0,2,5,44,244,789.0010846508667,789.7828555854503,"[12, 0, 242]",242,a,0.25838280690368265,colour,0.5
19,18,0,2,5,45,245,791.7982600688701,792.438821598189,"[80, 0, 174]",174,l,0.11725413997191936,colour,0.5
19,18,0,2,5,46,246,794.4546411947813,795.0387815834256,"[24, 0, 230]",230,a,0.06080739921890199,colour,0.5
19,18,0,2,5,47,247,797.0486643513432,797.6387963133166,"[26, 0, 228]",228,a,0.06681827094871551,colour,0.5
19,18,0,2,5,48,248,799.6582861571806,800.5108524158131,"[83, 0, 171]",171,l,0.3292868322459981,colour,0.5
19,18,0,2,5,49,249,802.5178061538609,803.2708385682199,"[33, 0, 221]",221,a,0.2296328650554642,colour,0.5
19,18,0,2,5,50,250,805.2835932583548,806.4068377899239,"[4, 0, 250]",250,a,0.5999454129487276,colour,0.5
19,18,0,2,6,1,251,814.4866722645238,815.1427895139204,"[45, 0, 209]",209,a,0.13199735654052347,colour,0.5
19,18,0,2,6,2,252,817.1595893923659,817.7588097355329,"[92, 0, 162]",162,l,0.07596336607821286,colour,0.5
19,18,0,2,6,3,253,819.7691458197078,820.9107892429456,"[15, 0, 239]",239,a,0.6184088952140883,colour,0.5
19,18,0,2,6,4,254,822.9256057149032,823.7027820466319,"[89, 0, 165]",165,l,0.25380317016970366,colour,0.5
19,18,0,2,6,5,255,825.7226866099518,826.5427669072524,"[71, 0, 183]",183,l,0.29667562805116177,colour,0.5
19,18,0,2,6,6,256,828.5510648404015,829.3187951790169,"[19, 0, 235]",235,a,0.2443685985635966,colour,0.5
19,18,0,2,6,7,257,831.3325667785248,832.1427359508816,"[76, 0, 178]",178,l,0.286814127699472,colour,0.5
19,18,0,2,6,8,258,834.160887507489,834.8147314799717,"[5, 0, 249]",249,a,0.13057990616653115,colour,0.5
19,18,0,2,6,9,259,836.8330724762054,837.4388054504525,"[85, 0, 169]",169,l,0.08286235958803445,colour,0.5
19,18,0,2,6,10,260,839.4581460269401,840.3748220802518,"[44, 0, 210]",210,a,0.3933257347671315,colour,0.5
19,18,0,2,6,11,261,842.3958940019365,843.502794728498,"[8, 0, 246]",246,a,0.5835531648481265,colour,0.5
19,18,0,2,6,12,262,845.5210699525196,846.4867864797125,"[59, 0, 195]",195,l,0.4423138272250071,colour,0.5
19,18,0,2,6,13,263,848.5057773212902,849.4547368993517,"[62, 0, 192]",192,l,0.4256005948409438,colour,0.5
19,18,0,2,6,14,264,851.4747737947619,852.3668860911857,"[83, 0, 171]",171,l,0.3690715404227376,colour,0.5
19,18,0,2,6,15,265,854.3812232529745,855.246760816779,"[75, 0, 179]",179,l,0.34218685142695904,colour,0.5
19,18,0,2,6,16,266,857.2563927050214,858.110783256474,"[48, 0, 206]",206,a,0.33103353751357645,colour,0.5
19,18,0,2,6,17,267,860.1316326555097,861.078722254606,"[94, 0, 160]",160,l,0.4237219513161108,colour,0.5
19,18,0,2,6,18,268,863.0849962151842,864.1747347252676,"[33, 0, 221]",221,a,0.5664287576219067,colour,0.5
19,18,0,2,6,19,269,866.1946495285956,868.0467427786207,"[21, 0, 233]",233,a,1.3289071650942788,colour,0.5
19,18,0,2,6,20,270,870.0542581406189,871.1186952210264,"[3, 0, 251]",251,a,0.5410934572573751,colour,0.5
19,18,0,2,6,21,271,873.1326952509116,874.2947501167655,"[56, 0, 198]",198,l,0.6386757965665311,colour,0.5
19,18,0,2,6,22,272,876.3047825460089,877.150733773713,"[14, 0, 240]",240,a,0.32254655845463276,colour,0.5
19,18,0,2,6,23,273,879.164380130358,879.8387084068963,"[73, 0, 181]",181,l,0.15091415494680405,colour,0.5
19,18,0,2,6,24,274,881.8520861607976,882.8067399587017,"[87, 0, 167]",167,l,0.4309123905841261,colour,0.5
19,18,0,2,6,25,275,884.8211251696339,885.6307252352126,"[68, 0, 186]",186,l,0.28595278738066554,colour,0.5
19,18,0,2,6,26,276,887.6494088771287,888.3987036965555,"[27, 0, 227]",227,a,0.22586533788125962,colour,0.5
19,18,0,2,6,27,277,890.4152369414223,891.4386896599317,"[34, 0, 220]",220,a,0.5000114215072244,colour,0.5
19,18,0,2,6,28,278,893.4466666089138,894.4147060376126,"[38, 0, 216]",216,a,0.44463042716961354,colour,0.5
19,18,0,2,6,29,279,896.4313629500102,897.3507805626141,"[93, 0, 161]",161,l,0.396072807838209,colour,0.5
19,18,0,2,6,30,280,899.369107774226,900.422670383472,"[41, 0, 213]",213,a,0.5306053485255688,colour,0.5
19,18,0,2,6,31,281,902.4318142971024,903.254736978095,"[78, 0, 176]",176,l,0.2997992174932733,colour,0.5
19,18,0,2,6,32,282,905.2757636075839,906.1666644348297,"[32, 0, 222]",222,a,0.3678380160126835,colour,0.5
19,18,0,2,6,33,283,908.1822997117415,908.9586702354718,"[64, 0, 190]",190,l,0.25301311584189534,colour,0.5
19,18,0,2,6,34,284,910.9793388592079,911.8867339408025,"[43, 0, 211]",211,a,0.38402979681268334,colour,0.5
19,18,0,2,6,35,285,913.9013696374604,914.7826909580035,"[81, 0, 173]",173,l,0.3582128231646493,colour,0.5
19,18,0,2,6,36,286,916.7923130001873,917.8226398999104,"[37, 0, 217]",217,a,0.506991547299549,colour,0.5
19,18,0,2,6,37,287,919.8394299320644,920.6386750089005,"[40, 0, 214]",214,a,0.2760133057599887,colour,0.5
19,18,0,2,6,38,288,922.6521398025798,923.6626519358251,"[95, 0, 159]",159,l,0.4872705159941688,colour,0.5
19,18,0,2,6,39,289,925.6836466637906,927.0306656069588,"[67, 0, 187]",187,l,0.8237103722058237,colour,0.5
19,18,0,2,6,40,290,929.043266303488,930.222682277672,"[55, 0, 199]",199,l,0.6561180370626971,colour,0.5
19,18,0,2,6,41,291,932.2310440138681,933.1186841933522,"[63, 0, 191]",191,l,0.3645679159089923,colour,0.5
19,18,0,2,6,42,292,935.137577361078,935.7986220129533,"[50, 0, 204]",204,a,0.13812362495809793,colour,0.5
19,18,0,2,6,43,293,937.8096315731527,938.6706131310202,"[12, 0, 242]",242,a,0.3377730236388743,colour,0.5
19,18,0,2,6,44,294,940.6847777883522,941.4865816800157,"[70, 0, 184]",184,l,0.278390557738021,colour,0.5
19,18,0,2,6,45,295,943.4975014434895,944.246625333908,"[20, 0, 234]",234,a,0.22579090110957623,colour,0.5
19,18,0,2,6,46,296,946.263328720117,947.3106094918912,"[52, 0, 202]",202,l,0.5241620343877003,colour,0.5
19,18,0,2,6,47,297,949.3261132242624,950.2306072390638,"[6, 0, 248]",248,a,0.3814591665286571,colour,0.5
19,18,0,2,6,48,298,952.2482664885465,952.9906193852657,"[18, 0, 236]",236,a,0.21897422126494348,colour,0.5
19,18,0,2,6,49,299,954.9984695159364,957.2466024908936,"[0, 0, 254]",254,a,1.724764145561494,colour,0.5
19,18,0,2,6,50,300,959.264257014147,960.0786170978099,"[2, 0, 252]",252,a,0.29114879248663783,colour,0.5
19,18,0,2,7,1,301,968.1548750603106,968.7265911953291,"[66, 0, 188]",188,l,0.04756591597106308,colour,0.5
19,18,0,2,7,2,302,970.7339860405773,971.7825594135793,"[39, 0, 215]",215,a,0.5250800885260105,colour,0.5
19,18,0,2,7,3,303,973.796680747997,974.3826426725136,"[64, 0, 190]",190,l,0.0625103876227513,colour,0.5
19,18,0,2,7,4,304,976.3906483722385,977.1985781386029,"[13, 0, 241]",241,a,0.28454203240107745,colour,0.5
19,18,0,2,7,5,305,979.2190006088931,980.2225838162703,"[42, 0, 212]",212,a,0.48032229172531515,colour,0.5
19,18,0,2,7,6,306,982.2349241807824,983.0705491704866,"[59, 0, 195]",195,l,0.31228215422015637,colour,0.5
19,18,0,2,7,7,307,985.0789530480979,985.9105269417632,"[78, 0, 176]",176,l,0.3081916735973209,colour,0.5
19,18,0,2,7,8,308,987.922830678639,988.7505712730344,"[72, 0, 182]",182,l,0.30435719271190464,colour,0.5
19,18,0,2,7,9,309,990.7668398537207,991.6385773351649,"[67, 0, 187]",187,l,0.34838598128408194,colour,0.5
19,18,0,2,7,10,310,993.6576359181199,994.7265533861937,"[47, 0, 207]",207,a,0.5454773526871577,colour,0.5
19,18,0,2,7,11,311,996.7360616069054,997.6785648738733,"[40, 0, 214]",214,a,0.4191415269160643,colour,0.5
19,18,0,2,7,12,312,999.6893779051024,1000.5265818218468,"[24, 0, 230]",230,a,0.3138268166221678,colour,0.5
19,18,0,2,7,13,313,1002.5334083477501,1003.7985719945282,"[43, 0, 211]",211,a,0.7418302635196596,colour,0.5
19,18,0,2,7,14,314,1005.8149445505114,1006.5505343303084,"[68, 0, 186]",186,l,0.2128574049565941,colour,0.5
19,18,0,2,7,15,315,1008.56516530097,1009.4305784095777,"[75, 0, 179]",179,l,0.34205845778342336,colour,0.5
19,18,0,2,7,16,316,1011.4402457439573,1012.3105472641764,"[54, 0, 200]",200,l,0.3468929125228897,colour,0.5
19,18,0,2,7,17,317,1014.3311902880669,1014.9504975451855,"[28, 0, 226]",226,a,0.09597308619413525,colour,0.5
19,18,0,2,7,18,318,1016.9719294417882,1017.8225209584925,"[21, 0, 233]",233,a,0.32717306283302605,colour,0.5
19,18,0,2,7,19,319,1019.8315813767258,1020.8305384735577,"[36, 0, 218]",218,a,0.47575565183069557,colour,0.5
19,18,0,2,7,20,320,1022.8473816750338,1023.726486038533,"[20, 0, 234]",234,a,0.35640310251619667,colour,0.5
19,18,0,2,7,21,321,1025.7383344899863,1026.8944966377458,"[23, 0, 231]",231,a,0.6328212815569714,colour,0.5
19,18,0,2,7,22,322,1028.9104265111964,1029.7424879857572,"[55, 0, 199]",199,l,0.3087462083203718,colour,0.5
19,18,0,2,7,23,323,1031.7543722770642,1032.5505327549763,"[76, 0, 178]",178,l,0.2727818024577573,colour,0.5
19,18,0,2,7,24,324,1034.567200695048,1035.222536948626,"[73, 0, 181]",181,l,0.13205328257754445,colour,0.5
19,18,0,2,7,25,325,1037.239209614927,1038.0145352660911,"[32, 0, 222]",222,a,0.2520032956963405,colour,0.5
19,18,0,2,7,26,326,1040.036281845416,1040.6545174485072,"[29, 0, 225]",225,a,0.09492821374442428,colour,0.5
19,18,0,2,7,27,327,1042.661495211185,1043.30252344755,"[84, 0, 170]",170,l,0.11791580053977668,colour,0.5
19,18,0,2,7,28,328,1045.317893272615,1045.9025125774788,"[89, 0, 165]",165,l,0.061208728002384305,colour,0.5
19,18,0,2,7,29,329,1047.9119215491228,1048.6064891577698,"[27, 0, 227]",227,a,0.17163476638961583,colour,0.5
19,18,0,2,7,30,330,1050.6152998779435,1051.326492497581,"[44, 0, 210]",210,a,0.187860811711289,colour,0.5
19,18,0,2,7,31,331,1053.334156339406,1054.1184715166455,"[95, 0, 159]",159,l,0.2609053880441934,colour,0.5
19,18,0,2,7,32,332,1056.1312569268048,1056.7665499832947,"[2, 0, 252]",252,a,0.1118096181889996,colour,0.5
19,18,0,2,7,33,333,1058.7877097326564,1060.4624511533184,"[57, 0, 197]",197,l,1.151333600631915,colour,0.5
19,18,0,2,7,34,334,1062.475576845929,1063.4544730227208,"[87, 0, 167]",167,l,0.4555364059051499,colour,0.5
19,18,0,2,7,35,335,1065.475777707179,1066.422534900601,"[37, 0, 217]",217,a,0.42340214864816517,colour,0.5
19,18,0,2,7,36,336,1068.4291743499925,1070.0544420664664,"[52, 0, 202]",202,l,1.1019370902795345,colour,0.5
19,18,0,2,7,37,337,1072.0700194480596,1072.7184259881033,"[33, 0, 221]",221,a,0.1250408614287153,colour,0.5
19,18,0,2,7,38,338,1074.7264529555105,1075.57443839591,"[70, 0, 184]",184,l,0.3246319710742682,colour,0.5
19,18,0,2,7,39,339,1077.5861100105103,1078.4064451259328,"[82, 0, 172]",172,l,0.297015122952871,colour,0.5
19,18,0,2,7,40,340,1080.4145047824131,1081.2864659682382,"[98, 0, 156]",156,l,0.34865340252872556,colour,0.5
19,18,0,2,7,41,341,1083.3052433454432,1084.1987628521165,"[30, 0, 224]",224,a,0.3702306280611083,colour,0.5
19,18,0,2,7,42,342,1086.2117633019807,1087.4863953910535,"[85, 0, 169]",169,l,0.75149050867185,colour,0.5
19,18,0,2,7,43,343,1089.4933093508007,1090.6384170399979,"[45, 0, 209]",209,a,0.6218495304929093,colour,0.5
19,18,0,2,7,44,344,1092.6498452581,1093.5584368425189,"[25, 0, 229]",229,a,0.38527277356479317,colour,0.5
19,18,0,2,7,45,345,1095.5718650086783,1096.438391124946,"[38, 0, 216]",216,a,0.34318643156439066,colour,0.5
19,18,0,2,7,46,346,1098.4470407622866,1099.3585365642793,"[88, 0, 166]",166,l,0.388063563616015,colour,0.5
19,18,0,2,7,47,347,1101.3692397125997,1102.8624092481332,"[63, 0, 191]",191,a,0.9698326077777892,colour,0.5
19,18,0,2,7,48,348,1104.8694323030068,1106.1103807463078,"[71, 0, 183]",183,l,0.7177544813603163,colour,0.5
19,18,0,2,7,49,349,1108.11981610558,1108.8063823468983,"[16, 0, 238]",238,a,0.16332501790020615,colour,0.5
19,18,0,2,7,50,350,1110.8230849454412,1111.4383611927042,"[12, 0, 242]",242,a,0.0926549369469285,colour,0.5
19,18,0,2,8,1,351,1119.244832154829,1119.9263674123213,"[12, 0, 242]",242,a,0.1573220231803134,colour,0.5
19,18,0,2,8,2,352,1121.9333735317923,1122.5664413607446,"[65, 0, 189]",189,l,0.1100432206876576,colour,0.5
19,18,0,2,8,3,353,1124.5741611284902,1125.3424089803593,"[84, 0, 170]",170,l,0.24489477626048028,colour,0.5
19,18,0,2,8,4,354,1127.3555929621216,1127.934354207362,"[62, 0, 192]",192,l,0.055410138913430274,colour,0.5
19,18,0,2,8,5,355,1129.9495826418279,1130.5503401644528,"[51, 0, 203]",203,l,0.07734812726266682,colour,0.5
19,18,0,2,8,6,356,1132.5591146508232,1134.2303599040024,"[69, 0, 185]",185,l,1.1478638207772747,colour,0.5
19,18,0,2,8,7,357,1136.246906539658,1137.1663658999605,"[20, 0, 234]",234,a,0.39606965717393905,colour,0.5
19,18,0,2,8,8,358,1139.1845769271022,1139.9023554330925,"[37, 0, 217]",217,a,0.19434469216503203,colour,0.5
19,18,0,2,8,9,359,1141.9192195083015,1142.6623746685218,"[70, 0, 184]",184,l,0.2197890878887847,colour,0.5
19,18,0,2,8,10,360,1144.669610400102,1145.3343635022175,"[72, 0, 182]",182,l,0.14145398349501193,colour,0.5
19,18,0,2,8,11,361,1147.3417016336462,1148.1902998976875,"[91, 0, 163]",163,l,0.32536097918637097,colour,0.5
19,18,0,2,8,12,362,1150.2011968180304,1150.8463375902502,"[93, 0, 161]",161,l,0.12171444145496935,colour,0.5
19,18,0,2,8,13,363,1152.8577256361023,1153.854352348484,"[86, 0, 168]",168,l,0.47360683022998273,colour,0.5
19,18,0,2,8,14,364,1155.8735066358931,1156.7743024403462,"[21, 0, 233]",233,a,0.37742500589229167,colour,0.5
19,18,0,2,8,15,365,1158.7956406016601,1159.854343683808,"[63, 0, 191]",191,l,0.5353456742595881,colour,0.5
19,18,0,2,8,16,366,1161.8740647151135,1163.0063287051162,"[29, 0, 225]",225,a,0.6089254867983982,colour,0.5
19,18,0,2,8,17,367,1165.0148786994396,1166.014317863388,"[34, 0, 220]",220,a,0.4761349252657965,colour,0.5
19,18,0,2,8,18,368,1168.0307672191411,1168.8942898687674,"[2, 0, 252]",252,a,0.3401435803389177,colour,0.5
19,18,0,2,8,19,369,1170.9059417912504,1172.6783998525934,"[67, 0, 187]",187,l,1.2490364568075165,colour,0.5
19,18,0,2,8,20,370,1174.6875236799242,1175.4302597884089,"[54, 0, 200]",200,l,0.21933931612875313,colour,0.5
19,18,0,2,8,21,371,1177.4377294642618,1178.1102905556327,"[78, 0, 176]",176,l,0.1491839912487194,colour,0.5
19,18,0,2,8,22,372,1180.125381537946,1182.1903841806343,"[24, 0, 230]",230,a,1.5415889149298891,colour,0.5
19,18,0,2,8,23,373,1184.2038974174066,1184.9343183675082,"[32, 0, 222]",222,a,0.20705960388295352,colour,0.5
19,18,0,2,8,24,374,1186.9541390417144,1187.7342900893418,"[61, 0, 193]",193,l,0.25682475371286273,colour,0.5
19,18,0,2,8,25,375,1189.7511273830896,1190.7022645334946,"[38, 0, 216]",216,a,0.4275725798215717,colour,0.5
19,18,0,2,8,26,376,1192.720162059646,1193.5663153300993,"[77, 0, 177]",177,l,0.32273127196822315,colour,0.5
19,18,0,2,8,27,377,1195.579811237636,1196.6222859114641,"[53, 0, 201]",201,a,0.5191554690245539,colour,0.5
19,18,0,2,8,28,378,1198.6424571082462,1199.182267022552,"[40, 0, 214]",214,a,0.016371374251320958,colour,0.5
19,18,0,2,8,29,379,1201.1895748279057,1201.7982443150831,"[68, 0, 186]",186,a,0.08532035013195127,colour,0.5
19,18,0,2,8,30,380,1203.814672796987,1205.0542723190738,"[1, 0, 253]",253,a,0.7161412897985429,colour,0.5
19,18,0,2,8,31,381,1207.0650542364456,1208.2702166859526,"[41, 0, 213]",213,a,0.68174242018722,colour,0.5
19,18,0,2,8,32,382,1210.284026488429,1211.3182426135754,"[97, 0, 157]",157,l,0.5108236650703475,colour,0.5
19,18,0,2,8,33,383,1213.3311386943096,1214.0062314252136,"[18, 0, 236]",236,a,0.1517502892529592,colour,0.5
19,18,0,2,8,34,384,1216.0187064849306,1217.2382596592652,"[23, 0, 231]",231,a,0.6960866712033749,colour,0.5
19,18,0,2,8,35,385,1219.2535455951001,1219.8142631975934,"[27, 0, 227]",227,a,0.037733560311608016,colour,0.5
19,18,0,2,8,36,386,1221.8318050811067,1222.4062359938398,"[80, 0, 174]",174,l,0.05123931390698999,colour,0.5
19,18,0,2,8,37,387,1224.4257282008184,1224.9663880340522,"[98, 0, 156]",156,l,0.017288247006945312,colour,0.5
19,18,0,2,8,38,388,1226.9728750650538,1227.526241933112,"[35, 0, 219]",219,a,0.030063417041674256,colour,0.5
19,18,0,2,8,39,389,1229.535560714081,1230.0942039316287,"[48, 0, 206]",206,a,0.035439409548416734,colour,0.5
19,18,0,2,8,40,390,1232.113869036897,1232.8462383411825,"[99, 0, 155]",155,l,0.20896463503595442,colour,0.5
19,18,0,2,8,41,391,1234.8641039658105,1235.4062245723326,"[6, 0, 248]",248,a,0.018827001680620015,colour,0.5
19,18,0,2,8,42,392,1237.4267907963367,1237.96624191734,"[28, 0, 226]",226,a,0.016132310149259865,colour,0.5
19,18,0,2,8,43,393,1239.9739861035487,1241.414238148951,"[64, 0, 190]",190,l,0.9169757697964087,colour,0.5
19,18,0,2,8,44,394,1243.4272732571699,1243.9822178706527,"[0, 0, 254]",254,a,0.03172780852764845,colour,0.5
19,18,0,2,8,45,395,1245.9900439768098,1246.9102071392117,"[7, 0, 247]",247,a,0.39683686837088317,colour,0.5
19,18,0,2,8,46,396,1248.9276702535572,1249.8862042183755,"[43, 0, 211]",211,a,0.43530888913664967,colour,0.5
19,18,0,2,8,47,397,1251.896703748498,1252.6862050849013,"[82, 0, 172]",172,l,0.2661860700463876,colour,0.5
19,18,0,2,8,48,398,1254.693735019071,1255.5901646510465,"[75, 0, 179]",179,l,0.37311791023239493,colour,0.5
19,18,0,2,8,49,399,1257.6002427664353,1258.5262505976716,"[33, 0, 221]",221,a,0.40263900195714086,colour,0.5
19,18,0,2,8,50,400,1260.5379430861212,1261.2462074636715,"[30, 0, 224]",224,a,0.18486404058057815,colour,0.5
19,18,0,2,9,1,401,1268.740914178663,1269.5901335373055,"[86, 0, 168]",168,l,0.3250203027855605,colour,0.5
19,18,0,2,9,2,402,1271.6013049680041,1272.5102167490404,"[92, 0, 162]",162,l,0.38545551791321486,colour,0.5
19,18,0,2,9,3,403,1274.5234700476285,1275.3501823111437,"[72, 0, 182]",182,l,0.30338439415208995,colour,0.5
19,18,0,2,9,4,404,1277.3674008473754,1278.2701962060528,"[54, 0, 200]",200,l,0.3794229846680537,colour,0.5
19,18,0,2,9,5,405,1280.289567502332,1280.9501328441547,"[23, 0, 231]",231,a,0.13730600150302052,colour,0.5
19,18,0,2,9,6,406,1282.9615933576133,1283.8541105272016,"[41, 0, 213]",213,a,0.36931454320438206,colour,0.5
19,18,0,2,9,7,407,1285.8681456095073,1286.902108491864,"[91, 0, 163]",163,l,0.510750803630799,colour,0.5
19,18,0,2,9,8,408,1288.9153424920514,1289.7741630190285,"[65, 0, 189]",189,l,0.3354398822411895,colour,0.5
19,18,0,2,9,9,409,1291.7905024918728,1292.59015638032,"[45, 0, 209]",209,a,0.27621653000824153,colour,0.5
19,18,0,2,9,10,410,1294.6031304424396,1295.6221906008432,"[3, 0, 251]",251,a,0.4955507261911407,colour,0.5
19,18,0,2,9,11,411,1297.634631002089,1298.3662429413525,"[79, 0, 175]",175,l,0.2081663099816069,colour,0.5
19,18,0,2,9,12,412,1300.3849710877985,1301.4381315807113,"[50, 0, 204]",204,a,0.52988146035932,colour,0.5
19,18,0,2,9,13,413,1303.4484605756588,1304.4061001171358,"[70, 0, 184]",184,l,0.4350391048938036,colour,0.5
19,18,0,2,9,14,414,1306.4168012961745,1307.2541095820488,"[58, 0, 196]",196,l,0.31409226858522743,colour,0.5
19,18,0,2,9,15,415,1309.2606312715216,1310.1661138386698,"[30, 0, 224]",224,a,0.38219487003516406,colour,0.5
19,18,0,2,9,16,416,1312.1827230958734,1313.1660945402691,"[87, 0, 167]",167,l,0.4599718952085823,colour,0.5
19,18,0,2,9,17,417,1315.182998393895,1315.734140034183,"[25, 0, 229]",229,a,0.027762177167460322,colour,0.5
19,18,0,2,9,18,418,1317.7456761659123,1318.4301168224774,"[84, 0, 170]",170,l,0.1609666703734547,colour,0.5
19,18,0,2,9,19,419,1320.44895760878,1321.0144580723718,"[17, 0, 237]",237,a,0.04204932053107768,colour,0.5
19,18,0,2,9,20,420,1323.0273317038082,1323.67812691757,"[59, 0, 195]",195,l,0.12758392258547246,colour,0.5
19,18,0,2,9,21,421,1325.6994390850887,1326.9421558951726,"[52, 0, 202]",202,l,0.7192896916531026,colour,0.5
19,18,0,2,9,22,422,1328.9497575092828,1329.8220707930159,"[40, 0, 214]",214,a,0.34906575886998326,colour,0.5
19,18,0,2,9,23,423,1331.8405126136495,1332.6621623856481,"[44, 0, 210]",210,a,0.2984357239911333,colour,0.5
19,18,0,2,9,24,424,1334.6688219211064,1335.350108268205,"[5, 0, 249]",249,a,0.15790570236276835,colour,0.5
19,18,0,2,9,25,425,1337.3565090469783,1337.9500784934498,"[8, 0, 246]",246,a,0.07016753405332565,colour,0.5
19,18,0,2,9,26,426,1339.9662115911487,1340.8060463966103,"[96, 0, 158]",158,l,0.3164076869143173,colour,0.5
19,18,0,2,9,27,427,1342.825729618664,1343.7261359097902,"[39, 0, 215]",215,a,0.3773084275890142,colour,0.5
19,18,0,2,9,28,428,1345.732267692103,1346.5820431608008,"[27, 0, 227]",227,a,0.3264275131514296,colour,0.5
19,18,0,2,9,29,429,1348.5917727227788,1349.5980553479167,"[69, 0, 185]",185,l,0.48286535288207233,colour,0.5
19,18,0,2,9,30,430,1351.6078144483035,1352.374058019719,"[28, 0, 226]",226,a,0.24300825572572649,colour,0.5
19,18,0,2,9,31,431,1354.3891710573807,1355.2220997799886,"[57, 0, 197]",197,l,0.3094665518729016,colour,0.5
19,18,0,2,9,32,432,1357.2331258817576,1358.0460346442414,"[85, 0, 169]",169,l,0.2897982959402725,colour,0.5
19,18,0,2,9,33,433,1360.061569884303,1360.9340505524306,"[37, 0, 217]",217,a,0.34950686583761126,colour,0.5
19,18,0,2,9,34,434,1362.9523218380054,1363.8140485517215,"[12, 0, 242]",242,a,0.33848470263183117,colour,0.5
19,18,0,2,9,35,435,1365.8275602130452,1366.574037461076,"[56, 0, 198]",198,l,0.22334433218929917,colour,0.5
19,18,0,2,9,36,436,1368.5933890651213,1369.3503170063486,"[82, 0, 172]",172,l,0.23359495180193335,colour,0.5
19,18,0,2,9,37,437,1371.3592376094311,1372.1419923704816,"[81, 0, 173]",173,l,0.2594028670573607,colour,0.5
19,18,0,2,9,38,438,1374.1563007815275,1374.8620327317622,"[51, 0, 203]",203,l,0.18221070268191397,colour,0.5
19,18,0,2,9,39,439,1376.875298633473,1377.494017091347,"[80, 0, 174]",174,l,0.09538074233569205,colour,0.5
19,18,0,2,9,40,440,1379.5004635562655,1380.5339880884858,"[43, 0, 211]",211,a,0.5100544845918193,colour,0.5
19,18,0,2,9,41,441,1382.5476096328348,1383.1580041637644,"[31, 0, 223]",223,a,0.08707256917841733,colour,0.5
19,18,0,2,9,42,442,1385.1728391463403,1385.7660108087584,"[32, 0, 222]",222,a,0.06983315921388566,colour,0.5
19,18,0,2,9,43,443,1387.7824530752841,1388.4300349026453,"[22, 0, 232]",232,a,0.12416376732289791,colour,0.5
19,18,0,2,9,44,444,1390.4388885519002,1391.0620133545017,"[93, 0, 161]",161,l,0.09980638546403497,colour,0.5
19,18,0,2,9,45,445,1393.0796726039844,1393.69400559098,"[18, 0, 236]",236,a,0.0909338315250352,colour,0.5
19,18,0,2,9,46,446,1395.7049245667877,1396.6539818184683,"[0, 0, 254]",254,a,0.4256474624853581,colour,0.5
19,18,0,2,9,47,447,1398.6738477849867,1399.5500089402776,"[67, 0, 187]",187,l,0.35276948288083076,colour,0.5
19,18,0,2,9,48,448,1401.5646970184753,1402.222010770929,"[19, 0, 235]",235,a,0.1338456739904359,colour,0.5
19,18,0,2,9,49,449,1404.2368390581105,1406.381967621157,"[1, 0, 253]",253,a,1.6217337398556992,colour,0.5
19,18,0,2,9,50,450,1408.3933887500316,1409.2779943491332,"[10, 0, 244]",244,a,0.3613060866482556,colour,0.5
19,18,0,2,10,1,451,1417.0182334764395,1417.9899789922638,"[29, 0, 225]",225,a,0.4476567367091775,colour,0.5
19,18,0,2,10,2,452,1420.0036781241652,1420.8219325531973,"[55, 0, 199]",199,l,0.2949301042826846,colour,0.5
19,18,0,2,10,3,453,1422.8320437514922,1423.741995284916,"[37, 0, 217]",217,a,0.3870135712204501,colour,0.5
19,18,0,2,10,4,454,1425.7541091882158,1426.5739661749685,"[70, 0, 184]",184,l,0.2965436896774918,colour,0.5
19,18,0,2,10,5,455,1428.5825082923984,1429.5179436060134,"[28, 0, 226]",226,a,0.41212516732048243,colour,0.5
19,18,0,2,10,6,456,1431.535791901406,1432.965926053119,"[40, 0, 214]",214,a,0.9068161284085363,colour,0.5
19,18,0,2,10,7,457,1434.9736403070856,1436.9019919135608,"[56, 0, 198]",198,l,1.405013497103937,colour,0.5
19,18,0,2,10,8,458,1438.9114548420766,1439.821928220801,"[30, 0, 224]",224,a,0.38770673936232924,colour,0.5
19,18,0,2,10,9,459,1441.833450568025,1443.1819669122342,"[77, 0, 177]",177,l,0.825294419308193,colour,0.5
19,18,0,2,10,10,460,1445.1931367676007,1446.0299299033359,"[17, 0, 237]",237,a,0.31347629404626787,colour,0.5
19,18,0,2,10,11,461,1448.0370967119234,1449.0459298812784,"[71, 0, 183]",183,l,0.4854812753619626,colour,0.5
19,18,0,2,10,12,462,1451.0530462776078,1451.9419101354433,"[23, 0, 231]",231,a,0.3659192002378404,colour,0.5
19,18,0,2,10,13,463,1453.9594898282085,1455.0699174420442,"[42, 0, 212]",212,a,0.5870300338137895,colour,0.5
19,18,0,2,10,14,464,1457.084655538667,1457.6939272157615,"[22, 0, 232]",232,a,0.08573191880714148,colour,0.5
19,18,0,2,10,15,465,1459.7098755999468,1460.2698984587332,"[5, 0, 249]",249,a,0.036733586341142654,colour,0.5
19,18,0,2,10,16,466,1462.2882059781114,1463.0859327800572,"[46, 0, 208]",208,l,0.27440996025688946,colour,0.5
19,18,0,2,10,17,467,1465.1007949379273,1466.1819452507189,"[27, 0, 227]",227,a,0.557594800600782,colour,0.5
19,18,0,2,10,18,468,1468.1948885929305,1468.9419093477773,"[21, 0, 233]",233,a,0.2238295499701053,colour,0.5
19,18,0,2,10,19,469,1470.960716263391,1471.8699762038887,"[99, 0, 155]",155,l,0.38595964026171714,colour,0.5
19,18,0,2,10,20,470,1473.882919939817,1474.7818780606613,"[35, 0, 219]",219,a,0.3761698199668899,colour,0.5
19,18,0,2,10,21,471,1476.7892492751125,1477.6938677451108,"[6, 0, 248]",248,a,0.38114015152677894,colour,0.5
19,18,0,2,10,22,472,1479.7114281393588,1480.5578515880043,"[74, 0, 180]",180,l,0.3233310990035534,colour,0.5
19,18,0,2,10,23,473,1482.570952862152,1484.4219008091604,"[41, 0, 213]",213,a,1.3274215793935582,colour,0.5
19,18,0,2,10,24,474,1486.4307324031834,1487.3338400813518,"[82, 0, 172]",172,l,0.37976799346506596,colour,0.5
19,18,0,2,10,25,475,1489.3527371876407,1490.0298767342465,"[78, 0, 176]",176,l,0.15371479117311537,colour,0.5
19,18,0,2,10,26,476,1492.0405314394739,1492.8138339058496,"[86, 0, 168]",168,l,0.24996160005684942,colour,0.5
19,18,0,2,10,27,477,1494.8220400729915,1495.5418370376574,"[14, 0, 240]",240,a,0.19648091064300388,colour,0.5
19,18,0,2,10,28,478,1497.556588131236,1498.1659421219956,"[0, 0, 254]",254,a,0.08668541896622628,colour,0.5
19,18,0,2,10,29,479,1500.181820401689,1500.77395625005,"[58, 0, 196]",196,l,0.06907697557471693,colour,0.5
19,18,0,2,10,30,480,1502.7912795492448,1503.9818295389414,"[94, 0, 160]",160,l,0.6672398434020579,colour,0.5
19,18,0,2,10,31,481,1505.9948567701504,1507.573814150528,"[54, 0, 200]",200,a,1.0557602677727118,colour,0.5
19,18,0,2,10,32,482,1509.5887542900164,1510.1818420632044,"[8, 0, 246]",246,a,0.06975635921116918,colour,0.5
19,18,0,2,10,33,483,1512.1983709757915,1513.461853295681,"[84, 0, 170]",170,l,0.7401213675038889,colour,0.5
19,18,0,2,10,34,484,1515.4798705508001,1516.1098175471416,"[19, 0, 235]",235,a,0.10663369926624,colour,0.5
19,18,0,2,10,35,485,1518.1206293967552,1519.565806087805,"[15, 0, 239]",239,a,0.9220772520639002,colour,0.5
19,18,0,2,10,36,486,1521.5740252517862,1522.2778281462379,"[87, 0, 167]",167,l,0.18032378831412643,colour,0.5
19,18,0,2,10,37,487,1524.2930758791044,1525.077801837353,"[66, 0, 188]",188,l,0.26148197799921036,colour,0.5
19,18,0,2,10,38,488,1527.090140626533,1527.781791808433,"[85, 0, 169]",169,l,0.16821539879310876,colour,0.5
19,18,0,2,10,39,489,1529.7934827215504,1530.461788704968,"[24, 0, 230]",230,a,0.14508130156900734,colour,0.5
19,18,0,2,10,40,490,1532.4811962351669,1533.2857794952579,"[98, 0, 156]",156,l,0.28117859084159136,colour,0.5
19,18,0,2,10,41,491,1535.293886413332,1536.365881390986,"[62, 0, 192]",192,a,0.5487951081013307,colour,0.5
19,18,0,2,10,42,492,1538.3878567946376,1539.4378216242185,"[11, 0, 243]",243,a,0.5264778466662392,colour,0.5
19,18,0,2,10,43,493,1541.450519994367,1542.3337747029727,"[96, 0, 158]",158,l,0.3597519717877731,colour,0.5
19,18,0,2,10,44,494,1544.3415362184169,1545.4537747345166,"[51, 0, 203]",203,a,0.5889965050155297,colour,0.5
19,18,0,2,10,45,495,1547.466767307371,1548.1098360578762,"[34, 0, 220]",220,a,0.11971331189852208,colour,0.5
19,18,0,2,10,46,496,1550.1232646177523,1551.3017645070795,"[57, 0, 197]",197,a,0.6552921428810805,colour,0.5
19,18,0,2,10,47,497,1553.310885971412,1554.2377586876974,"[31, 0, 223]",223,a,0.4036397635936737,colour,0.5
19,18,0,2,10,48,498,1556.2486209495692,1557.141795447562,"[60, 0, 194]",194,a,0.3698320563416928,colour,0.5
19,18,0,2,10,49,499,1559.1552129798802,1559.941754172556,"[65, 0, 189]",189,l,0.26324916328303516,colour,0.5
19,18,0,2,10,50,500,1561.9521867489675,1563.149820051971,"[53, 0, 201]",201,l,0.6742758952314034,colour,0.5
19,18,0,2,11,1,501,1570.4364250476938,1571.213729379233,"[82, 0, 172]",172,l,0.25311039574444294,colour,0.5
19,18,0,2,11,2,502,1573.2343050554628,1574.165798368398,"[54, 0, 200]",200,a,0.4081193635938689,colour,0.5
19,18,0,2,11,3,503,1576.187735962798,1576.9657397641568,"[57, 0, 197]",197,a,0.25475194421596825,colour,0.5
19,18,0,2,11,4,504,1578.984784956323,1579.845749184955,"[2, 0, 252]",252,a,0.3374945748364553,colour,0.5
19,18,0,2,11,5,505,1581.860052869888,1582.6297796118306,"[74, 0, 180]",180,l,0.24644062027800828,colour,0.5
19,18,0,2,11,6,506,1584.6414484695997,1585.549829740543,"[67, 0, 187]",187,l,0.38497857085894793,colour,0.5
19,18,0,2,11,7,507,1587.563684047549,1588.4537373192143,"[56, 0, 198]",198,l,0.3667888113996014,colour,0.5
19,18,0,2,11,8,508,1590.4701539857779,1591.3017649009125,"[99, 0, 155]",155,l,0.3081648921361193,colour,0.5
19,18,0,2,11,9,509,1593.3140950255329,1594.0856937157223,"[18, 0, 236]",236,a,0.24830508546438068,colour,0.5
19,18,0,2,11,10,510,1596.0954591176705,1596.9497263954254,"[46, 0, 208]",208,a,0.3308019562391564,colour,0.5
19,18,0,2,11,11,511,1598.9707183665596,1599.6216963245533,"[29, 0, 225]",225,a,0.12831923237536103,colour,0.5
19,18,0,2,11,12,512,1601.6427717908518,1603.2936938228086,"[31, 0, 223]",223,a,1.1274468642659485,colour,0.5
19,18,0,2,11,13,513,1605.3149843289284,1606.3181768413633,"[59, 0, 195]",195,l,0.47987015696708113,colour,0.5
19,18,0,2,11,14,514,1608.3308381901588,1609.117837425205,"[97, 0, 157]",157,l,0.26366348878946155,colour,0.5
19,18,0,2,11,15,515,1611.1278848206857,1611.7256959843216,"[36, 0, 218]",218,a,0.07468651863746345,colour,0.5
19,18,0,2,11,16,516,1613.737433371134,1614.3177014697576,"[14, 0, 240]",240,a,0.056759060244075954,colour,0.5
19,18,0,2,11,17,517,1616.3315089092357,1616.9416541358223,"[69, 0, 185]",185,l,0.08750658703502268,colour,0.5
19,18,0,2,11,18,518,1618.9574284402188,1619.621755795204,"[43, 0, 211]",211,a,0.14176118304021657,colour,0.5
19,18,0,2,11,19,519,1621.6287213487085,1622.3256736926269,"[15, 0, 239]",239,a,0.17370836366899312,colour,0.5
19,18,0,2,11,20,520,1624.3320465084398,1625.685663940967,"[6, 0, 248]",248,a,0.8302088248310611,colour,0.5
19,18,0,2,11,21,521,1627.7073664095951,1628.3736783525674,"[42, 0, 212]",212,l,0.1429584736470133,colour,0.5
19,18,0,2,11,22,522,1630.3950968584977,1631.0216603270965,"[52, 0, 202]",202,l,0.10344236821401864,colour,0.5
19,18,0,2,11,23,523,1633.0358879998093,1633.5657210170757,"[84, 0, 170]",170,l,0.006437800358980894,colour,0.5
19,18,0,2,11,24,524,1635.5830435286043,1636.3416449198266,"[5, 0, 249]",249,a,0.23521483887452632,colour,0.5
19,18,0,2,11,25,525,1638.3488085776335,1638.957678926061,"[23, 0, 231]",231,a,0.08547710068523884,colour,0.5
19,18,0,2,11,26,526,1640.9739573528059,1641.5017608837225,"[89, 0, 165]",165,l,0.0051101468270644546,colour,0.5
19,18,0,2,11,27,527,1643.521132967784,1644.8936376604252,"[77, 0, 177]",177,l,0.8492579554440454,colour,0.5
19,18,0,2,11,28,528,1646.9119755059946,1647.5257082722383,"[81, 0, 173]",173,l,0.09053171519190073,colour,0.5
19,18,0,2,11,29,529,1649.5372065948322,1653.1656747008674,"[32, 0, 222]",222,a,3.1051303904969245,colour,0.5
19,18,0,2,11,30,530,1655.1782446773723,1656.101638555294,"[9, 0, 245]",245,a,0.4001723468536511,colour,0.5
19,18,0,2,11,31,531,1658.1159910770366,1659.085647241911,"[76, 0, 178]",178,l,0.4462644924642518,colour,0.5
19,18,0,2,11,32,532,1661.100542089087,1662.133653871133,"[50, 0, 204]",204,a,0.5097268050303683,colour,0.5
19,18,0,2,11,33,533,1664.1476861963747,1664.9736596054863,"[80, 0, 174]",174,l,0.30255968135315925,colour,0.5
19,18,0,2,11,34,534,1666.9916544115404,1667.9656909273472,"[51, 0, 203]",203,a,0.4506684741936624,colour,0.5
19,18,0,2,11,35,535,1669.9762837988092,1670.8136334384326,"[85, 0, 169]",169,l,0.3147310861386359,colour,0.5
19,18,0,2,11,36,536,1672.8202433492988,1673.6615802819142,"[24, 0, 230]",230,a,0.3179397464264184,colour,0.5
19,18,0,2,11,37,537,1675.679865745944,1676.5096811190015,"[16, 0, 238]",238,a,0.30677934328559786,colour,0.5
19,18,0,2,11,38,538,1678.5238910686458,1679.2696042560274,"[3, 0, 251]",251,a,0.22248023480642587,colour,0.5
19,18,0,2,11,39,539,1681.289697471424,1682.1655683625722,"[38, 0, 216]",216,a,0.3525564124574885,colour,0.5
19,18,0,2,11,40,540,1684.180467542028,1685.7256262735464,"[63, 0, 191]",191,l,1.0217658776091412,colour,0.5
19,18,0,2,11,41,541,1687.7433457814623,1688.4056511331582,"[34, 0, 220]",220,a,0.13908066984731704,colour,0.5
19,18,0,2,11,42,542,1690.4153164982563,1691.2456505659502,"[39, 0, 215]",215,a,0.3068927708081901,colour,0.5
19,18,0,2,11,43,543,1693.259301648708,1694.1736118714325,"[55, 0, 199]",199,a,0.3909622671781108,colour,0.5
19,18,0,2,11,44,544,1696.1813974115066,1696.9735961963888,"[65, 0, 189]",189,l,0.26878860173746943,colour,0.5
19,18,0,2,11,45,545,1698.9941509988857,1699.693583782413,"[17, 0, 237]",237,a,0.1762002247851342,colour,0.5
19,18,0,2,11,46,546,1701.7131421554368,1702.9015693172114,"[0, 0, 254]",254,a,0.6651225292589515,colour,0.5
19,18,0,2,11,47,547,1704.9164933089633,1705.6935463669943,"[7, 0, 247]",247,a,0.25365981028880924,colour,0.5
19,18,0,2,11,48,548,1707.7135958655272,1709.0215602902463,"[35, 0, 219]",219,a,0.7845475461799651,colour,0.5
19,18,0,2,11,49,549,1711.041959129856,1711.7496536127292,"[66, 0, 188]",188,l,0.18428114894777536,colour,0.5
19,18,0,2,11,50,550,1713.7609313818393,1714.6055695282994,"[91, 0, 163]",163,l,0.32143315684515983,colour,0.5
19,18,0,2,12,1,551,1722.0264345235191,1722.8695705428254,"[0, 0, 254]",254,a,0.31912955385632813,colour,0.5
19,18,0,2,12,2,552,1724.886867848225,1725.5895175627666,"[1, 0, 253]",253,a,0.17938446660991758,colour,0.5
19,18,0,2,12,3,553,1727.6057794480585,1728.1895283540944,"[56, 0, 198]",198,l,0.06039464904461056,colour,0.5
19,18,0,2,12,4,554,1730.1998148137936,1730.8855535854818,"[12, 0, 242]",242,a,0.16242389916442335,colour,0.5
19,18,0,2,12,5,555,1732.9030742013128,1733.5255471894052,"[54, 0, 200]",200,l,0.09908564807847142,colour,0.5
19,18,0,2,12,6,556,1735.5439204809954,1737.0295206977753,"[11, 0, 243]",243,a,0.9624227964086458,colour,0.5
19,18,0,2,12,7,557,1739.0441571822157,1739.7334874320077,"[8, 0, 246]",246,a,0.16614455869421363,colour,0.5
19,18,0,2,12,8,558,1741.747496520402,1742.8375004824484,"[32, 0, 222]",222,a,0.5666623080614954,colour,0.5
19,18,0,2,12,9,559,1744.8571250215173,1745.8694811399328,"[20, 0, 234]",234,a,0.4890310058835894,colour,0.5
19,18,0,2,12,10,560,1747.8886200673878,1748.8455160283484,"[96, 0, 158]",158,l,0.4335539131425321,colour,0.5
19,18,0,2,12,11,561,1750.8574633349199,1751.7255711351754,"[41, 0, 213]",213,a,0.3446204233914614,colour,0.5
19,18,0,2,12,12,562,1753.7328497959534,1754.541488878196,"[94, 0, 160]",160,l,0.28522614226676524,colour,0.5
19,18,0,2,12,13,563,1756.5610996326432,1757.5655142480973,"[78, 0, 176]",176,l,0.48130414879415184,colour,0.5
19,18,0,2,12,14,564,1759.5770184784196,1760.4614862315357,"[17, 0, 237]",237,a,0.36116981599479914,colour,0.5
19,18,0,2,12,15,565,1762.4677499521058,1763.3014482490253,"[30, 0, 224]",224,a,0.31011994171421975,colour,0.5
19,18,0,2,12,16,566,1765.3118804316036,1766.3094578873133,"[49, 0, 205]",205,a,0.47457608429249376,colour,0.5
19,18,0,2,12,17,567,1768.3277153882664,1769.1495057631982,"[79, 0, 175]",175,l,0.2986846345011145,colour,0.5
19,18,0,2,12,18,568,1771.156058172579,1771.9655136967776,"[68, 0, 186]",186,l,0.2860681841848418,colour,0.5
19,18,0,2,12,19,569,1773.9844025322236,1774.9814798040316,"[29, 0, 225]",225,a,0.47368875017855316,colour,0.5
19,18,0,2,12,20,570,1777.0002240980975,1778.0774584040046,"[35, 0, 219]",219,a,0.5541214761324227,colour,0.5
19,18,0,2,12,21,571,1780.094248436275,1780.981463262462,"[71, 0, 183]",183,l,0.36391255678609014,colour,0.5
19,18,0,2,12,22,572,1783.0006596914027,1783.8934403437888,"[23, 0, 231]",231,a,0.36932557087857276,colour,0.5
19,18,0,2,12,23,573,1785.9070989096072,1787.3974319690606,"[59, 0, 195]",195,l,0.9668535594828427,colour,0.5
19,18,0,2,12,24,574,1789.4074699121993,1790.2534715521615,"[16, 0, 238]",238,a,0.3222862265538424,colour,0.5
19,18,0,2,12,25,575,1792.2670844318345,1792.9414631207474,"[3, 0, 251]",251,a,0.15145490516442806,colour,0.5
19,18,0,2,12,26,576,1794.9548058223445,1795.83742210723,"[22, 0, 232]",232,a,0.3593187417136505,colour,0.5
19,18,0,2,12,27,577,1797.8455762866652,1798.4694171006558,"[92, 0, 162]",162,l,0.10058344295248389,colour,0.5
19,18,0,2,12,28,578,1800.4864532863721,1801.9414520930732,"[58, 0, 196]",196,l,0.9316524266032502,colour,0.5
19,18,0,2,12,29,579,1803.9554407014512,1804.5494051750284,"[2, 0, 252]",252,a,0.07054247509222478,colour,0.5
19,18,0,2,12,30,580,1806.565086531802,1807.5814401831012,"[19, 0, 235]",235,a,0.4930285387672484,colour,0.5
19,18,0,2,12,31,581,1809.5965555838775,1810.7815003627911,"[48, 0, 206]",206,l,0.6616377833997831,colour,0.5
19,18,0,2,12,32,582,1812.8000158326467,1813.8774482427398,"[46, 0, 208]",208,a,0.5541785837849602,colour,0.5
19,18,0,2,12,33,583,1815.8939677031012,1816.7574060697807,"[65, 0, 189]",189,l,0.3403156908461824,colour,0.5
19,18,0,2,12,34,584,1818.769191505853,1819.5894340674859,"[85, 0, 169]",169,l,0.29699976288247854,colour,0.5
19,18,0,2,12,35,585,1821.5974929364165,1822.389408546267,"[62, 0, 192]",192,l,0.26859010360203683,colour,0.5
19,18,0,2,12,36,586,1824.4102457360132,1825.2134202104062,"[87, 0, 167]",167,l,0.2799387648701668,colour,0.5
19,18,0,2,12,37,587,1827.2229004681576,1828.1333955083974,"[52, 0, 202]",202,a,0.387088795658201,colour,0.5
19,18,0,2,12,38,588,1830.1450753938407,1830.925370589015,"[89, 0, 165]",165,l,0.25720520853064954,colour,0.5
19,18,0,2,12,39,589,1832.9420972120715,1833.541359302937,"[86, 0, 168]",168,l,0.07592555682640523,colour,0.5
19,18,0,2,12,40,590,1835.5517501317663,1837.2133575889748,"[15, 0, 239]",239,a,1.1386155381333083,colour,0.5
19,18,0,2,12,41,591,1839.2239236789756,1840.045411186642,"[84, 0, 170]",170,l,0.2985747514758259,colour,0.5
19,18,0,2,12,42,592,1842.0522755217971,1843.1493683110457,"[18, 0, 236]",236,a,0.5739350612275302,colour,0.5
19,18,0,2,12,43,593,1845.161879998399,1845.845358096296,"[93, 0, 161]",161,l,0.160272320616059,colour,0.5
19,18,0,2,12,44,594,1847.865143324365,1848.7573265129467,"[64, 0, 190]",190,l,0.36881829774938524,colour,0.5
19,18,0,2,12,45,595,1850.7658922611736,1851.6294046709081,"[76, 0, 178]",178,l,0.3402806386584416,colour,0.5
19,18,0,2,12,46,596,1853.6411763223587,1854.5654437497724,"[90, 0, 164]",164,l,0.40097106574103236,colour,0.5
19,18,0,2,12,47,597,1856.57885813131,1857.837343338062,"[36, 0, 218]",218,a,0.734990740660578,colour,0.5
19,18,0,2,12,48,598,1859.8445908849826,1860.8933470024494,"[43, 0, 211]",211,a,0.5251687038689852,colour,0.5
19,18,0,2,12,49,599,1862.9075065398356,1863.9733681598445,"[51, 0, 203]",203,a,0.5427822672063485,colour,0.5
19,18,0,2,12,50,600,1865.9859085979406,1867.1653828612762,"[80, 0, 174]",174,l,0.6561184310121462,colour,0.5
19,18,0,2,13,1,601,1874.5639254749985,1876.0213042906253,"[37, 0, 217]",217,a,0.9331797597697005,colour,0.5
19,18,0,2,13,2,602,1878.0336997935083,1878.6773136263946,"[55, 0, 199]",199,a,0.12027454189956188,colour,0.5
19,18,0,2,13,3,603,1880.6901829255512,1881.5973125550663,"[46, 0, 208]",208,a,0.38376001256983727,colour,0.5
19,18,0,2,13,4,604,1883.6123625774635,1884.1733503579162,"[16, 0, 238]",238,a,0.037726864917203784,colour,0.5
19,18,0,2,13,5,605,1886.1905712572625,1886.9093107465887,"[1, 0, 253]",253,a,0.1952686539152637,colour,0.5
19,18,0,2,13,6,606,1888.925185087719,1889.7333468290744,"[28, 0, 226]",226,a,0.2851379207568243,colour,0.5
19,18,0,2,13,7,607,1891.7535333859269,1892.5892966153333,"[67, 0, 187]",187,l,0.31236210477072746,colour,0.5
19,18,0,2,13,8,608,1894.5974949055817,1895.3253306531115,"[41, 0, 213]",213,a,0.20449881965760142,colour,0.5
19,18,0,2,13,9,609,1897.332083136076,1898.1013250541873,"[38, 0, 216]",216,a,0.24586087954230607,colour,0.5
19,18,0,2,13,10,610,1900.1134791297372,1900.9173211724265,"[66, 0, 188]",188,l,0.280411773477681,colour,0.5
19,18,0,2,13,11,611,1902.9262350801146,1903.6692937482148,"[52, 0, 202]",202,a,0.21964100189507008,colour,0.5
19,18,0,2,13,12,612,1905.676479067537,1906.5013142628595,"[2, 0, 252]",252,a,0.3014604583149776,colour,0.5
19,18,0,2,13,13,613,1908.520401202608,1909.381286662072,"[65, 0, 189]",189,l,0.33746779325883836,colour,0.5
19,18,0,2,13,14,614,1911.3956821130123,1912.3172721780138,"[29, 0, 225]",225,a,0.3982066633179784,colour,0.5
19,18,0,2,13,15,615,1914.3333812511992,1915.1652729783673,"[54, 0, 200]",200,l,0.30864302068948746,colour,0.5
19,18,0,2,13,16,616,1917.1775349675445,1917.7172956512077,"[19, 0, 235]",235,a,0.01672898617107421,colour,0.5
19,18,0,2,13,17,617,1919.72447663825,1920.5652491900837,"[69, 0, 185]",185,l,0.3174415316898376,colour,0.5
19,18,0,2,13,18,618,1922.5840182964457,1923.485250875703,"[61, 0, 193]",193,l,0.3778385437326506,colour,0.5
19,18,0,2,13,19,619,1925.5061762868427,1926.0693227351876,"[85, 0, 169]",169,l,0.0397992804646492,colour,0.5
19,18,0,2,13,20,620,1928.0844082036056,1928.893251297879,"[50, 0, 204]",204,a,0.28614774090237916,colour,0.5
19,18,0,2,13,21,621,1930.9128403909272,1931.74129935971,"[20, 0, 234]",234,a,0.30542530212551355,colour,0.5
19,18,0,2,13,22,622,1933.7568586244015,1934.5332850741688,"[72, 0, 182]",182,l,0.25310960807837546,colour,0.5
19,18,0,2,13,23,623,1936.553932824172,1937.1812619286356,"[79, 0, 175]",175,l,0.10390080453362316,colour,0.5
19,18,0,2,13,24,624,1939.1947625622852,1940.1572267125593,"[36, 0, 218]",218,a,0.4395427295239642,colour,0.5
19,18,0,2,13,25,625,1942.1637621865375,1943.093232314568,"[56, 0, 198]",198,l,0.40642897819634527,colour,0.5
19,18,0,2,13,26,626,1945.1013908263994,1945.933322331868,"[30, 0, 224]",224,a,0.308575279195793,colour,0.5
19,18,0,2,13,27,627,1947.9461435818812,1949.0212318230188,"[97, 0, 157]",157,l,0.5529998037964106,colour,0.5
19,18,0,2,13,28,628,1951.0394613610115,1952.149229677394,"[71, 0, 183]",183,l,0.5863935793749988,colour,0.5
19,18,0,2,13,29,629,1954.1646806345088,1954.9732752122218,"[98, 0, 156]",156,l,0.28598429495468736,colour,0.5
19,18,0,2,13,30,630,1956.9929730065633,1957.7172160943737,"[59, 0, 195]",195,a,0.20091127988416702,colour,0.5
19,18,0,2,13,31,631,1959.7276041662553,1960.365248874994,"[60, 0, 194]",194,l,0.11443302384577692,colour,0.5
19,18,0,2,13,32,632,1962.3839726891601,1963.117191912257,"[42, 0, 212]",212,a,0.2097948614973575,colour,0.5
19,18,0,2,13,33,633,1965.1342249473091,1966.3731872270582,"[83, 0, 171]",171,l,0.7155371304834262,colour,0.5
19,18,0,2,13,34,634,1968.384507531533,1969.0852207071148,"[75, 0, 179]",179,l,0.17728211870417,colour,0.5
19,18,0,2,13,35,635,1971.103387229843,1972.061218967894,"[35, 0, 219]",219,a,0.4343482997501269,colour,0.5
19,18,0,2,13,36,636,1974.0724778324366,1974.9332679811632,"[43, 0, 211]",211,a,0.3377627836307511,colour,0.5
19,18,0,2,13,37,637,1976.9476579183247,1977.8051704840036,"[0, 0, 254]",254,a,0.33413625333923846,colour,0.5
19,18,0,2,13,38,638,1979.8228116165847,1980.4531678183703,"[77, 0, 177]",177,l,0.10691529873292893,colour,0.5
19,18,0,2,13,39,639,1982.4636819207808,1983.2212057504803,"[62, 0, 192]",192,l,0.23416405881289393,colour,0.5
19,18,0,2,13,40,640,1985.2295848157955,1985.8052039608592,"[11, 0, 243]",243,a,0.052271583350375295,colour,0.5
19,18,0,2,13,41,641,1987.823594581685,1988.5891662525246,"[39, 0, 215]",215,a,0.242275309166871,colour,0.5
19,18,0,2,13,42,642,1990.6049736399436,1992.0771555367392,"[5, 0, 249]",249,a,0.9487665937049314,colour,0.5
19,18,0,2,13,43,643,1994.0896018457133,1995.0771917705424,"[26, 0, 228]",228,a,0.46501705748960376,colour,0.5
19,18,0,2,13,44,644,1997.0899039253127,1997.9011652315967,"[82, 0, 172]",172,l,0.28865693125408143,colour,0.5
19,18,0,2,13,45,645,1999.9181498235557,2000.8531629347708,"[4, 0, 250]",250,a,0.41166042955592275,colour,0.5
19,18,0,2,13,46,646,2002.8715141710127,2003.6931493707234,"[84, 0, 170]",170,l,0.2982892134459689,colour,0.5
19,18,0,2,13,47,647,2005.6999388751574,2006.7332416722784,"[31, 0, 223]",223,a,0.5099965892732143,colour,0.5
19,18,0,2,13,48,648,2008.747032176354,2009.5492003752152,"[58, 0, 196]",196,l,0.2788312709890306,colour,0.5
19,18,0,2,13,49,649,2011.5596880899975,2012.3971121663926,"[12, 0, 242]",242,a,0.3140666685067117,colour,0.5
19,18,0,2,13,50,650,2014.4037787910784,2015.2451814959059,"[23, 0, 231]",231,a,0.3175628361059353,colour,0.5
19,18,0,2,14,1,651,2025.6537900157273,2026.2931321989745,"[74, 0, 180]",180,l,0.11518881353549659,colour,0.5
19,18,0,2,14,2,652,2028.3111470910953,2029.1971563559491,"[41, 0, 213]",213,a,0.36301065038423985,colour,0.5
19,18,0,2,14,3,653,2031.218062862521,2032.0931141609326,"[5, 0, 249]",249,a,0.3522287330124527,colour,0.5
19,18,0,2,14,4,654,2034.108382767532,2034.8692089925753,"[6, 0, 248]",248,a,0.23824075469747186,colour,0.5
19,18,0,2,14,5,655,2036.8898697395343,2037.7810939140618,"[0, 0, 254]",254,a,0.3678829143755138,colour,0.5
19,18,0,2,14,6,656,2039.7963239238597,2040.877098113997,"[83, 0, 171]",171,l,0.5574203269788995,colour,0.5
19,18,0,2,14,7,657,2042.8902860343223,2043.8691770910518,"[48, 0, 206]",206,a,0.45556279353331774,colour,0.5
19,18,0,2,14,8,658,2045.8905215540435,2046.6611163316993,"[77, 0, 177]",177,l,0.2471932591870427,colour,0.5
19,18,0,2,14,9,659,2048.672010101378,2049.6291577296797,"[45, 0, 209]",209,a,0.4336519807111472,colour,0.5
19,18,0,2,14,10,660,2051.641012876411,2052.4531272522872,"[17, 0, 237]",237,a,0.2888026541331783,colour,0.5
19,18,0,2,14,11,661,2054.469312337693,2055.3492910384666,"[79, 0, 175]",175,l,0.3565704869106412,colour,0.5
19,18,0,2,14,12,662,2057.3601698420243,2058.1331399026094,"[33, 0, 221]",221,a,0.254457741510123,colour,0.5
19,18,0,2,14,13,663,2060.1523973776493,2061.0051199928857,"[7, 0, 247]",247,a,0.3293789920862764,colour,0.5
19,18,0,2,14,14,664,2063.0119866911555,2063.701038098312,"[92, 0, 162]",162,l,0.1658779252320528,colour,0.5
19,18,0,2,14,15,665,2065.715422915411,2066.3570289232302,"[51, 0, 203]",203,a,0.11830885848030448,colour,0.5
19,18,0,2,14,16,666,2068.3717760782456,2069.1010651161196,"[54, 0, 200]",200,a,0.20598086074460298,colour,0.5
19,18,0,2,14,17,667,2071.121966108796,2071.829125749413,"[3, 0, 251]",251,a,0.1844631057465449,colour,0.5
19,18,0,2,14,18,668,2073.840826508589,2074.5170578472316,"[65, 0, 189]",189,l,0.15286566002760082,colour,0.5
19,18,0,2,14,19,669,2076.528618003591,2077.525110020768,"[60, 0, 194]",194,l,0.4734807995846495,colour,0.5
19,18,0,2,14,20,670,2079.5445825355127,2080.1090471850475,"[23, 0, 231]",231,a,0.04141050286125392,colour,0.5
19,18,0,2,14,21,671,2082.1228455660166,2082.7650789699983,"[64, 0, 190]",190,l,0.11889253766275942,colour,0.5
19,18,0,2,14,22,672,2084.7792542611714,2086.1730392199242,"[18, 0, 236]",236,a,0.8704110094113275,colour,0.5
19,18,0,2,14,23,673,2088.185839202255,2088.8531479685334,"[9, 0, 245]",245,a,0.14397774613462389,colour,0.5
19,18,0,2,14,24,674,2090.8735566543182,2091.5571958350483,"[16, 0, 238]",238,a,0.16028452990576625,colour,0.5
19,18,0,2,14,25,675,2093.576799106435,2094.4290183871053,"[80, 0, 174]",174,l,0.32886029744986445,colour,0.5
19,18,0,2,14,26,676,2096.4363387954654,2099.42134272994,"[89, 0, 165]",165,l,2.4617749203462154,colour,0.5
19,18,0,2,14,27,677,2101.436867336277,2102.1410349317594,"[71, 0, 183]",183,l,0.18082357849925756,colour,0.5
19,18,0,2,14,28,678,2104.155678111594,2104.7250890681753,"[84, 0, 170]",170,l,0.04594484739936888,colour,0.5
19,18,0,2,14,29,679,2106.733963985229,2107.3571553477086,"[4, 0, 250]",250,a,0.09993084077723324,colour,0.5
19,18,0,2,14,30,680,2109.3750000984874,2110.109008982079,"[97, 0, 157]",157,l,0.21068692195694894,colour,0.5
19,18,0,2,14,31,681,2112.125156652066,2112.68504560343,"[72, 0, 182]",182,l,0.03648900822736323,colour,0.5
19,18,0,2,14,32,682,2114.7035232640337,2115.413014076883,"[76, 0, 178]",178,l,0.18653276446275413,colour,0.5
19,18,0,2,14,33,683,2117.422464008443,2118.2050112127326,"[43, 0, 211]",211,a,0.25921697181183845,colour,0.5
19,18,0,2,14,34,684,2120.2195492357714,2120.9489552457817,"[73, 0, 181]",181,l,0.20639951864723116,colour,0.5
19,18,0,2,14,35,685,2122.969744386268,2123.988984532072,"[47, 0, 207]",207,a,0.49585162417497486,colour,0.5
19,18,0,2,14,36,686,2126.0012390383054,2126.6450037140166,"[20, 0, 234]",234,a,0.12039427098352462,colour,0.5
19,18,0,2,14,37,687,2128.657771400991,2129.3089443126228,"[36, 0, 218]",218,a,0.1277493378147483,colour,0.5
19,18,0,2,14,38,688,2131.329821674619,2132.317003181437,"[52, 0, 202]",202,l,0.4638957789866254,colour,0.5
19,18,0,2,14,39,689,2134.33006152662,2135.253028869629,"[37, 0, 217]",217,a,0.39968515979126096,colour,0.5
19,18,0,2,14,40,690,2137.267722855555,2138.10898377595,"[22, 0, 232]",232,a,0.3186238561756909,colour,0.5
19,18,0,2,14,41,691,2140.1274334735936,2140.8290245310636,"[14, 0, 240]",240,a,0.178417575545609,colour,0.5
19,18,0,2,14,42,692,2142.8463848517276,2143.493064772687,"[67, 0, 187]",187,l,0.12324138090480119,colour,0.5
19,18,0,2,14,43,693,2145.5128417300293,2146.084985975176,"[27, 0, 227]",227,a,0.04869113292079419,colour,0.5
19,18,0,2,14,44,694,2148.106816049665,2148.9729022404645,"[90, 0, 164]",164,l,0.3431245977990329,colour,0.5
19,18,0,2,14,45,695,2150.9820729354396,2151.6209551071515,"[8, 0, 246]",246,a,0.11552121920976788,colour,0.5
19,18,0,2,14,46,696,2153.6385324366856,2154.860911847092,"[53, 0, 201]",201,l,0.699032636359334,colour,0.5
19,18,0,2,14,47,697,2156.8730860088253,2157.4449305374874,"[55, 0, 199]",199,l,0.04841150250285864,colour,0.5
19,18,0,2,14,48,698,2159.45143253461,2159.996923278086,"[15, 0, 239]",239,a,0.022015969618223608,colour,0.5
19,18,0,2,14,49,699,2162.0140701344935,2163.068923375802,"[78, 0, 176]",176,l,0.5313544429372996,colour,0.5
19,18,0,2,14,50,700,2165.0768853586633,2165.9489548519487,"[81, 0, 173]",173,l,0.3490283435676247,colour,0.5
19,18,0,2,15,1,701,2173.3892651865026,2174.1889104103902,"[60, 0, 194]",194,l,0.2755300571443513,colour,0.5
19,18,0,2,15,2,702,2176.2028253696626,2177.045015371754,"[61, 0, 193]",193,l,0.31885583116672933,colour,0.5
19,18,0,2,15,3,703,2179.062341034063,2179.948917042697,"[14, 0, 240]",240,a,0.36323002236895263,colour,0.5
19,18,0,2,15,4,704,2181.968868079828,2182.844948102953,"[63, 0, 191]",191,l,0.35235318809282035,colour,0.5
19,18,0,2,15,5,705,2184.8596602057805,2185.628959231428,"[68, 0, 186]",186,l,0.24595737166237086,colour,0.5
19,18,0,2,15,6,706,2187.641298414441,2188.532975511509,"[18, 0, 236]",236,a,0.36845438450109214,colour,0.5
19,18,0,2,15,7,707,2190.547665558872,2191.477205003728,"[24, 0, 230]",230,a,0.40623008622787893,colour,0.5
19,18,0,2,15,8,708,2193.4853914786363,2194.3008807175793,"[33, 0, 221]",221,a,0.29217594186775386,colour,0.5
19,18,0,2,15,9,709,2196.3136980291456,2197.1809051044984,"[50, 0, 204]",204,l,0.3438461229670793,colour,0.5
19,18,0,2,15,10,710,2199.1889931178885,2199.956953856279,"[87, 0, 167]",167,l,0.24525081273168325,colour,0.5
19,18,0,2,15,11,711,2201.970470243832,2202.908948408556,"[15, 0, 239]",239,a,0.4149805479682982,colour,0.5
19,18,0,2,15,12,712,2204.9237483389443,2205.5088493170915,"[78, 0, 176]",176,l,0.06168921967037022,colour,0.5
19,18,0,2,15,13,713,2207.517609625007,2208.236829605885,"[67, 0, 187]",187,l,0.19567982875742018,colour,0.5
19,18,0,2,15,14,714,2210.252343578264,2210.9408924384043,"[71, 0, 183]",183,l,0.16527022141963243,colour,0.5
19,18,0,2,15,15,715,2212.9556088735117,2213.7328509774525,"[9, 0, 245]",245,a,0.25392171763814986,colour,0.5
19,18,0,2,15,16,716,2215.752783897682,2216.4688487814274,"[0, 0, 254]",254,l,0.19278151891194284,colour,0.5
19,18,0,2,15,17,717,2218.487274454441,2219.0768286448438,"[19, 0, 235]",235,a,0.06611880112905055,colour,0.5
19,18,0,2,15,18,718,2221.096843878855,2222.2928765931865,"[72, 0, 182]",182,l,0.6727269003167748,colour,0.5
19,18,0,2,15,19,719,2224.300223389175,2225.020837189746,"[10, 0, 244]",244,a,0.1972461526747793,colour,0.5
19,18,0,2,15,20,720,2227.0348281612387,2228.0928735212656,"[42, 0, 212]",212,a,0.5347289121709764,colour,0.5
19,18,0,2,15,21,721,2230.113254243857,2230.668828616501,"[38, 0, 216]",216,a,0.03223626327235252,colour,0.5
19,18,0,2,15,22,722,2232.675963129732,2233.3088442757726,"[81, 0, 173]",173,l,0.10962574428413063,colour,0.5
19,18,0,2,15,23,723,2235.3167554525426,2236.028812169563,"[43, 0, 211]",211,a,0.18902305024676025,colour,0.5
19,18,0,2,15,24,724,2238.0357430645963,2238.7968252892606,"[20, 0, 234]",234,a,0.23778783215675503,colour,0.5
19,18,0,2,15,25,725,2240.8172650887864,2241.684801419149,"[28, 0, 226]",226,a,0.34431716229300946,colour,0.5
19,18,0,2,15,26,726,2243.6923983071465,2244.556789780152,"[79, 0, 175]",175,l,0.34111795434728265,colour,0.5
19,18,0,2,15,27,727,2246.567646528245,2247.5648269875674,"[35, 0, 219]",219,a,0.47379705763887614,colour,0.5
19,18,0,2,15,28,728,2249.58354292484,2250.5008097465616,"[95, 0, 159]",159,l,0.3939023247221485,colour,0.5
19,18,0,2,15,29,729,2252.521082161693,2253.244807736366,"[47, 0, 207]",207,a,0.20020432712044567,colour,0.5
19,18,0,2,15,30,730,2255.2558054812253,2256.8128551995615,"[21, 0, 233]",233,a,1.034164925222285,colour,0.5
19,18,0,2,15,31,731,2258.818589985487,2259.7728148854803,"[98, 0, 156]",156,l,0.43094271677546203,colour,0.5
19,18,0,2,15,32,732,2261.787554557435,2262.8288035836304,"[11, 0, 243]",243,a,0.5179412428988144,colour,0.5
19,18,0,2,15,33,733,2264.850509990705,2265.844818133861,"[48, 0, 206]",206,a,0.47111536283046007,colour,0.5
19,18,0,2,15,34,734,2267.8662732674275,2268.7327824482927,"[91, 0, 163]",163,l,0.34322581603191793,colour,0.5
19,18,0,2,15,35,735,2270.7413741903147,2271.532792373211,"[40, 0, 214]",214,a,0.2680702273501083,colour,0.5
19,18,0,2,15,36,736,2273.5540962700034,2274.46881766757,"[39, 0, 215]",215,a,0.39131200208794326,colour,0.5
19,18,0,2,15,37,737,2276.476240869728,2277.324764303048,"[51, 0, 203]",203,a,0.3254874035483226,colour,0.5
19,18,0,2,15,38,738,2279.335739204893,2280.1567521285033,"[86, 0, 168]",168,l,0.29794893076177686,colour,0.5
19,18,0,2,15,39,739,2282.164193447563,2283.028752304963,"[17, 0, 237]",237,a,0.34115418815054,colour,0.5
19,18,0,2,15,40,740,2285.0393428134266,2285.8368021942442,"[93, 0, 161]",161,l,0.2740885822568089,colour,0.5
19,18,0,2,15,41,741,2287.85238863423,2288.8047356783645,"[46, 0, 208]",208,a,0.4291365407407284,colour,0.5
19,18,0,2,15,42,742,2290.82130633865,2292.004814762622,"[53, 0, 201]",201,a,0.6601947330636904,colour,0.5
19,18,0,2,15,43,743,2294.0249694178347,2294.8448149831966,"[85, 0, 169]",169,l,0.2968083539744839,colour,0.5
19,18,0,2,15,44,744,2296.8530881040497,2297.668834524229,"[94, 0, 160]",160,l,0.2923047294607386,colour,0.5
19,18,0,2,15,45,745,2299.681501386687,2300.5807351995027,"[44, 0, 210]",210,a,0.37586695270147175,colour,0.5
19,18,0,2,15,46,746,2302.5878338727634,2303.8367348465836,"[70, 0, 184]",184,l,0.7256790489191189,colour,0.5
19,18,0,2,15,47,747,2305.8538336538477,2306.724757056334,"[90, 0, 164]",164,l,0.3475388194201514,colour,0.5
19,18,0,2,15,48,748,2308.744673828827,2309.604710551095,"[3, 0, 251]",251,a,0.33681164658628404,colour,0.5
19,18,0,2,15,49,749,2311.61993662233,2312.5967158790445,"[64, 0, 190]",190,l,0.4534450857900083,colour,0.5
19,18,0,2,15,50,750,2314.6045026006177,2315.836765960441,"[92, 0, 162]",162,l,0.7089563643094152,colour,0.5
19,18,0,2,16,1,751,2323.2918395977467,2323.9407683770405,"[75, 0, 179]",179,l,0.12536302721127868,colour,0.5
19,18,0,2,16,2,752,2325.949232906918,2327.1727040573023,"[41, 0, 213]",213,a,0.7001456441357732,colour,0.5
19,18,0,2,16,3,753,2329.1838215312455,2329.8847146943444,"[95, 0, 159]",159,l,0.17759128753095865,colour,0.5
19,18,0,2,16,4,754,2331.9027303741314,2332.860854739556,"[67, 0, 187]",187,l,0.4347842868883163,colour,0.5
19,18,0,2,16,5,755,2334.8717197583755,2335.748679238721,"[58, 0, 196]",196,a,0.3535437834216282,colour,0.5
19,18,0,2,16,6,756,2337.762554813409,2338.4526814190904,"[26, 0, 228]",228,a,0.16676841012667865,colour,0.5
19,18,0,2,16,7,757,2340.465922508505,2341.420714940061,"[61, 0, 193]",193,a,0.4313834300264716,colour,0.5
19,18,0,2,16,8,758,2343.4348760528956,2344.2526598363183,"[84, 0, 170]",170,l,0.2945338955614716,colour,0.5
19,18,0,2,16,9,759,2346.2632168679265,2347.028640846722,"[90, 0, 164]",164,l,0.24237889051437378,colour,0.5
19,18,0,2,16,10,760,2349.0446727260714,2349.908697528881,"[28, 0, 226]",226,a,0.3409033084753901,colour,0.5
19,18,0,2,16,11,761,2351.9199922333937,2353.3406433704076,"[66, 0, 188]",188,l,0.8974067629314959,colour,0.5
19,18,0,2,16,12,762,2355.3576803439064,2356.228680546279,"[12, 0, 242]",242,a,0.34766524378210306,colour,0.5
19,18,0,2,16,13,763,2358.2485476942966,2359.5646418801043,"[63, 0, 191]",191,a,0.7926517073065042,colour,0.5
19,18,0,2,16,14,764,2361.576953887823,2362.580696996418,"[18, 0, 236]",236,a,0.4807460695737973,colour,0.5
19,18,0,2,16,15,765,2364.592736856779,2365.468681790866,"[85, 0, 169]",169,l,0.35254065867047757,colour,0.5
19,18,0,2,16,16,766,2367.483761745505,2368.396673422423,"[34, 0, 220]",220,a,0.38973465049639344,colour,0.5
19,18,0,2,16,17,767,2370.405666099279,2371.3166743203765,"[42, 0, 212]",212,a,0.3876630224986002,colour,0.5
19,18,0,2,16,18,768,2373.3278256650083,2374.540617297869,"[40, 0, 214]",214,a,0.6896520216250792,colour,0.5
19,18,0,2,16,19,769,2376.546833363129,2377.244636413525,"[76, 0, 178]",178,l,0.17435151350218803,colour,0.5
19,18,0,2,16,20,770,2379.265752446023,2380.164637705311,"[27, 0, 227]",227,a,0.375631432980299,colour,0.5
19,18,0,2,16,21,771,2382.172280279454,2382.9646322702756,"[86, 0, 168]",168,l,0.2690241214586422,colour,0.5
19,18,0,2,16,22,772,2384.9851071221055,2385.9326626404654,"[96, 0, 158]",158,l,0.42435840575490147,colour,0.5
19,18,0,2,16,23,773,2387.953958266531,2388.588668431621,"[98, 0, 156]",156,l,0.11169343371875584,colour,0.5
19,18,0,2,16,24,774,2390.6103898047004,2391.492660293239,"[48, 0, 206]",206,a,0.35891859454568475,colour,0.5
19,18,0,2,16,25,775,2393.501150423079,2394.6765921012266,"[37, 0, 217]",217,a,0.6518877414055169,colour,0.5
19,18,0,2,16,26,776,2396.6890557394363,2397.620616399916,"[38, 0, 216]",216,a,0.4082481510704383,colour,0.5
19,18,0,2,16,27,777,2399.6266993453028,2400.4606075619813,"[77, 0, 177]",177,l,0.3105326918885112,colour,0.5
19,18,0,2,16,28,778,2402.470772323315,2403.2046327271964,"[43, 0, 211]",211,a,0.2105636482592672,colour,0.5
19,18,0,2,16,29,779,2405.220915486221,2408.356618536054,"[91, 0, 163]",163,l,2.612572890939191,colour,0.5
19,18,0,2,16,30,780,2410.377525042626,2411.0685897885123,"[39, 0, 215]",215,a,0.16776799026411027,colour,0.5
19,18,0,2,16,31,781,2413.080977414502,2414.036588257295,"[44, 0, 210]",210,a,0.4322424072306603,colour,0.5
19,18,0,2,16,32,782,2416.0499411989003,2416.7645535799675,"[93, 0, 161]",161,l,0.19128175475634634,colour,0.5
19,18,0,2,16,33,783,2418.784436481772,2419.412585178972,"[54, 0, 200]",200,a,0.10466801573056728,colour,0.5
19,18,0,2,16,34,784,2421.425331598264,2422.500585648464,"[83, 0, 171]",171,l,0.5518328393809497,colour,0.5
19,18,0,2,16,35,785,2424.519334274926,2425.628594530397,"[10, 0, 244]",244,a,0.5859241153812036,colour,0.5
19,18,0,2,16,36,786,2427.644586237613,2428.5885593363782,"[32, 0, 222]",222,a,0.42081733990926296,colour,0.5
19,18,0,2,16,37,787,2430.597916320432,2431.5565715896664,"[73, 0, 181]",181,l,0.43523327074944973,colour,0.5
19,18,0,2,16,38,788,2433.566893495503,2434.3886236120015,"[46, 0, 208]",208,a,0.2983356872573495,colour,0.5
19,18,0,2,16,39,789,2436.3952914181864,2437.0845428988105,"[21, 0, 233]",233,a,0.16618591244332492,colour,0.5
19,18,0,2,16,40,790,2439.098628393258,2440.1326156940777,"[57, 0, 197]",197,a,0.5106992098735645,colour,0.5
19,18,0,2,16,41,791,2442.1456606484717,2442.948535800213,"[17, 0, 237]",237,a,0.2793869872111827,colour,0.5
19,18,0,2,16,42,792,2444.958365398925,2445.612602035515,"[29, 0, 225]",225,a,0.13087292725685984,colour,0.5
19,18,0,2,16,43,793,2447.630502712447,2448.3166227266192,"[31, 0, 223]",223,a,0.162846889346838,colour,0.5
19,18,0,2,16,44,794,2450.3338436259655,2451.1005452398676,"[56, 0, 198]",198,a,0.2433977690525353,colour,0.5
19,18,0,2,16,45,795,2453.115369982552,2454.748504765099,"[25, 0, 229]",229,a,1.1096497687976807,colour,0.5
19,18,0,2,16,46,796,2456.7561902684392,2457.348575421027,"[81, 0, 173]",173,l,0.0689730002777651,colour,0.5
19,18,0,2,16,47,797,2459.365826646448,2460.4045361562166,"[51, 0, 203]",203,a,0.5153780956752598,colour,0.5
19,18,0,2,16,48,798,2462.413015258382,2463.2524956027046,"[8, 0, 246]",246,a,0.31634664081502706,colour,0.5
19,18,0,2,16,49,799,2465.272512805881,2466.0045032306807,"[65, 0, 189]",189,l,0.20913241326343268,colour,0.5
19,18,0,2,16,50,800,2468.0227434025146,2468.948495627963,"[9, 0, 245]",245,a,0.4023857591673732,colour,0.5
