id,age,condition,counterbalance,block,trialinblock,trial,tstart,tend,trialstim,trialintensity,response,RT,trialtype,colourfreq
030,21,0,2,Practice,1,NA,7.0892274379730225e-06,1.1674556722864509,"[95, 0, 159]",159,l,0.6119867190718651,colour,0.5
030,21,0,2,Practice,2,NA,3.188337415922433,3.7194709852337837,"[33, 0, 221]",221,a,0.007834001444280148,colour,0.5
030,21,0,2,Practice,3,NA,5.750701834447682,6.647425818722695,"[5, 0, 249]",249,a,0.37340433057397604,colour,0.5
030,21,0,2,Practice,4,NA,8.656949028372765,9.207504745572805,"[32, 0, 222]",222,a,0.02726284507662058,colour,0.5
030,21,0,2,Practice,5,NA,11.219828991685063,12.015442328993231,"[50, 0, 204]",204,a,0.2727631484158337,colour,0.5
030,21,0,2,Practice,6,NA,14.031954739242792,15.135459185577929,"[89, 0, 165]",165,l,0.5808137655258179,colour,0.5
030,21,0,2,Practice,7,NA,17.15691555151716,18.519478074274957,"[52, 0, 202]",202,a,0.8391144750639796,colour,0.5
030,21,0,2,Practice,8,NA,20.531861003488302,21.56746158003807,"[15, 0, 239]",239,a,0.5123124304227531,colour,0.5
030,21,0,2,Practice,9,NA,23.57879569614306,24.455471315886825,"[8, 0, 246]",246,a,0.35340677248314023,colour,0.5
030,21,0,2,Practice,10,NA,26.469435933046043,27.04749749880284,"[87, 0, 167]",167,l,0.05481910612434149,colour,0.5
030,21,0,2,1,1,1,5.413674745708704,7.584003135096282,"[16, 0, 238]",238,a,1.6461970177479088,colour,0.5
030,21,0,2,1,2,2,9.601964900270104,10.912005624268204,"[86, 0, 168]",168,l,0.7868033843114972,colour,0.5
030,21,0,2,1,3,3,12.930193851236254,13.912011925596744,"[18, 0, 236]",236,a,0.45868628565222025,colour,0.5
030,21,0,2,1,4,4,15.929929580073804,16.92030200129375,"[83, 0, 171]",171,l,0.4672662322409451,colour,0.5
030,21,0,2,1,5,5,18.93005639873445,19.784081116784364,"[33, 0, 221]",221,a,0.33054595021530986,colour,0.5
030,21,0,2,1,6,6,21.78941576788202,22.608029743190855,"[22, 0, 232]",232,a,0.2951899520121515,colour,0.5
030,21,0,2,1,7,7,24.61746670026332,25.816204028204083,"[60, 0, 194]",194,a,0.6752601354382932,colour,0.5
030,21,0,2,1,8,8,27.836315801832825,29.240065614692867,"[37, 0, 217]",217,a,0.8804474882781506,colour,0.5
030,21,0,2,1,9,9,31.258190826512873,32.36803974676877,"[49, 0, 205]",205,a,0.5864867311902344,colour,0.5
030,21,0,2,1,10,10,34.38312013121322,35.48806644976139,"[69, 0, 185]",185,l,0.5814577047713101,colour,0.5
030,21,0,2,1,11,11,37.50816955883056,38.47205107379705,"[14, 0, 240]",240,a,0.4409612216986716,colour,0.5
030,21,0,2,1,12,12,40.492492496967316,41.376111631747335,"[39, 0, 215]",215,a,0.36026206566020846,colour,0.5
030,21,0,2,1,13,13,43.383153608068824,44.312059187330306,"[87, 0, 167]",167,l,0.4059439320117235,colour,0.5
030,21,0,2,1,14,14,46.32065803883597,47.472094003111124,"[53, 0, 201]",201,a,0.6281178859062493,colour,0.5
030,21,0,2,1,15,15,49.492611832451075,50.76004781294614,"[68, 0, 186]",186,l,0.7442214833572507,colour,0.5
030,21,0,2,1,16,16,52.77382692787796,53.632074074819684,"[35, 0, 219]",219,a,0.33496609004214406,colour,0.5
030,21,0,2,1,17,17,55.64874481083825,56.50411490863189,"[4, 0, 250]",250,a,0.33194213593378663,colour,0.5
030,21,0,2,1,18,18,58.52357368450612,59.32010113960132,"[24, 0, 230]",230,a,0.27351893996819854,colour,0.5
030,21,0,2,1,19,19,61.336125574074686,62.18412404600531,"[73, 0, 181]",181,l,0.32448150124400854,colour,0.5
030,21,0,2,1,20,20,64.19554835231975,65.16810709470883,"[21, 0, 233]",233,a,0.4491807990707457,colour,0.5
030,21,0,2,1,21,21,67.1799768419005,68.65615345817059,"[56, 0, 198]",198,l,0.9524524821899831,colour,0.5
030,21,0,2,1,22,22,70.6643241988495,71.5200704196468,"[6, 0, 248]",248,a,0.3323592194356024,colour,0.5
030,21,0,2,1,23,23,73.5393945001997,74.48008751263842,"[54, 0, 200]",200,l,0.41783573431894183,colour,0.5
030,21,0,2,1,24,24,76.49241806007922,77.4321402409114,"[94, 0, 160]",160,l,0.4163363608531654,colour,0.5
030,21,0,2,1,25,25,79.44554677698761,80.27208612626418,"[36, 0, 218]",218,a,0.30345639726147056,colour,0.5
030,21,0,2,1,26,26,82.28927831538022,83.33610982028767,"[92, 0, 162]",162,l,0.5233885771594942,colour,0.5
030,21,0,2,1,27,27,85.35182311572134,86.34408166818321,"[27, 0, 227]",227,a,0.4689262956380844,colour,0.5
030,21,0,2,1,28,28,88.35180145408958,89.49611627915874,"[50, 0, 204]",204,a,0.6209746915847063,colour,0.5
030,21,0,2,1,29,29,91.50796987861395,92.35206099878997,"[93, 0, 161]",161,l,0.3205851772800088,colour,0.5
030,21,0,2,1,30,30,94.36735760467127,95.59213409665972,"[19, 0, 235]",235,a,0.7013213550671935,colour,0.5
030,21,0,2,1,31,31,97.60178451845422,98.5361716542393,"[9, 0, 245]",245,a,0.41107890335842967,colour,0.5
030,21,0,2,1,32,32,100.55483958637342,101.38413192285225,"[29, 0, 225]",225,a,0.30618024012073874,colour,0.5
030,21,0,2,1,33,33,103.39862035540864,104.20005356287584,"[1, 0, 253]",253,a,0.27797491988167167,colour,0.5
030,21,0,2,1,34,34,106.21112458920106,107.11211078101769,"[82, 0, 172]",172,l,0.37779847672209144,colour,0.5
030,21,0,2,1,35,35,109.13301576161757,109.67213023733348,"[45, 0, 209]",209,a,0.015936212614178658,colour,0.5
030,21,0,2,1,36,36,111.67987641086802,112.52816751087084,"[96, 0, 158]",158,l,0.3250076803378761,colour,0.5
030,21,0,2,1,37,37,114.53935708478093,116.05606444878504,"[66, 0, 188]",188,a,0.9934274884872139,colour,0.5
030,21,0,2,1,38,38,118.07066237088293,118.83212094241753,"[51, 0, 203]",203,a,0.2382539208047092,colour,0.5
030,21,0,2,1,39,39,120.85169117711484,121.66411309689283,"[90, 0, 164]",164,l,0.2893897742033005,colour,0.5
030,21,0,2,1,40,40,123.679792127572,124.51212259661406,"[0, 0, 254]",254,a,0.3094901265576482,colour,0.5
030,21,0,2,1,41,41,126.52359455870464,127.31214228877798,"[89, 0, 165]",165,l,0.2653919165022671,colour,0.5
030,21,0,2,1,42,42,129.32032484468073,130.34411238785833,"[77, 0, 177]",177,l,0.5010492070578039,colour,0.5
030,21,0,2,1,43,43,132.3517305618152,133.6401605317369,"[79, 0, 175]",175,l,0.7651701811701059,colour,0.5
030,21,0,2,1,44,44,135.64859790634364,136.44820169685408,"[5, 0, 249]",249,a,0.2762443581596017,colour,0.5
030,21,0,2,1,45,45,138.46102337073535,139.04016683343798,"[52, 0, 202]",202,a,0.05613258481025696,colour,0.5
030,21,0,2,1,46,46,141.0548659740016,141.76825321186334,"[80, 0, 174]",174,l,0.19072964042425156,colour,0.5
030,21,0,2,1,47,47,143.78909832751378,145.20013587689027,"[67, 0, 187]",187,a,0.8882172927260399,colour,0.5
030,21,0,2,1,48,48,147.21092412155122,147.96017778245732,"[26, 0, 228]",228,a,0.22569454833865166,colour,0.5
030,21,0,2,1,49,49,149.9767685676925,150.5201566722244,"[2, 0, 252]",252,a,0.020103896968066692,colour,0.5
030,21,0,2,1,50,50,152.53912668442354,153.29615330090746,"[32, 0, 222]",222,a,0.23352382378652692,colour,0.5
030,21,0,2,2,1,51,163.99150906223804,164.88015564810485,"[8, 0, 246]",246,a,0.3647397067397833,colour,0.5
030,21,0,2,2,2,52,166.89855261379853,167.520196844358,"[11, 0, 243]",243,a,0.09828952420502901,colour,0.5
030,21,0,2,2,3,53,169.5391715830192,170.4721731664613,"[54, 0, 200]",200,a,0.409590951167047,colour,0.5
030,21,0,2,2,4,54,172.49229124141857,173.2881668806076,"[47, 0, 207]",207,a,0.2726245145313442,colour,0.5
030,21,0,2,2,5,55,175.30475924164057,176.08021078677848,"[59, 0, 195]",195,a,0.2521303161047399,colour,0.5
030,21,0,2,2,6,56,178.10170338628814,178.76022740686312,"[0, 0, 254]",254,a,0.13515356089919806,colour,0.5
030,21,0,2,2,7,57,180.77352839242667,182.0962052885443,"[71, 0, 183]",183,l,0.7992623252794147,colour,0.5
030,21,0,2,2,8,58,184.11742298305035,184.81616149283946,"[46, 0, 208]",208,a,0.17571305902674794,colour,0.5
030,21,0,2,2,9,59,186.83600072469562,187.7922353153117,"[22, 0, 232]",232,a,0.43287397688254714,colour,0.5
030,21,0,2,2,10,60,189.8048128047958,191.624205020722,"[74, 0, 180]",180,l,1.296402605716139,colour,0.5
030,21,0,2,2,11,61,193.6328629492782,195.3442120309919,"[55, 0, 199]",199,a,1.188408702146262,colour,0.5
030,21,0,2,2,12,62,197.35151670314372,199.0642225863412,"[9, 0, 245]",245,a,1.1891164449043572,colour,0.5
030,21,0,2,2,13,63,201.0866123684682,202.304261025507,"[50, 0, 204]",204,a,0.6968492274172604,colour,0.5
030,21,0,2,2,14,64,204.3183327689767,207.13620552467182,"[85, 0, 169]",169,l,2.2951182718388736,colour,0.5
030,21,0,2,2,15,65,209.14640693785623,210.504273628816,"[68, 0, 186]",186,a,0.8342654369771481,colour,0.5
030,21,0,2,2,16,66,212.52151701785624,213.6082487218082,"[48, 0, 206]",206,a,0.5633703023195267,colour,0.5
030,21,0,2,2,17,67,215.6151965688914,216.58424535067752,"[51, 0, 203]",203,a,0.4457244020886719,colour,0.5
030,21,0,2,2,18,68,218.59958015941083,219.40826014336199,"[38, 0, 216]",216,a,0.2861133646219969,colour,0.5
030,21,0,2,2,19,69,221.4277969012037,222.5442592925392,"[73, 0, 181]",181,l,0.593526738230139,colour,0.5
030,21,0,2,2,20,70,224.55269903037697,225.87219719123095,"[61, 0, 193]",193,l,0.796436870470643,colour,0.5
030,21,0,2,2,21,71,227.88088662736118,228.8561995383352,"[57, 0, 197]",197,a,0.4518991280347109,colour,0.5
030,21,0,2,2,22,72,230.8650536024943,231.6562231690623,"[17, 0, 237]",237,a,0.2681996487081051,colour,0.5
030,21,0,2,2,23,73,233.66192882414907,234.39221916766837,"[14, 0, 240]",240,a,0.2071329546160996,colour,0.5
030,21,0,2,2,24,74,236.4119879011996,237.30427677975968,"[1, 0, 253]",253,a,0.36880184011533856,colour,0.5
030,21,0,2,2,25,75,239.31831622729078,240.3522287774831,"[77, 0, 177]",177,l,0.5109355431050062,colour,0.5
030,21,0,2,2,26,76,242.3651957809925,243.2721983725205,"[7, 0, 247]",247,a,0.38375225476920605,colour,0.5
030,21,0,2,2,27,77,245.28701763646677,246.24026608280838,"[27, 0, 227]",227,a,0.4300209525972605,colour,0.5
030,21,0,2,2,28,78,248.25579190719873,249.17628846876323,"[30, 0, 224]",224,a,0.39727143105119467,colour,0.5
030,21,0,2,2,29,79,251.19316085474566,252.08822438213974,"[96, 0, 158]",158,l,0.37160248262807727,colour,0.5
030,21,0,2,2,30,80,254.09956952556968,255.880234811455,"[23, 0, 231]",231,a,1.257634321693331,colour,0.5
030,21,0,2,2,31,81,257.8963521933183,258.7602226808667,"[15, 0, 239]",239,a,0.3405705261975527,colour,0.5
030,21,0,2,2,32,82,260.77130394708365,261.71225295960903,"[63, 0, 191]",191,l,0.41749190632253885,colour,0.5
030,21,0,2,2,33,83,263.72449371032417,264.72849243413657,"[69, 0, 185]",185,a,0.480776350479573,colour,0.5
030,21,0,2,2,34,84,266.74009003303945,267.59230817714706,"[78, 0, 176]",176,l,0.32879530219361186,colour,0.5
030,21,0,2,2,35,85,269.59953683661297,270.41626034816727,"[20, 0, 234]",234,a,0.29362953221425414,colour,0.5
030,21,0,2,2,36,86,272.42762163933367,273.4722932893783,"[39, 0, 215]",215,a,0.5212232084013522,colour,0.5
030,21,0,2,2,37,87,275.4901944026351,276.39230778301135,"[33, 0, 221]",221,a,0.3788917944766581,colour,0.5
030,21,0,2,2,38,88,278.41184020834044,279.3842654367909,"[3, 0, 251]",251,a,0.4491004543378949,colour,0.5
030,21,0,2,2,39,89,281.39626751607284,282.2803667499684,"[31, 0, 223]",223,a,0.36135262669995427,colour,0.5
030,21,0,2,2,40,90,284.28689987631515,285.1522382297553,"[10, 0, 244]",244,a,0.34185564750805497,colour,0.5
030,21,0,2,2,41,91,287.16191425174475,288.08036084193736,"[5, 0, 249]",249,a,0.3951836503110826,colour,0.5
030,21,0,2,2,42,92,290.09927847329527,291.0727076162584,"[60, 0, 194]",194,a,0.4498826339840889,colour,0.5
030,21,0,2,2,43,93,293.0839093993418,293.96827644854784,"[36, 0, 218]",218,a,0.36111001716926694,colour,0.5
030,21,0,2,2,44,94,295.97446062695235,297.2324568936601,"[75, 0, 179]",179,l,0.7351456838659942,colour,0.5
030,21,0,2,2,45,95,299.24004474096,300.0882767639123,"[82, 0, 172]",172,l,0.3246788182295859,colour,0.5
030,21,0,2,2,46,96,302.09942301455885,303.28829960664734,"[87, 0, 167]",167,l,0.6655880520120263,colour,0.5
030,21,0,2,2,47,97,305.3024788699113,306.29631871636957,"[95, 0, 159]",159,l,0.47046505426988006,colour,0.5
030,21,0,2,2,48,98,308.30255173146725,309.2483233953826,"[97, 0, 157]",157,l,0.4225252652540803,colour,0.5
030,21,0,2,2,49,99,311.2556776916608,312.12828133255243,"[81, 0, 173]",173,l,0.3491721348837018,colour,0.5
030,21,0,2,2,50,100,314.14624861162156,314.70438114879653,"[90, 0, 164]",164,l,0.034744747914373875,colour,0.5
030,21,0,2,3,1,101,322.9892495647073,323.82431135931984,"[31, 0, 223]",223,a,0.31098910607397556,colour,0.5
030,21,0,2,3,2,102,325.8338452023454,326.7923538633622,"[79, 0, 175]",175,l,0.43525399174541235,colour,0.5
030,21,0,2,3,3,103,328.8025753623806,329.9683445841074,"[73, 0, 181]",181,l,0.6425763866864145,colour,0.5
030,21,0,2,3,4,104,331.9743523192592,332.9523103036918,"[15, 0, 239]",239,a,0.4544339245185256,colour,0.5
030,21,0,2,3,5,105,334.95879301801324,335.81636117305607,"[85, 0, 169]",169,l,0.33427016297355294,colour,0.5
030,21,0,2,3,6,106,337.8337802179158,338.840345245786,"[70, 0, 184]",184,l,0.48367033479735255,colour,0.5
030,21,0,2,3,7,107,340.8495348673314,341.84062054473907,"[59, 0, 195]",195,a,0.468400904443115,colour,0.5
030,21,0,2,3,8,108,343.8493556668982,344.848364748992,"[18, 0, 236]",236,a,0.4756193235516548,colour,0.5
030,21,0,2,3,9,109,346.8649263898842,347.84831630578265,"[60, 0, 194]",194,a,0.46039085322991014,colour,0.5
030,21,0,2,3,10,110,349.86501421779394,350.7923349584453,"[46, 0, 208]",208,a,0.40425393637269735,colour,0.5
030,21,0,2,3,11,111,352.80247178068385,353.9123671753332,"[76, 0, 178]",178,l,0.5866135498508811,colour,0.5
030,21,0,2,3,12,112,355.9274707962759,357.00838696211576,"[77, 0, 177]",177,l,0.5583566362038255,colour,0.5
030,21,0,2,3,13,113,359.02122123911977,359.9205288570374,"[43, 0, 211]",211,a,0.37689893087372184,colour,0.5
030,21,0,2,3,14,114,361.92745346715674,362.75237292516977,"[32, 0, 222]",222,a,0.3024300327524543,colour,0.5
030,21,0,2,3,15,115,364.7719344953075,365.30437090899795,"[0, 0, 254]",254,a,0.010690570808947086,colour,0.5
030,21,0,2,3,16,116,367.31800981471315,371.0163710191846,"[83, 0, 171]",171,l,3.1749300924129784,colour,0.5
030,21,0,2,3,17,117,373.03681244235486,373.8644076939672,"[30, 0, 224]",224,a,0.30425866227597,colour,0.5
030,21,0,2,3,18,118,375.88038053456694,376.92038273997605,"[72, 0, 182]",182,l,0.5170074752531946,colour,0.5
030,21,0,2,3,19,119,378.92727308534086,379.7603975487873,"[7, 0, 247]",247,a,0.3101974749006331,colour,0.5
030,21,0,2,3,20,120,381.771152316127,382.9043634259142,"[84, 0, 170]",170,l,0.6098142620176077,colour,0.5
030,21,0,2,3,21,121,384.91181460861117,385.76836467022076,"[40, 0, 214]",214,a,0.33343166345730424,colour,0.5
030,21,0,2,3,22,122,387.78677699621767,388.83262545987964,"[63, 0, 191]",191,a,0.5225307792425156,colour,0.5
030,21,0,2,3,23,123,390.84913944546133,391.62438225140795,"[14, 0, 240]",240,a,0.25259111635386944,colour,0.5
030,21,0,2,3,24,124,393.6305325590074,394.64038778143004,"[49, 0, 205]",205,a,0.4866718393750489,colour,0.5
030,21,0,2,3,25,125,396.66175553156063,397.5603707670234,"[57, 0, 197]",197,a,0.3753873482346535,colour,0.5
030,21,0,2,3,26,126,399.56804447295144,400.3764085918665,"[44, 0, 210]",210,a,0.2852350869216025,colour,0.5
030,21,0,2,3,27,127,402.39600600209087,402.92845541238785,"[20, 0, 234]",234,a,0.00950469821691513,colour,0.5
030,21,0,2,3,28,128,404.9430671194568,405.8724496467039,"[68, 0, 186]",186,a,0.40628500329330564,colour,0.5
030,21,0,2,3,29,129,407.88052704557776,408.74445621622726,"[38, 0, 216]",216,a,0.34139484725892544,colour,0.5
030,21,0,2,3,30,130,410.7555977408774,412.7523615038954,"[6, 0, 248]",248,a,1.473566989414394,colour,0.5
030,21,0,2,3,31,131,414.77117634098977,415.30439887195826,"[48, 0, 206]",206,a,0.009921782184392214,colour,0.5
030,21,0,2,3,32,132,417.31795349437743,419.7364367125556,"[34, 0, 220]",220,a,1.8953163768164814,colour,0.5
030,21,0,2,3,33,133,421.7555878944695,422.8564078831114,"[86, 0, 168]",168,l,0.5776338488794863,colour,0.5
030,21,0,2,3,34,134,424.86495435331017,425.95245760213584,"[11, 0, 243]",243,a,0.5643178969621658,colour,0.5
030,21,0,2,3,35,135,427.9586977069266,428.8564551449381,"[21, 0, 233]",233,a,0.3746228921227157,colour,0.5
030,21,0,2,3,36,136,430.8648409252055,431.848421856761,"[74, 0, 180]",180,l,0.4601246127858758,colour,0.5
030,21,0,2,3,37,137,433.8648263528012,434.86442974954844,"[97, 0, 157]",157,l,0.47670397721230984,colour,0.5
030,21,0,2,3,38,138,436.88042149459943,437.96845013508573,"[58, 0, 196]",196,a,0.5647326176986098,colour,0.5
030,21,0,2,3,39,139,439.9741691807285,440.91246799984947,"[53, 0, 201]",201,a,0.41507565788924694,colour,0.5
030,21,0,2,3,40,140,442.9274030546658,444.00047655403614,"[71, 0, 183]",183,l,0.5504611940123141,colour,0.5
030,21,0,2,3,41,141,446.02091797767207,447.0804986883886,"[50, 0, 204]",204,a,0.5364666450768709,colour,0.5
030,21,0,2,3,42,142,449.09931588871405,450.224414546974,"[93, 0, 161]",161,l,0.6018361123278737,colour,0.5
030,21,0,2,3,43,143,452.2398226116784,453.26445141108707,"[1, 0, 253]",253,a,0.5012461305595934,colour,0.5
030,21,0,2,3,44,144,455.27108457451686,456.26449552178383,"[2, 0, 252]",252,a,0.4701259518042207,colour,0.5
030,21,0,2,3,45,145,458.27103810058907,459.2805357100442,"[96, 0, 158]",158,l,0.48612951254472136,colour,0.5
030,21,0,2,3,46,146,461.28664151299745,462.3604723792523,"[8, 0, 246]",246,a,0.55079753883183,colour,0.5
030,21,0,2,3,47,147,464.3804191313684,465.47253314219415,"[61, 0, 193]",193,a,0.5690751695074141,colour,0.5
030,21,0,2,3,48,148,467.48987775016576,468.40846021752805,"[22, 0, 232]",232,a,0.3952198843471706,colour,0.5
030,21,0,2,3,49,149,470.4272289746441,471.43259513378143,"[47, 0, 207]",207,a,0.4827566109597683,colour,0.5
030,21,0,2,3,50,150,473.4429131252691,474.5684769167565,"[54, 0, 200]",200,a,0.6032141819596291,colour,0.5
030,21,0,2,4,1,151,482.8640043954365,484.6325785918161,"[38, 0, 216]",216,a,1.2448031948879361,colour,0.5
030,21,0,2,4,2,152,486.646091860719,487.68044197466224,"[30, 0, 224]",224,a,0.5111175002530217,colour,0.5
030,21,0,2,4,3,153,489.692986774724,490.2564901970327,"[2, 0, 252]",252,a,0.04017904261127114,colour,0.5
030,21,0,2,4,4,154,492.27120745461434,493.0004564682022,"[59, 0, 195]",195,a,0.20621883682906628,colour,0.5
030,21,0,2,4,5,155,495.0210782731883,496.0405504400842,"[41, 0, 213]",213,a,0.49646877218037844,colour,0.5
030,21,0,2,4,6,156,498.0523410239257,499.1205016816966,"[42, 0, 212]",212,a,0.5449371025897563,colour,0.5
030,21,0,2,4,7,157,501.1305175931193,501.8964920085855,"[28, 0, 226]",226,a,0.2428359310142696,colour,0.5
030,21,0,2,4,8,158,503.91174607910216,504.9124762704596,"[76, 0, 178]",178,l,0.47743062349036336,colour,0.5
030,21,0,2,4,9,159,506.9273002608679,507.86453451262787,"[22, 0, 232]",232,a,0.414378943387419,colour,0.5
030,21,0,2,4,10,160,509.8803116111085,510.848506140057,"[16, 0, 238]",238,a,0.4453786048106849,colour,0.5
030,21,0,2,4,11,161,512.8647397067398,513.7925173095427,"[47, 0, 207]",207,a,0.40431380132213235,colour,0.5
030,21,0,2,4,12,162,515.8022925807163,516.3444983577356,"[27, 0, 227]",227,a,0.018962529487907887,colour,0.5
030,21,0,2,4,13,163,518.3648724332452,519.0565027999692,"[70, 0, 184]",184,l,0.1686057043261826,colour,0.5
030,21,0,2,4,14,164,521.0679629468359,522.3365391129628,"[74, 0, 180]",180,l,0.7450056322850287,colour,0.5
030,21,0,2,4,15,165,524.3493304606527,525.3526096269488,"[94, 0, 160]",160,l,0.4798795613460243,colour,0.5
030,21,0,2,4,16,166,527.3649106360972,528.2325143949129,"[11, 0, 243]",243,a,0.34420336643233895,colour,0.5
030,21,0,2,4,17,167,530.2399092577398,530.792613802012,"[5, 0, 249]",249,a,0.02937543811276555,colour,0.5
030,21,0,2,4,18,168,532.8024024637416,533.3365276912227,"[85, 0, 169]",169,l,0.011254952754825354,colour,0.5
030,21,0,2,4,19,169,535.3493024976924,536.0645175771788,"[98, 0, 156]",156,l,0.19194898894056678,colour,0.5
030,21,0,2,4,20,170,538.0836868761107,538.6964837377891,"[49, 0, 205]",205,a,0.08930627861991525,colour,0.5
030,21,0,2,4,21,171,540.7084716390818,542.2004891573451,"[90, 0, 164]",164,l,0.9685265412554145,colour,0.5
030,21,0,2,4,22,172,544.2085862485692,545.0485274079256,"[67, 0, 187]",187,a,0.3168101580813527,colour,0.5
030,21,0,2,4,23,173,547.067981063854,547.9685556860641,"[86, 0, 168]",168,l,0.377968224696815,colour,0.5
030,21,0,2,4,24,174,549.9742802456021,550.6805538269691,"[46, 0, 208]",208,a,0.18281923234462738,colour,0.5
030,21,0,2,4,25,175,552.6930580609478,555.3045197827742,"[24, 0, 230]",230,a,2.0881601851433516,colour,0.5
030,21,0,2,4,26,176,557.3181003993377,558.2645900449716,"[81, 0, 173]",173,l,0.42334722308441997,colour,0.5
030,21,0,2,4,27,177,560.2712555038743,560.9445830346085,"[99, 0, 155]",155,l,0.15032452950254083,colour,0.5
030,21,0,2,4,28,178,562.9587044022046,563.8805719437078,"[6, 0, 248]",248,a,0.39871054608374834,colour,0.5
030,21,0,2,4,29,179,565.8961698422208,566.5765314721502,"[36, 0, 218]",218,a,0.15727946534752846,colour,0.5
030,21,0,2,4,30,180,568.5837136576883,569.6565673910081,"[9, 0, 245]",245,a,0.5495840981602669,colour,0.5
030,21,0,2,4,31,181,571.6774688269943,572.7365611684509,"[26, 0, 228]",228,a,0.5358294015750289,colour,0.5
030,21,0,2,4,32,182,574.7555366945453,575.4005793482065,"[12, 0, 242]",242,a,0.12170685222372413,colour,0.5
030,21,0,2,4,33,183,577.4118205159903,578.4245504243299,"[54, 0, 200]",200,a,0.48938032193109393,colour,0.5
030,21,0,2,4,34,184,580.4430923252366,581.5205465801992,"[71, 0, 183]",183,a,0.5541251488029957,colour,0.5
030,21,0,2,4,35,185,583.5367982639,584.7366430885158,"[45, 0, 209]",209,a,0.6769391037523746,colour,0.5
030,21,0,2,4,36,186,586.7555355131626,588.000609674491,"[57, 0, 197]",197,a,0.7219057446345687,colour,0.5
030,21,0,2,4,37,187,590.0212082425132,591.112593636848,"[93, 0, 161]",161,l,0.568404448684305,colour,0.5
030,21,0,2,4,38,188,593.1304656052962,594.3045658627525,"[73, 0, 181]",181,a,0.6507183760404587,colour,0.5
030,21,0,2,4,39,189,596.3182587255724,597.1365977958776,"[25, 0, 229]",229,a,0.2950674658641219,colour,0.5
030,21,0,2,4,40,190,599.1463009933941,600.256573298946,"[95, 0, 159]",159,l,0.5873232614248991,colour,0.5
030,21,0,2,4,41,191,602.2712074546143,603.4406351167709,"[52, 0, 202]",202,a,0.6463797623291612,colour,0.5
030,21,0,2,4,42,192,605.4588060146198,606.456565422006,"[63, 0, 191]",191,a,0.47461659042164683,colour,0.5
030,21,0,2,4,43,193,608.474423605483,609.4006057358347,"[92, 0, 162]",162,l,0.4031787351705134,colour,0.5
030,21,0,2,4,44,194,611.4118563560769,612.3686183076352,"[91, 0, 163]",163,l,0.4334068517200649,colour,0.5
030,21,0,2,4,45,195,614.3806298393756,615.4486794322729,"[72, 0, 182]",182,a,0.545033201109618,colour,0.5
030,21,0,2,4,46,196,617.4586571408436,618.6646329741925,"[50, 0, 204]",204,a,0.6825955272652209,colour,0.5
030,21,0,2,4,47,197,620.677456617821,621.7686387873255,"[4, 0, 250]",250,a,0.568033839110285,colour,0.5
030,21,0,2,4,48,198,623.7867911746725,624.8806294454262,"[17, 0, 237]",237,a,0.5704839583486319,colour,0.5
030,21,0,2,4,49,199,626.8962564887479,627.9446086348034,"[55, 0, 199]",199,a,0.5252120867371559,colour,0.5
030,21,0,2,4,50,200,629.958761903923,630.9446621979587,"[31, 0, 223]",223,a,0.46259875735267997,colour,0.5
030,21,0,2,5,1,201,638.4111182875931,639.3206749740057,"[5, 0, 249]",249,a,0.3853981392458081,colour,0.5
030,21,0,2,5,2,202,641.3338302364573,642.336590312887,"[45, 0, 209]",209,a,0.4794530258513987,colour,0.5
030,21,0,2,5,3,203,644.3494383748621,644.9446247825399,"[32, 0, 222]",222,a,0.07194749265909195,colour,0.5
030,21,0,2,5,4,204,646.9588733627461,647.9926551557146,"[81, 0, 173]",173,l,0.5104822255671024,colour,0.5
030,21,0,2,5,5,205,650.0055323624983,651.0086547778919,"[4, 0, 250]",250,a,0.4798901956528425,colour,0.5
030,21,0,2,5,6,206,653.0213291533291,654.2246547932737,"[94, 0, 160]",160,l,0.6799362753517926,colour,0.5
030,21,0,2,5,7,207,656.2400636454113,657.3366600237787,"[58, 0, 196]",196,a,0.573267272207886,colour,0.5
030,21,0,2,5,8,208,659.3494655503891,660.4246603073552,"[3, 0, 251]",251,a,0.5519286664202809,colour,0.5
030,21,0,2,5,9,209,662.4430679068901,663.4406425999478,"[64, 0, 190]",190,a,0.47409868240356445,colour,0.5
030,21,0,2,5,10,210,665.4588261009194,666.7046603858471,"[72, 0, 182]",182,l,0.7227804777212441,colour,0.5
030,21,0,2,5,11,211,668.7243755562231,669.5046288785525,"[23, 0, 231]",231,a,0.25676825316622853,colour,0.5
030,21,0,2,5,12,212,671.5211853990331,672.4086898299865,"[11, 0, 243]",243,a,0.36475703585892916,colour,0.5
030,21,0,2,5,13,213,674.4273750917055,675.160713807214,"[12, 0, 242]",242,a,0.20978708658367395,colour,0.5
030,21,0,2,5,14,214,677.1774463779293,678.2407060093246,"[2, 0, 252]",252,a,0.5397769254632294,colour,0.5
030,21,0,2,5,15,215,680.2556371255778,681.3846919727512,"[97, 0, 157]",157,l,0.6061940249055624,colour,0.5
030,21,0,2,5,16,216,683.3962793317623,684.4646617253311,"[19, 0, 235]",235,a,0.5452509988099337,colour,0.5
030,21,0,2,5,17,217,686.4743613777682,687.4966400950216,"[73, 0, 181]",181,l,0.49889841116964817,colour,0.5
030,21,0,2,5,18,218,689.5055894702673,690.4566603386775,"[57, 0, 197]",197,a,0.4277638178318739,colour,0.5
030,21,0,2,5,19,219,692.4742900915444,693.5128539693542,"[31, 0, 223]",223,a,0.5152969993650913,colour,0.5
030,21,0,2,5,20,220,695.5212113931775,696.5046867737547,"[75, 0, 179]",179,a,0.46048695174977183,colour,0.5
030,21,0,2,5,21,221,698.521126715932,699.5127098215744,"[54, 0, 200]",200,a,0.46836427645757794,colour,0.5
030,21,0,2,5,22,222,701.5212842547335,702.448784195818,"[83, 0, 171]",171,l,0.40412829956039786,colour,0.5
030,21,0,2,5,23,223,704.4588146791793,705.3686951077543,"[18, 0, 236]",236,a,0.38662063935771585,colour,0.5
030,21,0,2,5,24,224,707.3806337779388,708.2407020707615,"[93, 0, 161]",161,l,0.33678920520469546,colour,0.5
030,21,0,2,5,25,225,710.2556772977114,711.1367293405347,"[79, 0, 175]",175,l,0.3576169917359948,colour,0.5
030,21,0,2,5,26,226,713.1463502240367,714.2327223462053,"[20, 0, 234]",234,a,0.5634140195325017,colour,0.5
030,21,0,2,5,27,227,716.2399376146495,717.1851043300703,"[52, 0, 202]",202,a,0.42220585606992245,colour,0.5
030,21,0,2,5,28,228,719.193150614854,720.0166750685312,"[27, 0, 227]",227,a,0.3002674216404557,colour,0.5
030,21,0,2,5,29,229,722.0369573780335,723.0167684103362,"[36, 0, 218]",218,a,0.4566634898073971,colour,0.5
030,21,0,2,5,30,230,725.0368258329108,726.2966983844526,"[8, 0, 246]",246,a,0.736589131411165,colour,0.5
030,21,0,2,5,31,231,728.3180287191644,729.192736288067,"[60, 0, 194]",194,a,0.35136073967441916,colour,0.5
030,21,0,2,5,32,232,731.2086354792118,732.2887450475246,"[71, 0, 183]",183,a,0.5568844377994537,colour,0.5
030,21,0,2,5,33,233,734.3025115593337,735.2727859914303,"[99, 0, 155]",155,l,0.44701031083241105,colour,0.5
030,21,0,2,5,34,234,737.2868159869686,738.3127464493737,"[39, 0, 215]",215,a,0.5019353618845344,colour,0.5
030,21,0,2,5,35,235,740.3336600945331,741.1447531762533,"[40, 0, 214]",214,a,0.28782344656065106,colour,0.5
030,21,0,2,5,36,236,743.1617929469794,744.1767673864961,"[46, 0, 208]",208,a,0.4916343060322106,colour,0.5
030,21,0,2,5,37,237,746.193043094594,747.1127023384906,"[66, 0, 188]",188,a,0.39566099271178246,colour,0.5
030,21,0,2,5,38,238,749.1304415808991,750.0887222043239,"[69, 0, 185]",185,a,0.4349660901352763,colour,0.5
030,21,0,2,5,39,239,752.0992599623278,753.2727796901017,"[88, 0, 166]",166,l,0.6502902647480369,colour,0.5
030,21,0,2,5,40,240,755.2867529713549,756.2327538537793,"[9, 0, 245]",245,a,0.42311800457537174,colour,0.5
030,21,0,2,5,41,241,758.2398233991116,759.2247595568188,"[85, 0, 169]",169,l,0.4616988180205226,colour,0.5
030,21,0,2,5,42,242,761.2398950792849,762.4807365718298,"[70, 0, 184]",184,a,0.7178948116488755,colour,0.5
030,21,0,2,5,43,243,764.4899903899059,765.5047493954189,"[17, 0, 237]",237,a,0.49156617000699043,colour,0.5
030,21,0,2,5,44,244,767.5211444390006,768.4727513329126,"[33, 0, 221]",221,a,0.42836876632645726,colour,0.5
030,21,0,2,5,45,245,770.4898663284257,771.4247603444383,"[47, 0, 207]",207,a,0.41170748230069876,colour,0.5
030,21,0,2,5,46,246,773.4429978020489,775.2408162862994,"[68, 0, 186]",186,a,1.274774129036814,colour,0.5
030,21,0,2,5,47,247,777.255522122141,777.976978094317,"[55, 0, 199]",199,a,0.19868297735229135,colour,0.5
030,21,0,2,5,48,248,779.9898084327579,781.6088020764291,"[21, 0, 233]",233,a,1.0956042790785432,colour,0.5
030,21,0,2,5,49,249,783.614841319155,784.3768040142022,"[38, 0, 216]",216,a,0.23853591503575444,colour,0.5
030,21,0,2,5,50,250,786.3960989499465,787.3288701330312,"[78, 0, 176]",176,l,0.4097169819287956,colour,0.5
030,21,0,2,6,1,251,794.8797224168666,795.9288228712976,"[62, 0, 192]",192,a,0.5252069663256407,colour,0.5
030,21,0,2,6,2,252,797.9430899624713,798.8407784770243,"[68, 0, 186]",186,a,0.37449843622744083,colour,0.5
030,21,0,2,6,3,253,800.8492063991725,801.6727584223263,"[30, 0, 224]",224,a,0.30015950789675117,colour,0.5
030,21,0,2,6,4,254,803.6929017035291,804.7607594938017,"[19, 0, 235]",235,a,0.5444357362575829,colour,0.5
030,21,0,2,6,5,255,806.7711645253003,807.8007955700159,"[70, 0, 184]",184,a,0.5064803510904312,colour,0.5
030,21,0,2,6,6,256,809.8181015807204,810.8488109773025,"[60, 0, 194]",194,a,0.5074756015092134,colour,0.5
030,21,0,2,6,7,257,812.8648287160322,813.7447740500793,"[48, 0, 206]",206,a,0.3569888067431748,colour,0.5
030,21,0,2,6,8,258,815.7554098758847,816.7928166328929,"[71, 0, 183]",183,a,0.5140429921448231,colour,0.5
030,21,0,2,6,9,259,818.8022500453517,819.7850491912104,"[79, 0, 175]",175,a,0.45943144289776683,colour,0.5
030,21,0,2,6,10,260,821.802346537821,822.8568056682125,"[54, 0, 200]",200,a,0.5311879198998213,colour,0.5
030,21,0,2,6,11,261,824.864841319155,825.8248288733885,"[72, 0, 182]",182,l,0.43666317453607917,colour,0.5
030,21,0,2,6,12,262,827.8334316634573,828.7690850156359,"[34, 0, 220]",220,a,0.41252471366897225,colour,0.5
030,21,0,2,6,13,263,830.7866706578061,831.8167881025001,"[16, 0, 238]",238,a,0.5067780986428261,colour,0.5
030,21,0,2,6,14,264,833.8334710481577,834.6568029113114,"[93, 0, 161]",161,l,0.2999487998895347,colour,0.5
030,21,0,2,6,15,265,836.6773451589979,837.736883728765,"[49, 0, 205]",205,a,0.5365166640840471,colour,0.5
030,21,0,2,6,16,266,839.7554126330651,840.6408466123976,"[61, 0, 193]",193,a,0.362120627425611,colour,0.5
030,21,0,2,6,17,267,842.6616732175462,843.5127968615852,"[21, 0, 233]",233,a,0.3285928647965193,colour,0.5
030,21,0,2,6,18,268,845.5210660635494,846.4408229817636,"[27, 0, 227]",227,a,0.3964699534699321,colour,0.5
030,21,0,2,6,19,269,848.4585468638688,849.2888895887882,"[29, 0, 225]",225,a,0.30712074507027864,colour,0.5
030,21,0,2,6,20,270,851.3022398049943,852.2008570102043,"[55, 0, 199]",199,a,0.37543815467506647,colour,0.5
030,21,0,2,6,21,271,854.2083629374392,855.192880042363,"[17, 0, 237]",237,a,0.4613664112985134,colour,0.5
030,21,0,2,6,22,272,857.2083593928255,858.1528463289142,"[84, 0, 170]",170,l,0.42124526388943195,colour,0.5
030,21,0,2,6,23,273,860.1615767250769,861.0488353958353,"[77, 0, 177]",177,l,0.3639272013679147,colour,0.5
030,21,0,2,6,24,274,863.0679137161933,863.9128559385426,"[95, 0, 159]",159,l,0.32153198402374983,colour,0.5
030,21,0,2,6,25,275,865.9272112511098,867.008899750188,"[44, 0, 210]",210,a,0.5589887597598135,colour,0.5
030,21,0,2,6,26,276,869.0209384574555,870.0088895102963,"[78, 0, 176]",176,l,0.4645195468328893,colour,0.5
030,21,0,2,6,27,277,872.0210121069103,873.2648417130113,"[33, 0, 221]",221,a,0.7205292508006096,colour,0.5
030,21,0,2,6,28,278,875.2709668143652,876.3688636738807,"[64, 0, 190]",190,a,0.5745488489046693,colour,0.5
030,21,0,2,6,29,279,878.3803494204767,879.3690188494511,"[35, 0, 219]",219,a,0.46573535073548555,colour,0.5
030,21,0,2,6,30,280,881.3803183068521,882.3368593100458,"[82, 0, 172]",172,l,0.43336667912080884,colour,0.5
030,21,0,2,6,31,281,884.3491099067032,885.4168522995897,"[67, 0, 187]",187,a,0.5444495207630098,colour,0.5
030,21,0,2,6,32,282,887.4270497742109,888.3688613106497,"[12, 0, 242]",242,a,0.4183229226619005,colour,0.5
030,21,0,2,6,33,283,890.3803053097799,891.2328960322775,"[83, 0, 171]",171,l,0.3295959923416376,colour,0.5
030,21,0,2,6,34,284,893.2397131221369,894.5929048545659,"[50, 0, 204]",204,a,0.8299102820456028,colour,0.5
030,21,0,2,6,35,285,896.5990252299234,897.5608701645397,"[0, 0, 254]",254,a,0.43857333017513156,colour,0.5
030,21,0,2,6,36,286,899.567764448002,900.5128555446863,"[6, 0, 248]",248,a,0.4218076765537262,colour,0.5
030,21,0,2,6,37,287,902.520963663701,903.3608418074436,"[25, 0, 229]",229,a,0.31600040942430496,colour,0.5
030,21,0,2,6,38,288,905.380273014307,906.5049085095525,"[10, 0, 244]",244,a,0.6014143032953143,colour,0.5
030,21,0,2,6,39,289,908.5218978677876,909.4248966150917,"[88, 0, 166]",166,l,0.3807712299749255,colour,0.5
030,21,0,2,6,40,290,911.4428193899803,912.4569084621035,"[15, 0, 239]",239,a,0.4911270313896239,colour,0.5
030,21,0,2,6,41,291,914.4740750514902,915.512934314087,"[20, 0, 234]",234,a,0.5156471291556954,colour,0.5
030,21,0,2,6,42,292,917.520922309719,918.4569482407533,"[43, 0, 211]",211,a,0.41271454794332385,colour,0.5
030,21,0,2,6,43,293,920.4739076667465,921.56900860928,"[14, 0, 240]",240,a,0.5724350744858384,colour,0.5
030,21,0,2,6,44,294,923.5834840452299,924.6088816332631,"[13, 0, 241]",241,a,0.5023410236462951,colour,0.5
030,21,0,2,6,45,295,926.6301079927944,927.8088808455504,"[87, 0, 167]",167,l,0.6555875008925796,colour,0.5
030,21,0,2,6,46,296,929.8178507005796,930.8089430732653,"[69, 0, 185]",185,a,0.4677963498979807,colour,0.5
030,21,0,2,6,47,297,932.8177731130272,933.8088977811858,"[38, 0, 216]",216,a,0.4676778023131192,colour,0.5
030,21,0,2,6,48,298,935.8175324727781,936.640928926412,"[86, 0, 168]",168,l,0.3000764064490795,colour,0.5
030,21,0,2,6,49,299,938.6613384480588,939.6249131569639,"[23, 0, 231]",231,a,0.44097146205604076,colour,0.5
030,21,0,2,6,50,300,941.6300985403359,942.6009617731906,"[98, 0, 156]",156,l,0.44802958564832807,colour,0.5
030,21,0,2,7,1,301,950.0199156380259,951.0889474842697,"[78, 0, 176]",176,l,0.5453585181385279,colour,0.5
030,21,0,2,7,2,302,953.0987735618837,953.9931683377363,"[19, 0, 235]",235,a,0.37151426123455167,colour,0.5
030,21,0,2,7,3,303,956.0051534818485,956.7529857507907,"[51, 0, 203]",203,a,0.22511008055880666,colour,0.5
030,21,0,2,7,4,304,958.7706261370331,959.6171323247254,"[87, 0, 167]",167,l,0.32272849045693874,colour,0.5
030,21,0,2,7,5,305,961.63008199865,962.5609446014278,"[85, 0, 169]",169,l,0.4078769306652248,colour,0.5
030,21,0,2,7,6,306,964.5675580725074,965.4729935489595,"[95, 0, 159]",159,l,0.38295195903629065,colour,0.5
030,21,0,2,7,7,307,967.4894705126062,968.32908281032,"[37, 0, 217]",217,a,0.31713074957951903,colour,0.5
030,21,0,2,7,8,308,970.3487597773783,971.2489685160108,"[59, 0, 195]",195,a,0.3777027721516788,colour,0.5
030,21,0,2,7,9,309,973.255065260455,974.2089682794176,"[94, 0, 160]",160,l,0.43160264007747173,colour,0.5
030,21,0,2,7,10,310,976.223741857335,977.0889474842697,"[74, 0, 180]",180,l,0.341767031699419,colour,0.5
030,21,0,2,7,11,311,979.0990575249307,980.0249942890368,"[5, 0, 249]",249,a,0.40256669791415334,colour,0.5
030,21,0,2,7,12,312,982.036461525131,982.8570002284832,"[13, 0, 241]",241,a,0.2978570810519159,colour,0.5
030,21,0,2,7,13,313,984.8646207652055,985.7130201729015,"[86, 0, 168]",168,l,0.3254980188794434,colour,0.5
030,21,0,2,7,14,314,987.7239691065624,988.6410388094373,"[26, 0, 228]",228,a,0.39438847452402115,colour,0.5
030,21,0,2,7,15,315,990.6614089463837,991.5609713830054,"[64, 0, 190]",190,a,0.37682528188452125,colour,0.5
030,21,0,2,7,16,316,993.5677081281319,994.4089745809324,"[96, 0, 158]",158,l,0.31829023314639926,colour,0.5
030,21,0,2,7,17,317,996.4271257864311,997.4729911857285,"[66, 0, 188]",188,a,0.5225941883400083,colour,0.5
030,21,0,2,7,18,318,999.4896690114401,1000.4170504044741,"[42, 0, 212]",212,a,0.4042870197445154,colour,0.5
030,21,0,2,7,19,319,1002.4271604451351,1003.2649791655131,"[58, 0, 196]",196,a,0.3147727898322046,colour,0.5
030,21,0,2,7,20,320,1005.2864264729433,1006.1933053964749,"[14, 0, 240]",240,a,0.3833233560435474,colour,0.5
030,21,0,2,7,21,321,1008.2082951958291,1009.2089907289483,"[28, 0, 226]",226,a,0.4773813933134079,colour,0.5
030,21,0,2,7,22,322,1011.2238923064433,1012.2249958645552,"[69, 0, 185]",185,l,0.47767599020153284,colour,0.5
030,21,0,2,7,23,323,1014.2395563712344,1015.1209601191804,"[43, 0, 211]",211,a,0.35803446965292096,colour,0.5
030,21,0,2,7,24,324,1017.1301198080182,1017.9849944468588,"[32, 0, 222]",222,a,0.33159121917560697,colour,0.5
030,21,0,2,7,25,325,1020.0054047559388,1020.841014391277,"[6, 0, 248]",248,a,0.31297015445306897,colour,0.5
030,21,0,2,7,26,326,1022.8493194333278,1023.8012512503192,"[8, 0, 246]",246,a,0.4288405943661928,colour,0.5
030,21,0,2,7,27,327,1025.817676620558,1026.6490271990187,"[7, 0, 247]",247,a,0.30819082679226995,colour,0.5
030,21,0,2,7,28,328,1028.661419580225,1029.4809980858117,"[12, 0, 242]",242,a,0.2962970547378063,colour,0.5
030,21,0,2,7,29,329,1031.4894228572957,1032.312981969677,"[23, 0, 231]",231,a,0.3004324436187744,colour,0.5
030,21,0,2,7,30,330,1034.3332705805078,1035.2409801264293,"[73, 0, 181]",181,l,0.3848782619461417,colour,0.5
030,21,0,2,7,31,331,1037.2550849528052,1038.4973112097941,"[53, 0, 201]",201,l,0.7190932868979871,colour,0.5
030,21,0,2,7,32,332,1040.5060010398738,1041.3690479942597,"[34, 0, 220]",220,a,0.3399171349592507,colour,0.5
030,21,0,2,7,33,333,1043.3809437351301,1044.2010157303885,"[11, 0, 243]",243,a,0.2966432459652424,colour,0.5
030,21,0,2,7,34,334,1046.2090954920277,1046.9689916740172,"[83, 0, 171]",171,l,0.23681126069277525,colour,0.5
030,21,0,2,7,35,335,1048.9905232642777,1049.9130568006076,"[3, 0, 251]",251,a,0.3993745716288686,colour,0.5
030,21,0,2,7,36,336,1051.9278803966008,1052.761021795217,"[72, 0, 182]",182,l,0.31063228100538254,colour,0.5
030,21,0,2,7,37,337,1054.7716489564627,1055.7292222320102,"[29, 0, 225]",225,a,0.43486644700169563,colour,0.5
030,21,0,2,7,38,338,1057.7402522978373,1058.673023480922,"[47, 0, 207]",207,a,0.40923570143058896,colour,0.5
030,21,0,2,7,39,339,1060.6934243380092,1061.585074791219,"[93, 0, 161]",161,l,0.3683189838193357,colour,0.5
030,21,0,2,7,40,340,1063.6005592620932,1064.4411211237311,"[81, 0, 173]",173,l,0.3179156854748726,colour,0.5
030,21,0,2,7,41,341,1066.46000370197,1067.6170712783933,"[60, 0, 194]",194,a,0.6337715531699359,colour,0.5
030,21,0,2,7,42,342,1069.6318590342999,1070.5611194693483,"[4, 0, 250]",250,a,0.4059848920442164,colour,0.5
030,21,0,2,7,43,343,1072.5694044250995,1073.5130760991015,"[9, 0, 245]",245,a,0.4205158604308963,colour,0.5
030,21,0,2,7,44,344,1075.5224906066433,1076.529401825741,"[79, 0, 175]",175,l,0.483489952981472,colour,0.5
030,21,0,2,7,45,345,1078.5380629049614,1079.3850657329895,"[89, 0, 165]",165,l,0.3237725771032274,colour,0.5
030,21,0,2,7,46,346,1081.397545548156,1082.281052830629,"[40, 0, 214]",214,a,0.36043614568188787,colour,0.5
030,21,0,2,7,47,347,1084.287921514362,1085.1370771070942,"[10, 0, 244]",244,a,0.325624443590641,colour,0.5
030,21,0,2,7,48,348,1087.1473679235205,1087.6730790133588,"[15, 0, 239]",239,a,0.0028872890397906303,colour,0.5
030,21,0,2,7,49,349,1089.6946381730959,1090.593138799537,"[71, 0, 183]",183,a,0.3756992747075856,colour,0.5
030,21,0,2,7,50,350,1092.6004923079163,1095.857114837505,"[55, 0, 199]",199,a,2.7338948268443346,colour,0.5
030,21,0,2,8,1,351,1103.271522925701,1104.105061321985,"[69, 0, 185]",185,a,0.3095330558717251,colour,0.5
030,21,0,2,8,2,352,1106.1161874867976,1106.665063448716,"[11, 0, 243]",243,a,0.025592542253434658,colour,0.5
030,21,0,2,8,3,353,1108.678729923442,1109.7131367512047,"[50, 0, 204]",204,a,0.5120454025454819,colour,0.5
030,21,0,2,8,4,354,1111.7255637911148,1113.4330929555,"[75, 0, 179]",179,a,1.1844174615107477,colour,0.5
030,21,0,2,8,5,355,1115.4442230588757,1116.3931427379139,"[53, 0, 201]",201,a,0.42555237002670765,colour,0.5
030,21,0,2,8,6,356,1118.4130170219578,1119.3371385470964,"[77, 0, 177]",177,l,0.400607705116272,colour,0.5
030,21,0,2,8,7,357,1121.3505104249343,1122.2411388466135,"[35, 0, 219]",219,a,0.3680035131983459,colour,0.5
030,21,0,2,8,8,358,1124.2568289050832,1125.401100013405,"[65, 0, 189]",189,a,0.6209293990395963,colour,0.5
030,21,0,2,8,9,359,1127.4130512867123,1127.9377631880343,"[24, 0, 230]",230,a,0.0015442725270986557,colour,0.5
030,21,0,2,8,10,360,1129.959890274331,1130.993117137812,"[13, 0, 241]",241,a,0.5098544345237315,colour,0.5
030,21,0,2,8,11,361,1133.0067796744406,1133.969177175779,"[29, 0, 225]",225,a,0.439106204546988,colour,0.5
030,21,0,2,8,12,362,1135.9754523327574,1137.01710790582,"[63, 0, 191]",191,a,0.518190196249634,colour,0.5
030,21,0,2,8,13,363,1139.038071569521,1140.0891046291217,"[2, 0, 252]",252,a,0.5286826621741056,colour,0.5
030,21,0,2,8,14,364,1142.1005931328982,1142.9771880144253,"[90, 0, 164]",164,l,0.35363796073943377,colour,0.5
030,21,0,2,8,15,365,1144.9911447544582,1145.9771175156347,"[10, 0, 244]",244,a,0.46272912016138434,colour,0.5
030,21,0,2,8,16,366,1147.991169960238,1148.85710065905,"[98, 0, 156]",156,l,0.3427977282553911,colour,0.5
030,21,0,2,8,17,367,1150.8660933570936,1151.7851389884017,"[3, 0, 251]",251,a,0.39538726955652237,colour,0.5
030,21,0,2,8,18,368,1153.8035745513625,1155.0092124645598,"[72, 0, 182]",182,l,0.6825281800702214,colour,0.5
030,21,0,2,8,19,369,1157.0223318864591,1158.081220609136,"[78, 0, 176]",176,l,0.5357014015316963,colour,0.5
030,21,0,2,8,20,370,1160.1004647389054,1160.9691543327644,"[26, 0, 228]",228,a,0.3453140137717128,colour,0.5
030,21,0,2,8,21,371,1162.9754755697213,1164.2811552304775,"[94, 0, 160]",160,l,0.7824643766507506,colour,0.5
030,21,0,2,8,22,372,1166.2879849234596,1167.2012236812152,"[49, 0, 205]",205,a,0.38997069792822003,colour,0.5
030,21,0,2,8,23,373,1169.209767000284,1170.1611816971563,"[1, 0, 253]",253,a,0.42807180620729923,colour,0.5
030,21,0,2,8,24,374,1172.1785129141062,1173.1451367828995,"[9, 0, 245]",245,a,0.44328294740989804,colour,0.5
030,21,0,2,8,25,375,1175.1629063510336,1176.1291336161084,"[41, 0, 213]",213,a,0.44289303896948695,colour,0.5
030,21,0,2,8,26,376,1178.1473100278527,1179.049184737727,"[34, 0, 220]",220,a,0.3787322868593037,colour,0.5
030,21,0,2,8,27,377,1181.0691610281356,1181.9371515442617,"[99, 0, 155]",155,l,0.3446590472012758,colour,0.5
030,21,0,2,8,28,378,1183.9441541358829,1184.9932026024908,"[76, 0, 178]",178,a,0.5260001732967794,colour,0.5
030,21,0,2,8,29,379,1187.0067268987186,1188.0411849268712,"[60, 0, 194]",194,a,0.5112411682493985,colour,0.5
030,21,0,2,8,30,380,1190.0535060218535,1191.0411412096582,"[68, 0, 186]",186,a,0.4641434233635664,colour,0.5
030,21,0,2,8,31,381,1193.0535079911351,1194.0411597206257,"[66, 0, 188]",188,a,0.46454750979319215,colour,0.5
030,21,0,2,8,32,382,1196.0534835727885,1197.0011992626823,"[28, 0, 226]",226,a,0.42427630722522736,colour,0.5
030,21,0,2,8,33,383,1199.022232637275,1200.1771848634817,"[18, 0, 236]",236,a,0.6315790093503892,colour,0.5
030,21,0,2,8,34,384,1202.1956452387385,1203.2252290216275,"[61, 0, 193]",193,a,0.506164092104882,colour,0.5
030,21,0,2,8,35,385,1205.243881593924,1206.0492300298065,"[48, 0, 206]",206,a,0.2819913667626679,colour,0.5
030,21,0,2,8,36,386,1208.056412609294,1209.2251860923134,"[73, 0, 181]",181,l,0.6455412632785738,colour,0.5
030,21,0,2,8,37,387,1211.2439670586027,1212.105190503411,"[52, 0, 202]",202,a,0.33796483743935823,colour,0.5
030,21,0,2,8,38,388,1214.118932990823,1215.1132230036892,"[58, 0, 196]",196,a,0.47102234698832035,colour,0.5
030,21,0,2,8,39,389,1217.1345706679858,1217.9131710161455,"[25, 0, 229]",229,a,0.25521846674382687,colour,0.5
030,21,0,2,8,40,390,1219.931493544951,1221.0011787824333,"[21, 0, 233]",233,a,0.5469776215031743,colour,0.5
030,21,0,2,8,41,391,1223.0095232091844,1223.8572400808334,"[42, 0, 212]",212,a,0.32425543293356895,colour,0.5
030,21,0,2,8,42,392,1225.8690192434005,1226.8171890382655,"[45, 0, 209]",209,a,0.4249040982685983,colour,0.5
030,21,0,2,8,43,393,1228.8376879631542,1229.705205469858,"[86, 0, 168]",168,l,0.34425653610378504,colour,0.5
030,21,0,2,8,44,394,1231.7128240372986,1232.5291950562969,"[92, 0, 162]",162,l,0.2933565964922309,colour,0.5
030,21,0,2,8,45,395,1234.540849369485,1235.5372492182069,"[31, 0, 223]",223,a,0.4732676660642028,colour,0.5
030,21,0,2,8,46,396,1237.5564094586298,1238.6011941428296,"[43, 0, 211]",211,a,0.5217525386251509,colour,0.5
030,21,0,2,8,47,397,1240.6188116860576,1241.6652087778784,"[7, 0, 247]",247,a,0.5229774010367692,colour,0.5
030,21,0,2,8,48,398,1243.6814104430377,1244.537283089012,"[37, 0, 217]",217,a,0.33326861122623086,colour,0.5
030,21,0,2,8,49,399,1246.5564452987164,1247.4412109204568,"[83, 0, 171]",171,l,0.36157436203211546,colour,0.5
030,21,0,2,8,50,400,1249.4626448368654,1250.3932250519283,"[62, 0, 192]",192,a,0.4073578412644565,colour,0.5
030,21,0,2,9,1,401,1257.7273833621293,1258.545263601467,"[30, 0, 224]",224,a,0.29370633233338594,colour,0.5
030,21,0,2,9,2,402,1260.5563964615576,1261.5772904143669,"[65, 0, 189]",189,a,0.49813237972557545,colour,0.5
030,21,0,2,9,3,403,1263.5875942278653,1264.5132466345094,"[89, 0, 165]",165,l,0.4022654052823782,colour,0.5
030,21,0,2,9,4,404,1266.5249938950874,1267.1933124857023,"[34, 0, 220]",220,a,0.1455408693291247,colour,0.5
030,21,0,2,9,5,405,1269.2125755199231,1270.2572554410435,"[76, 0, 178]",178,l,0.5215682182461023,colour,0.5
030,21,0,2,9,6,406,1272.2750407629646,1273.82522626454,"[55, 0, 199]",199,a,1.026772506069392,colour,0.5
030,21,0,2,9,7,407,1275.8376418831758,1276.8653769502416,"[47, 0, 207]",207,a,0.5045300228521228,colour,0.5
030,21,0,2,9,8,408,1278.8844296708703,1279.729275401216,"[60, 0, 194]",194,a,0.32146384892985225,colour,0.5
030,21,0,2,9,9,409,1281.7438697787002,1282.513274203986,"[63, 0, 191]",191,a,0.24610722111538053,colour,0.5
030,21,0,2,9,10,410,1284.5250671505928,1285.4972379542887,"[61, 0, 193]",193,a,0.4489397653378546,colour,0.5
030,21,0,2,9,11,411,1287.5094550740905,1288.321262986865,"[27, 0, 227]",227,a,0.28844178561121225,colour,0.5
030,21,0,2,9,12,412,1290.3375174277462,1291.1612797649577,"[94, 0, 160]",160,l,0.30047261575236917,colour,0.5
030,21,0,2,9,13,413,1293.181220609229,1293.9372693044133,"[40, 0, 214]",214,a,0.23321504797786474,colour,0.5
030,21,0,2,9,14,414,1295.9469409938902,1296.761256528087,"[20, 0, 234]",234,a,0.29104235442355275,colour,0.5
030,21,0,2,9,15,415,1298.7751352861524,1299.8332449803129,"[2, 0, 252]",252,a,0.5347073324956,colour,0.5
030,21,0,2,9,16,416,1301.8532764092088,1303.145277780015,"[69, 0, 185]",185,l,0.7690873788669705,colour,0.5
030,21,0,2,9,17,417,1305.1655305507593,1306.1055099130608,"[1, 0, 253]",253,a,0.41680031176656485,colour,0.5
030,21,0,2,9,18,418,1308.1188975446858,1309.02528928034,"[59, 0, 195]",195,a,0.38307050662115216,colour,0.5
030,21,0,2,9,19,419,1311.0405886429362,1311.8573133363388,"[8, 0, 246]",246,a,0.29335383977741003,colour,0.5
030,21,0,2,9,20,420,1313.868662418332,1314.7933357227594,"[52, 0, 202]",202,a,0.4015848385170102,colour,0.5
030,21,0,2,9,21,421,1316.8062054459006,1317.8892661063,"[87, 0, 167]",167,l,0.5599355665035546,colour,0.5
030,21,0,2,9,22,422,1319.9000441106036,1320.7293151794001,"[83, 0, 171]",171,l,0.3062846092507243,colour,0.5
030,21,0,2,9,23,423,1322.7436901843175,1324.1532992525026,"[54, 0, 200]",200,a,0.8862807494588196,colour,0.5
030,21,0,2,9,24,424,1326.1656420091167,1327.1773026236333,"[67, 0, 187]",187,l,0.48793687438592315,colour,0.5
030,21,0,2,9,25,425,1329.1968157505617,1330.4414046928287,"[73, 0, 181]",181,l,0.7215926363132894,colour,0.5
030,21,0,2,9,26,426,1332.4624731200747,1333.4173654816113,"[72, 0, 182]",182,l,0.43144392035901546,colour,0.5
030,21,0,2,9,27,427,1335.431219033897,1336.3693918222561,"[18, 0, 236]",236,a,0.415057934820652,colour,0.5
030,21,0,2,9,28,428,1338.3842268399894,1339.3053452852182,"[99, 0, 155]",155,l,0.39773735171183944,colour,0.5
030,21,0,2,9,29,429,1341.3218163414858,1342.2653600149788,"[44, 0, 210]",210,a,0.4202645858749747,colour,0.5
030,21,0,2,9,30,430,1344.2749466337264,1345.2013414413668,"[93, 0, 161]",161,l,0.4029715722426772,colour,0.5
030,21,0,2,9,31,431,1347.2124112858437,1348.1853335485794,"[48, 0, 206]",206,a,0.44989681243896484,colour,0.5
030,21,0,2,9,32,432,1350.1967743965797,1351.1213835040107,"[46, 0, 208]",208,a,0.40181602630764246,colour,0.5
030,21,0,2,9,33,433,1353.1342807966284,1354.1933471439406,"[15, 0, 239]",239,a,0.5357837150804698,colour,0.5
030,21,0,2,9,34,434,1356.2123344857246,1357.0493343994021,"[4, 0, 250]",250,a,0.3138480382040143,colour,0.5
030,21,0,2,9,35,435,1359.0561321903951,1359.9133454901166,"[32, 0, 222]",222,a,0.3338062120601535,colour,0.5
030,21,0,2,9,36,436,1361.9311331752688,1362.9053279557265,"[88, 0, 166]",166,l,0.4508164436556399,colour,0.5
030,21,0,2,9,37,437,1364.9155766307376,1365.9213488455862,"[7, 0, 247]",247,a,0.4823836381547153,colour,0.5
030,21,0,2,9,38,438,1367.9310851260088,1368.825409797486,"[98, 0, 156]",156,l,0.371452821418643,colour,0.5
030,21,0,2,9,39,439,1370.8373374398798,1371.7613545958884,"[90, 0, 164]",164,l,0.40084834583103657,colour,0.5
030,21,0,2,9,40,440,1373.7747875195928,1374.657316093333,"[70, 0, 184]",184,l,0.3591451165266335,colour,0.5
030,21,0,2,9,41,441,1376.6654616273008,1377.6653458364308,"[23, 0, 231]",231,a,0.47743653133511543,colour,0.5
030,21,0,2,9,42,442,1379.6812450275756,1380.6174076232128,"[5, 0, 249]",249,a,0.41328995767980814,colour,0.5
030,21,0,2,9,43,443,1382.6341787907295,1383.5933751072735,"[36, 0, 218]",218,a,0.43647137144580483,colour,0.5
030,21,0,2,9,44,444,1385.6031145383604,1386.5855560717173,"[38, 0, 216]",216,a,0.4595681079663336,colour,0.5
030,21,0,2,9,45,445,1388.6029538488947,1389.5453833309002,"[66, 0, 188]",188,l,0.41901530511677265,colour,0.5
030,21,0,2,9,46,446,1391.5560581474565,1392.5374827692285,"[25, 0, 229]",229,a,0.4586847103200853,colour,0.5
030,21,0,2,9,47,447,1394.5559695321135,1395.5373524059542,"[50, 0, 204]",204,a,0.45854371320456266,colour,0.5
030,21,0,2,9,48,448,1397.5561542459764,1398.6254109786823,"[3, 0, 251]",251,a,0.5465573873370886,colour,0.5
030,21,0,2,9,49,449,1400.6341433441266,1401.5934270950966,"[6, 0, 248]",248,a,0.4359302264638245,colour,0.5
030,21,0,2,9,50,450,1403.6029566060752,1404.6173796602525,"[26, 0, 228]",228,a,0.4916362748481333,colour,0.5
030,21,0,2,10,1,451,1412.5552082266659,1413.4574822965078,"[91, 0, 163]",163,l,0.37869881000369787,colour,0.5
030,21,0,2,10,2,452,1415.4778985134326,1416.4254011325538,"[63, 0, 191]",191,l,0.4248276920989156,colour,0.5
030,21,0,2,10,3,453,1418.4311398705468,1419.281455735676,"[99, 0, 155]",155,l,0.3274790672585368,colour,0.5
030,21,0,2,10,4,454,1421.2904744273983,1422.1694887084886,"[11, 0, 243]",243,a,0.35659377882257104,colour,0.5
030,21,0,2,10,5,455,1424.1810914273374,1424.9454916385002,"[92, 0, 162]",162,l,0.24122549267485738,colour,0.5
030,21,0,2,10,6,456,1426.9623474827968,1427.9614349403419,"[65, 0, 189]",189,a,0.4761317181400955,colour,0.5
030,21,0,2,10,7,457,1429.9780119415373,1430.8334639589302,"[13, 0, 241]",241,a,0.33214654214680195,colour,0.5
030,21,0,2,10,8,458,1432.8530015042052,1433.7934192181565,"[79, 0, 175]",175,l,0.41737454012036324,colour,0.5
030,21,0,2,10,9,459,1435.8062444366515,1436.3614085526206,"[9, 0, 245]",245,a,0.03198388358578086,colour,0.5
030,21,0,2,10,10,460,1438.3685387503356,1439.505444928538,"[59, 0, 195]",195,a,0.613506967201829,colour,0.5
030,21,0,2,10,11,461,1441.52476664586,1442.3294372721575,"[8, 0, 246]",246,a,0.28122336650267243,colour,0.5
030,21,0,2,10,12,462,1444.3372448859736,1445.081462037284,"[78, 0, 176]",176,l,0.2212716517969966,colour,0.5
030,21,0,2,10,13,463,1447.1028632642701,1447.9614562080242,"[45, 0, 209]",209,a,0.33511102525517344,colour,0.5
030,21,0,2,10,14,464,1449.9779008766636,1450.849431679584,"[40, 0, 214]",214,a,0.34867234341800213,colour,0.5
030,21,0,2,10,15,465,1452.868537568953,1453.6414751913399,"[90, 0, 164]",164,l,0.25012051686644554,colour,0.5
030,21,0,2,10,16,466,1455.6497510890476,1456.9854414626025,"[67, 0, 187]",187,a,0.8127460558898747,colour,0.5
030,21,0,2,10,17,467,1458.9934822334908,1459.777454254683,"[20, 0, 234]",234,a,0.2606677273288369,colour,0.5
030,21,0,2,10,18,468,1461.7903507598676,1462.777559411712,"[41, 0, 213]",213,a,0.46395516442134976,colour,0.5
030,21,0,2,10,19,469,1464.790316495113,1465.7934712059796,"[98, 0, 156]",156,l,0.48070348892360926,colour,0.5
030,21,0,2,10,20,470,1467.8059919811785,1468.897433695849,"[25, 0, 229]",229,a,0.5685434765182436,colour,0.5
030,21,0,2,10,21,471,1470.9154990427196,1471.8974860776216,"[27, 0, 227]",227,a,0.4588020765222609,colour,0.5
030,21,0,2,10,22,472,1473.9153438671492,1475.1454861247912,"[84, 0, 170]",170,l,0.7074062842875719,colour,0.5
030,21,0,2,10,23,473,1477.1653210241348,1478.8175179003738,"[75, 0, 179]",179,a,1.1291379486210644,colour,0.5
030,21,0,2,10,24,474,1480.8371235812083,1481.8816258772276,"[28, 0, 226]",226,a,0.5208652019500732,colour,0.5
030,21,0,2,10,25,475,1483.8999058706686,1484.92147645168,"[48, 0, 206]",206,a,0.4985581277869642,colour,0.5
030,21,0,2,10,26,476,1486.9310284121893,1487.857457878068,"[10, 0, 244]",244,a,0.4037096407264471,colour,0.5
030,21,0,2,10,27,477,1489.868415870238,1490.9374819812365,"[76, 0, 178]",178,a,0.5458953310735524,colour,0.5
030,21,0,2,10,28,478,1492.9465538426302,1493.9054847070947,"[54, 0, 200]",200,a,0.43560530291870236,colour,0.5
030,21,0,2,10,29,479,1495.9153269319795,1496.9374800124206,"[89, 0, 165]",165,l,0.4989535501226783,colour,0.5
030,21,0,2,10,30,480,1498.9465518733487,1499.9134821547195,"[44, 0, 210]",210,a,0.4436996369622648,colour,0.5
030,21,0,2,10,31,481,1501.9308858397417,1503.0014619585127,"[53, 0, 201]",201,a,0.5475806007161736,colour,0.5
030,21,0,2,10,32,482,1505.009098249022,1506.0975022250786,"[61, 0, 193]",193,a,0.5651540332473814,colour,0.5
030,21,0,2,10,33,483,1508.118432411924,1509.041511031799,"[23, 0, 231]",231,a,0.3999661295674741,colour,0.5
030,21,0,2,10,34,484,1511.0559289655648,1512.121521350462,"[26, 0, 228]",228,a,0.542290847748518,colour,0.5
030,21,0,2,10,35,485,1514.1341464952566,1515.1695690532215,"[60, 0, 194]",194,a,0.5122171198017895,colour,0.5
030,21,0,2,10,36,486,1517.1808917471208,1517.9775172700174,"[16, 0, 238]",238,a,0.27369853388518095,colour,0.5
030,21,0,2,10,37,487,1519.9933888916858,1520.8575118351728,"[38, 0, 216]",216,a,0.34097303729504347,colour,0.5
030,21,0,2,10,38,488,1522.8683327687904,1523.6816644743085,"[2, 0, 252]",252,a,0.28996872855350375,colour,0.5
030,21,0,2,10,39,489,1525.6965014613234,1526.5695434529334,"[51, 0, 203]",203,a,0.35034816013649106,colour,0.5
030,21,0,2,10,40,490,1528.587192504201,1529.2895228941925,"[4, 0, 250]",250,a,0.17944593681022525,colour,0.5
030,21,0,2,10,41,491,1531.305819476489,1532.2174883619882,"[15, 0, 239]",239,a,0.3886410719715059,colour,0.5
030,21,0,2,10,42,492,1534.2277669687755,1535.801529305987,"[73, 0, 181]",181,l,1.050580136012286,colour,0.5
030,21,0,2,10,43,493,1537.8214532150887,1539.1215315903537,"[0, 0, 254]",254,a,0.7772289742715657,colour,0.5
030,21,0,2,10,44,494,1541.1339519349858,1542.4816227266565,"[85, 0, 169]",169,l,0.824708356987685,colour,0.5
030,21,0,2,10,45,495,1544.4933640793897,1546.0256185359322,"[74, 0, 180]",180,l,1.0088225565850735,colour,0.5
030,21,0,2,10,46,496,1548.0404066857882,1549.2495462885126,"[14, 0, 240]",240,a,0.6872909655794501,colour,0.5
030,21,0,2,10,47,497,1551.2588603654876,1552.1615381282754,"[56, 0, 198]",198,a,0.3797917338088155,colour,0.5
030,21,0,2,10,48,498,1554.180840941146,1555.0815734956414,"[3, 0, 251]",251,a,0.3774778856895864,colour,0.5
030,21,0,2,10,49,499,1557.102734476328,1557.929564484395,"[19, 0, 235]",235,a,0.3040999425575137,colour,0.5
030,21,0,2,10,50,500,1559.9464518362656,1560.7855572532862,"[71, 0, 183]",183,a,0.3158483845181763,colour,0.5
030,21,0,2,11,1,501,1568.2581364754587,1569.0975691792555,"[65, 0, 189]",189,a,0.31562625570222735,colour,0.5
030,21,0,2,11,2,502,1571.1182922027074,1572.1295325830579,"[52, 0, 202]",202,a,0.4879293912090361,colour,0.5
030,21,0,2,11,3,503,1574.1495411689393,1574.8575197118334,"[47, 0, 207]",207,a,0.18530164705589414,colour,0.5
030,21,0,2,11,4,504,1576.868359550368,1577.6815967326984,"[74, 0, 180]",180,a,0.2897465992718935,colour,0.5
030,21,0,2,11,5,505,1579.6965660518035,1580.6495982762426,"[15, 0, 239]",239,a,0.4297405336983502,colour,0.5
030,21,0,2,11,6,506,1582.6651961747557,1583.4975896589458,"[30, 0, 224]",224,a,0.30907225515693426,colour,0.5
030,21,0,2,11,7,507,1585.5090190856718,1586.5056587872095,"[71, 0, 183]",183,a,0.4734807373024523,colour,0.5
030,21,0,2,11,8,508,1588.5246469164267,1589.609618913848,"[95, 0, 159]",159,l,0.5617086635902524,colour,0.5
030,21,0,2,11,9,509,1591.6184261105955,1592.5456046727486,"[19, 0, 235]",235,a,0.40439178282395005,colour,0.5
030,21,0,2,11,10,510,1594.5560904429294,1595.641584286932,"[80, 0, 174]",174,l,0.562586547806859,colour,0.5
030,21,0,2,11,11,511,1597.6497069778852,1598.5855611916631,"[98, 0, 156]",156,l,0.4131458094343543,colour,0.5
030,21,0,2,11,12,512,1600.6028085197322,1601.6015931093134,"[94, 0, 160]",160,l,0.4760084440931678,colour,0.5
030,21,0,2,11,13,513,1603.6184135074727,1604.9135798285715,"[90, 0, 164]",164,l,0.7724205018021166,colour,0.5
030,21,0,2,11,14,514,1606.9309126213193,1608.473607161548,"[46, 0, 208]",208,a,1.019656093325466,colour,0.5
030,21,0,2,11,15,515,1610.4934247317724,1611.6016183155589,"[1, 0, 253]",253,a,0.5850381636992097,colour,0.5
030,21,0,2,11,16,516,1613.6183831812814,1614.449673501309,"[45, 0, 209]",209,a,0.3086571409367025,colour,0.5
030,21,0,2,11,17,517,1616.4621210210025,1617.0016474598087,"[11, 0, 243]",243,a,0.01689207786694169,colour,0.5
030,21,0,2,11,18,518,1619.008974187076,1619.7696383702569,"[70, 0, 184]",184,a,0.23776830825954676,colour,0.5
030,21,0,2,11,19,519,1621.7902066116221,1624.3136062165722,"[18, 0, 236]",236,a,2.000682929996401,colour,0.5
030,21,0,2,11,20,520,1626.3214425812475,1627.0258331825025,"[16, 0, 238]",238,a,0.18011035583913326,colour,0.5
030,21,0,2,11,21,521,1629.0402515102178,1629.9936708859168,"[13, 0, 241]",241,a,0.4309917842037976,colour,0.5
030,21,0,2,11,22,522,1632.008915503975,1633.0656644585542,"[9, 0, 245]",245,a,0.5340590612031519,colour,0.5
030,21,0,2,11,23,523,1635.0714666056447,1636.753706883639,"[62, 0, 192]",192,l,1.1592924152500927,colour,0.5
030,21,0,2,11,24,524,1638.774635888636,1640.0496392366476,"[88, 0, 166]",166,l,0.7526068706065416,colour,0.5
030,21,0,2,11,25,525,1642.0558391688392,1642.961657463573,"[68, 0, 186]",186,a,0.3830193062312901,colour,0.5
030,21,0,2,11,26,526,1644.9776889872737,1645.9616515561938,"[8, 0, 246]",246,a,0.4606169215403497,colour,0.5
030,21,0,2,11,27,527,1647.97768544266,1648.857647318393,"[57, 0, 197]",197,a,0.356609926559031,colour,0.5
030,21,0,2,11,28,528,1650.86827369174,1651.7936559198424,"[44, 0, 210]",210,a,0.4024473624303937,colour,0.5
030,21,0,2,11,29,529,1653.805828534998,1654.609687443357,"[56, 0, 198]",198,a,0.2811729540117085,colour,0.5
030,21,0,2,11,30,530,1656.6182859009132,1657.561664158944,"[58, 0, 196]",196,a,0.42095499904826283,colour,0.5
030,21,0,2,11,31,531,1659.5714161931537,1660.9136266964488,"[91, 0, 163]",163,l,0.8195273051969707,colour,0.5
030,21,0,2,11,32,532,1662.9308027378283,1663.7296274998225,"[3, 0, 251]",251,a,0.27602537954226136,colour,0.5
030,21,0,2,11,33,533,1665.7432904304005,1667.033656944055,"[84, 0, 170]",170,l,0.7669795122928917,colour,0.5
030,21,0,2,11,34,534,1669.0401404458098,1669.8816550220363,"[0, 0, 254]",254,a,0.31899679405614734,colour,0.5
030,21,0,2,11,35,535,1671.8995199007913,1673.1218222491443,"[96, 0, 158]",158,l,0.699110300745815,colour,0.5
030,21,0,2,11,36,536,1675.1339456331916,1676.225718179252,"[27, 0, 227]",227,a,0.569125188048929,colour,0.5
030,21,0,2,11,37,537,1678.2432423811406,1679.4096594802104,"[82, 0, 172]",172,l,0.6436571013182402,colour,0.5
030,21,0,2,11,38,538,1681.4151252824813,1682.6737005030736,"[4, 0, 250]",250,a,0.7357833213172853,colour,0.5
030,21,0,2,11,39,539,1684.6807507500052,1685.6416614810005,"[53, 0, 201]",201,a,0.4381546713411808,colour,0.5
030,21,0,2,11,40,540,1687.6494820918888,1689.049651445821,"[99, 0, 155]",155,l,0.8775314488448203,colour,0.5
030,21,0,2,11,41,541,1691.055801359471,1692.1537379976362,"[32, 0, 222]",222,a,0.5752979451790452,colour,0.5
030,21,0,2,11,42,542,1694.1651796335354,1695.265697935596,"[50, 0, 204]",204,a,0.5777783906087279,colour,0.5
030,21,0,2,11,43,543,1697.2744878022932,1698.2657215660438,"[33, 0, 221]",221,a,0.46845249785110354,colour,0.5
030,21,0,2,11,44,544,1700.2745157657191,1701.0816810159013,"[22, 0, 232]",232,a,0.2837621010839939,colour,0.5
030,21,0,2,11,45,545,1703.1026411349885,1704.0016994476318,"[48, 0, 206]",206,a,0.3764530965127051,colour,0.5
030,21,0,2,11,46,546,1706.0088083776645,1706.8257099082693,"[29, 0, 225]",225,a,0.294338455889374,colour,0.5
030,21,0,2,11,47,547,1708.8370310273021,1710.081816105172,"[87, 0, 167]",167,l,0.7212834670208395,colour,0.5
030,21,0,2,11,48,548,1712.10262341192,1713.4257504744455,"[72, 0, 182]",182,l,0.7997239134274423,colour,0.5
030,21,0,2,11,49,549,1715.4463955163956,1716.2817649049684,"[5, 0, 249]",249,a,0.31268028309568763,colour,0.5
030,21,0,2,11,50,550,1718.2901077563874,1719.2497538458556,"[14, 0, 240]",240,a,0.4364843680523336,colour,0.5
030,21,0,2,12,1,551,1726.6799374572001,1727.6337109007873,"[73, 0, 181]",181,a,0.4306243252940476,colour,0.5
030,21,0,2,12,2,552,1729.649473820813,1730.5937921907753,"[87, 0, 167]",167,l,0.421562310308218,colour,0.5
030,21,0,2,12,3,553,1732.6025741808116,1733.6897891345434,"[97, 0, 157]",157,l,0.5641898969188333,colour,0.5
030,21,0,2,12,4,554,1735.6963104456663,1736.8177530267276,"[41, 0, 213]",213,a,0.5978310871869326,colour,0.5
030,21,0,2,12,5,555,1738.8370440239087,1740.0657518925145,"[71, 0, 183]",183,a,0.7061077724210918,colour,0.5
030,21,0,2,12,6,556,1742.071310642641,1743.16173623316,"[68, 0, 186]",186,a,0.5679341964423656,colour,0.5
030,21,0,2,12,7,557,1745.1807180610485,1746.297847234644,"[27, 0, 227]",227,a,0.5941375941038132,colour,0.5
030,21,0,2,12,8,558,1748.3057135315612,1749.2417611242272,"[26, 0, 228]",228,a,0.41341441310942173,colour,0.5
030,21,0,2,12,9,559,1751.2588576087728,1752.193751230836,"[56, 0, 198]",198,a,0.4125306215137243,colour,0.5
030,21,0,2,12,10,560,1754.2120154700242,1755.121771442704,"[30, 0, 224]",224,a,0.38680062675848603,colour,0.5
030,21,0,2,12,11,561,1757.1340117994696,1758.2737394939177,"[92, 0, 162]",162,l,0.6170334690250456,colour,0.5
030,21,0,2,12,12,562,1760.2901672273874,1761.4337502853014,"[96, 0, 158]",158,l,0.6207785555161536,colour,0.5
030,21,0,2,12,13,563,1763.4465231224895,1764.56979118241,"[35, 0, 219]",219,a,0.6008188067935407,colour,0.5
030,21,0,2,12,14,564,1766.587035359349,1767.5538053452037,"[63, 0, 191]",191,a,0.4441596497781575,colour,0.5
030,21,0,2,12,15,565,1769.571330728475,1770.4977538930252,"[32, 0, 222]",222,a,0.4036462311632931,colour,0.5
030,21,0,2,12,16,566,1772.5089214118198,1773.4257772560231,"[36, 0, 218]",218,a,0.39419312635436654,colour,0.5
030,21,0,2,12,17,567,1775.4464467163198,1776.4657975784503,"[86, 0, 168]",168,l,0.49649161472916603,colour,0.5
030,21,0,2,12,18,568,1778.477641725447,1779.3778122612275,"[14, 0, 240]",240,a,0.37780044600367546,colour,0.5
030,21,0,2,12,19,569,1781.383862531744,1782.3777630301192,"[0, 0, 254]",254,a,0.4709305805154145,colour,0.5
030,21,0,2,12,20,570,1784.3838255102746,1785.5137625737116,"[42, 0, 212]",212,a,0.6072621364146471,colour,0.5
030,21,0,2,12,21,571,1787.5244535380043,1788.4498460059986,"[72, 0, 182]",182,a,0.40225674072280526,colour,0.5
030,21,0,2,12,22,572,1790.4619701779447,1791.361766165588,"[48, 0, 206]",206,a,0.37648263573646545,colour,0.5
030,21,0,2,12,23,573,1793.3682555747218,1796.2097890558653,"[58, 0, 196]",196,a,2.3185426890850067,colour,0.5
030,21,0,2,12,24,574,1798.2277303412557,1800.4977861884981,"[20, 0, 234]",234,a,1.7474722927436233,colour,0.5
030,21,0,2,12,25,575,1802.508860759437,1803.4018384753726,"[53, 0, 201]",201,a,0.36940560676157475,colour,0.5
030,21,0,2,12,26,576,1805.4150933809578,1808.1937831323594,"[21, 0, 233]",233,a,2.2560353046283126,colour,0.5
030,21,0,2,12,27,577,1810.2120454027317,1811.273903727997,"[1, 0, 253]",253,a,0.5388923459686339,colour,0.5
030,21,0,2,12,28,578,1813.2901695901528,1814.3218320952728,"[78, 0, 176]",176,l,0.508899356238544,colour,0.5
030,21,0,2,12,29,579,1816.3371468181722,1817.417914897669,"[37, 0, 217]",217,a,0.5582499033771455,colour,0.5
030,21,0,2,12,30,580,1819.4308011624962,1819.961798066739,"[43, 0, 211]",211,a,0.008554346859455109,colour,0.5
030,21,0,2,12,31,581,1821.9775861934759,1823.081800351385,"[89, 0, 165]",165,l,0.5815994897857308,colour,0.5
030,21,0,2,12,32,582,1825.102702180855,1826.3539022314362,"[76, 0, 178]",178,l,0.7286354005336761,colour,0.5
030,21,0,2,12,33,583,1828.3682268238626,1829.3138700937852,"[55, 0, 199]",199,a,0.42237087758257985,colour,0.5
030,21,0,2,12,34,584,1831.3213874427602,1832.3778221071698,"[9, 0, 245]",245,a,0.5339495716616511,colour,0.5
030,21,0,2,12,35,585,1834.3839137316681,1835.4338369318284,"[23, 0, 231]",231,a,0.5274148699827492,colour,0.5
030,21,0,2,12,36,586,1837.4463864578865,1838.4178317957558,"[52, 0, 202]",202,a,0.4490161710418761,colour,0.5
030,21,0,2,12,37,587,1840.4307078211568,1841.545861854218,"[80, 0, 174]",174,l,0.5926201036199927,colour,0.5
030,21,0,2,12,38,588,1843.5557182580233,1844.8818850284442,"[18, 0, 236]",236,a,0.8033807789906859,colour,0.5
030,21,0,2,12,39,589,1846.8995754332282,1847.8738206266426,"[10, 0, 244]",244,a,0.4512752750888467,colour,0.5
030,21,0,2,12,40,590,1849.8838251163252,1850.9698392315768,"[66, 0, 188]",188,l,0.5626464122906327,colour,0.5
030,21,0,2,12,41,591,1852.977610217873,1853.9618181530386,"[95, 0, 159]",159,l,0.46130851563066244,colour,0.5
030,21,0,2,12,42,592,1855.9775342056528,1856.9539754870348,"[75, 0, 179]",179,a,0.45368719147518277,colour,0.5
030,21,0,2,12,43,593,1858.961926067248,1860.0258390898816,"[38, 0, 216]",216,a,0.5411246679723263,colour,0.5
030,21,0,2,12,44,594,1862.0402715965174,1863.714000063017,"[22, 0, 232]",232,a,1.1514280876144767,colour,0.5
030,21,0,2,12,45,595,1865.7275834362954,1866.7618780178018,"[29, 0, 225]",225,a,0.5115987807512283,colour,0.5
030,21,0,2,12,46,596,1868.7743680733256,1869.9698652257212,"[83, 0, 171]",171,l,0.6728517641313374,colour,0.5
030,21,0,2,12,47,597,1871.9775519287214,1873.1058872179128,"[85, 0, 169]",169,l,0.6054398082196712,colour,0.5
030,21,0,2,12,48,598,1875.1181275746785,1876.2578477859497,"[88, 0, 166]",166,l,0.6171429581008852,colour,0.5
030,21,0,2,12,49,599,1878.2744685038924,1879.4498676676303,"[46, 0, 208]",208,a,0.6523725315928459,colour,0.5
030,21,0,2,12,50,600,1881.461898891721,1882.3858676045202,"[15, 0, 239]",239,a,0.40124297980219126,colour,0.5
030,21,0,2,13,1,601,1889.8829830721952,1891.1698553794995,"[92, 0, 162]",162,l,0.7635152377188206,colour,0.5
030,21,0,2,13,2,602,1893.1806739503518,1894.3059896179475,"[25, 0, 229]",229,a,0.6022780081257224,colour,0.5
030,21,0,2,13,3,603,1896.3213252145797,1897.265924003441,"[7, 0, 247]",247,a,0.4221125142648816,colour,0.5
030,21,0,2,13,4,604,1899.2743763439357,1900.2339267288335,"[11, 0, 243]",243,a,0.4360944600775838,colour,0.5
030,21,0,2,13,5,605,1902.2432226887904,1903.234108292032,"[52, 0, 202]",202,a,0.4678538516163826,colour,0.5
030,21,0,2,13,6,606,1905.2431183191948,1906.209942262154,"[47, 0, 207]",207,a,0.4439229480922222,colour,0.5
030,21,0,2,13,7,607,1908.2275365684181,1909.2419194504619,"[22, 0, 232]",232,a,0.49069773871451616,colour,0.5
030,21,0,2,13,8,608,1911.2588138915598,1912.129959512502,"[6, 0, 248]",248,a,0.3478960716165602,colour,0.5
030,21,0,2,13,9,609,1914.1493592117913,1915.129876804538,"[15, 0, 239]",239,a,0.45783085050061345,colour,0.5
030,21,0,2,13,10,610,1917.1497113103978,1918.1938788369298,"[37, 0, 217]",217,a,0.5214563654735684,colour,0.5
030,21,0,2,13,11,611,1920.211791371461,1921.2021342543885,"[56, 0, 198]",198,a,0.4669259488582611,colour,0.5
030,21,0,2,13,12,612,1923.2117783743888,1924.385929044336,"[79, 0, 175]",175,l,0.6503875446505845,colour,0.5
030,21,0,2,13,13,613,1926.3993690577336,1927.6819110219367,"[81, 0, 173]",173,l,0.7596063106320798,colour,0.5
030,21,0,2,13,14,614,1929.6961887469515,1930.7618918023072,"[85, 0, 169]",169,l,0.5427087186835706,colour,0.5
030,21,0,2,13,15,615,1932.774431482423,1933.641981284134,"[36, 0, 218]",218,a,0.3443081295117736,colour,0.5
030,21,0,2,13,16,616,1935.649360393174,1936.5139543768018,"[14, 0, 240]",240,a,0.34131922852247953,colour,0.5
030,21,0,2,13,17,617,1938.5243401098996,1939.5299181584269,"[64, 0, 190]",190,a,0.4825565363280475,colour,0.5
030,21,0,2,13,18,618,1941.5398883838207,1942.4419871922582,"[67, 0, 187]",187,a,0.3790926565416157,colour,0.5
030,21,0,2,13,19,619,1944.461939457804,1948.0659255785868,"[24, 0, 230]",230,a,3.0810288060456514,colour,0.5
030,21,0,2,13,20,620,1950.0868215006776,1951.1619469407015,"[44, 0, 210]",210,a,0.5518116937018931,colour,0.5
030,21,0,2,13,21,621,1953.180493568536,1954.3540038438514,"[10, 0, 244]",244,a,0.6501358770765364,colour,0.5
030,21,0,2,13,22,622,1956.3680169037543,1957.0499562830664,"[21, 0, 233]",233,a,0.15941214468330145,colour,0.5
030,21,0,2,13,23,623,1959.0555607192218,1960.0339279104955,"[60, 0, 194]",194,a,0.45592620922252536,colour,0.5
030,21,0,2,13,24,624,1962.0398308821023,1963.033996439539,"[27, 0, 227]",227,a,0.47121769469231367,colour,0.5
030,21,0,2,13,25,625,1965.0398966544308,1965.6659173080698,"[28, 0, 226]",226,a,0.10312556615099311,colour,0.5
030,21,0,2,13,26,626,1967.6804805714637,1968.6341283782385,"[0, 0, 254]",254,a,0.4303009775467217,colour,0.5
030,21,0,2,13,27,627,1970.6493060421199,1971.8899324946105,"[87, 0, 167]",167,l,0.7181594762951136,colour,0.5
030,21,0,2,13,28,628,1973.8991855252534,1974.73802470183,"[40, 0, 214]",214,a,0.31609453866258264,colour,0.5
030,21,0,2,13,29,629,1976.758611060679,1977.57794971345,"[58, 0, 196]",196,a,0.2964723161421716,colour,0.5
030,21,0,2,13,30,630,1979.5867120116018,1980.7461162791587,"[55, 0, 199]",199,a,0.6366450577042997,colour,0.5
030,21,0,2,13,31,631,1982.7585535589606,1983.7699912567623,"[3, 0, 251]",251,a,0.4890053803101182,colour,0.5
030,21,0,2,13,32,632,1985.7898950790986,1986.7939859633334,"[46, 0, 208]",208,a,0.4812072184868157,colour,0.5
030,21,0,2,13,33,633,1988.8056619376875,1990.162064700853,"[90, 0, 164]",164,l,0.8335088575258851,colour,0.5
030,21,0,2,13,34,634,1992.180543193128,1993.6500165415928,"[80, 0, 174]",174,l,0.9465707782655954,colour,0.5
030,21,0,2,13,35,635,1995.6650134301744,1996.8580624326132,"[68, 0, 186]",186,a,0.6707706791348755,colour,0.5
030,21,0,2,13,36,636,1998.86795743322,1999.7620733655058,"[31, 0, 223]",223,a,0.3716371413320303,colour,0.5
030,21,0,2,13,37,637,2001.7741802083328,2002.6099745575339,"[53, 0, 201]",201,a,0.3127212435938418,colour,0.5
030,21,0,2,13,38,638,2004.617964128498,2005.5540042375214,"[99, 0, 155]",155,l,0.41319622192531824,colour,0.5
030,21,0,2,13,39,639,2007.5712243900634,2008.4260029303841,"[18, 0, 236]",236,a,0.33210794581100345,colour,0.5
030,21,0,2,13,40,640,2010.4461859902367,2011.3059880426154,"[72, 0, 182]",182,a,0.3371314578689635,colour,0.5
030,21,0,2,13,41,641,2013.3212755899876,2014.274018731434,"[69, 0, 185]",185,a,0.4305042023770511,colour,0.5
030,21,0,2,13,42,642,2016.289770623669,2017.266029947903,"[5, 0, 249]",249,a,0.45366513589397073,colour,0.5
030,21,0,2,13,43,643,2019.2742396793328,2020.1302678943612,"[75, 0, 179]",179,a,0.3330724756233394,colour,0.5
030,21,0,2,13,44,644,2022.1491886759177,2023.2980276164599,"[86, 0, 168]",168,l,0.6260269549675286,colour,0.5
030,21,0,2,13,45,645,2025.3054067250341,2026.4020684817806,"[94, 0, 160]",160,l,0.5733913336880505,colour,0.5
030,21,0,2,13,46,646,2028.414954353124,2029.4739919495769,"[45, 0, 209]",209,a,0.5363614880479872,colour,0.5
030,21,0,2,13,47,647,2031.492876497563,2032.5140071520582,"[93, 0, 161]",161,l,0.4984517889097333,colour,0.5
030,21,0,2,13,48,648,2034.5242444053292,2035.610057265032,"[61, 0, 193]",193,a,0.5620560362003744,colour,0.5
030,21,0,2,13,49,649,2037.6182484854944,2038.5300713647157,"[74, 0, 180]",180,a,0.3889935645274818,colour,0.5
030,21,0,2,13,50,650,2040.5397745622322,2041.4020523340441,"[12, 0, 242]",242,a,0.339381109457463,colour,0.5
030,21,0,2,14,1,651,2048.804657235276,2049.7141162478365,"[4, 0, 250]",250,a,0.38496490847319365,colour,0.5
030,21,0,2,14,2,652,2051.727381786797,2052.6901109069586,"[61, 0, 193]",193,a,0.43943742942065,colour,0.5
030,21,0,2,14,3,653,2054.695998913143,2055.610050569754,"[72, 0, 182]",182,a,0.3909206558018923,colour,0.5
030,21,0,2,14,4,654,2057.617942466866,2058.442035635002,"[46, 0, 208]",208,a,0.30121777346357703,colour,0.5
030,21,0,2,14,5,655,2060.461635014508,2061.4340354301967,"[1, 0, 253]",253,a,0.44938244856894016,colour,0.5
030,21,0,2,14,6,656,2063.4469705321826,2064.2580486480147,"[23, 0, 231]",231,a,0.28845872124657035,colour,0.5
030,21,0,2,14,7,657,2066.274214867037,2067.0660358555615,"[7, 0, 247]",247,a,0.26875182148069143,colour,0.5
030,21,0,2,14,8,658,2069.0866966512986,2069.9380652680993,"[51, 0, 203]",203,a,0.32782131945714355,colour,0.5
030,21,0,2,14,9,659,2071.9461434544064,2072.7940446464345,"[50, 0, 204]",204,a,0.3244874086230993,colour,0.5
030,21,0,2,14,10,660,2074.805429961998,2075.9460662608035,"[97, 0, 157]",157,l,0.6180208423174918,colour,0.5
030,21,0,2,14,11,661,2077.9617212670855,2078.8420450873673,"[27, 0, 227]",227,a,0.3575130165554583,colour,0.5
030,21,0,2,14,12,662,2080.8523485069163,2082.0260403454304,"[26, 0, 228]",228,a,0.6508448007516563,colour,0.5
030,21,0,2,14,13,663,2084.0398214301094,2085.098063062411,"[43, 0, 211]",211,a,0.535072822123766,colour,0.5
030,21,0,2,14,14,664,2087.117865666747,2088.2820858899504,"[83, 0, 171]",171,l,0.6410266002640128,colour,0.5
030,21,0,2,14,15,665,2090.289902168326,2091.39412223408,"[82, 0, 172]",172,l,0.5810481044463813,colour,0.5
030,21,0,2,14,16,666,2093.4149456885643,2094.522062101867,"[21, 0, 233]",233,a,0.5847707423381507,colour,0.5
030,21,0,2,14,17,667,2096.53975329455,2097.786077918485,"[60, 0, 194]",194,a,0.72319441055879,colour,0.5
030,21,0,2,14,18,668,2099.8053551311605,2100.698095357977,"[28, 0, 226]",226,a,0.3694713790901005,colour,0.5
030,21,0,2,14,19,669,2102.7116803065874,2104.130146589596,"[77, 0, 177]",177,a,0.8957177065312862,colour,0.5
030,21,0,2,14,20,670,2106.1491977344267,2107.3540609516203,"[31, 0, 223]",223,a,0.6816963758319616,colour,0.5
030,21,0,2,14,21,671,2109.36793774087,2110.2422077460214,"[48, 0, 206]",206,a,0.35175104159861803,colour,0.5
030,21,0,2,14,22,672,2112.258456279058,2113.1060790214688,"[16, 0, 238]",238,a,0.32498089876025915,colour,0.5
030,21,0,2,14,23,673,2115.1179306516424,2116.04221680481,"[14, 0, 240]",240,a,0.40144423535093665,colour,0.5
030,21,0,2,14,24,674,2118.055385063868,2119.202149614226,"[12, 0, 242]",242,a,0.6233354075811803,colour,0.5
030,21,0,2,14,25,675,2121.2117240238003,2122.2021102295257,"[68, 0, 186]",186,a,0.466999598313123,colour,0.5
030,21,0,2,14,26,676,2124.211556245107,2125.0741577590816,"[24, 0, 230]",230,a,0.3393724448978901,colour,0.5
030,21,0,2,14,27,677,2127.086630091537,2128.0261230533943,"[74, 0, 180]",180,a,0.41685229958966374,colour,0.5
030,21,0,2,14,28,678,2130.0397725929506,2131.4581400202587,"[94, 0, 160]",160,l,0.8954238970763981,colour,0.5
030,21,0,2,14,29,679,2133.4772120388225,2134.4260608255863,"[37, 0, 217]",217,a,0.4261234472505748,colour,0.5
030,21,0,2,14,30,680,2136.4460638975725,2137.298152465839,"[52, 0, 202]",202,a,0.3292222321033478,colour,0.5
030,21,0,2,14,31,681,2139.3053169283085,2140.106087292079,"[44, 0, 210]",210,a,0.2779564089141786,colour,0.5
030,21,0,2,14,32,682,2142.117831795942,2143.122104636859,"[59, 0, 195]",195,a,0.48158649262040854,colour,0.5
030,21,0,2,14,33,683,2145.1334651405923,2146.3381948438473,"[86, 0, 168]",168,l,0.681627846788615,colour,0.5
030,21,0,2,14,34,684,2148.3522260207683,2149.370162185747,"[42, 0, 212]",212,a,0.49515214283019304,colour,0.5
030,21,0,2,14,35,685,2151.383499405347,2152.306114861276,"[25, 0, 229]",229,a,0.39983694767579436,colour,0.5
030,21,0,2,14,36,686,2154.3210542481393,2155.306117224507,"[92, 0, 162]",162,l,0.4626156925223768,colour,0.5
030,21,0,2,14,37,687,2157.320951060392,2158.4102782132104,"[91, 0, 163]",163,l,0.5661477083340287,colour,0.5
030,21,0,2,14,38,688,2160.4302856172435,2161.4822383085266,"[20, 0, 234]",234,a,0.5288374437950552,colour,0.5
030,21,0,2,14,39,689,2163.492901309859,2164.4661496775225,"[41, 0, 213]",213,a,0.45015990175306797,colour,0.5
030,21,0,2,14,40,690,2166.477189195808,2167.3141264878213,"[57, 0, 197]",197,a,0.31392208160832524,colour,0.5
030,21,0,2,14,41,691,2169.320977448486,2170.0981469517574,"[81, 0, 173]",173,a,0.2537096403539181,colour,0.5
030,21,0,2,14,42,692,2172.117832583841,2172.914145786315,"[89, 0, 165]",165,l,0.27373004192486405,colour,0.5
030,21,0,2,14,43,693,2174.9302757713012,2175.8261273857206,"[71, 0, 183]",183,a,0.37303450889885426,colour,0.5
030,21,0,2,14,44,694,2177.8365745591,2178.674145943485,"[98, 0, 156]",156,l,0.3148291097022593,colour,0.5
030,21,0,2,14,45,695,2180.6803076728247,2181.3221349632367,"[88, 0, 166]",166,l,0.11918780952692032,colour,0.5
030,21,0,2,14,46,696,2183.336587949656,2184.6743251439184,"[66, 0, 188]",188,a,0.8148570731282234,colour,0.5
030,21,0,2,14,47,697,2186.680236386601,2187.5141914724372,"[38, 0, 216]",216,a,0.31138255912810564,colour,0.5
030,21,0,2,14,48,698,2189.524053389672,2190.8982272967696,"[34, 0, 220]",220,a,0.8507955702953041,colour,0.5
030,21,0,2,14,49,699,2192.9146136757918,2193.834210298024,"[49, 0, 205]",205,a,0.39706584298983216,colour,0.5
030,21,0,2,14,50,700,2195.852124408353,2196.6502103139646,"[93, 0, 161]",161,l,0.27478594426065683,colour,0.5
030,21,0,2,15,1,701,2204.3201673058793,2205.082163477782,"[10, 0, 244]",244,a,0.23862492432817817,colour,0.5
030,21,0,2,15,2,702,2207.1021263776347,2207.8582841679454,"[80, 0, 174]",174,l,0.2327499152161181,colour,0.5
030,21,0,2,15,3,703,2209.867824312765,2210.690195584204,"[60, 0, 194]",194,a,0.29905988834798336,colour,0.5
030,21,0,2,15,4,704,2212.695898088161,2213.4821678102016,"[61, 0, 193]",193,a,0.26367238303646445,colour,0.5
030,21,0,2,15,5,705,2215.492821753025,2216.1862303372473,"[28, 0, 226]",226,a,0.1703031831420958,colour,0.5
030,21,0,2,15,6,706,2218.195908722002,2219.050188258756,"[94, 0, 160]",160,l,0.3315128437243402,colour,0.5
030,21,0,2,15,7,707,2221.0554740731604,2222.0181787749752,"[79, 0, 175]",175,l,0.4402093691751361,colour,0.5
030,21,0,2,15,8,708,2224.024128614459,2224.9062211997807,"[48, 0, 206]",206,a,0.3594865812920034,colour,0.5
030,21,0,2,15,9,709,2226.915196568705,2227.7542110071518,"[32, 0, 222]",222,a,0.3164895670488477,colour,0.5
030,21,0,2,15,10,710,2229.774115617387,2230.6022145990282,"[15, 0, 239]",239,a,0.3043795735575259,colour,0.5
030,21,0,2,15,11,711,2232.617750663776,2233.578243522905,"[73, 0, 181]",181,l,0.43716296553611755,colour,0.5
030,21,0,2,15,12,712,2235.586593069602,2236.594195095822,"[40, 0, 214]",214,a,0.48523114854469895,colour,0.5
030,21,0,2,15,13,713,2238.6021657618694,2239.2822107393295,"[7, 0, 247]",247,a,0.15725898556411266,colour,0.5
030,21,0,2,15,14,714,2241.2897146972828,2242.04252439877,"[29, 0, 225]",225,a,0.22979370318353176,colour,0.5
030,21,0,2,15,15,715,2244.055213740561,2245.186195284594,"[20, 0, 234]",234,a,0.6083641187287867,colour,0.5
030,21,0,2,15,16,716,2247.195904783439,2248.322201523464,"[76, 0, 178]",178,l,0.6030554617755115,colour,0.5
030,21,0,2,15,17,717,2250.3365517160855,2251.282250911463,"[50, 0, 204]",204,a,0.423258607275784,colour,0.5
030,21,0,2,15,18,718,2253.289563854225,2254.0424913153984,"[82, 0, 172]",172,l,0.2298984662629664,colour,0.5
030,21,0,2,15,19,719,2256.055225555785,2257.082213890273,"[47, 0, 207]",207,a,0.5036883731372654,colour,0.5
030,21,0,2,15,20,720,2259.102064937353,2260.082321804017,"[65, 0, 189]",189,a,0.45702031441032887,colour,0.5
030,21,0,2,15,21,721,2262.102127165068,2263.146475860849,"[51, 0, 203]",203,a,0.5209935959428549,colour,0.5
030,21,0,2,15,22,722,2265.1645865002647,2266.050228824839,"[30, 0, 224]",224,a,0.3623132184147835,colour,0.5
030,21,0,2,15,23,723,2268.0708431466483,2268.9542917455547,"[54, 0, 200]",200,a,0.36046332074329257,colour,0.5
030,21,0,2,15,24,724,2270.961471961811,2271.922274778597,"[68, 0, 186]",186,a,0.43685340229421854,colour,0.5
030,21,0,2,15,25,725,2273.9302474143915,2274.8502248860896,"[86, 0, 168]",168,l,0.39738604007288814,colour,0.5
030,21,0,2,15,26,726,2276.867692768108,2277.8102407976985,"[5, 0, 249]",249,a,0.4193457420915365,colour,0.5
030,21,0,2,15,27,727,2279.820834876038,2280.8342331415042,"[14, 0, 240]",240,a,0.4898938979022205,colour,0.5
030,21,0,2,15,28,728,2282.851999558974,2283.6903275228105,"[11, 0, 243]",243,a,0.3148846426047385,colour,0.5
030,21,0,2,15,29,729,2285.711418398656,2286.682360794861,"[1, 0, 253]",253,a,0.4476530682295561,colour,0.5
030,21,0,2,15,30,730,2288.6958264079876,2289.6342319599353,"[56, 0, 198]",198,a,0.4152209875173867,colour,0.5
030,21,0,2,15,31,731,2291.6488885651343,2292.602274070028,"[57, 0, 197]",197,a,0.4303947133012116,colour,0.5
030,21,0,2,15,32,732,2294.6176518080756,2295.4902511164546,"[81, 0, 173]",173,l,0.3498637289740145,colour,0.5
030,21,0,2,15,33,733,2297.508280623704,2298.4102593082935,"[6, 0, 248]",248,a,0.37984844762831926,colour,0.5
030,21,0,2,15,34,734,2300.430185580626,2301.8022929746658,"[35, 0, 219]",219,a,0.8495935504324734,colour,0.5
030,21,0,2,15,35,735,2303.8206808818504,2304.746375036426,"[97, 0, 157]",157,l,0.40307082142680883,colour,0.5
030,21,0,2,15,36,736,2306.758275109809,2307.5462773623876,"[70, 0, 184]",184,a,0.2649764083325863,colour,0.5
030,21,0,2,15,37,737,2309.5553027498536,2310.4342563780956,"[90, 0, 164]",164,l,0.35639724927023053,colour,0.5
030,21,0,2,15,38,738,2312.445707072504,2313.306317692157,"[0, 0, 254]",254,a,0.3373031751252711,colour,0.5
030,21,0,2,15,39,739,2315.320724992547,2316.618303623982,"[12, 0, 242]",242,a,0.7737568230368197,colour,0.5
030,21,0,2,15,40,740,2318.63326034043,2319.6183178024366,"[74, 0, 180]",180,a,0.46192449145019054,colour,0.5
030,21,0,2,15,41,741,2321.633173300419,2322.5302801034413,"[17, 0, 237]",237,a,0.37451615929603577,colour,0.5
030,21,0,2,15,42,742,2324.5394086786546,2325.4743188424036,"[98, 0, 156]",156,l,0.4117236300371587,colour,0.5
030,21,0,2,15,43,743,2327.4925326695666,2328.3143064756878,"[62, 0, 192]",192,a,0.298864146694541,colour,0.5
030,21,0,2,15,44,744,2330.3208770174533,2331.538397280965,"[71, 0, 183]",183,a,0.6949922414496541,colour,0.5
030,21,0,2,15,45,745,2333.5551168541424,2334.5863449466415,"[38, 0, 216]",216,a,0.5084397378377616,colour,0.5
030,21,0,2,15,46,746,2336.601965688169,2337.970364229288,"[19, 0, 235]",235,a,0.8451824691146612,colour,0.5
030,21,0,2,15,47,747,2339.977034414187,2340.786329192575,"[43, 0, 211]",211,a,0.28649460803717375,colour,0.5
030,21,0,2,15,48,748,2342.805179081857,2343.602314242162,"[16, 0, 238]",238,a,0.27447362383827567,colour,0.5
030,21,0,2,15,49,749,2345.6175970635377,2346.5782974800095,"[9, 0, 245]",245,a,0.4379762588068843,colour,0.5
030,21,0,2,15,50,750,2348.5863299802877,2349.4343209690414,"[84, 0, 170]",170,l,0.32516285544261336,colour,0.5
030,21,0,2,16,1,751,2364.523013635073,2365.586352823302,"[36, 0, 218]",218,a,0.5395347094163299,colour,0.5
030,21,0,2,16,2,752,2367.601921970956,2368.4903527288698,"[51, 0, 203]",203,a,0.3654198795557022,colour,0.5
030,21,0,2,16,3,753,2370.508113238495,2371.562328184489,"[46, 0, 208]",208,a,0.531353335827589,colour,0.5
030,21,0,2,16,4,754,2373.570812820457,2374.0983769581653,"[22, 0, 232]",232,a,0.00483879866078496,colour,0.5
030,21,0,2,16,5,755,2376.1175383804366,2377.0664178868756,"[96, 0, 158]",158,l,0.42605885630473495,colour,0.5
030,21,0,2,16,6,756,2379.0863311616704,2380.274358620867,"[89, 0, 165]",165,l,0.6657361388206482,colour,0.5
030,21,0,2,16,7,757,2382.289406315889,2383.3624104983173,"[19, 0, 235]",235,a,0.5506801730953157,colour,0.5
030,21,0,2,16,8,758,2385.383219774347,2386.1704351217486,"[56, 0, 198]",198,a,0.2643974544480443,colour,0.5
030,21,0,2,16,9,759,2388.1801127186045,2389.0823576441035,"[37, 0, 217]",217,a,0.37961686588823795,colour,0.5
030,21,0,2,16,10,760,2391.1018873127177,2392.106353532523,"[16, 0, 238]",238,a,0.4821244874037802,colour,0.5
030,21,0,2,16,11,761,2394.1175832785666,2395.050357612781,"[18, 0, 236]",236,a,0.409929265268147,colour,0.5
030,21,0,2,16,12,762,2397.0706899403594,2398.0104684410617,"[66, 0, 188]",188,a,0.4163666870445013,colour,0.5
030,21,0,2,16,13,763,2400.023806842044,2400.834352476988,"[8, 0, 246]",246,a,0.28790260991081595,colour,0.5
030,21,0,2,16,14,764,2402.851835718844,2403.834420218598,"[30, 0, 224]",224,a,0.4594046617858112,colour,0.5
030,21,0,2,16,15,765,2405.8518365062773,2406.6743460176513,"[24, 0, 230]",230,a,0.29964002408087254,colour,0.5
030,21,0,2,16,16,766,2408.695637361612,2409.594398714602,"[97, 0, 157]",157,l,0.3752636802382767,colour,0.5
030,21,0,2,16,17,767,2411.601808543317,2412.954431167338,"[78, 0, 176]",176,l,0.829431364312768,colour,0.5
030,21,0,2,16,18,768,2414.9612376233563,2415.754423290491,"[15, 0, 239]",239,a,0.2697250163182616,colour,0.5
030,21,0,2,16,19,769,2417.776629540138,2418.6903515472077,"[20, 0, 234]",234,a,0.39071861235424876,colour,0.5
030,21,0,2,16,20,770,2420.698701487854,2421.898552219849,"[75, 0, 179]",179,l,0.6772463037632406,colour,0.5
030,21,0,2,16,21,771,2423.917358392384,2424.826453096699,"[48, 0, 206]",206,a,0.3857636288739741,colour,0.5
030,21,0,2,16,22,772,2426.8391794599593,2427.618406811729,"[64, 0, 190]",190,a,0.2556847808882594,colour,0.5
030,21,0,2,16,23,773,2429.636040503159,2430.7704114909284,"[73, 0, 181]",181,l,0.6112112356349826,colour,0.5
030,21,0,2,16,24,774,2432.7766756201163,2433.578468409367,"[93, 0, 161]",161,l,0.27868856955319643,colour,0.5
030,21,0,2,16,25,775,2435.5891302293167,2436.4984510014765,"[65, 0, 189]",189,a,0.3856832841411233,colour,0.5
030,21,0,2,16,26,776,2438.5111029278487,2439.306444904767,"[98, 0, 156]",156,l,0.27259537018835545,colour,0.5
030,21,0,2,16,27,777,2441.323632761836,2442.106407489162,"[11, 0, 243]",243,a,0.26008759113028646,colour,0.5
030,21,0,2,16,28,778,2444.1204737187363,2444.9384421794675,"[14, 0, 240]",240,a,0.2957421252503991,colour,0.5
030,21,0,2,16,29,779,2446.94853449706,2447.8345131664537,"[71, 0, 183]",183,a,0.36359518906101584,colour,0.5
030,21,0,2,16,30,780,2449.8547411244363,2450.7144671650603,"[10, 0, 244]",244,a,0.3362508174031973,colour,0.5
030,21,0,2,16,31,781,2452.729825604707,2453.5864516790025,"[6, 0, 248]",248,a,0.33335683308541775,colour,0.5
030,21,0,2,16,32,782,2455.604780115187,2456.378426661715,"[81, 0, 173]",173,l,0.25070498511195183,colour,0.5
030,21,0,2,16,33,783,2458.386045623105,2459.178461714182,"[77, 0, 177]",177,l,0.2690515387803316,colour,0.5
030,21,0,2,16,34,784,2461.1984710874967,2462.0264562475495,"[28, 0, 226]",226,a,0.30451742000877857,colour,0.5
030,21,0,2,16,35,785,2464.0423455922864,2464.978425873909,"[69, 0, 185]",185,a,0.41314187133684754,colour,0.5
030,21,0,2,16,36,786,2466.9953470970504,2467.9384839269333,"[50, 0, 204]",204,a,0.4203165736980736,colour,0.5
030,21,0,2,16,37,787,2469.9484710874967,2471.178501492832,"[54, 0, 200]",200,a,0.7066835761070251,colour,0.5
030,21,0,2,16,38,788,2473.198472662829,2474.0424613831565,"[21, 0, 233]",233,a,0.3206119588576257,colour,0.5
030,21,0,2,16,39,789,2476.0578111582436,2476.9144907956943,"[62, 0, 192]",192,a,0.3340626056306064,colour,0.5
030,21,0,2,16,40,790,2478.9329054844566,2479.65849842038,"[32, 0, 222]",222,a,0.20256275916472077,colour,0.5
030,21,0,2,16,41,791,2481.6676730755717,2483.210456231609,"[5, 0, 249]",249,a,1.020585177000612,colour,0.5
030,21,0,2,16,42,792,2485.2297881892882,2486.0504544987343,"[59, 0, 195]",195,a,0.29769796691834927,colour,0.5
030,21,0,2,16,43,793,2488.0578718106262,2488.8584436760284,"[4, 0, 250]",250,a,0.27756847022101283,colour,0.5
030,21,0,2,16,44,794,2490.870313816704,2491.6344627537765,"[88, 0, 166]",166,l,0.24071034137159586,colour,0.5
030,21,0,2,16,45,795,2493.6515883831307,2494.7704890784808,"[47, 0, 207]",207,a,0.5958295590244234,colour,0.5
030,21,0,2,16,46,796,2496.7766307215206,2497.866471843794,"[70, 0, 184]",184,l,0.5667802258394659,colour,0.5
030,21,0,2,16,47,797,2499.8859574017115,2500.914437232539,"[38, 0, 216]",216,a,0.5054646208882332,colour,0.5
030,21,0,2,16,48,798,2502.9328617677093,2504.0024902918376,"[26, 0, 228]",228,a,0.5466723907738924,colour,0.5
030,21,0,2,16,49,799,2506.0110509400256,2507.2664568778127,"[83, 0, 171]",171,l,0.7314762156456709,colour,0.5
030,21,0,2,16,50,800,2509.2765653431416,2510.1784877078608,"[91, 0, 163]",163,l,0.3790863547474146,colour,0.5
