id,age,condition,counterbalance,block,trialinblock,trial,tstart,tend,trialstim,trialintensity,response,RT,trialtype,colourfreq
20,26,0,1,Practice,1,NA,5.5138953030109406e-06,0.9085636214585975,"[53, 0, 201]",201,a,0.3847194204572588,colour,0.5
20,26,0,1,Practice,2,NA,2.915943894418888,3.9326015944825485,"[7, 0, 247]",247,a,0.49333652609493583,colour,0.5
20,26,0,1,Practice,3,NA,5.947447210899554,7.060604962636717,"[54, 0, 200]",200,a,0.5900098697748035,colour,0.5
20,26,0,1,Practice,4,NA,9.072663333732635,9.916542539722286,"[11, 0, 243]",243,a,0.32064704108051956,colour,0.5
20,26,0,1,Practice,5,NA,11.932683514431119,12.644632711424492,"[95, 0, 159]",159,l,0.18933852051850408,colour,0.5
20,26,0,1,Practice,6,NA,14.651922793709673,15.82052455516532,"[10, 0, 244]",244,a,0.645965485018678,colour,0.5
20,26,0,1,Practice,7,NA,17.83908610488288,19.036614644923247,"[22, 0, 232]",232,a,0.674973395653069,colour,0.5
20,26,0,1,Practice,8,NA,21.057975649368018,22.612527598743327,"[47, 0, 207]",207,a,1.0312311692396179,colour,0.5
20,26,0,1,Practice,9,NA,24.620631759869866,25.948555098613724,"[61, 0, 193]",193,a,0.8052181391976774,colour,0.5
20,26,0,1,Practice,10,NA,27.955390683026053,29.652520651347004,"[59, 0, 195]",195,a,1.1738513296004385,colour,0.5
20,26,0,1,1,1,1,5.9128014001762494,6.7838843101635575,"[34, 0, 220]",220,a,0.34779442520812154,colour,0.5
20,26,0,1,1,2,2,8.804441475658678,9.6799063119106,"[77, 0, 177]",177,l,0.35283722437452525,colour,0.5
20,26,0,1,1,3,3,11.682867637136951,12.631894956575707,"[46, 0, 208]",208,a,0.425617924076505,colour,0.5
20,26,0,1,1,4,4,14.639631265890785,15.51189019891899,"[21, 0, 233]",233,a,0.35356662643607706,colour,0.5
20,26,0,1,1,5,5,17.513255661702715,18.41586788208224,"[17, 0, 237]",237,a,0.37928395718336105,colour,0.5
20,26,0,1,1,6,6,20.43543570744805,21.344017051858827,"[52, 0, 202]",202,a,0.38298374286387116,colour,0.5
20,26,0,1,1,7,7,23.359814199386165,24.343906381283887,"[97, 0, 157]",157,l,0.46075249719433486,colour,0.5
20,26,0,1,1,8,8,26.360124549712054,27.279848180362023,"[54, 0, 200]",200,a,0.3964193920837715,colour,0.5
20,26,0,1,1,9,9,29.29782290023286,30.447869019466452,"[65, 0, 189]",189,a,0.626774963689968,colour,0.5
20,26,0,1,1,10,10,32.45428830909077,34.41581353137735,"[76, 0, 178]",178,l,1.4381504852790385,colour,0.5
20,26,0,1,1,11,11,36.410894399741665,37.31985698675271,"[62, 0, 192]",192,a,0.3854878132697195,colour,0.5
20,26,0,1,1,12,12,39.33312328229658,40.27982927579433,"[36, 0, 218]",218,a,0.4230165738845244,colour,0.5
20,26,0,1,1,13,13,42.28016916452907,43.19989397667814,"[89, 0, 165]",165,l,0.396407576627098,colour,0.5
20,26,0,1,1,14,14,45.20540190755855,46.11184388271067,"[0, 0, 254]",254,a,0.3941862874198705,colour,0.5
20,26,0,1,1,15,15,48.12085034418851,49.19182329240721,"[19, 0, 235]",235,a,0.5475269252201542,colour,0.5
20,26,0,1,1,16,16,51.1992035653675,52.04782467253972,"[3, 0, 251]",251,a,0.3252030471339822,colour,0.5
20,26,0,1,1,17,17,54.058725925162435,54.98382279148791,"[57, 0, 197]",197,a,0.40646442433353513,colour,0.5
20,26,0,1,1,18,18,56.99179383285809,57.88784261606634,"[95, 0, 159]",159,l,0.3726858616573736,colour,0.5
20,26,0,1,1,19,19,59.88566819450352,60.8158066784963,"[91, 0, 163]",163,l,0.40679998078849167,colour,0.5
20,26,0,1,1,20,20,62.82337324030232,63.68780370417517,"[43, 0, 211]",211,a,0.3418083657743409,colour,0.5
20,26,0,1,1,21,21,65.69969154009596,66.65577578521334,"[51, 0, 203]",203,a,0.43279024644289166,colour,0.5
20,26,0,1,1,22,22,68.66937409259845,69.4877994506387,"[20, 0, 234]",234,a,0.295008085668087,colour,0.5
20,26,0,1,1,23,23,71.4977424768731,72.34379492292646,"[31, 0, 223]",223,a,0.3226863736053929,colour,0.5
20,26,0,1,1,24,24,74.35742158722132,75.29607580101583,"[40, 0, 214]",214,a,0.41523891070391983,colour,0.5
20,26,0,1,1,25,25,77.31075245770626,78.10378619539551,"[7, 0, 247]",247,a,0.2696322191040963,colour,0.5
20,26,0,1,1,26,26,80.12347729434259,80.9518051125342,"[4, 0, 250]",250,a,0.30516260699369013,colour,0.5
20,26,0,1,1,27,27,82.96750025392976,83.80778443720192,"[56, 0, 198]",198,a,0.317049655248411,colour,0.5
20,26,0,1,1,28,28,85.82713013363536,86.66377794032451,"[42, 0, 212]",212,a,0.3133069403702393,colour,0.5
20,26,0,1,1,29,29,88.6731656442862,89.55975583137479,"[10, 0, 244]",244,a,0.3634052836569026,colour,0.5
20,26,0,1,1,30,30,91.57992033287883,92.42378378496505,"[82, 0, 172]",172,l,0.320539127336815,colour,0.5
20,26,0,1,1,31,31,94.43954312324058,95.2557794873137,"[45, 0, 209]",209,a,0.29330115870106965,colour,0.5
20,26,0,1,1,32,32,97.25550103851128,98.11189705191646,"[39, 0, 215]",215,a,0.33771670376881957,colour,0.5
20,26,0,1,1,33,33,100.12598845397588,101.80779388954397,"[69, 0, 185]",185,l,1.1583921016426757,colour,0.5
20,26,0,1,1,34,34,103.82942310278304,104.52781455859076,"[5, 0, 249]",249,a,0.1748922636033967,colour,0.5
20,26,0,1,1,35,35,106.54838629637379,107.37574367888737,"[83, 0, 171]",171,l,0.3038983625592664,colour,0.5
20,26,0,1,1,36,36,109.39231985295191,110.24774228001479,"[99, 0, 155]",155,l,0.3323261388577521,colour,0.5
20,26,0,1,1,37,37,112.26757910184097,114.24802309193183,"[73, 0, 181]",181,l,1.4570338069461286,colour,0.5
20,26,0,1,1,38,38,116.26793119986542,117.05575160309672,"[1, 0, 253]",253,a,0.26436414022464305,colour,0.5
20,26,0,1,1,39,39,119.0648943351116,119.83983756229281,"[87, 0, 167]",167,l,0.25157912401482463,colour,0.5
20,26,0,1,1,40,40,121.84652860532515,122.67972199223004,"[18, 0, 236]",236,a,0.3101423910120502,colour,0.5
20,26,0,1,1,41,41,124.6904389251722,126.76780989544932,"[67, 0, 187]",187,l,1.5543400605674833,colour,0.5
20,26,0,1,1,42,42,128.7844955585897,130.0157770612277,"[14, 0, 240]",240,a,0.708193879108876,colour,0.5
20,26,0,1,1,43,43,132.03480689355638,132.74376404541545,"[85, 0, 169]",169,l,0.18544220586773008,colour,0.5
20,26,0,1,1,44,44,134.75426318182144,135.591750273481,"[96, 0, 158]",158,l,0.31478228606283665,colour,0.5
20,26,0,1,1,45,45,137.6138304399792,138.38370763103012,"[9, 0, 245]",245,a,0.24610151920933276,colour,0.5
20,26,0,1,1,46,46,140.3961862353608,141.56771545123775,"[75, 0, 179]",179,l,0.6486656904453412,colour,0.5
20,26,0,1,1,47,47,143.58402774878778,146.2237740176497,"[68, 0, 186]",186,l,2.1163931933697313,colour,0.5
20,26,0,1,1,48,48,148.2405955574941,149.47973073553294,"[22, 0, 232]",232,a,0.7162826802814379,colour,0.5
20,26,0,1,1,49,49,151.4908403325826,152.18401372781955,"[92, 0, 162]",162,l,0.1698191382456571,colour,0.5
20,26,0,1,1,50,50,154.194262378267,155.40770621947013,"[15, 0, 239]",239,a,0.6899989995872602,colour,0.5
20,26,0,1,2,1,51,163.70968655403703,166.63170039688703,"[55, 0, 199]",199,a,2.397938060690649,colour,0.5
20,26,0,1,2,2,52,168.64843174617272,169.32770869287197,"[56, 0, 198]",198,a,0.15647407353390008,colour,0.5
20,26,0,1,2,3,53,171.33621142571792,171.90379178791773,"[30, 0, 224]",224,a,0.044272578903473914,colour,0.5
20,26,0,1,2,4,54,173.91453156387433,174.4716454790905,"[25, 0, 229]",229,a,0.033859301125630736,colour,0.5
20,26,0,1,2,5,55,176.49281389289536,177.11964596423786,"[34, 0, 220]",220,a,0.10398784431163222,colour,0.5
20,26,0,1,2,6,56,179.13367474486586,180.1679113500286,"[70, 0, 184]",184,l,0.5107456836849451,colour,0.5
20,26,0,1,2,7,57,182.18126980541274,182.7437167840544,"[38, 0, 216]",216,a,0.03955115785356611,colour,0.5
20,26,0,1,2,8,58,184.75957261445,186.07170353189576,"[68, 0, 186]",186,l,0.7813239198876545,colour,0.5
20,26,0,1,2,9,59,188.08028227696195,189.70369931298774,"[60, 0, 194]",194,a,1.1006905689137056,colour,0.5
20,26,0,1,2,10,60,191.7211214674171,192.8476041976828,"[62, 0, 192]",192,a,0.6036467739613727,colour,0.5
20,26,0,1,2,11,61,194.86210992536508,195.51171690691262,"[95, 0, 159]",159,l,0.12654574564658105,colour,0.5
20,26,0,1,2,12,62,197.51856154971756,198.15166876313742,"[80, 0, 174]",174,l,0.11039453081320971,colour,0.5
20,26,0,1,2,13,63,200.15934245102108,200.7516535607865,"[21, 0, 233]",233,a,0.06929083378054202,colour,0.5
20,26,0,1,2,14,64,202.76896268152632,203.31166657339782,"[31, 0, 223]",223,a,0.019917954108677804,colour,0.5
20,26,0,1,2,15,65,205.33163336431608,205.85568906040862,"[1, 0, 253]",253,a,0.0007014389848336577,colour,0.5
20,26,0,1,2,16,66,207.87873572402168,209.0156522121979,"[90, 0, 164]",164,l,0.6138906984124333,colour,0.5
20,26,0,1,2,17,67,211.0353066836251,211.86360535724089,"[4, 0, 250]",250,a,0.30585892614908516,colour,0.5
20,26,0,1,2,18,68,213.87911736045498,214.72757187089883,"[33, 0, 221]",221,l,0.3250636258162558,colour,0.5
20,26,0,1,2,19,69,216.7289613581961,217.5916600828059,"[35, 0, 219]",219,a,0.3399253898533061,colour,0.5
20,26,0,1,2,20,70,219.60181933036074,220.40756207203958,"[23, 0, 231]",231,a,0.29188252694439143,colour,0.5
20,26,0,1,2,21,71,222.42101741349325,223.23156743461732,"[2, 0, 252]",252,a,0.2872390871634707,colour,0.5
20,26,0,1,2,22,72,225.24937949620653,226.07156883669086,"[37, 0, 217]",217,a,0.29969563614577055,colour,0.5
20,26,0,1,2,23,73,228.0777246436337,228.98357388109434,"[82, 0, 172]",172,l,0.3825257003773004,colour,0.5
20,26,0,1,2,24,74,231.00136349350214,231.83154553675558,"[76, 0, 178]",178,l,0.30722478264942765,colour,0.5
20,26,0,1,2,25,75,233.84520567790605,234.67961092770565,"[16, 0, 238]",238,a,0.31107698648702353,colour,0.5
20,26,0,1,2,26,76,236.67893666401505,237.53556228941306,"[53, 0, 201]",201,a,0.33321938070002943,colour,0.5
20,26,0,1,2,27,77,239.54159639799036,240.32760708068963,"[39, 0, 215]",215,a,0.26254260423593223,colour,0.5
20,26,0,1,2,28,78,242.33872455451638,243.09559814515524,"[3, 0, 251]",251,a,0.23434365238063037,colour,0.5
20,26,0,1,2,29,79,245.10466447111685,245.92764071503188,"[43, 0, 211]",211,a,0.29967279301490635,colour,0.5
20,26,0,1,2,30,80,247.9485046863556,248.78356056904886,"[52, 0, 202]",202,a,0.3117197426036,colour,0.5
20,26,0,1,2,31,81,250.79250874137506,251.63162044622004,"[78, 0, 176]",176,a,0.3157361801713705,colour,0.5
20,26,0,1,2,32,82,253.6521602824796,254.47152141772676,"[45, 0, 209]",209,a,0.296049413504079,colour,0.5
20,26,0,1,2,33,83,256.4804498977028,257.3035525660962,"[99, 0, 155]",155,l,0.2997165098786354,colour,0.5
20,26,0,1,2,34,84,259.3244208696997,260.1195585305104,"[44, 0, 210]",210,a,0.2718007330549881,colour,0.5
20,26,0,1,2,35,85,262.1246737972833,262.93556725187227,"[65, 0, 189]",189,a,0.2875017821788788,colour,0.5
20,26,0,1,2,36,86,264.95311189233325,265.73555039521307,"[63, 0, 191]",191,a,0.25929337786510587,colour,0.5
20,26,0,1,2,37,87,267.75013292289805,268.63952965382487,"[79, 0, 175]",175,a,0.3660420801024884,colour,0.5
20,26,0,1,2,38,88,270.65660837478936,271.44753818924073,"[36, 0, 218]",218,a,0.2677393971243873,colour,0.5
20,26,0,1,2,39,89,273.45370069146156,274.2555416045943,"[42, 0, 212]",212,a,0.2785354929510504,colour,0.5
20,26,0,1,2,40,90,276.266402291134,277.07155190128833,"[59, 0, 195]",195,a,0.28178944531828165,colour,0.5
20,26,0,1,2,41,91,279.07915942312684,279.87155513081234,"[93, 0, 161]",161,l,0.26907335210125893,colour,0.5
20,26,0,1,2,42,92,281.8918421182316,282.67151700658724,"[92, 0, 162]",162,l,0.2563111790223047,colour,0.5
20,26,0,1,2,43,93,284.6890135979047,285.4474968353752,"[40, 0, 214]",214,a,0.2350872327806428,colour,0.5
20,26,0,1,2,44,94,287.45475895458367,288.17548500117846,"[94, 0, 160]",160,l,0.19738045416306704,colour,0.5
20,26,0,1,2,45,95,290.1893404896837,290.99147757480387,"[81, 0, 173]",173,l,0.27911247685551643,colour,0.5
20,26,0,1,2,46,96,292.98940988536924,293.71949842968024,"[20, 0, 234]",234,a,0.2069871361600235,colour,0.5
20,26,0,1,2,47,97,295.7397184633883,296.43947380641475,"[98, 0, 156]",156,l,0.17677051317878067,colour,0.5
20,26,0,1,2,48,98,298.4586422723951,299.2234825718915,"[6, 0, 248]",248,a,0.24147737794555724,colour,0.5
20,26,0,1,2,49,99,301.24006110907067,302.1354734378401,"[46, 0, 208]",208,a,0.3770587295293808,colour,0.5
20,26,0,1,2,50,100,304.15756935812533,305.22356409789063,"[72, 0, 182]",182,l,0.5425873135682195,colour,0.5
20,26,0,1,3,1,101,313.31153227202594,314.0570910719689,"[3, 0, 251]",251,a,0.22221005673054606,colour,0.5
20,26,0,1,3,2,102,316.0675157714868,316.75147711788304,"[24, 0, 230]",230,a,0.16063111391849816,colour,0.5
20,26,0,1,3,3,103,318.77180585300084,319.49546092923265,"[42, 0, 212]",212,a,0.20054972963407636,colour,0.5
20,26,0,1,3,4,104,321.50625387439504,322.1835025162436,"[36, 0, 218]",218,a,0.1588099718792364,colour,0.5
20,26,0,1,3,5,105,324.20483319449704,325.0077603338286,"[66, 0, 188]",188,a,0.2799600325524807,colour,0.5
20,26,0,1,3,6,106,327.01754109573085,327.8154762419872,"[78, 0, 176]",176,l,0.2745529261883348,colour,0.5
20,26,0,1,3,7,107,329.83021985250525,330.7115033637965,"[97, 0, 157]",157,l,0.3580107802990824,colour,0.5
20,26,0,1,3,8,108,332.7210478183115,333.34344873263035,"[53, 0, 201]",201,a,0.09908131568226963,colour,0.5
20,26,0,1,3,9,109,335.3618488057982,336.0234511430608,"[47, 0, 207]",207,a,0.13822090486064553,colour,0.5
20,26,0,1,3,10,110,338.03393216244876,338.70344213186763,"[4, 0, 250]",250,a,0.14616910321637988,colour,0.5
20,26,0,1,3,11,111,340.7216531590093,341.25554751232266,"[20, 0, 234]",234,a,0.009944601682946086,colour,0.5
20,26,0,1,3,12,112,343.26873700798023,343.79950659011956,"[16, 0, 238]",238,a,0.01688770588953048,colour,0.5
20,26,0,1,3,13,113,345.8063677746104,347.047420586925,"[51, 0, 203]",203,a,0.7179478595498949,colour,0.5
20,26,0,1,3,14,114,349.05665114650037,349.8954107533209,"[61, 0, 193]",193,a,0.3159338906407356,colour,0.5
20,26,0,1,3,15,115,351.916257001576,352.79939158726484,"[84, 0, 170]",170,l,0.35976930102333426,colour,0.5
20,26,0,1,3,16,116,354.80710702273063,355.67936831887346,"[57, 0, 197]",197,a,0.34891609754413366,colour,0.5
20,26,0,1,3,17,117,357.69864903076086,358.62349226046354,"[44, 0, 210]",210,a,0.40154608024749905,colour,0.5
20,26,0,1,3,18,118,360.6354222379159,361.46333179203793,"[95, 0, 159]",159,l,0.3045430878410116,colour,0.5
20,26,0,1,3,19,119,363.479475523578,364.0394629363436,"[11, 0, 243]",243,a,0.036520121968351305,colour,0.5
20,26,0,1,3,20,120,366.05799415998627,367.18340838712174,"[34, 0, 220]",220,a,0.6024703572038561,colour,0.5
20,26,0,1,3,21,121,369.1987699413439,370.19948122650385,"[30, 0, 224]",224,a,0.47742910182569176,colour,0.5
20,26,0,1,3,22,122,372.202318096417,373.1034502449911,"[10, 0, 244]",244,a,0.37792755279224366,colour,0.5
20,26,0,1,3,23,123,375.1243910162011,376.03138949512504,"[92, 0, 162]",162,l,0.38444136537145823,colour,0.5
20,26,0,1,3,24,124,378.0412998322863,378.91942430799827,"[60, 0, 194]",194,a,0.3548076340230182,colour,0.5
20,26,0,1,3,25,125,380.93246926227584,381.7993478704011,"[90, 0, 164]",164,l,0.34351529262494296,colour,0.5
20,26,0,1,3,26,126,383.80950948095415,384.8714409156237,"[74, 0, 180]",180,l,0.5389627524418756,colour,0.5
20,26,0,1,3,27,127,386.887900905218,387.9993647269439,"[58, 0, 196]",196,a,0.5881375276949257,colour,0.5
20,26,0,1,3,28,128,390.0130733111873,390.9353604828939,"[94, 0, 160]",160,l,0.3989065270870924,colour,0.5
20,26,0,1,3,29,129,392.95085436920635,393.8633808651939,"[7, 0, 247]",247,a,0.3895778999431059,colour,0.5
20,26,0,1,3,30,130,395.872935559717,396.831336404779,"[1, 0, 253]",253,a,0.44005079031921923,colour,0.5
20,26,0,1,3,31,131,398.8391822031699,399.79138470604084,"[81, 0, 173]",173,l,0.42895497800782323,colour,0.5
20,26,0,1,3,32,132,401.7955354448641,402.6553236504551,"[15, 0, 239]",239,a,0.3362972841132432,colour,0.5
20,26,0,1,3,33,133,404.6606224493589,405.82338151114527,"[85, 0, 169]",169,l,0.6393520295387134,colour,0.5
20,26,0,1,3,34,134,407.8327810304472,408.7673144376604,"[49, 0, 205]",205,a,0.41123980237171054,colour,0.5
20,26,0,1,3,35,135,410.786076848628,412.2953109529335,"[68, 0, 186]",186,l,0.9858061980921775,colour,0.5
20,26,0,1,3,36,136,414.30207564507145,415.32732705643866,"[69, 0, 185]",185,a,0.5020023110555485,colour,0.5
20,26,0,1,3,37,137,417.34913231863175,418.22330258449074,"[29, 0, 225]",225,a,0.3508317625382915,colour,0.5
20,26,0,1,3,38,138,420.2402206164552,421.21527128480375,"[88, 0, 166]",166,l,0.46418564941268414,colour,0.5
20,26,0,1,3,39,139,423.2280523625668,424.16730443399865,"[14, 0, 240]",240,a,0.41594546975102276,colour,0.5
20,26,0,1,3,40,140,426.1827837480232,427.0873084827326,"[26, 0, 228]",228,a,0.3812846929067746,colour,0.5
20,26,0,1,3,41,141,429.1048298862297,429.98330015840475,"[18, 0, 236]",236,a,0.3676773270126432,colour,0.5
20,26,0,1,3,42,142,431.99884130619466,432.80732875782996,"[91, 0, 163]",163,l,0.2854758403263986,colour,0.5
20,26,0,1,3,43,143,434.8272163858637,436.46329870901536,"[64, 0, 190]",190,l,1.1127595738507807,colour,0.5
20,26,0,1,3,44,144,438.48438205220737,439.45528040616773,"[86, 0, 168]",168,l,0.44646692916285247,colour,0.5
20,26,0,1,3,45,145,441.4700287427986,442.65531537972856,"[46, 0, 208]",208,a,0.6618874814594164,colour,0.5
20,26,0,1,3,46,146,444.6734673300525,446.671265339246,"[21, 0, 233]",233,a,1.474629647214897,colour,0.5
20,26,0,1,3,47,147,448.68941256345715,449.96727221738547,"[22, 0, 232]",232,a,0.7545884982682765,colour,0.5
20,26,0,1,3,48,148,451.98651590780355,453.3752753965091,"[70, 0, 184]",184,l,0.8654895146610215,colour,0.5
20,26,0,1,3,49,149,455.39465141901746,456.56726252881344,"[52, 0, 202]",202,a,0.6493297142442316,colour,0.5
20,26,0,1,3,50,150,458.5822810434038,459.9112378330901,"[5, 0, 249]",249,a,0.8056001695804298,colour,0.5
20,26,0,1,4,1,151,467.363486809656,470.7832718802383,"[64, 0, 190]",190,l,2.8962488569086418,colour,0.5
20,26,0,1,4,2,152,472.802188284928,474.4472231126856,"[68, 0, 186]",186,a,1.1216313400072977,colour,0.5
20,26,0,1,4,3,153,476.4584933987353,477.6552212506067,"[47, 0, 207]",207,a,0.6735795760760084,colour,0.5
20,26,0,1,4,4,154,479.662112367223,480.79124370927457,"[21, 0, 233]",233,a,0.6058066233526915,colour,0.5
20,26,0,1,4,5,155,482.80297558230814,483.83124818338547,"[61, 0, 193]",193,a,0.5049841162981465,colour,0.5
20,26,0,1,4,6,156,485.85115747281816,486.95142859616317,"[37, 0, 217]",217,a,0.5777553636580706,colour,0.5
20,26,0,1,4,7,157,488.95180471870117,489.839223556919,"[40, 0, 214]",214,a,0.36396966443862766,colour,0.5
20,26,0,1,4,8,158,491.8582715060329,493.02322231873404,"[26, 0, 228]",228,a,0.6416733554797247,colour,0.5
20,26,0,1,4,9,159,495.03041709028184,496.4311947778333,"[79, 0, 175]",175,l,0.8775541872018948,colour,0.5
20,26,0,1,4,10,160,498.4524947361788,499.5432068327209,"[33, 0, 221]",221,a,0.5673503563739359,colour,0.5
20,26,0,1,4,11,161,501.5644260527333,502.5751878840383,"[32, 0, 222]",222,a,0.4873886697459966,colour,0.5
20,26,0,1,4,12,162,504.595858083223,505.6472545416327,"[78, 0, 176]",176,l,0.5279205030528829,colour,0.5
20,26,0,1,4,13,163,507.6587327780435,508.9112752483925,"[56, 0, 198]",198,a,0.7291842747945338,colour,0.5
20,26,0,1,4,14,164,510.9246010147035,511.911196479341,"[43, 0, 211]",211,a,0.4632475092075765,colour,0.5
20,26,0,1,4,15,165,513.9247727313777,514.9112587069394,"[41, 0, 213]",213,a,0.4749486622167751,colour,0.5
20,26,0,1,4,16,166,516.9184089739574,518.0152099236147,"[28, 0, 226]",226,a,0.573859836673364,colour,0.5
20,26,0,1,4,17,167,520.0280280228471,521.0231994757196,"[95, 0, 159]",159,l,0.4718164080986753,colour,0.5
20,26,0,1,4,18,168,523.0440827453276,524.1431951748673,"[93, 0, 161]",161,l,0.5758231569780037,colour,0.5
20,26,0,1,4,19,169,526.1414169619093,527.4391386437928,"[11, 0, 243]",243,a,0.7743304033065215,colour,0.5
20,26,0,1,4,20,170,529.454099657014,531.0951629456831,"[60, 0, 194]",194,a,1.117711788509041,colour,0.5
20,26,0,1,4,21,171,533.1106690412853,534.1751604723977,"[30, 0, 224]",224,a,0.5411048787645996,colour,0.5
20,26,0,1,4,22,172,536.188961216365,536.983326939866,"[55, 0, 199]",199,a,0.2711434046505019,colour,0.5
20,26,0,1,4,23,173,539.0016852653353,540.4231099152239,"[74, 0, 180]",180,l,0.8980723620625213,colour,0.5
20,26,0,1,4,24,174,542.439510434051,543.6551653245697,"[20, 0, 234]",234,a,0.692576325382106,colour,0.5
20,26,0,1,4,25,175,545.6740884245373,546.6791434329934,"[16, 0, 238]",238,a,0.4816712129395455,colour,0.5
20,26,0,1,4,26,176,548.6899604026694,549.7111213335302,"[13, 0, 241]",241,a,0.4953577417181805,colour,0.5
20,26,0,1,4,27,177,551.7257763287053,552.9032128349645,"[83, 0, 171]",171,l,0.6540538923582062,colour,0.5
20,26,0,1,4,28,178,554.9135997252306,556.0871375537245,"[80, 0, 174]",174,l,0.650653823162429,colour,0.5
20,26,0,1,4,29,179,558.1014002786251,561.8872234907467,"[52, 0, 202]",202,a,3.262616253341548,colour,0.5
20,26,0,1,4,30,180,563.8862652644748,564.8951535722008,"[90, 0, 164]",164,l,0.4853324018185958,colour,0.5
20,26,0,1,4,31,181,566.9021683563478,567.7991036861204,"[42, 0, 212]",212,a,0.37368229101412,colour,0.5
20,26,0,1,4,32,182,569.808650897583,570.751125019975,"[53, 0, 201]",201,a,0.4191864252788946,colour,0.5
20,26,0,1,4,33,183,572.7620105188107,573.791115315631,"[6, 0, 248]",248,a,0.5058281273813918,colour,0.5
20,26,0,1,4,34,184,575.8091176046291,576.7190880426206,"[49, 0, 205]",205,a,0.38664414396043867,colour,0.5
20,26,0,1,4,35,185,578.7259082669625,579.7670714348787,"[44, 0, 210]",210,a,0.517801821581088,colour,0.5
20,26,0,1,4,36,186,581.7857243568869,582.6312305390602,"[59, 0, 195]",195,a,0.3221861897036433,colour,0.5
20,26,0,1,4,37,187,584.6454101626296,585.743133892538,"[0, 0, 254]",254,a,0.5743675036355853,colour,0.5
20,26,0,1,4,38,188,587.754913027049,588.6791138945846,"[65, 0, 189]",189,a,0.40120422234758735,colour,0.5
20,26,0,1,4,39,189,590.6926901466213,591.5190613397863,"[51, 0, 203]",203,a,0.3029082347638905,colour,0.5
20,26,0,1,4,40,190,593.5367958138231,594.823056194582,"[84, 0, 170]",170,l,0.7629833174869418,colour,0.5
20,26,0,1,4,41,191,596.8338062105468,597.9110696610296,"[76, 0, 178]",178,a,0.5539800856495276,colour,0.5
20,26,0,1,4,42,192,599.9278821424814,600.8390679879813,"[2, 0, 252]",252,a,0.3885688674636185,colour,0.5
20,26,0,1,4,43,193,602.856255804305,606.3595211781794,"[69, 0, 185]",185,l,2.980141910375096,colour,0.5
20,26,0,1,4,44,194,608.3599362914683,609.2790888460586,"[82, 0, 172]",172,l,0.3958861251594499,colour,0.5
20,26,0,1,4,45,195,611.2852462283336,612.3832039025147,"[38, 0, 216]",216,a,0.5745908141834661,colour,0.5
20,26,0,1,4,46,196,614.3948660648894,615.255079229828,"[97, 0, 157]",157,l,0.33697115385439247,colour,0.5
20,26,0,1,4,47,197,617.2700170062017,618.0870233384194,"[46, 0, 208]",208,a,0.29363907827064395,colour,0.5
20,26,0,1,4,48,198,620.0990021526814,620.9750258559361,"[4, 0, 250]",250,a,0.3526072185486555,colour,0.5
20,26,0,1,4,49,199,622.9898561123991,628.199020033353,"[63, 0, 191]",191,a,4.68599555909168,colour,0.5
20,26,0,1,4,50,200,630.2091761301272,631.1912104686489,"[19, 0, 235]",235,a,0.4586651154095307,colour,0.5
20,26,0,1,5,1,201,638.6934975301847,640.1830275384709,"[75, 0, 179]",179,l,0.9653037771349773,colour,0.5
20,26,0,1,5,2,202,642.1946916700108,643.1269793695537,"[56, 0, 198]",198,a,0.40865617513190955,colour,0.5
20,26,0,1,5,3,203,645.1486877457937,646.0470338305458,"[81, 0, 173]",173,l,0.37491817865520716,colour,0.5
20,26,0,1,5,4,204,648.0552455114666,648.8231156653492,"[83, 0, 171]",171,l,0.2454449785873294,colour,0.5
20,26,0,1,5,5,205,650.8366426866269,651.8790232313331,"[40, 0, 214]",214,a,0.5188529955921695,colour,0.5
20,26,0,1,5,6,206,653.8993614186766,655.8311004912248,"[96, 0, 158]",158,l,1.408309984835796,colour,0.5
20,26,0,1,5,7,207,657.8528494335478,658.782985160593,"[36, 0, 218]",218,a,0.40677123004570603,colour,0.5
20,26,0,1,5,8,208,660.7906041039387,661.6310005332343,"[98, 0, 156]",156,l,0.3170598952565342,colour,0.5
20,26,0,1,5,9,209,663.6512040253729,664.4070252603851,"[65, 0, 189]",189,a,0.2323645781725645,colour,0.5
20,26,0,1,5,10,210,666.4171581203118,667.1031001162482,"[32, 0, 222]",222,a,0.16266060038469732,colour,0.5
20,26,0,1,5,11,211,669.1204013600945,669.9029721952975,"[74, 0, 180]",180,a,0.2591807381249964,colour,0.5
20,26,0,1,5,12,212,671.9183073617751,672.694983509602,"[49, 0, 205]",205,a,0.25410524965263903,colour,0.5
20,26,0,1,5,13,213,674.7165634921985,675.4390063117025,"[23, 0, 231]",231,a,0.19919647614005953,colour,0.5
20,26,0,1,5,14,214,677.4509937906405,678.2309707584791,"[82, 0, 172]",172,l,0.2563627727795392,colour,0.5
20,26,0,1,5,15,215,680.2449853607686,681.0069639780559,"[11, 0, 243]",243,a,0.23881498153787106,colour,0.5
20,26,0,1,5,16,216,683.023549210513,683.822935283999,"[9, 0, 245]",245,a,0.2808316128794104,colour,0.5
20,26,0,1,5,17,217,685.81911695085,686.5349770347821,"[91, 0, 163]",163,l,0.19250070687849075,colour,0.5
20,26,0,1,5,18,218,688.5438551026164,689.3030669544823,"[35, 0, 219]",219,a,0.23575283191166818,colour,0.5
20,26,0,1,5,19,219,691.3197990914341,692.3829152137041,"[15, 0, 239]",239,a,0.5397169667994604,colour,0.5
20,26,0,1,5,20,220,694.3919976872858,695.4949323884211,"[50, 0, 204]",204,a,0.5798927636351436,colour,0.5
20,26,0,1,5,21,221,697.5016620284878,698.3589138683164,"[6, 0, 248]",248,a,0.33392200130037963,colour,0.5
20,26,0,1,5,22,222,700.376867714338,701.3909236702602,"[52, 0, 202]",202,a,0.49089074484072626,colour,0.5
20,26,0,1,5,23,223,703.4082024649251,704.2629557482433,"[59, 0, 195]",195,a,0.33130371558945626,colour,0.5
20,26,0,1,5,24,224,706.2835747475037,708.7189127812162,"[8, 0, 246]",246,l,1.9120428535388783,colour,0.5
20,26,0,1,5,25,225,710.7370099871187,711.3110423281323,"[24, 0, 230]",230,a,0.0509021821198985,colour,0.5
20,26,0,1,5,26,226,713.3325904092053,714.6549632817041,"[88, 0, 166]",166,l,0.7994254579534754,colour,0.5
20,26,0,1,5,27,227,716.6517065723892,717.2949048980372,"[78, 0, 176]",176,l,0.12017529283184558,colour,0.5
20,26,0,1,5,28,228,719.3081810397562,720.030877495883,"[16, 0, 238]",238,a,0.1994347528088838,colour,0.5
20,26,0,1,5,29,229,722.0427235841053,722.6468851143727,"[4, 0, 250]",250,l,0.0808293285081163,colour,0.5
20,26,0,1,5,30,230,724.6680578605738,725.2469116596039,"[34, 0, 220]",220,a,0.05545582505874336,colour,0.5
20,26,0,1,5,31,231,727.2618770051049,727.9188701672247,"[60, 0, 194]",194,a,0.1336416619597003,colour,0.5
20,26,0,1,5,32,232,729.9340052601183,730.5028967343969,"[61, 0, 193]",193,a,0.045594718656502664,colour,0.5
20,26,0,1,5,33,233,732.5122738045175,733.0869189694058,"[85, 0, 169]",169,l,0.051279092440381646,colour,0.5
20,26,0,1,5,34,234,735.1068577972474,736.3909008272458,"[26, 0, 228]",228,a,0.7734170753974468,colour,0.5
20,26,0,1,5,35,235,738.3949905200861,739.3588748775655,"[45, 0, 209]",209,a,0.4405060758581385,colour,0.5
20,26,0,1,5,36,236,741.3693941000383,741.9509114768589,"[70, 0, 184]",184,a,0.058098135283216834,colour,0.5
20,26,0,1,5,37,237,743.9634983887663,744.5508750067092,"[38, 0, 216]",216,a,0.06417911150492728,colour,0.5
20,26,0,1,5,38,238,746.557350222487,747.3268859493546,"[25, 0, 229]",229,a,0.2460550453979522,colour,0.5
20,26,0,1,5,39,239,749.3398745837621,750.3271013828926,"[2, 0, 252]",252,a,0.46402338496409357,colour,0.5
20,26,0,1,5,40,240,752.3512161558028,753.0708406161284,"[39, 0, 215]",215,a,0.19616937881801277,colour,0.5
20,26,0,1,5,41,241,755.0858461338794,755.7908285959857,"[3, 0, 251]",251,a,0.18170067260507494,colour,0.5
20,26,0,1,5,42,242,757.8015644334955,759.0148137148935,"[17, 0, 237]",237,a,0.6899698550114408,colour,0.5
20,26,0,1,5,43,243,761.0361751131713,762.1028842888772,"[66, 0, 188]",188,l,0.5433123833499849,colour,0.5
20,26,0,1,5,44,244,764.117342361249,765.0148042626679,"[20, 0, 234]",234,a,0.37409031519200653,colour,0.5
20,26,0,1,5,45,245,767.0238906746963,767.9508701231098,"[46, 0, 208]",208,a,0.40366418205667287,colour,0.5
20,26,0,1,5,46,246,769.9615374314599,770.7268680687994,"[72, 0, 182]",182,l,0.24199804186355323,colour,0.5
20,26,0,1,5,47,247,772.745134234312,773.5748027029913,"[94, 0, 160]",160,l,0.3066273188451305,colour,0.5
20,26,0,1,5,48,248,775.5888937112177,776.6628370431717,"[77, 0, 177]",177,l,0.5507623669691384,colour,0.5
20,26,0,1,5,49,249,778.6853212952847,779.5188120355597,"[86, 0, 168]",168,l,0.31019871088210493,colour,0.5
20,26,0,1,5,50,250,781.5293198364088,782.3988502071006,"[55, 0, 199]",199,a,0.34592799085658044,colour,0.5
20,26,0,1,6,1,251,789.9353687536204,790.7588184000924,"[43, 0, 211]",211,a,0.29928249202203006,colour,0.5
20,26,0,1,6,2,252,792.7802144567249,793.4068216421874,"[40, 0, 214]",214,a,0.10336005443241447,colour,0.5
20,26,0,1,6,3,253,795.4210087488173,796.2468273766572,"[68, 0, 186]",186,l,0.30251202604267746,colour,0.5
20,26,0,1,6,4,254,798.2649549085181,798.8868209805805,"[34, 0, 220]",220,a,0.09845431346911937,colour,0.5
20,26,0,1,6,5,255,800.9059217050672,801.5907936225412,"[46, 0, 208]",208,a,0.16170867555774748,colour,0.5
20,26,0,1,6,6,256,803.6091389510548,804.79079511913,"[36, 0, 218]",218,a,0.6583275110460818,colour,0.5
20,26,0,1,6,7,257,806.8124566277256,807.958767909091,"[53, 0, 201]",201,a,0.6227998799877241,colour,0.5
20,26,0,1,6,8,258,809.9577096459689,810.6948362113908,"[81, 0, 173]",173,l,0.21861424634698778,colour,0.5
20,26,0,1,6,9,259,812.7030841261148,813.526800012216,"[92, 0, 162]",162,l,0.301245812443085,colour,0.5
20,26,0,1,6,10,260,815.5471267780522,816.3347774338908,"[44, 0, 210]",210,a,0.2644775677472353,colour,0.5
20,26,0,1,6,11,261,818.3440351687605,818.9908706586575,"[54, 0, 200]",200,a,0.12335205147974193,colour,0.5
20,26,0,1,6,12,262,821.0013000842882,821.7267550351098,"[88, 0, 166]",166,a,0.20212826295755804,colour,0.5
20,26,0,1,6,13,263,823.7359273055336,824.7427558007184,"[72, 0, 182]",182,l,0.48349944432266057,colour,0.5
20,26,0,1,6,14,264,826.7516854621936,827.5187222387176,"[28, 0, 226]",226,a,0.2437045747647062,colour,0.5
20,26,0,1,6,15,265,829.533151954296,830.2707566482713,"[95, 0, 159]",159,l,0.21420987090095878,colour,0.5
20,26,0,1,6,16,266,832.2834211477311,833.3747318895767,"[6, 0, 248]",248,a,0.5680640046484768,colour,0.5
20,26,0,1,6,17,267,835.3930323197274,836.0948069092119,"[86, 0, 168]",168,l,0.1783762217964977,colour,0.5
20,26,0,1,6,18,268,838.1121172115672,839.0389387278119,"[52, 0, 202]",202,a,0.40362282819114625,colour,0.5
20,26,0,1,6,19,269,841.0513007538393,841.7907376176445,"[3, 0, 251]",251,a,0.21608733292669058,colour,0.5
20,26,0,1,6,20,270,843.8015281996923,845.6627500032773,"[69, 0, 185]",185,l,1.337910081841983,colour,0.5
20,26,0,1,6,21,271,847.6767925685272,848.3907594366465,"[23, 0, 231]",231,a,0.18377230048645288,colour,0.5
20,26,0,1,6,22,272,850.4033971546451,851.1746791930636,"[58, 0, 196]",196,a,0.24796598439570516,colour,0.5
20,26,0,1,6,23,273,853.1766598426038,853.9266919409856,"[0, 0, 254]",254,a,0.21860006789211184,colour,0.5
20,26,0,1,6,24,274,855.9350532833487,856.6466948869638,"[8, 0, 246]",246,a,0.1890770070021972,colour,0.5
20,26,0,1,6,25,275,858.6539491292788,860.6867639517877,"[60, 0, 194]",194,a,1.5095602084184065,colour,0.5
20,26,0,1,6,26,276,862.7011664918391,863.4386865090346,"[87, 0, 167]",167,l,0.21506136504467577,colour,0.5
20,26,0,1,6,27,277,865.4514144177083,866.7907490391517,"[55, 0, 199]",199,a,0.8160504689440131,colour,0.5
20,26,0,1,6,28,278,868.8123857354512,869.5267476307927,"[32, 0, 222]",222,a,0.19093438296113163,colour,0.5
20,26,0,1,6,29,279,871.5471149627119,872.2066834812285,"[33, 0, 221]",221,a,0.13466172211337835,colour,0.5
20,26,0,1,6,30,280,874.2208201756002,876.9026712971972,"[71, 0, 183]",183,l,2.1585508214775473,colour,0.5
20,26,0,1,6,31,281,878.924433236476,879.5346749551827,"[94, 0, 160]",160,a,0.08693432935979217,colour,0.5
20,26,0,1,6,32,282,881.549454011838,882.374664541916,"[82, 0, 172]",172,l,0.3019078668439761,colour,0.5
20,26,0,1,6,33,283,884.3932958024088,885.1186518978793,"[10, 0, 244]",244,a,0.20170448499266058,colour,0.5
20,26,0,1,6,34,284,887.128104192554,887.7986980251735,"[37, 0, 217]",217,a,0.1471612002933398,colour,0.5
20,26,0,1,6,35,285,889.8157499646768,890.374688960379,"[96, 0, 158]",158,l,0.03570092306472361,colour,0.5
20,26,0,1,6,36,286,892.3940791613422,892.9667023228249,"[98, 0, 156]",156,a,0.04901408636942506,colour,0.5
20,26,0,1,6,37,287,894.988157062442,895.5906392349862,"[16, 0, 238]",238,a,0.0791483954526484,colour,0.5
20,26,0,1,6,38,288,897.5979698833544,898.9586662969086,"[38, 0, 216]",216,a,0.8373921748716384,colour,0.5
20,26,0,1,6,39,289,900.9732007753337,901.5826780397911,"[31, 0, 223]",223,a,0.08461851719766855,colour,0.5
20,26,0,1,6,40,290,903.5999552591238,904.7746592643671,"[66, 0, 188]",188,l,0.651376923546195,colour,0.5
20,26,0,1,6,41,291,906.7879105939064,907.8466180083342,"[50, 0, 204]",204,a,0.5362747561885044,colour,0.5
20,26,0,1,6,42,292,909.8662850827677,910.4706470804522,"[22, 0, 232]",232,a,0.08100970985833555,colour,0.5
20,26,0,1,6,43,293,912.491479543969,913.198675024556,"[4, 0, 250]",250,a,0.18392235576175153,colour,0.5
20,26,0,1,6,44,294,915.2106435988098,915.9026527864626,"[90, 0, 164]",164,l,0.1687069182517007,colour,0.5
20,26,0,1,6,45,295,917.9139675770421,918.798802000354,"[78, 0, 176]",176,l,0.361946479533799,colour,0.5
20,26,0,1,6,46,296,920.8079919938464,921.4626421683934,"[25, 0, 229]",229,a,0.13128095131833106,colour,0.5
20,26,0,1,6,47,297,923.4807185003301,924.2626036502188,"[9, 0, 245]",245,a,0.2585486158495769,colour,0.5
20,26,0,1,6,48,298,926.2779277891386,927.0386169559788,"[18, 0, 236]",236,a,0.23741643584799021,colour,0.5
20,26,0,1,6,49,299,929.0593143304577,929.630979659385,"[49, 0, 205]",205,a,0.048365422524511814,colour,0.5
20,26,0,1,6,50,300,931.6375824810239,932.5586416422157,"[70, 0, 184]",184,l,0.39770293491892517,colour,0.5
20,26,0,1,7,1,301,943.2471759299515,944.3027554226574,"[55, 0, 199]",199,a,0.5313824060140178,colour,0.5
20,26,0,1,7,2,302,946.2983026041184,947.1826041543391,"[13, 0, 241]",241,a,0.3609658038476482,colour,0.5
20,26,0,1,7,3,303,949.1772833002033,950.0865558437072,"[67, 0, 187]",187,l,0.3858993819449097,colour,0.5
20,26,0,1,7,4,304,952.0919523162302,953.2065653274767,"[64, 0, 190]",190,l,0.5912335480097681,colour,0.5
20,26,0,1,7,5,305,955.217181829852,956.0706003702944,"[0, 0, 254]",254,a,0.33012060332112014,colour,0.5
20,26,0,1,7,6,306,958.0767479065107,958.8065390974516,"[8, 0, 246]",246,a,0.20645386935211718,colour,0.5
20,26,0,1,7,7,307,960.8270194630604,962.6865386720747,"[54, 0, 200]",200,a,1.3361641643568873,colour,0.5
20,26,0,1,7,8,308,964.7022917087888,966.1746173592983,"[21, 0, 233]",233,a,0.9490257441066206,colour,0.5
20,26,0,1,7,9,309,968.1868947084295,968.9585670478409,"[70, 0, 184]",184,l,0.24834368226584047,colour,0.5
20,26,0,1,7,10,310,970.9684135819552,972.1589163101744,"[25, 0, 229]",229,a,0.6672689879778773,colour,0.5
20,26,0,1,7,11,311,974.1718458676478,974.9265544888331,"[90, 0, 164]",164,l,0.24103508924599737,colour,0.5
20,26,0,1,7,12,312,976.9439746740973,977.5666134712519,"[80, 0, 174]",174,l,0.09932589391246438,colour,0.5
20,26,0,1,7,13,313,979.5847855076427,980.7905324241146,"[49, 0, 205]",205,a,0.6822934102965519,colour,0.5
20,26,0,1,7,14,314,982.8038290457334,983.8065320082242,"[16, 0, 238]",238,a,0.47939084691461176,colour,0.5
20,26,0,1,7,15,315,985.8196588824503,986.9745524534956,"[88, 0, 166]",166,l,0.6322915591299534,colour,0.5
20,26,0,1,7,16,316,988.9917808359023,989.6065588684287,"[40, 0, 214]",214,a,0.09145961538888514,colour,0.5
20,26,0,1,7,17,317,991.6169528479222,992.4945905305212,"[79, 0, 175]",175,l,0.3541546380147338,colour,0.5
20,26,0,1,7,18,318,994.5078576137312,995.3028680625139,"[39, 0, 215]",215,a,0.2716357117751613,colour,0.5
20,26,0,1,7,19,319,997.3205084074289,998.9905614898307,"[68, 0, 186]",186,l,1.1466665300540626,colour,0.5
20,26,0,1,7,20,320,1001.0083014777629,1001.670488675707,"[5, 0, 249]",249,a,0.13884003018029034,colour,0.5
20,26,0,1,7,21,321,1003.6710908656241,1004.6546592329396,"[60, 0, 194]",194,a,0.46020938409492373,colour,0.5
20,26,0,1,7,22,322,1006.6713110253913,1008.2624823458027,"[63, 0, 191]",191,a,1.067865506396629,colour,0.5
20,26,0,1,7,23,323,1010.2809529172955,1011.4224884267896,"[37, 0, 217]",217,a,0.6181383233051747,colour,0.5
20,26,0,1,7,24,324,1013.4374533784576,1014.5345020570094,"[29, 0, 225]",225,a,0.5745041681220755,colour,0.5
20,26,0,1,7,25,325,1016.5471177196596,1017.8865062979748,"[28, 0, 226]",226,a,0.8160292013781145,colour,0.5
20,26,0,1,7,26,326,1019.8944970315788,1020.926498562796,"[83, 0, 171]",171,l,0.5084058468928561,colour,0.5
20,26,0,1,7,27,327,1022.9419636983657,1023.7264545308426,"[31, 0, 223]",223,a,0.26085458195302635,colour,0.5
20,26,0,1,7,28,328,1025.7419243926415,1026.526745661511,"[32, 0, 222]",222,a,0.26150600251276046,colour,0.5
20,26,0,1,7,29,329,1028.5494898516918,1029.9744528105948,"[84, 0, 170]",170,l,0.9016232740832493,colour,0.5
20,26,0,1,7,30,330,1031.9788910567295,1033.526479421882,"[59, 0, 195]",195,l,1.024281369522214,colour,0.5
20,26,0,1,7,31,331,1035.5325241643004,1036.4064569411566,"[3, 0, 251]",251,a,0.35054189211223274,colour,0.5
20,26,0,1,7,32,332,1038.4233438594965,1039.2544597106753,"[26, 0, 228]",228,a,0.30804673838429153,colour,0.5
20,26,0,1,7,33,333,1041.2673337360611,1042.8787908623926,"[62, 0, 192]",192,l,1.0884368503466249,colour,0.5
20,26,0,1,7,34,334,1044.8924860558473,1045.7744804584654,"[94, 0, 160]",160,l,0.35856689023785293,colour,0.5
20,26,0,1,7,35,335,1047.7834971599514,1048.7105148113333,"[2, 0, 252]",252,a,0.404388070339337,colour,0.5
20,26,0,1,7,36,336,1050.723170646117,1051.9344286441337,"[52, 0, 202]",202,a,0.6881691928720102,colour,0.5
20,26,0,1,7,37,337,1053.9421582581708,1055.1184313443955,"[11, 0, 243]",243,a,0.6529243430122733,colour,0.5
20,26,0,1,7,38,338,1057.1298544424353,1058.1584409384523,"[66, 0, 188]",188,l,0.5052050636149943,colour,0.5
20,26,0,1,7,39,339,1060.176950500696,1061.0304627764272,"[77, 0, 177]",177,l,0.33006979734636843,colour,0.5
20,26,0,1,7,40,340,1063.0522621310083,1063.8784037121804,"[76, 0, 178]",178,l,0.3028763332404196,colour,0.5
20,26,0,1,7,41,341,1065.8961677246261,1067.1424003944267,"[53, 0, 201]",201,a,0.7228508435655385,colour,0.5
20,26,0,1,7,42,342,1069.1522945838515,1069.9663955169963,"[93, 0, 161]",161,l,0.2908041775226593,colour,0.5
20,26,0,1,7,43,343,1071.9769261609763,1073.4224325007526,"[1, 0, 253]",253,a,0.9221859534736723,colour,0.5
20,26,0,1,7,44,344,1075.440280796145,1076.4305039726896,"[69, 0, 185]",185,l,0.46712688845582306,colour,0.5
20,26,0,1,7,45,345,1078.4404989866307,1079.606404874823,"[43, 0, 211]",211,a,0.6426418218761683,colour,0.5
20,26,0,1,7,46,346,1081.6125090878922,1082.718469311134,"[34, 0, 220]",220,a,0.5825126247946173,colour,0.5
20,26,0,1,7,47,347,1084.7378748720512,1085.5664326960687,"[14, 0, 240]",240,a,0.3052705207373947,colour,0.5
20,26,0,1,7,48,348,1087.5818253640318,1088.3184564717812,"[19, 0, 235]",235,a,0.21324061683844775,colour,0.5
20,26,0,1,7,49,349,1090.319597836351,1091.3425184693187,"[51, 0, 203]",203,a,0.49956795130856335,colour,0.5
20,26,0,1,7,50,350,1093.3456188220298,1094.342388500343,"[10, 0, 244]",244,a,0.47327363688964397,colour,0.5
20,26,0,1,8,1,351,1101.751662225346,1102.5903804784175,"[27, 0, 227]",227,a,0.31455818784888834,colour,0.5
20,26,0,1,8,2,352,1104.612162503763,1105.6463786289096,"[44, 0, 210]",210,a,0.5087969355517998,colour,0.5
20,26,0,1,8,3,353,1107.6613120730035,1109.2303713255096,"[45, 0, 209]",209,a,1.0456695493776351,colour,0.5
20,26,0,1,8,4,354,1111.2416932052001,1112.4383462264668,"[82, 0, 172]",172,l,0.6732971888268366,colour,0.5
20,26,0,1,8,5,355,1114.4450794110307,1115.8223728724988,"[90, 0, 164]",164,l,0.8540215181419626,colour,0.5
20,26,0,1,8,6,356,1117.835925493855,1118.9983104022685,"[78, 0, 176]",176,l,0.639040497597307,colour,0.5
20,26,0,1,8,7,357,1121.0080053058919,1123.5423703045817,"[66, 0, 188]",188,l,2.010954421828501,colour,0.5
20,26,0,1,8,8,358,1125.5552010069368,1126.422335614683,"[50, 0, 204]",204,a,0.34811895398888737,colour,0.5
20,26,0,1,8,9,359,1128.441823095549,1129.334353655926,"[59, 0, 195]",195,a,0.36924758937675506,colour,0.5
20,26,0,1,8,10,360,1131.3411908157868,1132.5023792212596,"[93, 0, 161]",161,l,0.6378329668659717,colour,0.5
20,26,0,1,8,11,361,1134.513252117089,1135.542326587718,"[43, 0, 211]",211,a,0.5056579860392958,colour,0.5
20,26,0,1,8,12,362,1137.5604769627098,1139.2463323127013,"[33, 0, 221]",221,a,1.1625727728242055,colour,0.5
20,26,0,1,8,13,363,1141.2645492475713,1142.590307223145,"[73, 0, 181]",181,l,0.8023560631554574,colour,0.5
20,26,0,1,8,14,364,1144.6085572410375,1146.2223033981863,"[22, 0, 232]",232,a,1.090412380057387,colour,0.5
20,26,0,1,8,15,365,1148.2338710376061,1149.766371965059,"[29, 0, 225]",225,a,1.009169907309115,colour,0.5
20,26,0,1,8,16,366,1151.781090763281,1153.4063053106656,"[69, 0, 185]",185,l,1.1019315763842314,colour,0.5
20,26,0,1,8,17,367,1155.4219027783256,1156.6542740518926,"[91, 0, 163]",163,l,0.7090906655648723,colour,0.5
20,26,0,1,8,18,368,1158.672226322582,1159.8222842572723,"[20, 0, 234]",234,a,0.626876575872302,colour,0.5
20,26,0,1,8,19,369,1161.8286755838199,1162.9182577372994,"[7, 0, 247]",247,a,0.5662688564043492,colour,0.5
20,26,0,1,8,20,370,1164.9383883679984,1165.7262824203353,"[8, 0, 246]",246,a,0.26463786291424185,colour,0.5
20,26,0,1,8,21,371,1167.726940930239,1168.6222831545165,"[2, 0, 252]",252,a,0.3719296781346202,colour,0.5
20,26,0,1,8,22,372,1170.6334368621465,1171.5823094003135,"[15, 0, 239]",239,a,0.42551355494651943,colour,0.5
20,26,0,1,8,23,373,1173.6023746526334,1174.5822408711538,"[56, 0, 198]",198,l,0.4564800598891452,colour,0.5
20,26,0,1,8,24,374,1176.6026834276272,1181.0702459092718,"[13, 0, 241]",241,a,3.944266119855456,colour,0.5
20,26,0,1,8,25,375,1183.0751347148325,1184.0703014414757,"[6, 0, 248]",248,a,0.47178096196148545,colour,0.5
20,26,0,1,8,26,376,1186.0910492283292,1187.718285779003,"[63, 0, 191]",191,l,1.1130352657055482,colour,0.5
20,26,0,1,8,27,377,1189.7387247908628,1190.5823074311484,"[80, 0, 174]",174,l,0.32044302904978395,colour,0.5
20,26,0,1,8,28,378,1192.5981565661496,1193.7582402348053,"[74, 0, 180]",180,l,0.636693965527229,colour,0.5
20,26,0,1,8,29,379,1195.7702765504364,1196.8062783716014,"[37, 0, 217]",217,a,0.5126266903243959,colour,0.5
20,26,0,1,8,30,380,1198.8174620115897,1200.0143304663943,"[41, 0, 213]",213,a,0.6734626040561125,colour,0.5
20,26,0,1,8,31,381,1202.0207485744031,1202.5902489339933,"[89, 0, 165]",165,l,0.046719541773200035,colour,0.5
20,26,0,1,8,32,382,1204.5991683555767,1205.6463030106388,"[34, 0, 220]",220,a,0.523835142608732,colour,0.5
20,26,0,1,8,33,383,1207.6618985091336,1208.5821853389498,"[47, 0, 207]",207,a,0.3968325360910967,colour,0.5
20,26,0,1,8,34,384,1210.6010355775943,1211.2222372320248,"[92, 0, 162]",162,l,0.09790686808992177,colour,0.5
20,26,0,1,8,35,385,1213.2424749888014,1214.294342092704,"[23, 0, 231]",231,a,0.52857428684365,colour,0.5
20,26,0,1,8,36,386,1216.3053012406453,1217.526238388382,"[0, 0, 254]",254,a,0.6977518504718319,colour,0.5
20,26,0,1,8,37,387,1219.5288358002435,1220.9101819329662,"[61, 0, 193]",193,a,0.8578496974660084,colour,0.5
20,26,0,1,8,38,388,1222.919818941271,1223.774266600376,"[87, 0, 167]",167,l,0.331144995871,colour,0.5
20,26,0,1,8,39,389,1225.7949801225914,1226.942170467344,"[18, 0, 236]",236,a,0.62380615551956,colour,0.5
20,26,0,1,8,40,390,1228.9517153156921,1230.0941799069988,"[4, 0, 250]",250,a,0.6173628412652761,colour,0.5
20,26,0,1,8,41,391,1232.1106517120497,1233.222176579875,"[17, 0, 237]",237,a,0.5881335893645883,colour,0.5
20,26,0,1,8,42,392,1235.2359139147447,1237.0701844693394,"[58, 0, 196]",196,l,1.3109088144265115,colour,0.5
20,26,0,1,8,43,393,1239.0800054034917,1239.990182216512,"[84, 0, 170]",170,l,0.3876567209372297,colour,0.5
20,26,0,1,8,44,394,1242.0020755663281,1242.8701999081532,"[76, 0, 178]",178,l,0.34479529096279293,colour,0.5
20,26,0,1,8,45,395,1244.8773730181856,1245.9183530479204,"[57, 0, 197]",197,l,0.517653341870755,colour,0.5
20,26,0,1,8,46,396,1247.9275745489867,1249.006212520646,"[30, 0, 224]",224,a,0.5551899793790653,colour,0.5
20,26,0,1,8,47,397,1251.021588253323,1251.8541861455888,"[26, 0, 228]",228,a,0.3096103055868298,colour,0.5
20,26,0,1,8,48,398,1253.865536382189,1254.6781915081665,"[96, 0, 158]",158,l,0.28935797652229667,colour,0.5
20,26,0,1,8,49,399,1256.693829148193,1257.6062532442156,"[68, 0, 186]",186,l,0.38933804794214666,colour,0.5
20,26,0,1,8,50,400,1259.6159461785574,1260.478202220751,"[70, 0, 184]",184,l,0.3387044684495777,colour,0.5
20,26,0,1,9,1,401,1270.575358025264,1271.3021154234884,"[19, 0, 235]",235,a,0.20274226821493357,colour,0.5
20,26,0,1,9,2,402,1273.3106343040708,1274.0541518022073,"[70, 0, 184]",184,l,0.21994859527330846,colour,0.5
20,26,0,1,9,3,403,1276.0609401251422,1276.7742063419428,"[81, 0, 173]",173,l,0.18979026144370437,colour,0.5
20,26,0,1,9,4,404,1278.7799088326283,1279.3181130383164,"[7, 0, 247]",247,a,0.014872397878207266,colour,0.5
20,26,0,1,9,5,405,1281.327899314114,1281.9021057349164,"[88, 0, 166]",166,l,0.05081435455940664,colour,0.5
20,26,0,1,9,6,406,1283.9219118368346,1284.68615073408,"[50, 0, 204]",204,l,0.24098625243641436,colour,0.5
20,26,0,1,9,7,407,1286.7036130608758,1287.3661050952505,"[11, 0, 243]",243,a,0.13940401701256633,colour,0.5
20,26,0,1,9,8,408,1289.3755971683422,1290.0460945087252,"[9, 0, 245]",245,a,0.14748927357140929,colour,0.5
20,26,0,1,9,9,409,1292.063242940465,1292.7421429769602,"[76, 0, 178]",178,l,0.15558201330713928,colour,0.5
20,26,0,1,9,10,410,1294.7508969833143,1295.7182129175635,"[46, 0, 208]",208,a,0.44396876636892557,colour,0.5
20,26,0,1,9,11,411,1297.7237822883762,1299.1340973412152,"[38, 0, 216]",216,a,0.8869367712177336,colour,0.5
20,26,0,1,9,12,412,1301.145839454257,1302.0781665383838,"[74, 0, 180]",180,l,0.40894643939100206,colour,0.5
20,26,0,1,9,13,413,1304.0892970091663,1305.3020591036184,"[47, 0, 207]",207,a,0.6895275664282963,colour,0.5
20,26,0,1,9,14,414,1307.308329913416,1308.3581411432242,"[26, 0, 228]",228,a,0.5264845419442281,colour,0.5
20,26,0,1,9,15,415,1310.371076608426,1310.9900983273983,"[66, 0, 188]",188,l,0.09572772029787302,colour,0.5
20,26,0,1,9,16,416,1312.9842721692985,1313.8380640754476,"[79, 0, 175]",175,l,0.33087284851353616,colour,0.5
20,26,0,1,9,17,417,1315.854999830597,1316.8540865025716,"[8, 0, 246]",246,a,0.4757828271249309,colour,0.5
20,26,0,1,9,18,418,1318.870831242646,1319.9660926497309,"[15, 0, 239]",239,a,0.5719681961927563,colour,0.5
20,26,0,1,9,19,419,1321.98252664553,1323.1340843443759,"[48, 0, 206]",206,a,0.6283223831560463,colour,0.5
20,26,0,1,9,20,420,1325.1546312698629,1327.7180971270427,"[60, 0, 194]",194,l,2.0530510038370267,colour,0.5
20,26,0,1,9,21,421,1329.7362987019587,1330.462059276877,"[36, 0, 218]",218,a,0.20274226821493357,colour,0.5
20,26,0,1,9,22,422,1332.4585556263337,1333.4308533137664,"[91, 0, 163]",163,l,0.44903834722936153,colour,0.5
20,26,0,1,9,23,423,1335.4430885214824,1336.366081858403,"[96, 0, 158]",158,l,0.3998738118680194,colour,0.5
20,26,0,1,9,24,424,1338.368180661695,1339.0140890389448,"[30, 0, 224]",224,a,0.12253364024218172,colour,0.5
20,26,0,1,9,25,425,1341.024670095183,1341.7500072860857,"[22, 0, 232]",232,a,0.20195733394939452,colour,0.5
20,26,0,1,9,26,426,1343.7593437901232,1344.8860234431922,"[56, 0, 198]",198,a,0.6034431558800861,colour,0.5
20,26,0,1,9,27,427,1346.8955639592605,1347.5660805980442,"[83, 0, 171]",171,l,0.14712614787276834,colour,0.5
20,26,0,1,9,28,428,1349.5833716019988,1350.310053775669,"[0, 0, 254]",254,a,0.20330664899665862,colour,0.5
20,26,0,1,9,29,429,1352.308555193129,1353.414037681534,"[54, 0, 200]",200,a,0.5821715544443578,colour,0.5
20,26,0,1,9,30,430,1355.4337386266561,1356.198017696268,"[89, 0, 165]",165,l,0.24139270116575062,colour,0.5
20,26,0,1,9,31,431,1358.2075003170175,1359.3742061057128,"[59, 0, 195]",195,a,0.643441328429617,colour,0.5
20,26,0,1,9,32,432,1361.3952425812604,1362.310078587965,"[71, 0, 183]",183,l,0.3916428325464949,colour,0.5
20,26,0,1,9,33,433,1364.3081341721117,1364.9340158939594,"[31, 0, 223]",223,a,0.10257000010460615,colour,0.5
20,26,0,1,9,34,434,1366.9365270535927,1367.990005379892,"[42, 0, 212]",212,a,0.5301508507691324,colour,0.5
20,26,0,1,9,35,435,1369.9993678777246,1371.7580003828043,"[61, 0, 193]",193,l,1.235469656996429,colour,0.5
20,26,0,1,9,36,436,1373.7651707360055,1374.52600759489,"[39, 0, 215]",215,a,0.23749362956732512,colour,0.5
20,26,0,1,9,37,437,1376.523463352234,1377.302012235974,"[1, 0, 253]",253,a,0.2551260975887999,colour,0.5
20,26,0,1,9,38,438,1379.3206911517773,1380.0459602073533,"[4, 0, 250]",250,a,0.20190889085642993,colour,0.5
20,26,0,1,9,39,439,1382.0553593328223,1383.6780579944607,"[84, 0, 170]",170,l,1.0994779182365164,colour,0.5
20,26,0,1,9,40,440,1385.6856812702026,1386.9979638181394,"[64, 0, 190]",190,l,0.7889141124906018,colour,0.5
20,26,0,1,9,41,441,1389.0168408382451,1389.8619917717297,"[37, 0, 217]",217,a,0.32176398718729615,colour,0.5
20,26,0,1,9,42,442,1391.876483320957,1393.3419722054387,"[65, 0, 189]",189,l,0.9422078826464713,colour,0.5
20,26,0,1,9,43,443,1395.3613761910237,1397.48597791465,"[94, 0, 160]",160,l,1.6012840941548347,colour,0.5
20,26,0,1,9,44,444,1399.5021964769112,1400.2299810245167,"[18, 0, 236]",236,a,0.20440429670270532,colour,0.5
20,26,0,1,9,45,445,1402.2244612781797,1403.093974713469,"[43, 0, 211]",211,a,0.34612097521312535,colour,0.5
20,26,0,1,9,46,446,1405.1003368954407,1405.9659957637778,"[35, 0, 219]",219,a,0.3423932264558971,colour,0.5
20,26,0,1,9,47,447,1407.9755587290274,1409.349929462187,"[62, 0, 192]",192,l,0.8513315526070073,colour,0.5
20,26,0,1,9,48,448,1411.3664694024483,1412.5899578820681,"[99, 0, 155]",155,l,0.7001582471420988,colour,0.5
20,26,0,1,9,49,449,1414.6011021374725,1415.4619513631333,"[6, 0, 248]",248,a,0.3375351408030838,colour,0.5
20,26,0,1,9,50,450,1417.4763346049003,1418.949961127364,"[57, 0, 197]",197,l,0.9502966838190332,colour,0.5
20,26,0,1,10,1,451,1445.3929102275288,1447.917906033108,"[27, 0, 227]",227,a,2.000727432779968,colour,0.5
20,26,0,1,10,2,452,1449.9253812228562,1450.8059022490634,"[58, 0, 196]",196,l,0.35723844915628433,colour,0.5
20,26,0,1,10,3,453,1452.817499820725,1453.6778559517115,"[79, 0, 175]",175,l,0.33698927087243646,colour,0.5
20,26,0,1,10,4,454,1455.6926869958406,1456.5339002609253,"[91, 0, 163]",163,l,0.3178853956051171,colour,0.5
20,26,0,1,10,5,455,1458.5523345986148,1459.8458582800813,"[12, 0, 242]",242,a,0.770210778224282,colour,0.5
20,26,0,1,10,6,456,1461.865040136734,1462.7338804898318,"[72, 0, 182]",182,l,0.3454628591425717,colour,0.5
20,26,0,1,10,7,457,1464.7406782651087,1465.8458748216508,"[53, 0, 201]",201,a,0.5825382246403024,colour,0.5
20,26,0,1,10,8,458,1467.865880209487,1469.429900601157,"[56, 0, 198]",198,a,1.0406141470884904,colour,0.5
20,26,0,1,10,9,459,1471.4447009253781,1472.2858488120837,"[84, 0, 170]",170,l,0.31782356195617467,colour,0.5
20,26,0,1,10,10,460,1474.3042055621045,1475.8378679404268,"[59, 0, 195]",195,a,1.0102774013066664,colour,0.5
20,26,0,1,10,11,461,1477.8513398233335,1478.9818728618557,"[37, 0, 217]",217,a,0.6072303752880543,colour,0.5
20,26,0,1,10,12,462,1480.99457989668,1482.157858440769,"[0, 0, 254]",254,a,0.6399475239450112,colour,0.5
20,26,0,1,10,13,463,1484.1666734932223,1485.061866056174,"[16, 0, 238]",238,a,0.3718895057681948,colour,0.5
20,26,0,1,10,14,464,1487.0761658026604,1488.0218304683222,"[24, 0, 230]",230,a,0.42229071632027626,colour,0.5
20,26,0,1,10,15,465,1490.0293442548718,1491.3978230577195,"[61, 0, 193]",193,l,0.8453411608934402,colour,0.5
20,26,0,1,10,16,466,1493.404975294019,1494.6298091502395,"[5, 0, 249]",249,a,0.7015426144935191,colour,0.5
20,26,0,1,10,17,467,1496.6396336290054,1497.4700421335874,"[89, 0, 165]",165,l,0.30729094869457185,colour,0.5
20,26,0,1,10,18,468,1499.4835868779337,1500.7498233602382,"[6, 0, 248]",248,a,0.7432555909035727,colour,0.5
20,26,0,1,10,19,469,1502.765169160557,1503.9818106342573,"[13, 0, 241]",241,a,0.6933998564491048,colour,0.5
20,26,0,1,10,20,470,1505.9997298218077,1506.9578104703687,"[17, 0, 237]",237,a,0.4347854682710022,colour,0.5
20,26,0,1,10,21,471,1508.9686648554634,1511.149812174961,"[47, 0, 207]",207,l,1.6577670687111095,colour,0.5
20,26,0,1,10,22,472,1513.156476436532,1514.8058081199415,"[48, 0, 206]",206,l,1.1261030631139874,colour,0.5
20,26,0,1,10,23,473,1516.8130863868864,1517.7097739877645,"[90, 0, 164]",164,l,0.3733687900239602,colour,0.5
20,26,0,1,10,24,474,1519.7195811372949,1521.2377898014383,"[33, 0, 221]",221,a,0.9952919696224853,colour,0.5
20,26,0,1,10,25,475,1523.2511037522927,1524.5737861874513,"[45, 0, 209]",209,a,0.7993722888641059,colour,0.5
20,26,0,1,10,26,476,1526.595200754935,1527.9338099127635,"[75, 0, 179]",179,l,0.8153797498671338,colour,0.5
20,26,0,1,10,27,477,1529.9546522224555,1530.7977819402004,"[85, 0, 169]",169,l,0.31978727609384805,colour,0.5
20,26,0,1,10,28,478,1532.8142801328795,1533.869883650099,"[65, 0, 189]",189,l,0.5321941217407584,colour,0.5
20,26,0,1,10,29,479,1535.8770540033001,1537.6780264868867,"[18, 0, 236]",236,a,1.2774965282296762,colour,0.5
20,26,0,1,10,30,480,1539.6908871214837,1542.3737858723616,"[55, 0, 199]",199,a,2.159427521750331,colour,0.5
20,26,0,1,10,31,481,1544.3846162328264,1545.3577772298595,"[67, 0, 187]",187,l,0.45021712710149586,colour,0.5
20,26,0,1,10,32,482,1547.3691798479995,1548.3497597147943,"[83, 0, 171]",171,l,0.45705783157609403,colour,0.5
20,26,0,1,10,33,483,1550.3574278887827,1551.1738020988414,"[93, 0, 161]",161,l,0.2929498484591022,colour,0.5
20,26,0,1,10,34,484,1553.1769142668927,1554.373742549331,"[10, 0, 244]",244,a,0.6717556770890951,colour,0.5
20,26,0,1,10,35,485,1556.3819947964512,1557.6057526664808,"[44, 0, 210]",210,a,0.7007202648092061,colour,0.5
20,26,0,1,10,36,486,1559.6167370205512,1560.6297571626492,"[92, 0, 162]",162,l,0.48979191563557833,colour,0.5
20,26,0,1,10,37,487,1562.6481509341393,1563.781727611553,"[54, 0, 200]",200,a,0.6111483513377607,colour,0.5
20,26,0,1,10,38,488,1565.7797729558079,1566.9577277628705,"[8, 0, 246]",246,a,0.6549057803349569,colour,0.5
20,26,0,1,10,39,489,1568.965391998412,1570.253735034843,"[51, 0, 203]",203,a,0.765114416135475,colour,0.5
20,26,0,1,10,40,490,1572.2624965242576,1573.53371791041,"[66, 0, 188]",188,l,0.7478627967648208,colour,0.5
20,26,0,1,10,41,491,1575.5441063761245,1576.389760644175,"[14, 0, 240]",240,a,0.32236578327137977,colour,0.5
20,26,0,1,10,42,492,1578.3981586141745,1579.4537038422422,"[42, 0, 212]",212,a,0.5322524108923972,colour,0.5
20,26,0,1,10,43,493,1581.4608690753812,1582.2777371678967,"[52, 0, 202]",202,a,0.2935043831821531,colour,0.5
20,26,0,1,10,44,494,1584.2892988995882,1585.109726568684,"[81, 0, 173]",173,l,0.2972352826036513,colour,0.5
20,26,0,1,10,45,495,1587.1176735854242,1588.3497093025362,"[1, 0, 253]",253,a,0.7087350230431184,colour,0.5
20,26,0,1,10,46,496,1590.3679498680867,1591.0296947774477,"[46, 0, 208]",208,a,0.13849502138327807,colour,0.5
20,26,0,1,10,47,497,1593.0400147140026,1593.789722677553,"[80, 0, 174]",174,l,0.22655693080741912,colour,0.5
20,26,0,1,10,48,498,1595.7996629468398,1596.4936772024957,"[49, 0, 205]",205,a,0.1706946570193395,colour,0.5
20,26,0,1,10,49,499,1598.5030318234349,1599.261767909862,"[35, 0, 219]",219,a,0.2354121555108577,colour,0.5
20,26,0,1,10,50,500,1601.268861069344,1602.125668257475,"[41, 0, 213]",213,a,0.3335344571387395,colour,0.5
20,26,0,1,11,1,501,1609.7718609913718,1611.2696719974047,"[16, 0, 238]",238,a,0.9738537713419646,colour,0.5
20,26,0,1,11,2,502,1613.2885840698145,1614.2456438705558,"[87, 0, 167]",167,l,0.43386190035380423,colour,0.5
20,26,0,1,11,3,503,1616.2577022416517,1617.2537003763719,"[44, 0, 210]",210,a,0.4725588069995865,colour,0.5
20,26,0,1,11,4,504,1619.2679839751218,1620.205689021037,"[37, 0, 217]",217,a,0.4143346411874518,colour,0.5
20,26,0,1,11,5,505,1622.208996536443,1623.5016529699787,"[56, 0, 198]",198,a,0.7692627919605002,colour,0.5
20,26,0,1,11,6,506,1625.5216855331091,1626.9416596496012,"[36, 0, 218]",218,a,0.9016835324000567,colour,0.5
20,26,0,1,11,7,507,1628.9545876317425,1629.7496800003573,"[69, 0, 185]",185,l,0.2715923886280507,colour,0.5
20,26,0,1,11,8,508,1631.7673825728707,1632.621625038446,"[80, 0, 174]",174,l,0.3308854515198618,colour,0.5
20,26,0,1,11,9,509,1634.642622129526,1635.4936547533143,"[71, 0, 183]",183,l,0.32767915446311235,colour,0.5
20,26,0,1,11,10,510,1637.5021771785105,1638.6055990667082,"[25, 0, 229]",229,a,0.5800140681676567,colour,0.5
20,26,0,1,11,11,511,1640.627422445803,1642.133659778745,"[98, 0, 156]",156,l,0.9828692912124097,colour,0.5
20,26,0,1,11,12,512,1644.1434523561038,1645.2216854543658,"[21, 0, 233]",233,a,0.5548882936127484,colour,0.5
20,26,0,1,11,13,513,1647.2318285541842,1648.5496592053678,"[40, 0, 214]",214,a,0.7948592120083049,colour,0.5
20,26,0,1,11,14,514,1650.5601599169895,1651.9095836814959,"[45, 0, 209]",209,a,0.82672801730223,colour,0.5
20,26,0,1,11,15,515,1653.919835482724,1655.1896346923895,"[11, 0, 243]",243,a,0.7464737033005804,colour,0.5
20,26,0,1,11,16,516,1657.2012913409853,1658.3016231164802,"[14, 0, 240]",240,a,0.5770807060180232,colour,0.5
20,26,0,1,11,17,517,1660.3109848266467,1661.229606871144,"[95, 0, 159]",159,l,0.3952673935564235,colour,0.5
20,26,0,1,11,18,518,1663.248691054061,1664.549621002283,"[17, 0, 237]",237,a,0.7776540664490312,colour,0.5
20,26,0,1,11,19,519,1666.561545859673,1668.5577074404573,"[63, 0, 191]",191,a,1.4735123072750866,colour,0.5
20,26,0,1,11,20,520,1670.5680592784192,1672.2296056896448,"[50, 0, 204]",204,a,1.138201212626882,colour,0.5
20,26,0,1,11,21,521,1674.2289436351275,1676.5896333532874,"[28, 0, 226]",226,a,1.8369317693868652,colour,0.5
20,26,0,1,11,22,522,1678.6011797251413,1680.701604842092,"[12, 0, 242]",242,a,1.5771386014530435,colour,0.5
20,26,0,1,11,23,523,1682.711512028356,1685.341602384462,"[76, 0, 178]",178,l,2.1067514590686187,colour,0.5
20,26,0,1,11,24,524,1687.3524386525387,1688.3416886366904,"[91, 0, 163]",163,l,0.4658937578788027,colour,0.5
20,26,0,1,11,25,525,1690.352675353759,1691.349522619741,"[15, 0, 239]",239,a,0.47357926110271364,colour,0.5
20,26,0,1,11,26,526,1693.3704669354483,1694.4695679434808,"[7, 0, 247]",247,a,0.5757829848444089,colour,0.5
20,26,0,1,11,27,527,1696.4801521503832,1697.7495275822002,"[88, 0, 166]",166,l,0.7461956483311951,colour,0.5
20,26,0,1,11,28,528,1699.7492577979574,1701.1255753099686,"[61, 0, 193]",193,l,0.8529979134909809,colour,0.5
20,26,0,1,11,29,529,1703.1425283942372,1704.2375542817172,"[96, 0, 158]",158,l,0.5724073339952156,colour,0.5
20,26,0,1,11,30,530,1706.2521033324301,1708.1175353456056,"[65, 0, 189]",189,l,1.342081300681457,colour,0.5
20,26,0,1,11,31,531,1710.1274504088797,1713.125548922224,"[0, 0, 254]",254,a,2.4746146810939535,colour,0.5
20,26,0,1,11,32,532,1715.143574054353,1717.3975450027501,"[85, 0, 169]",169,l,1.7305580084212124,colour,0.5
20,26,0,1,11,33,533,1719.4095316939056,1721.1415209372062,"[48, 0, 206]",206,a,1.2086578293237835,colour,0.5
20,26,0,1,11,34,534,1723.1598386965925,1723.9255336410133,"[19, 0, 235]",235,a,0.24234462587628514,colour,0.5
20,26,0,1,11,35,535,1725.9412185425172,1727.0536000245484,"[68, 0, 186]",186,l,0.5890228926436976,colour,0.5
20,26,0,1,11,36,536,1729.0665780251147,1730.1495644460665,"[6, 0, 248]",248,a,0.5596431916346774,colour,0.5
20,26,0,1,11,37,537,1732.1605302894022,1733.4455343027366,"[39, 0, 215]",215,a,0.7541706281481311,colour,0.5
20,26,0,1,11,38,538,1735.4652789647225,1736.3175407806411,"[89, 0, 165]",165,l,0.32977441302500665,colour,0.5
20,26,0,1,11,39,539,1738.3248009306844,1739.421502237441,"[34, 0, 220]",220,a,0.5734128219773993,colour,0.5
20,26,0,1,11,40,540,1741.4345381332096,1742.6214572602184,"[57, 0, 197]",197,a,0.6636436390690506,colour,0.5
20,26,0,1,11,41,541,1744.6384725722019,1746.0294722546823,"[31, 0, 223]",223,a,0.8668092912994325,colour,0.5
20,26,0,1,11,42,542,1748.046113413293,1752.0054807554698,"[55, 0, 199]",199,a,3.435879965312779,colour,0.5
20,26,0,1,11,43,543,1754.0153528895462,1755.0535074707586,"[84, 0, 170]",170,l,0.5148401025217026,colour,0.5
20,26,0,1,11,44,544,1757.0624091692735,1757.973503642599,"[72, 0, 182]",182,l,0.38770949630998075,colour,0.5
20,26,0,1,11,45,545,1759.9845825196244,1760.9814916192554,"[23, 0, 231]",231,a,0.4735442086821422,colour,0.5
20,26,0,1,11,46,546,1763.000481279334,1763.8854622131912,"[92, 0, 162]",162,l,0.3616298276465386,colour,0.5
20,26,0,1,11,47,547,1765.906887808349,1766.9255446686875,"[93, 0, 161]",161,l,0.4953368678689003,colour,0.5
20,26,0,1,11,48,548,1768.9384797401726,1769.8774214612786,"[41, 0, 213]",213,a,0.41573239932768047,colour,0.5
20,26,0,1,11,49,549,1771.8987702564336,1772.6694225356914,"[94, 0, 160]",160,l,0.24734567757695913,colour,0.5
20,26,0,1,11,50,550,1774.6802682561101,1776.0454493896104,"[9, 0, 245]",245,a,0.8418375103501603,colour,0.5
20,26,0,1,12,1,551,1786.1178035545163,1787.0854097530246,"[20, 0, 234]",234,a,0.44342092727310956,colour,0.5
20,26,0,1,12,2,552,1789.1032820729306,1790.0054496417288,"[7, 0, 247]",247,a,0.37874635797925293,colour,0.5
20,26,0,1,12,3,553,1792.0204590979265,1793.1414378357586,"[75, 0, 179]",179,l,0.5976536254165694,colour,0.5
20,26,0,1,12,4,554,1795.1613967497833,1796.3254322651774,"[86, 0, 168]",168,l,0.6407159167574719,colour,0.5
20,26,0,1,12,5,555,1798.3335667524952,1799.525406586472,"[77, 0, 177]",177,l,0.6686328751966357,colour,0.5
20,26,0,1,12,6,556,1801.52695991355,1802.693390404107,"[5, 0, 249]",249,a,0.6431167996488512,colour,0.5
20,26,0,1,12,7,557,1804.7159758745693,1806.1013652264373,"[89, 0, 165]",165,l,0.8623753774445504,colour,0.5
20,26,0,1,12,8,558,1808.1106572258286,1809.245409138617,"[30, 0, 224]",224,a,0.6099451531190425,colour,0.5
20,26,0,1,12,9,559,1811.2529658543644,1812.3653686039615,"[43, 0, 211]",211,a,0.589032738818787,colour,0.5
20,26,0,1,12,10,560,1814.378261533915,1815.3813709450187,"[2, 0, 252]",252,a,0.47742910182569176,colour,0.5
20,26,0,1,12,11,561,1817.3969156374224,1818.6293790708296,"[80, 0, 174]",174,l,0.7091556501109153,colour,0.5
20,26,0,1,12,12,562,1820.6420644441387,1821.9014058712637,"[69, 0, 185]",185,l,0.7360860253684223,colour,0.5
20,26,0,1,12,13,563,1823.907937012962,1824.9093887279741,"[96, 0, 158]",158,l,0.47811478713992983,colour,0.5
20,26,0,1,12,14,564,1826.912333905464,1828.4933743352303,"[44, 0, 210]",210,a,1.0580311815720052,colour,0.5
20,26,0,1,12,15,565,1830.5063318558969,1832.1413767896593,"[58, 0, 196]",196,a,1.1119636117946357,colour,0.5
20,26,0,1,12,16,566,1834.1628094740445,1835.501369007281,"[81, 0, 173]",173,l,0.8151068148436025,colour,0.5
20,26,0,1,12,17,567,1837.5225480550434,1838.477385384962,"[72, 0, 182]",182,l,0.4316563649335876,colour,0.5
20,26,0,1,12,18,568,1840.491544134682,1842.1813509376952,"[85, 0, 169]",169,l,1.1665395857999101,colour,0.5
20,26,0,1,12,19,569,1844.1891880715266,1845.2373861096567,"[19, 0, 235]",235,a,0.5249520887155086,colour,0.5
20,26,0,1,12,20,570,1847.2519335850375,1848.4055676377611,"[40, 0, 214]",214,a,0.630376681801863,colour,0.5
20,26,0,1,12,21,571,1850.4240193046862,1851.5893868060084,"[52, 0, 202]",202,a,0.642021908890456,colour,0.5
20,26,0,1,12,22,572,1853.5961621319875,1854.9013956312556,"[36, 0, 218]",218,a,0.7825873766560107,colour,0.5
20,26,0,1,12,23,573,1856.9088991777971,1857.9813392010983,"[84, 0, 170]",170,l,0.5489573725499213,colour,0.5
20,26,0,1,12,24,574,1860.0029538420495,1861.4213525761152,"[68, 0, 186]",186,l,0.89509331388399,colour,0.5
20,26,0,1,12,25,575,1863.440806580009,1864.7893843641505,"[37, 0, 217]",217,a,0.8260998335899785,colour,0.5
20,26,0,1,12,26,576,1866.8003494198201,1868.1173242443474,"[49, 0, 205]",205,a,0.7936351398238912,colour,0.5
20,26,0,1,12,27,577,1870.1297878825571,1871.4293145589763,"[87, 0, 167]",167,l,0.776226376183331,colour,0.5
20,26,0,1,12,28,578,1873.4425166576402,1874.5253152142977,"[15, 0, 239]",239,a,0.5594927426427603,colour,0.5
20,26,0,1,12,29,579,1876.5365469034296,1878.5333461201517,"[13, 0, 241]",241,a,1.473469378077425,colour,0.5
20,26,0,1,12,30,580,1880.5513551045442,1881.7412737596314,"[88, 0, 166]",166,l,0.6668660837458447,colour,0.5
20,26,0,1,12,31,581,1883.7547306765337,1884.5732954558916,"[82, 0, 172]",172,l,0.29533261444885284,colour,0.5
20,26,0,1,12,32,582,1886.5830179286422,1887.7813105290988,"[51, 0, 203]",203,a,0.6749714264879003,colour,0.5
20,26,0,1,12,33,583,1889.802027989761,1891.29333069711,"[48, 0, 206]",206,l,0.9679476625751704,colour,0.5
20,26,0,1,12,34,584,1893.3156475648284,1894.581325573963,"[55, 0, 199]",199,a,0.743007468059659,colour,0.5
20,26,0,1,12,35,585,1896.597090032301,1897.1332970469957,"[45, 0, 209]",209,a,0.012955551384948194,colour,0.5
20,26,0,1,12,36,586,1899.1441624596482,1899.9013152867556,"[9, 0, 245]",245,a,0.2338036900619045,colour,0.5
20,26,0,1,12,37,587,1901.9094166909344,1902.7574966542888,"[10, 0, 244]",244,a,0.3248210168676451,colour,0.5
20,26,0,1,12,38,588,1904.7689674076391,1907.4052982474677,"[56, 0, 198]",198,l,2.112995487404987,colour,0.5
20,26,0,1,12,39,589,1909.425376496627,1910.3412731295684,"[94, 0, 160]",160,l,0.3922336009563878,colour,0.5
20,26,0,1,12,40,590,1912.347629797645,1913.3892770018429,"[24, 0, 230]",230,a,0.5184193715685979,colour,0.5
20,26,0,1,12,41,591,1915.41043438809,1916.4292854144005,"[11, 0, 243]",243,a,0.49545384012162685,colour,0.5
20,26,0,1,12,42,592,1918.4362883832073,1919.2614138426725,"[21, 0, 233]",233,a,0.3019484330434352,colour,0.5
20,26,0,1,12,43,593,1921.280289287446,1922.1892554190708,"[31, 0, 223]",223,a,0.38652480870950967,colour,0.5
20,26,0,1,12,44,594,1924.1948945005424,1925.069214821444,"[17, 0, 237]",237,a,0.35085893783252686,colour,0.5
20,26,0,1,12,45,595,1927.0857464909786,1927.9572169451276,"[41, 0, 213]",213,a,0.34807838790584356,colour,0.5
20,26,0,1,12,46,596,1929.967945299577,1931.2292780100834,"[64, 0, 190]",190,l,0.7379536412190646,colour,0.5
20,26,0,1,12,47,597,1933.2501116552157,1934.5332500218647,"[33, 0, 221]",221,a,0.7598609095439315,colour,0.5
20,26,0,1,12,48,598,1936.5347738105338,1937.4612388964742,"[92, 0, 162]",162,l,0.4033321702154353,colour,0.5
20,26,0,1,12,49,599,1939.4601274641464,1940.4852311833529,"[98, 0, 156]",156,l,0.49493396386969835,colour,0.5
20,26,0,1,12,50,600,1942.4992812316632,1943.5332594740903,"[99, 0, 155]",155,l,0.5106578560080379,colour,0.5
20,26,0,1,13,1,601,1954.0043535693549,1955.2772964546457,"[72, 0, 182]",182,l,0.7488714354112744,colour,0.5
20,26,0,1,13,2,602,1957.2894840070512,1958.6051882856991,"[76, 0, 178]",178,l,0.7926745504373685,colour,0.5
20,26,0,1,13,3,603,1960.6179055605317,1961.6611947070342,"[15, 0, 239]",239,a,0.5199833324877545,colour,0.5
20,26,0,1,13,4,604,1963.6712602193002,1965.1011911466485,"[85, 0, 169]",169,l,0.9065770641900599,colour,0.5
20,26,0,1,13,5,605,1967.0972790782107,1968.0931964745978,"[83, 0, 171]",171,l,0.4727135883877054,colour,0.5
20,26,0,1,13,6,606,1970.113042354933,1971.7651589205489,"[90, 0, 164]",164,l,1.1286071334034204,colour,0.5
20,26,0,1,13,7,607,1973.7779939551838,1974.8611788743874,"[11, 0, 243]",243,a,0.5599255788838491,colour,0.5
20,26,0,1,13,8,608,1976.8719399180263,1978.1411719899625,"[68, 0, 186]",186,l,0.7460420485585928,colour,0.5
20,26,0,1,13,9,609,1980.153369782376,1981.3891257650685,"[97, 0, 157]",157,l,0.7123820333508775,colour,0.5
20,26,0,1,13,10,610,1983.4040190369124,1984.8372003720142,"[91, 0, 163]",163,l,0.9102492806268856,colour,0.5
20,26,0,1,13,11,611,1986.857329033548,1988.5091817226494,"[31, 0, 223]",223,a,1.1284653490874916,colour,0.5
20,26,0,1,13,12,612,1990.5294683162356,1991.4211367486278,"[10, 0, 244]",244,a,0.36817829858046025,colour,0.5
20,26,0,1,13,13,613,1993.436697982601,1994.8774313073372,"[23, 0, 231]",231,a,0.9173487415537238,colour,0.5
20,26,0,1,13,14,614,1996.8901143175317,1999.1571766940178,"[98, 0, 156]",156,l,1.7485957434400916,colour,0.5
20,26,0,1,13,15,615,2001.1668034623144,2002.2931333804736,"[96, 0, 158]",158,l,0.603048522491008,colour,0.5
20,26,0,1,13,16,616,2004.3077166958246,2006.5972144874977,"[35, 0, 219]",219,a,1.7662207284010947,colour,0.5
20,26,0,1,13,17,617,2008.5924284756184,2010.757307608379,"[54, 0, 200]",200,a,1.6413811220554635,colour,0.5
20,26,0,1,13,18,618,2012.7647300227545,2013.8691046234453,"[40, 0, 214]",214,a,0.5810416113818064,colour,0.5
20,26,0,1,13,19,619,2015.8899552039802,2019.517111016321,"[17, 0, 237]",237,a,3.103946096613072,colour,0.5
20,26,0,1,13,20,620,2021.5186765526887,2024.605107941199,"[66, 0, 188]",188,l,2.5631881959270686,colour,0.5
20,26,0,1,13,21,621,2026.612737912219,2030.501298508956,"[43, 0, 211]",211,a,3.3650428937980905,colour,0.5
20,26,0,1,13,22,622,2032.5091399750672,2033.5892241477268,"[6, 0, 248]",248,a,0.5565495343180373,colour,0.5
20,26,0,1,13,23,623,2035.6029240672942,2037.141115276143,"[78, 0, 176]",176,l,1.0260048379423097,colour,0.5
20,26,0,1,13,24,624,2039.1572219863301,2040.3730745872017,"[64, 0, 190]",190,l,0.6925070084398612,colour,0.5
20,26,0,1,13,25,625,2042.3918696874753,2043.5730693885125,"[44, 0, 210]",210,a,0.6580971113871783,colour,0.5
20,26,0,1,13,26,626,2045.5795071888715,2046.309041986242,"[30, 0, 224]",224,a,0.2060308790532872,colour,0.5
20,26,0,1,13,27,627,2048.329809465329,2050.1812532639597,"[79, 0, 175]",175,l,1.3282254183432087,colour,0.5
20,26,0,1,13,28,628,2052.189476760337,2053.4370272374945,"[70, 0, 184]",184,l,0.7375452233245596,colour,0.5
20,26,0,1,13,29,629,2055.4520540229278,2057.0210608940106,"[38, 0, 216]",216,a,1.0458597767865285,colour,0.5
20,26,0,1,13,30,630,2059.0303694349714,2060.485079946695,"[75, 0, 179]",179,l,0.931347590056248,colour,0.5
20,26,0,1,13,31,631,2062.4999165047193,2063.6291423696093,"[94, 0, 160]",160,l,0.6061362721957266,colour,0.5
20,26,0,1,13,32,632,2065.640884876484,2066.685047966428,"[92, 0, 162]",162,l,0.5208072575042024,colour,0.5
20,26,0,1,13,33,633,2068.7035665870644,2069.7810427141376,"[12, 0, 242]",242,a,0.554128565476276,colour,0.5
20,26,0,1,13,34,634,2071.7975909251254,2072.7890637738165,"[7, 0, 247]",247,a,0.46813434548676014,colour,0.5
20,26,0,1,13,35,635,2074.7978221124504,2076.0930539024994,"[49, 0, 205]",205,a,0.771941335988231,colour,0.5
20,26,0,1,13,36,636,2078.1105402536923,2079.045051605557,"[95, 0, 159]",159,l,0.41109486715868115,colour,0.5
20,26,0,1,13,37,637,2081.063879001187,2082.829050918692,"[87, 0, 167]",167,l,1.2418885527877137,colour,0.5
20,26,0,1,13,38,638,2084.835689974134,2085.885023863055,"[69, 0, 185]",185,l,0.5261029055109248,colour,0.5
20,26,0,1,13,39,639,2087.9013097728603,2089.100989103783,"[45, 0, 209]",209,a,0.6764069937635213,colour,0.5
20,26,0,1,13,40,640,2091.1077541898703,2092.389093469712,"[65, 0, 189]",189,l,0.7691328228684142,colour,0.5
20,26,0,1,13,41,641,2094.409408814041,2095.244962911471,"[20, 0, 234]",234,a,0.3121844803681597,colour,0.5
20,26,0,1,13,42,642,2097.253375453758,2098.1250459813746,"[26, 0, 228]",228,a,0.3483674705494195,colour,0.5
20,26,0,1,13,43,643,2100.1443794686347,2100.941052339622,"[9, 0, 245]",245,a,0.2734434630256146,colour,0.5
20,26,0,1,13,44,644,2102.956970397732,2103.580994349788,"[77, 0, 177]",177,l,0.10071065498050302,colour,0.5
20,26,0,1,13,45,645,2105.597752086702,2106.348977931193,"[36, 0, 218]",218,a,0.22784756287001073,colour,0.5
20,26,0,1,13,46,646,2108.363605357241,2108.980993010802,"[99, 0, 155]",155,l,0.0941255564102903,colour,0.5
20,26,0,1,13,47,647,2110.989295670064,2111.860955563956,"[0, 0, 254]",254,a,0.348438756656833,colour,0.5
20,26,0,1,13,48,648,2113.880108276033,2114.540984755731,"[14, 0, 240]",240,a,0.1375537303974852,colour,0.5
20,26,0,1,13,49,649,2116.5460960840574,2117.396944781998,"[21, 0, 233]",233,a,0.32733769027981907,colour,0.5
20,26,0,1,13,50,650,2119.4057393545518,2120.0449578702683,"[39, 0, 215]",215,a,0.11582487414125353,colour,0.5
20,26,0,1,14,1,651,2129.3745215759845,2131.468940153485,"[53, 0, 201]",201,l,1.5704534659162164,colour,0.5
20,26,0,1,14,2,652,2133.485026383656,2134.436939803767,"[75, 0, 179]",179,l,0.4285331692080945,colour,0.5
20,26,0,1,14,3,653,2136.455536405905,2137.725054409704,"[52, 0, 202]",202,a,0.750621291459538,colour,0.5
20,26,0,1,14,4,654,2139.7326765038306,2140.996935487259,"[92, 0, 162]",162,l,0.7409122094977647,colour,0.5
20,26,0,1,14,5,655,2143.015918451827,2144.012951612822,"[11, 0, 243]",243,a,0.4736560608725995,colour,0.5
20,26,0,1,14,6,656,2146.031791217625,2147.116914644954,"[67, 0, 187]",187,l,0.5617494779871777,colour,0.5
20,26,0,1,14,7,657,2149.125879752566,2150.0769381339196,"[3, 0, 251]",251,a,0.4259408775251359,colour,0.5
20,26,0,1,14,8,658,2152.0956706126453,2153.604935436859,"[71, 0, 183]",183,l,0.9859475885750726,colour,0.5
20,26,0,1,14,9,659,2155.6116560183,2156.6369377558585,"[27, 0, 227]",227,a,0.501891246647574,colour,0.5
20,26,0,1,14,10,660,2158.658668187447,2159.9169493821682,"[70, 0, 184]",184,l,0.7349663223139942,colour,0.5
20,26,0,1,14,11,661,2161.9118321461137,2162.932891070959,"[89, 0, 165]",165,a,0.49766370782162994,colour,0.5
20,26,0,1,14,12,662,2164.9446942299837,2166.0609196452424,"[30, 0, 224]",224,a,0.5928810043260455,colour,0.5
20,26,0,1,14,13,663,2168.0699284697184,2168.9889049752383,"[64, 0, 190]",190,l,0.39579632820095867,colour,0.5
20,26,0,1,14,14,664,2170.997220237623,2172.2289030690445,"[47, 0, 207]",207,a,0.7084876879816875,colour,0.5
20,26,0,1,14,15,665,2174.2444654845167,2175.2368894703686,"[24, 0, 230]",230,a,0.4691351072397083,colour,0.5
20,26,0,1,14,16,666,2177.2447210903047,2178.1088774375385,"[97, 0, 157]",157,l,0.35321019613184035,colour,0.5
20,26,0,1,14,17,667,2180.1232760392595,2181.292860051617,"[29, 0, 225]",225,a,0.6468654221389443,colour,0.5
20,26,0,1,14,18,668,2183.301893688389,2184.2929053439293,"[38, 0, 216]",216,a,0.4676727585028857,colour,0.5
20,26,0,1,14,19,669,2186.302144174231,2187.3248934843577,"[69, 0, 185]",185,l,0.4994903637561947,colour,0.5
20,26,0,1,14,20,670,2189.3335746293887,2190.196846005507,"[43, 0, 211]",211,a,0.33992932830005884,colour,0.5
20,26,0,1,14,21,671,2192.2088019767543,2193.2051864740206,"[44, 0, 210]",210,a,0.4644195936853066,colour,0.5
20,26,0,1,14,22,672,2195.2176650783513,2196.132882721373,"[86, 0, 168]",168,l,0.3919441243633628,colour,0.5
20,26,0,1,14,23,673,2198.129867439391,2200.3329373871675,"[91, 0, 163]",163,l,1.679010313237086,colour,0.5
20,26,0,1,14,24,674,2202.3499751483323,2203.4768615702633,"[98, 0, 156]",156,l,0.6054801252903417,colour,0.5
20,26,0,1,14,25,675,2205.488824236905,2206.3408572286135,"[20, 0, 234]",234,a,0.32883627293631434,colour,0.5
20,26,0,1,14,26,676,2208.348547851783,2209.172804094036,"[78, 0, 176]",176,l,0.31342115567531437,colour,0.5
20,26,0,1,14,27,677,2211.183996004751,2212.100874100928,"[32, 0, 222]",222,a,0.3933741777436808,colour,0.5
20,26,0,1,14,28,678,2214.121929874993,2214.964865426882,"[84, 0, 170]",170,l,0.32046429673209786,colour,0.5
20,26,0,1,14,29,679,2216.9814447517274,2217.7168427287834,"[95, 0, 159]",159,l,0.21201812010258436,colour,0.5
20,26,0,1,14,30,680,2219.7336032225285,2220.980822475627,"[25, 0, 229]",229,a,0.7239205283112824,colour,0.5
20,26,0,1,14,31,681,2223.000085070613,2224.0287972033257,"[94, 0, 160]",160,l,0.5053889894625172,colour,0.5
20,26,0,1,14,32,682,2226.0471724641975,2227.1248333047843,"[58, 0, 196]",196,a,0.5544042573310435,colour,0.5
20,26,0,1,14,33,683,2229.1412121622125,2230.204792234581,"[5, 0, 249]",249,a,0.5402033660793677,colour,0.5
20,26,0,1,14,34,684,2232.2195886203554,2233.284775188891,"[82, 0, 172]",172,l,0.5423907845979556,colour,0.5
20,26,0,1,14,35,685,2235.298024942982,2236.500939321704,"[55, 0, 199]",199,a,0.67956209089607,colour,0.5
20,26,0,1,14,36,686,2238.516797909164,2239.364834155538,"[19, 0, 235]",235,a,0.3351929410127923,colour,0.5
20,26,0,1,14,37,687,2241.3821507593384,2242.213319779723,"[49, 0, 205]",205,a,0.3080061723012477,colour,0.5
20,26,0,1,14,38,688,2244.2280748117482,2245.0928290166194,"[7, 0, 247]",247,a,0.34097813919652253,colour,0.5
20,26,0,1,14,39,689,2247.1098955284106,2247.964751211577,"[41, 0, 213]",213,a,0.3317137088160962,colour,0.5
20,26,0,1,14,40,690,2249.9850445005577,2250.7808020744706,"[18, 0, 236]",236,a,0.28496738569810987,colour,0.5
20,26,0,1,14,41,691,2252.801005960442,2253.8287897990085,"[80, 0, 174]",174,l,0.5044366708025336,colour,0.5
20,26,0,1,14,42,692,2255.848120923154,2256.8529191442067,"[15, 0, 239]",239,a,0.4814569609006867,colour,0.5
20,26,0,1,14,43,693,2258.8639602120966,2260.2848070904147,"[4, 0, 250]",250,a,0.8975583935389295,colour,0.5
20,26,0,1,14,44,694,2262.2947107321816,2263.2448104933137,"[8, 0, 246]",246,a,0.4274237062782049,colour,0.5
20,26,0,1,14,45,695,2265.2635788120097,2266.1407702674624,"[17, 0, 237]",237,a,0.3538462568540126,colour,0.5
20,26,0,1,14,46,696,2268.154386691749,2269.1088104838273,"[59, 0, 195]",195,l,0.43134050082881004,colour,0.5
20,26,0,1,14,47,697,2271.1234670543345,2272.2687200725777,"[22, 0, 232]",232,l,0.6221094685606658,colour,0.5
20,26,0,1,14,48,698,2274.280118358438,2275.212793208193,"[6, 0, 248]",248,a,0.42199375678319484,colour,0.5
20,26,0,1,14,49,699,2277.2206460958114,2278.060747928568,"[72, 0, 182]",182,l,0.32354653254151344,colour,0.5
20,26,0,1,14,50,700,2280.07353885239,2281.1487594256178,"[77, 0, 177]",177,l,0.5521116820164025,colour,0.5
20,26,0,1,15,1,701,2318.6479114760878,2319.708676339942,"[81, 0, 173]",173,l,0.5363810943672433,colour,0.5
20,26,0,1,15,2,702,2321.7273343820125,2322.4847684147535,"[17, 0, 237]",237,a,0.2325492916861549,colour,0.5
20,26,0,1,15,3,703,2324.4948587393155,2325.3086997343926,"[65, 0, 189]",189,l,0.2892591212876141,colour,0.5
20,26,0,1,15,4,704,2327.3244244143134,2328.7726762518287,"[35, 0, 219]",219,a,0.9255596349248663,colour,0.5
20,26,0,1,15,5,705,2330.7933893800946,2331.7326780791627,"[51, 0, 203]",203,a,0.41533028276171535,colour,0.5
20,26,0,1,15,6,706,2333.735695330426,2334.6287008686922,"[10, 0, 244]",244,a,0.3697465918958187,colour,0.5
20,26,0,1,15,7,707,2336.6421042225556,2337.556658235728,"[14, 0, 240]",240,a,0.3919137982884422,colour,0.5
20,26,0,1,15,8,708,2339.574391528149,2340.4207239984535,"[78, 0, 176]",176,l,0.32293804094661027,colour,0.5
20,26,0,1,15,9,709,2342.433991475613,2343.3966809054837,"[34, 0, 220]",220,a,0.4393111482495442,colour,0.5
20,26,0,1,15,10,710,2345.4029619552894,2346.516634069383,"[60, 0, 194]",194,l,0.5911595051875338,colour,0.5
20,26,0,1,15,11,711,2348.5269646396628,2349.516652580118,"[90, 0, 164]",164,a,0.4663474679691717,colour,0.5
20,26,0,1,15,12,712,2351.527030411875,2352.956643505837,"[92, 0, 162]",162,l,0.9061072063632309,colour,0.5
20,26,0,1,15,13,713,2354.9649158391403,2356.2926524949726,"[47, 0, 207]",207,l,0.8044505341676995,colour,0.5
20,26,0,1,15,14,714,2358.309053801582,2360.5646529077785,"[56, 0, 198]",198,a,1.7324071135371923,colour,0.5
20,26,0,1,15,15,715,2362.5749184936285,2363.532699819538,"[73, 0, 181]",181,l,0.43452868110034615,colour,0.5
20,26,0,1,15,16,716,2365.5439271762734,2366.4126942740986,"[42, 0, 212]",212,a,0.345274600898847,colour,0.5
20,26,0,1,15,17,717,2368.419147828361,2369.3166042158846,"[40, 0, 214]",214,a,0.38669613166712224,colour,0.5
20,26,0,1,15,18,718,2371.328892198857,2372.5646084032487,"[93, 0, 161]",161,l,0.7123788826866075,colour,0.5
20,26,0,1,15,19,719,2374.5789979464607,2376.828631866956,"[91, 0, 163]",163,l,1.7261374852387235,colour,0.5
20,26,0,1,15,20,720,2378.838761969935,2379.9886103786994,"[29, 0, 225]",225,a,0.6265429885825142,colour,0.5
20,26,0,1,15,21,721,2381.9955743568717,2382.836596606765,"[8, 0, 246]",246,a,0.31795825716108084,colour,0.5
20,26,0,1,15,22,722,2384.8552353503183,2386.0125936071854,"[44, 0, 210]",210,a,0.634271027171053,colour,0.5
20,26,0,1,15,23,723,2388.0274018083,2389.044598683133,"[41, 0, 213]",213,a,0.49393556534778327,colour,0.5
20,26,0,1,15,24,724,2391.058803906548,2392.2205921389395,"[46, 0, 208]",208,a,0.6385308613535017,colour,0.5
20,26,0,1,15,25,725,2394.230889626313,2395.1805746679893,"[96, 0, 158]",158,l,0.4263674123212695,colour,0.5
20,26,0,1,15,26,726,2397.1999203644227,2399.4605981096392,"[48, 0, 206]",206,a,1.7372998575447127,colour,0.5
20,26,0,1,15,27,727,2401.4815424253466,2402.756586083211,"[55, 0, 199]",199,a,0.7516023608623073,colour,0.5
20,26,0,1,15,28,728,2404.7629525974626,2405.860539663001,"[7, 0, 247]",247,a,0.5741556147113442,colour,0.5
20,26,0,1,15,29,729,2407.8726204832783,2408.876546730171,"[80, 0, 174]",174,l,0.4807267711730674,colour,0.5
20,26,0,1,15,30,730,2410.8924691204447,2411.940582087962,"[4, 0, 250]",250,a,0.5247811595909297,colour,0.5
20,26,0,1,15,31,731,2413.955250473926,2414.980571595952,"[72, 0, 182]",182,l,0.5020684771006927,colour,0.5
20,26,0,1,15,32,732,2416.999350154656,2418.068543314701,"[62, 0, 192]",192,l,0.5457357154227793,colour,0.5
20,26,0,1,15,33,733,2420.0677079681773,2421.108615136356,"[82, 0, 172]",172,a,0.5176155326189473,colour,0.5
20,26,0,1,15,34,734,2423.130401494098,2425.2045456871856,"[89, 0, 165]",165,l,1.5507812715368345,colour,0.5
20,26,0,1,15,35,735,2427.224356515333,2428.1325129003963,"[94, 0, 160]",160,l,0.3850368600105867,colour,0.5
20,26,0,1,15,36,736,2430.1466176932445,2431.2925619104644,"[20, 0, 234]",234,a,0.6227092953631654,colour,0.5
20,26,0,1,15,37,737,2433.303016542224,2434.428573341458,"[3, 0, 251]",251,a,0.6022179021965712,colour,0.5
20,26,0,1,15,38,738,2436.445437416667,2437.340518915211,"[37, 0, 217]",217,a,0.3716571369441226,colour,0.5
20,26,0,1,15,39,739,2439.3519270471297,2440.26858065126,"[19, 0, 235]",235,a,0.3932639010017738,colour,0.5
20,26,0,1,15,40,740,2442.289668720681,2443.3484836550197,"[98, 0, 156]",156,l,0.5357824491802603,colour,0.5
20,26,0,1,15,41,741,2445.368120009429,2446.4845069013536,"[31, 0, 223]",223,a,0.5931326716672629,colour,0.5
20,26,0,1,15,42,742,2448.489258254762,2449.5245137384627,"[23, 0, 231]",231,a,0.5120363157475367,colour,0.5
20,26,0,1,15,43,743,2451.5364106328925,2452.3645108082565,"[83, 0, 171]",171,l,0.3047270138049498,colour,0.5
20,26,0,1,15,44,744,2454.381262637442,2455.2125470546307,"[86, 0, 168]",168,l,0.3082964365603402,colour,0.5
20,26,0,1,15,45,745,2457.225189892575,2458.42050305102,"[2, 0, 252]",252,a,0.6719392091035843,colour,0.5
20,26,0,1,15,46,746,2460.428826584248,2461.7965287235565,"[6, 0, 248]",248,a,0.8443919930141419,colour,0.5
20,26,0,1,15,47,747,2463.8040941038635,2464.4924771549413,"[76, 0, 178]",178,l,0.16545690421480685,colour,0.5
20,26,0,1,15,48,748,2466.507364519057,2467.7325169963297,"[9, 0, 245]",245,a,0.7018356355838478,colour,0.5
20,26,0,1,15,49,749,2469.7425360349007,2471.5405105656246,"[58, 0, 196]",196,a,1.2746458736946806,colour,0.5
20,26,0,1,15,50,750,2473.555452280445,2474.4444508334855,"[54, 0, 200]",200,l,0.3658857233822346,colour,0.5
20,26,0,1,16,1,751,2486.368061326444,2488.2045177242253,"[94, 0, 160]",160,l,1.3120596314547583,colour,0.5
20,26,0,1,16,2,752,2490.2132666106336,2491.0604911411647,"[86, 0, 168]",168,l,0.3239699164405465,colour,0.5
20,26,0,1,16,3,753,2493.0728393825702,2493.884424036136,"[6, 0, 248]",248,a,0.29287304857280105,colour,0.5
20,26,0,1,16,4,754,2495.8964705918916,2496.8284546363866,"[17, 0, 237]",237,l,0.408716433448717,colour,0.5
20,26,0,1,16,5,755,2498.8498621146427,2501.300488053472,"[8, 0, 246]",246,a,1.9273618725128472,colour,0.5
20,26,0,1,16,6,756,2503.3189365695,2504.7964278990403,"[0, 0, 254]",254,a,0.9541906354716048,colour,0.5
20,26,0,1,16,7,757,2506.803712861263,2508.380420989357,"[4, 0, 250]",250,a,1.0532727388199419,colour,0.5
20,26,0,1,16,8,758,2510.397695057909,2511.340414152248,"[23, 0, 231]",231,a,0.41938886186107993,colour,0.5
20,26,0,1,16,9,759,2513.3510637375293,2514.132437282009,"[69, 0, 185]",185,l,0.2578928630100563,colour,0.5
20,26,0,1,16,10,760,2516.148139512632,2516.8844063131837,"[63, 0, 191]",191,l,0.21154944377485663,colour,0.5
20,26,0,1,16,11,761,2518.899836002616,2519.66046884947,"[91, 0, 163]",163,l,0.2373502696864307,colour,0.5
20,26,0,1,16,12,762,2521.681295011542,2522.492364515085,"[84, 0, 170]",170,l,0.2878436400787905,colour,0.5
20,26,0,1,16,13,763,2524.5096728481585,2525.708414826542,"[9, 0, 245]",245,a,0.6754928780719638,colour,0.5
20,26,0,1,16,14,764,2527.7287029954605,2528.628433447564,"[25, 0, 229]",229,a,0.376438028877601,colour,0.5
20,26,0,1,16,15,765,2530.622801849153,2531.9563697831472,"[59, 0, 195]",195,l,0.8105405687820166,colour,0.5
20,26,0,1,16,16,766,2533.9668161441805,2536.1883676910074,"[53, 0, 201]",201,a,1.6985722308745608,colour,0.5
20,26,0,1,16,17,767,2538.201496140682,2539.044383643428,"[93, 0, 161]",161,l,0.3196324948221445,colour,0.5
20,26,0,1,16,18,768,2541.061087029637,2542.076364300796,"[26, 0, 228]",228,a,0.4919206510530785,colour,0.5
20,26,0,1,16,19,769,2544.0925478108693,2546.340424392256,"[20, 0, 234]",234,a,1.7245341397356242,colour,0.5
20,26,0,1,16,20,770,2548.3585101765348,2549.2204054561444,"[74, 0, 180]",180,l,0.338469342677854,colour,0.5
20,26,0,1,16,21,771,2551.2338174745673,2552.932365286979,"[38, 0, 216]",216,a,1.1753577890340239,colour,0.5
20,26,0,1,16,22,772,2554.952926391037,2558.3243499774253,"[62, 0, 192]",192,l,2.8480271878652275,colour,0.5
20,26,0,1,16,23,773,2560.3439851504518,2563.4204983249074,"[61, 0, 193]",193,l,2.5531593112973496,colour,0.5
20,26,0,1,16,24,774,2565.4387514935806,2566.2603374626487,"[92, 0, 162]",162,l,0.29841248714365065,colour,0.5
20,26,0,1,16,25,775,2568.2543644000543,2569.348385193618,"[16, 0, 238]",238,a,0.570963102276437,colour,0.5
20,26,0,1,16,26,776,2571.3640669442248,2572.244340635487,"[71, 0, 183]",183,l,0.35703207401093096,colour,0.5
20,26,0,1,16,27,777,2574.254967377754,2575.252331762924,"[96, 0, 158]",158,l,0.47404321120120585,colour,0.5
20,26,0,1,16,28,778,2577.2727376916446,2578.292352778488,"[36, 0, 218]",218,a,0.5010511738946661,colour,0.5
20,26,0,1,16,29,779,2580.2994108856656,2581.604316311539,"[57, 0, 197]",197,l,0.781670110183768,colour,0.5
20,26,0,1,16,30,780,2583.6143392884405,2584.8843303009635,"[83, 0, 171]",171,l,0.746574527816847,colour,0.5
20,26,0,1,16,31,781,2586.883421305218,2588.0763312177733,"[48, 0, 206]",206,a,0.669541870825924,colour,0.5
20,26,0,1,16,32,782,2590.0868996708887,2591.396297693718,"[45, 0, 209]",209,a,0.7861264733364806,colour,0.5
20,26,0,1,16,33,783,2593.4069929650286,2594.908337553963,"[15, 0, 239]",239,a,0.9784290757961571,colour,0.5
20,26,0,1,16,34,784,2596.9230335091706,2597.9722913858714,"[5, 0, 249]",249,a,0.5261316563701257,colour,0.5
20,26,0,1,16,35,785,2599.9875198202208,2600.9643262522295,"[75, 0, 179]",179,l,0.4533773442963138,colour,0.5
20,26,0,1,16,36,786,2602.972896726569,2604.268280147109,"[43, 0, 211]",211,a,0.7732240911573172,colour,0.5
20,26,0,1,16,37,787,2606.2819146882975,2607.2122993257362,"[11, 0, 243]",243,a,0.406995328143239,colour,0.5
20,26,0,1,16,38,788,2609.2075794800185,2610.2522951352876,"[41, 0, 213]",213,a,0.5213803028455004,colour,0.5
20,26,0,1,16,39,789,2612.2702848212793,2613.2282461345894,"[55, 0, 199]",199,a,0.4346901577664539,colour,0.5
20,26,0,1,16,40,790,2615.2411875075195,2616.332264304976,"[34, 0, 220]",220,a,0.5678296664264053,colour,0.5
20,26,0,1,16,41,791,2618.3477786713047,2619.212301688851,"[73, 0, 181]",181,l,0.3394925536122173,colour,0.5
20,26,0,1,16,42,792,2621.224692071788,2622.044273760519,"[95, 0, 159]",159,l,0.29627114860340953,colour,0.5
20,26,0,1,16,43,793,2624.05306754529,2624.908309984836,"[33, 0, 221]",221,a,0.33188621327281,colour,0.5
20,26,0,1,16,44,794,2626.918978080852,2627.748225528514,"[99, 0, 155]",155,l,0.3059172151843086,colour,0.5
20,26,0,1,16,45,795,2629.750575605314,2631.0123124014353,"[58, 0, 196]",196,a,0.738375449902378,colour,0.5
20,26,0,1,16,46,796,2633.0326647672337,2634.244246506365,"[52, 0, 202]",202,a,0.6880151992663741,colour,0.5
20,26,0,1,16,47,797,2636.2516736468533,2637.3322662742576,"[82, 0, 172]",172,l,0.5572336441837251,colour,0.5
20,26,0,1,16,48,798,2639.3456633265596,2640.3162781116553,"[27, 0, 227]",227,a,0.44721366045996547,colour,0.5
20,26,0,1,16,49,799,2642.330292713945,2643.372277837596,"[7, 0, 247]",247,a,0.5186993958195671,colour,0.5
20,26,0,1,16,50,800,2645.3945580775617,2646.3002214200096,"[44, 0, 210]",210,a,0.3808345274301246,colour,0.5
