id,age,condition,counterbalance,block,trialinblock,trial,tstart,tend,trialstim,trialintensity,response,RT,trialtype,colourfreq
33,18,0,2,Practice,1,NA,7.0892274379730225e-06,1.494097815360874,"[97, 0, 157]",157,l,0.9696726347319782,colour,0.5
33,18,0,2,Practice,2,NA,3.5012866966426373,4.56615046504885,"[11, 0, 243]",243,a,0.5415535671636462,colour,0.5
33,18,0,2,Practice,3,NA,6.579378195106983,7.606090048793703,"[48, 0, 206]",206,a,0.5020893556065857,colour,0.5
33,18,0,2,Practice,4,NA,9.624496466945857,10.526082486845553,"[99, 0, 155]",155,l,0.37887761602178216,colour,0.5
33,18,0,2,Practice,5,NA,12.546751947607845,13.142059659585357,"[41, 0, 213]",213,a,0.07233109883964062,colour,0.5
33,18,0,2,Practice,6,NA,15.155763550195843,15.702120469417423,"[22, 0, 232]",232,a,0.023006939329206944,colour,0.5
33,18,0,2,Practice,7,NA,17.718236669898033,21.910106102004647,"[51, 0, 203]",203,a,3.6689818277955055,colour,0.5
33,18,0,2,Practice,8,NA,23.921411467250437,25.030165887903422,"[37, 0, 217]",217,a,0.5854678503237665,colour,0.5
33,18,0,2,Practice,9,NA,27.046465226914734,27.918069285340607,"[92, 0, 162]",162,l,0.35021700942888856,colour,0.5
33,18,0,2,Practice,10,NA,29.936114152427763,31.0381101667881,"[65, 0, 189]",189,a,0.5787893948145211,colour,0.5
33,18,0,2,1,1,1,6.150982646737248,7.528076138347387,"[89, 0, 165]",165,l,0.8529172213748097,colour,0.5
33,18,0,2,1,2,2,9.542350712232292,10.65604199981317,"[36, 0, 218]",218,a,0.5902274861000478,colour,0.5
33,18,0,2,1,3,3,12.6674048663117,13.656017187051475,"[0, 0, 254]",254,a,0.4654175164178014,colour,0.5
33,18,0,2,1,4,4,15.668051562272012,16.81599883409217,"[69, 0, 185]",185,l,0.6251057479530573,colour,0.5
33,18,0,2,1,5,5,18.838706056587398,19.96013603452593,"[76, 0, 178]",178,l,0.5969268153421581,colour,0.5
33,18,0,2,1,6,6,21.98055461468175,23.064075681380928,"[59, 0, 195]",195,a,0.5602411916479468,colour,0.5
33,18,0,2,1,7,7,25.074255826883018,26.248054791707546,"[16, 0, 238]",238,a,0.6505171204917133,colour,0.5
33,18,0,2,1,8,8,28.261757894419134,29.03204847453162,"[9, 0, 245]",245,a,0.24452592711895704,colour,0.5
33,18,0,2,1,9,9,31.045555835589767,32.600079556927085,"[11, 0, 243]",243,a,1.0312852002680302,colour,0.5
33,18,0,2,1,10,10,34.60800650622696,35.71205603610724,"[72, 0, 182]",182,l,0.5808433038182557,colour,0.5
33,18,0,2,1,11,11,37.735793167259544,38.74406945845112,"[66, 0, 188]",188,l,0.48481170181185007,colour,0.5
33,18,0,2,1,12,12,40.74861720437184,41.824083322193474,"[15, 0, 239]",239,a,0.5521547347307205,colour,0.5
33,18,0,2,1,13,13,43.83105755643919,44.76803620206192,"[31, 0, 223]",223,a,0.4136432381346822,colour,0.5
33,18,0,2,1,14,14,46.7840988393873,47.93606413388625,"[44, 0, 210]",210,a,0.6289823795668781,colour,0.5
33,18,0,2,1,15,15,49.93327924469486,50.832051625009626,"[26, 0, 228]",228,a,0.3754287017509341,colour,0.5
33,18,0,2,1,16,16,52.83991634659469,53.608064795378596,"[85, 0, 169]",169,l,0.2449130779132247,colour,0.5
33,18,0,2,1,17,17,55.62136223632842,56.67209006473422,"[70, 0, 184]",184,l,0.5276149441488087,colour,0.5
33,18,0,2,1,18,18,58.68365655001253,60.12805447680876,"[64, 0, 190]",190,l,0.9213606612756848,colour,0.5
33,18,0,2,1,19,19,62.13684552535415,62.992074232082814,"[28, 0, 226]",226,a,0.3319681300781667,colour,0.5
33,18,0,2,1,20,20,65.01198278088123,65.98407914722338,"[20, 0, 234]",234,a,0.448753475677222,colour,0.5
33,18,0,2,1,21,21,67.9922483121045,68.86407016729936,"[77, 0, 177]",177,l,0.3485754569992423,colour,0.5
33,18,0,2,1,22,22,70.87410892220214,71.76006711134687,"[43, 0, 211]",211,a,0.3627003696747124,colour,0.5
33,18,0,2,1,23,23,73.7816018522717,74.55205902969465,"[21, 0, 233]",233,a,0.24721786798909307,colour,0.5
33,18,0,2,1,24,24,76.56353926239535,77.56013721600175,"[63, 0, 191]",191,l,0.4735488723963499,colour,0.5
33,18,0,2,1,25,25,79.57909777620807,80.52808243967593,"[51, 0, 203]",203,l,0.42563507752493024,colour,0.5
33,18,0,2,1,26,26,82.54782990552485,83.5440883631818,"[62, 0, 192]",192,l,0.4730282071977854,colour,0.5
33,18,0,2,1,27,27,85.56354123167694,87.78412247030064,"[48, 0, 206]",206,l,1.6975195542909205,colour,0.5
33,18,0,2,1,28,28,89.79788977000862,90.55213661724702,"[4, 0, 250]",250,a,0.23100556898862123,colour,0.5
33,18,0,2,1,29,29,92.55432088999078,93.37613368686289,"[2, 0, 252]",252,a,0.29861838603392243,colour,0.5
33,18,0,2,1,30,30,95.38236118853092,96.34417579695582,"[56, 0, 198]",198,l,0.4387218104675412,colour,0.5
33,18,0,2,1,31,31,98.35115121304989,99.11216631345451,"[95, 0, 159]",159,l,0.2377962712198496,colour,0.5
33,18,0,2,1,32,32,101.13238048693165,102.07214126456529,"[68, 0, 186]",186,l,0.4166652224957943,colour,0.5
33,18,0,2,1,33,33,104.08545249002054,104.9281052830629,"[82, 0, 172]",172,l,0.3186187017709017,colour,0.5
33,18,0,2,1,34,34,106.93441864289343,107.59211085969582,"[94, 0, 160]",160,l,0.13435680931434035,colour,0.5
33,18,0,2,1,35,35,109.6062964242883,110.9041267237626,"[57, 0, 197]",197,l,0.7744570826180279,colour,0.5
33,18,0,2,1,36,36,112.91883531678468,113.76010216353461,"[19, 0, 235]",235,a,0.31801099609583616,colour,0.5
33,18,0,2,1,37,37,115.77820571372285,116.60023433854803,"[13, 0, 241]",241,a,0.2990264114923775,colour,0.5
33,18,0,2,1,38,38,118.62194591667503,119.37616834556684,"[87, 0, 167]",167,l,0.2308748117648065,colour,0.5
33,18,0,2,1,39,39,121.38764109509066,122.25617708917707,"[47, 0, 207]",207,a,0.34527226630598307,colour,0.5
33,18,0,2,1,40,40,124.26255897851661,125.04014595923945,"[99, 0, 155]",155,l,0.25429095793515444,colour,0.5
33,18,0,2,1,41,41,127.0594483781606,127.66413554595783,"[3, 0, 251]",251,a,0.08147542783990502,colour,0.5
33,18,0,2,1,42,42,129.68438398418948,130.35213386034593,"[27, 0, 227]",227,a,0.14473466575145721,colour,0.5
33,18,0,2,1,43,43,132.37182539980859,132.91217261506245,"[39, 0, 215]",215,a,0.02966452157124877,colour,0.5
33,18,0,2,1,44,44,134.9139342904091,135.94422345235944,"[74, 0, 180]",180,l,0.5069990465417504,colour,0.5
33,18,0,2,1,45,45,137.96187014086172,139.2482048473321,"[78, 0, 176]",176,l,0.7635731333866715,colour,0.5
33,18,0,2,1,46,46,141.2548490385525,142.27220467384905,"[67, 0, 187]",187,l,0.49409978464245796,colour,0.5
33,18,0,2,1,47,47,144.28083700267598,144.8721924647689,"[42, 0, 212]",212,a,0.06816499028354883,colour,0.5
33,18,0,2,1,48,48,146.88520357897505,147.44019794696942,"[22, 0, 232]",232,a,0.03159555094316602,colour,0.5
33,18,0,2,1,49,49,149.4477818561718,150.09644120233133,"[24, 0, 230]",230,a,0.125455089379102,colour,0.5
33,18,0,2,1,50,50,152.10400581313297,153.1361685032025,"[80, 0, 174]",174,l,0.5088658793829381,colour,0.5
33,18,0,2,2,1,51,163.80997888976708,165.37620891164988,"[52, 0, 202]",202,a,1.0420553274452686,colour,0.5
33,18,0,2,2,2,52,167.38890101062134,168.28825549595058,"[95, 0, 159]",159,l,0.3760324688628316,colour,0.5
33,18,0,2,2,3,53,170.29517537960783,171.11222105799243,"[53, 0, 201]",201,a,0.29382842453196645,colour,0.5
33,18,0,2,2,4,54,173.12330665672198,174.29618795914575,"[4, 0, 250]",250,a,0.6496289963833988,colour,0.5
33,18,0,2,2,5,55,176.2985404045321,176.86421864759177,"[21, 0, 233]",233,a,0.04258820181712508,colour,0.5
33,18,0,2,2,6,56,178.87658227840438,180.79222468147054,"[93, 0, 161]",161,a,1.3923377157188952,colour,0.5
33,18,0,2,2,7,57,182.79839980136603,183.58417721511796,"[78, 0, 176]",176,l,0.2626062403433025,colour,0.5
33,18,0,2,2,8,58,185.59522933652624,186.4882310773246,"[80, 0, 174]",174,l,0.369660425465554,colour,0.5
33,18,0,2,2,9,59,188.49324553180486,190.60820815572515,"[64, 0, 190]",190,l,1.5916094933636487,colour,0.5
33,18,0,2,2,10,60,192.61825084872544,193.64823241671547,"[23, 0, 231]",231,a,0.5070077115669847,colour,0.5
33,18,0,2,2,11,61,195.66508707916364,196.60826329421252,"[60, 0, 194]",194,a,0.42078840220347047,colour,0.5
33,18,0,2,2,12,62,198.61886485526338,199.75223626056686,"[68, 0, 186]",186,l,0.61002930207178,colour,0.5
33,18,0,2,2,13,63,201.75959134474397,202.5522472881712,"[8, 0, 246]",246,a,0.26938788359984756,colour,0.5
33,18,0,2,2,14,64,204.57206407096237,205.35223153419793,"[25, 0, 229]",229,a,0.25717076379805803,colour,0.5
33,18,0,2,2,15,65,207.36895150132477,208.35221932502463,"[47, 0, 207]",207,a,0.4599887360818684,colour,0.5
33,18,0,2,2,16,66,210.36895819706842,211.2562873661518,"[54, 0, 200]",200,a,0.3640197557397187,colour,0.5
33,18,0,2,2,17,67,213.27520696632564,213.91219427622855,"[45, 0, 209]",209,a,0.11365623492747545,colour,0.5
33,18,0,2,2,18,68,215.93149787699804,216.56821067631245,"[3, 0, 251]",251,a,0.11345182871446013,colour,0.5
33,18,0,2,2,19,69,218.58764030784369,219.4722334248945,"[59, 0, 195]",195,a,0.36109859589487314,colour,0.5
33,18,0,2,2,20,70,221.48531621927395,222.2883267821744,"[36, 0, 218]",218,a,0.2783348956145346,colour,0.5
33,18,0,2,2,21,71,224.29392727976665,225.1282427352853,"[71, 0, 183]",183,l,0.3120111380703747,colour,0.5
33,18,0,2,2,22,72,227.12433892814443,227.87227832339704,"[46, 0, 208]",208,a,0.22465243050828576,colour,0.5
33,18,0,2,2,23,73,229.8898344268091,230.79220774583519,"[74, 0, 180]",180,l,0.37898631766438484,colour,0.5
33,18,0,2,2,24,74,232.80017919978127,233.5522630419582,"[29, 0, 225]",225,a,0.2289083362556994,colour,0.5
33,18,0,2,2,25,75,235.56427654298022,236.35225989110768,"[11, 0, 243]",243,a,0.26501185446977615,colour,0.5
33,18,0,2,2,26,76,238.36112695233896,239.34430182818323,"[67, 0, 187]",187,l,0.4598827916197479,colour,0.5
33,18,0,2,2,27,77,241.35499948775396,242.11227304581553,"[31, 0, 223]",223,a,0.23407363379374146,colour,0.5
33,18,0,2,2,28,78,244.1206060508266,244.92026025336236,"[41, 0, 213]",213,a,0.27627783501520753,colour,0.5
33,18,0,2,2,29,79,246.93303230311722,247.71225492889062,"[87, 0, 167]",167,l,0.2559923753142357,colour,0.5
33,18,0,2,2,30,80,249.72992170322686,250.43237182265148,"[24, 0, 230]",230,a,0.17923129070550203,colour,0.5
33,18,0,2,2,31,81,252.4487270875834,253.3122655628249,"[2, 0, 252]",252,a,0.3403637567535043,colour,0.5
33,18,0,2,2,32,82,255.31275393255055,256.09638606384397,"[50, 0, 204]",204,a,0.26029751170426607,colour,0.5
33,18,0,2,2,33,83,258.1101573021151,258.8882641606033,"[16, 0, 238]",238,a,0.25484313117340207,colour,0.5
33,18,0,2,2,34,84,260.9069506037049,261.6322343698703,"[22, 0, 232]",232,a,0.20092081325128675,colour,0.5
33,18,0,2,2,35,85,263.64454325614497,264.9683343442157,"[92, 0, 162]",162,l,0.8004757668823004,colour,0.5
33,18,0,2,2,36,86,266.9882803084329,267.6322867516428,"[10, 0, 244]",244,a,0.12072302354499698,colour,0.5
33,18,0,2,2,37,87,269.6445475881919,270.32829039078206,"[77, 0, 177]",177,l,0.1605078256689012,colour,0.5
33,18,0,2,2,38,88,272.3476700037718,273.05629957513884,"[48, 0, 206]",206,a,0.1852748654782772,colour,0.5
33,18,0,2,2,39,89,275.0663639297709,275.81628594826907,"[13, 0, 241]",241,a,0.22681464813649654,colour,0.5
33,18,0,2,2,40,90,277.8319200803526,279.5443156128749,"[1, 0, 253]",253,a,1.1890640631318092,colour,0.5
33,18,0,2,2,41,91,281.5506573296152,282.3203157861717,"[89, 0, 165]",165,l,0.2462557009421289,colour,0.5
33,18,0,2,2,42,92,284.3319779760204,285.04027907922864,"[42, 0, 212]",212,a,0.18503698194399476,colour,0.5
33,18,0,2,2,43,93,287.05069868359715,287.5843229382299,"[94, 0, 160]",160,l,0.010300268419086933,colour,0.5
33,18,0,2,2,44,94,289.5976148652844,291.46430923230946,"[57, 0, 197]",197,a,1.3433837718330324,colour,0.5
33,18,0,2,2,45,95,293.4726158496924,294.6082999217324,"[69, 0, 185]",185,l,0.6123155811801553,colour,0.5
33,18,0,2,2,46,96,296.628853591159,297.44030349794775,"[6, 0, 248]",248,a,0.288132615853101,colour,0.5
33,18,0,2,2,47,97,299.447684969753,300.1603175974451,"[75, 0, 179]",179,l,0.18934290623292327,colour,0.5
33,18,0,2,2,48,98,302.1819421360269,302.82431293465197,"[32, 0, 222]",222,a,0.11904523754492402,colour,0.5
33,18,0,2,2,49,99,304.82589737931266,305.60030956333503,"[63, 0, 191]",191,a,0.2510023396462202,colour,0.5
33,18,0,2,2,50,100,307.6072266898118,308.4163466002792,"[91, 0, 163]",163,l,0.2858861149288714,colour,0.5
33,18,0,2,3,1,101,320.93812237586826,322.20028671994805,"[69, 0, 185]",185,l,0.73894945345819,colour,0.5
33,18,0,2,3,2,102,324.22007081331685,325.0003308309242,"[4, 0, 250]",250,a,0.25688561890274286,colour,0.5
33,18,0,2,3,3,103,327.0169515488669,329.2563830707222,"[59, 0, 195]",195,a,1.7161933942697942,colour,0.5
33,18,0,2,3,4,104,331.2669834503904,332.37639126274735,"[95, 0, 159]",159,l,0.5862898081541061,colour,0.5
33,18,0,2,3,5,105,334.3919608043507,335.2723693018779,"[82, 0, 172]",172,l,0.3570734839886427,colour,0.5
33,18,0,2,3,6,106,337.28261325042695,338.0243397159502,"[19, 0, 235]",235,a,0.21863760612905025,colour,0.5
33,18,0,2,3,7,107,340.0325746536255,340.82433735299855,"[88, 0, 166]",166,l,0.26745527889579535,colour,0.5
33,18,0,2,3,8,108,342.83253054274246,343.83236906537786,"[22, 0, 232]",232,a,0.4766842843964696,colour,0.5
33,18,0,2,3,9,109,345.8481473457068,349.92843493260443,"[65, 0, 189]",189,a,3.5569045240990818,colour,0.5
33,18,0,2,3,10,110,351.9419265394099,352.75234614359215,"[30, 0, 224]",224,a,0.2995636179111898,colour,0.5
33,18,0,2,3,11,111,354.7731656595133,355.5363673954271,"[9, 0, 245]",245,a,0.2397265126928687,colour,0.5
33,18,0,2,3,12,112,357.55433231173083,358.28838034532964,"[6, 0, 248]",248,a,0.21051806584000587,colour,0.5
33,18,0,2,3,13,113,360.30606051022187,360.9363709404133,"[38, 0, 216]",216,a,0.10696241958066821,colour,0.5
33,18,0,2,3,14,114,362.9466511225328,363.5683512794785,"[37, 0, 217]",217,a,0.09831630624830723,colour,0.5
33,18,0,2,3,15,115,365.58730908250436,366.5124006518163,"[60, 0, 194]",194,a,0.39996494725346565,colour,0.5
33,18,0,2,3,16,116,368.52660433389246,369.9924097894691,"[77, 0, 177]",177,l,0.9425334576517344,colour,0.5
33,18,0,2,3,17,117,372.00086764385924,372.80039266496897,"[85, 0, 169]",169,l,0.27619512751698494,colour,0.5
33,18,0,2,3,18,118,374.8133064992726,375.59240230638534,"[7, 0, 247]",247,a,0.2557560675777495,colour,0.5
33,18,0,2,3,19,119,377.5977846127935,380.6404188950546,"[11, 0, 243]",243,a,2.5193847329355776,colour,0.5
33,18,0,2,3,20,120,382.6619268544018,383.464377367869,"[32, 0, 222]",222,a,0.2796968170441687,colour,0.5
33,18,0,2,3,21,121,385.4744176976383,386.24048663675785,"[27, 0, 227]",227,a,0.2427496793679893,colour,0.5
33,18,0,2,3,22,122,388.2537990435958,389.0325262104161,"[5, 0, 249]",249,a,0.2554929777979851,colour,0.5
33,18,0,2,3,23,123,391.05253400839865,391.9364063865505,"[41, 0, 213]",213,a,0.36095838621258736,colour,0.5
33,18,0,2,3,24,124,393.9431801531464,395.12042921362445,"[56, 0, 198]",198,a,0.6540680406615138,colour,0.5
33,18,0,2,3,25,125,397.1306266882457,397.9124632733874,"[35, 0, 219]",219,a,0.25846927566453815,colour,0.5
33,18,0,2,3,26,126,399.92875946173444,400.5444444003515,"[92, 0, 162]",162,l,0.10167621076107025,colour,0.5
33,18,0,2,3,27,127,402.5600458434783,406.82444802392274,"[62, 0, 192]",192,a,3.741007301956415,colour,0.5
33,18,0,2,3,28,128,408.8413881515153,409.63246319489554,"[21, 0, 233]",233,a,0.2676841034553945,colour,0.5
33,18,0,2,3,29,129,411.65388214495033,412.48845635773614,"[93, 0, 161]",161,l,0.31118484819307923,colour,0.5
33,18,0,2,3,30,130,414.49765109922737,415.28044000500813,"[90, 0, 164]",164,l,0.2595220278017223,colour,0.5
33,18,0,2,3,31,131,417.2945046587847,418.12045245058835,"[47, 0, 207]",207,a,0.30096019757911563,colour,0.5
33,18,0,2,3,32,132,420.1306243254803,420.83242774847895,"[12, 0, 242]",242,a,0.17860743729397655,colour,0.5
33,18,0,2,3,33,133,422.8491863128729,425.4164623916149,"[63, 0, 191]",191,l,2.044031255878508,colour,0.5
33,18,0,2,3,34,134,427.42734003905207,428.56844028877094,"[76, 0, 178]",178,l,0.6177467252127826,colour,0.5
33,18,0,2,3,35,135,430.58355769421905,431.39241845393553,"[20, 0, 234]",234,a,0.28566398611292243,colour,0.5
33,18,0,2,3,36,136,433.4117586822249,434.2484825090505,"[53, 0, 201]",201,a,0.3129823636263609,colour,0.5
33,18,0,2,3,37,137,436.25687537901103,437.2804577280767,"[74, 0, 180]",180,l,0.5002067694440484,colour,0.5
33,18,0,2,3,38,138,439.28823974216357,440.056489802897,"[99, 0, 155]",155,l,0.24478035140782595,colour,0.5
33,18,0,2,3,39,139,442.0695950468071,442.8404153501615,"[96, 0, 158]",158,l,0.24751679738983512,colour,0.5
33,18,0,2,3,40,140,444.8508428311907,445.51244988292456,"[26, 0, 228]",228,a,0.13840318890288472,colour,0.5
33,18,0,2,3,41,141,447.52264223759994,448.3044532225467,"[33, 0, 221]",221,a,0.25838420493528247,colour,0.5
33,18,0,2,3,42,142,450.3196029239334,451.240472458303,"[80, 0, 174]",174,l,0.3976369211450219,colour,0.5
33,18,0,2,3,43,143,453.25702307140455,454.0644458970055,"[44, 0, 210]",210,a,0.2840992333367467,colour,0.5
33,18,0,2,3,44,144,456.0790036469698,457.08914834586903,"[71, 0, 183]",183,l,0.48680456541478634,colour,0.5
33,18,0,2,3,45,145,459.09474608674645,459.80049506481737,"[40, 0, 214]",214,a,0.18253487488254905,colour,0.5
33,18,0,2,3,46,146,461.81339432671666,462.58449229225516,"[36, 0, 218]",218,a,0.2476944224908948,colour,0.5
33,18,0,2,3,47,147,464.5946421115659,465.3844773261808,"[18, 0, 236]",236,a,0.2664450625889003,colour,0.5
33,18,0,2,3,48,148,467.3916055546142,468.3604310252704,"[83, 0, 171]",171,l,0.44557395251467824,colour,0.5
33,18,0,2,3,49,149,470.3758698096499,471.2564716860652,"[57, 0, 197]",197,a,0.3575752442702651,colour,0.5
33,18,0,2,3,50,150,473.2560727195814,474.048497475218,"[51, 0, 203]",203,a,0.2691125851124525,colour,0.5
33,18,0,2,4,1,151,490.88288776157424,491.79249604186043,"[89, 0, 165]",165,l,0.3856931305490434,colour,0.5
33,18,0,2,4,2,152,493.8055685958825,494.5685186642222,"[24, 0, 230]",230,a,0.23925153398886323,colour,0.5
33,18,0,2,4,3,153,496.58711215946823,497.3765302905813,"[1, 0, 253]",253,a,0.265836569480598,colour,0.5
33,18,0,2,4,4,154,499.39436326827854,500.152503288351,"[16, 0, 238]",238,a,0.23486999096348882,colour,0.5
33,18,0,2,4,5,155,502.1599989756942,502.9445562530309,"[92, 0, 162]",162,l,0.26128882355988026,colour,0.5
33,18,0,2,4,6,156,504.95674107735977,505.73657180182636,"[39, 0, 215]",215,a,0.2564815324731171,colour,0.5
33,18,0,2,4,7,157,507.7550396602601,508.8004828556441,"[59, 0, 195]",195,a,0.5220920341089368,colour,0.5
33,18,0,2,4,8,158,510.8174844230525,511.6245976854116,"[8, 0, 246]",246,a,0.2839090055786073,colour,0.5
33,18,0,2,4,9,159,513.6456511463039,515.160500342492,"[72, 0, 182]",182,l,0.9915842870250344,colour,0.5
33,18,0,2,4,10,160,517.176958007738,518.0005521727726,"[2, 0, 252]",252,a,0.3002662402577698,colour,0.5
33,18,0,2,4,11,161,520.0215331655927,521.0725264465436,"[49, 0, 205]",205,a,0.5277311289682984,colour,0.5
33,18,0,2,4,12,162,523.0840484271757,523.8886331948452,"[87, 0, 167]",167,l,0.2812997726723552,colour,0.5
33,18,0,2,4,13,163,525.8965215473436,526.7845226186328,"[37, 0, 217]",217,a,0.3696907521225512,colour,0.5
33,18,0,2,4,14,164,528.7978606252,529.744527108036,"[26, 0, 228]",228,a,0.42330665653571486,colour,0.5
33,18,0,2,4,15,165,531.7509984006174,535.2805349221453,"[58, 0, 196]",196,a,3.0043539735488594,colour,0.5
33,18,0,2,4,16,166,537.2997676301748,538.2088548517786,"[76, 0, 178]",178,l,0.38588138949126005,colour,0.5
33,18,0,2,4,17,167,540.2219293750823,541.5445365607738,"[53, 0, 201]",201,a,0.7993938704021275,colour,0.5
33,18,0,2,4,18,168,543.5665643974207,544.4165695174597,"[46, 0, 208]",208,a,0.3267276077531278,colour,0.5
33,18,0,2,4,19,169,546.4154624151997,547.3045229334384,"[93, 0, 161]",161,l,0.36610871739685535,colour,0.5
33,18,0,2,4,20,170,549.3216670732945,550.1285712034442,"[31, 0, 223]",223,a,0.28352185478433967,colour,0.5
33,18,0,2,4,21,171,552.1497243070044,552.9445672808215,"[45, 0, 209]",209,a,0.2715185936540365,colour,0.5
33,18,0,2,4,22,172,554.9622801351361,555.7845966615714,"[83, 0, 171]",171,l,0.2990602822974324,colour,0.5
33,18,0,2,4,23,173,557.8061187998392,558.672568588052,"[56, 0, 198]",198,a,0.3435109844431281,colour,0.5
33,18,0,2,4,24,174,560.6810524365865,561.4805798204616,"[19, 0, 235]",235,a,0.27627192717045546,colour,0.5
33,18,0,2,4,25,175,563.4935216181912,564.256561877206,"[25, 0, 229]",229,a,0.23965837759897113,colour,0.5
33,18,0,2,4,26,176,566.2747540427372,567.184731750749,"[66, 0, 188]",188,l,0.38673721766099334,colour,0.5
33,18,0,2,4,27,177,569.1966597870924,570.7125373166054,"[62, 0, 192]",192,a,0.9926027739420533,colour,0.5
33,18,0,2,4,28,178,572.7318562772125,573.6725579542108,"[69, 0, 185]",185,l,0.4174233772791922,colour,0.5
33,18,0,2,4,29,179,575.6850035050884,576.4806077838875,"[4, 0, 250]",250,a,0.27223500050604343,colour,0.5
33,18,0,2,4,30,180,578.4974281820469,579.3125956058502,"[41, 0, 213]",213,a,0.2917473395355046,colour,0.5
33,18,0,2,4,31,181,581.328775215894,582.1925984416157,"[60, 0, 194]",194,a,0.3405858860351145,colour,0.5
33,18,0,2,4,32,182,584.2040534685366,585.8645994970575,"[82, 0, 172]",172,l,1.137209439650178,colour,0.5
33,18,0,2,4,33,183,587.8759099822491,589.1685655317269,"[42, 0, 212]",212,a,0.7693674033507705,colour,0.5
33,18,0,2,4,34,184,591.1884953486733,592.0887155085802,"[15, 0, 239]",239,a,0.3770092078484595,colour,0.5
33,18,0,2,4,35,185,594.0947756255046,595.0646046171896,"[57, 0, 197]",197,a,0.44659125804901123,colour,0.5
33,18,0,2,4,36,186,597.078939056024,597.8646148573607,"[5, 0, 249]",249,a,0.262409710790962,colour,0.5
33,18,0,2,4,37,187,599.8787909694947,600.8166443486698,"[40, 0, 214]",214,a,0.41452269768342376,colour,0.5
33,18,0,2,4,38,188,602.8318487941287,603.4805790330283,"[13, 0, 241]",241,a,0.1254050713032484,colour,0.5
33,18,0,2,4,39,189,605.4881117418408,606.4006144003943,"[32, 0, 222]",222,a,0.3890250721015036,colour,0.5
33,18,0,2,4,40,190,608.4100316651165,608.9846143848263,"[3, 0, 251]",251,a,0.05114294262602925,colour,0.5
33,18,0,2,4,41,191,611.0037442990579,612.0566867263988,"[74, 0, 180]",180,l,0.5299981096759439,colour,0.5
33,18,0,2,4,42,192,614.0661811851896,615.0006360621192,"[11, 0, 243]",243,a,0.41120454063639045,colour,0.5
33,18,0,2,4,43,193,617.0217021256685,617.9446070590056,"[52, 0, 202]",202,a,0.3995699193328619,colour,0.5
33,18,0,2,4,44,194,619.9591313316487,620.7526226239279,"[91, 0, 163]",163,l,0.26944105280563235,colour,0.5
33,18,0,2,4,45,195,622.7738600107841,623.6726099420339,"[71, 0, 183]",183,l,0.37537868320941925,colour,0.5
33,18,0,2,4,46,196,625.6801359555684,626.5606362195686,"[98, 0, 156]",156,l,0.3571648565120995,colour,0.5
33,18,0,2,4,47,197,628.5707092387602,629.4006199142896,"[10, 0, 244]",244,a,0.3067796742543578,colour,0.5
33,18,0,2,4,48,198,631.4144777986221,632.2086402052082,"[96, 0, 158]",158,l,0.27078485721722245,colour,0.5
33,18,0,2,4,49,199,634.2270222050138,635.1366237895563,"[68, 0, 186]",186,l,0.38634612783789635,colour,0.5
33,18,0,2,4,50,200,637.1488227923401,638.2166801886633,"[65, 0, 189]",189,a,0.5445042653009295,colour,0.5
33,18,0,2,5,1,201,650.0073267268017,651.2166794007644,"[8, 0, 246]",246,a,0.6830567219294608,colour,0.5
33,18,0,2,5,2,202,653.2261852808297,654.2886595823802,"[73, 0, 181]",181,l,0.5391747336834669,colour,0.5
33,18,0,2,5,3,203,656.3068875879981,657.5126826460473,"[96, 0, 158]",158,l,0.6831035893410444,colour,0.5
33,18,0,2,5,4,204,659.5249982276,660.7367198881693,"[54, 0, 200]",200,a,0.6884157913736999,colour,0.5
33,18,0,2,5,5,205,662.7438276368193,664.0886871516705,"[90, 0, 164]",164,l,0.8224346805363894,colour,0.5
33,18,0,2,5,6,206,666.1031476212665,666.9526769747026,"[1, 0, 253]",253,a,0.3176214820705354,colour,0.5
33,18,0,2,5,7,207,668.9595523537137,669.7366328481585,"[35, 0, 219]",219,a,0.253778169862926,colour,0.5
33,18,0,2,5,8,208,671.7564681414515,673.096674753353,"[67, 0, 187]",187,l,0.817034256644547,colour,0.5
33,18,0,2,5,9,209,675.1158424769528,676.0567107507959,"[14, 0, 240]",240,a,0.4176588971167803,colour,0.5
33,18,0,2,5,10,210,678.0689341723919,678.912665316835,"[86, 0, 168]",168,l,0.3204607218503952,colour,0.5
33,18,0,2,5,11,211,680.9294093088247,681.7287090495229,"[26, 0, 228]",228,a,0.2759856008924544,colour,0.5
33,18,0,2,5,12,212,683.7354800594039,684.5767134292983,"[55, 0, 199]",199,a,0.3184568304568529,colour,0.5
33,18,0,2,5,13,213,686.5947082778439,687.3926913896576,"[53, 0, 201]",201,a,0.27514395117759705,colour,0.5
33,18,0,2,5,14,214,689.4073097915389,690.2087630853057,"[11, 0, 243]",243,a,0.27854127110913396,colour,0.5
33,18,0,2,5,15,215,692.2198750716634,693.1366765652783,"[95, 0, 159]",159,l,0.38502477295696735,colour,0.5
33,18,0,2,5,16,216,695.150799902156,695.9607748533599,"[91, 0, 163]",163,l,0.2868983009830117,colour,0.5
33,18,0,2,5,17,217,697.9789733206853,698.8006628435105,"[49, 0, 205]",205,a,0.29833009047433734,colour,0.5
33,18,0,2,5,18,218,700.8070057420991,701.6327266781591,"[10, 0, 244]",244,a,0.3030716092325747,colour,0.5
33,18,0,2,5,19,219,703.6507628806867,704.4087256700732,"[32, 0, 222]",222,a,0.23469197284430265,colour,0.5
33,18,0,2,5,20,220,706.4163918928243,707.4007290098816,"[64, 0, 190]",190,a,0.4613404176197946,colour,0.5
33,18,0,2,5,21,221,709.4163958313875,710.2167991301976,"[37, 0, 217]",217,a,0.2772604823112488,colour,0.5
33,18,0,2,5,22,222,712.2288279910572,713.0406902553514,"[80, 0, 174]",174,l,0.2882436807267368,colour,0.5
33,18,0,2,5,23,223,715.0570411882363,716.2567288680002,"[58, 0, 196]",196,a,0.6765960631892085,colour,0.5
33,18,0,2,5,24,224,718.2761990656145,719.1128523941152,"[23, 0, 231]",231,a,0.31348569970577955,colour,0.5
33,18,0,2,5,25,225,721.1198266283609,721.9127858337015,"[5, 0, 249]",249,a,0.2697900007478893,colour,0.5
33,18,0,2,5,26,226,723.9323379518464,724.960747284349,"[88, 0, 166]",166,l,0.5053318943828344,colour,0.5
33,18,0,2,5,27,227,726.979263979476,727.7687699384987,"[0, 0, 254]",254,a,0.2666601026430726,colour,0.5
33,18,0,2,5,28,228,729.7761470777914,730.6007613050751,"[27, 0, 227]",227,a,0.3018463524058461,colour,0.5
33,18,0,2,5,29,229,732.6199081549421,733.5847581387497,"[94, 0, 160]",160,l,0.44158507511019707,colour,0.5
33,18,0,2,5,30,230,735.6042429087684,736.49675391661,"[76, 0, 178]",178,l,0.369693114887923,colour,0.5
33,18,0,2,5,31,231,738.5104967979714,739.3447417546995,"[48, 0, 206]",206,a,0.31132938992232084,colour,0.5
33,18,0,2,5,32,232,741.3541980101727,741.9367163437419,"[15, 0, 239]",239,a,0.05972013296559453,colour,0.5
33,18,0,2,5,33,233,743.9484376106411,747.2647467958741,"[61, 0, 193]",193,l,2.7935235872864723,colour,0.5
33,18,0,2,5,34,234,749.276526351925,750.208770962432,"[56, 0, 198]",198,a,0.4096996528096497,colour,0.5
33,18,0,2,5,35,235,752.2296948474832,752.9767177617177,"[84, 0, 170]",170,l,0.22368750674650073,colour,0.5
33,18,0,2,5,36,236,754.9953392199241,755.7687675752677,"[17, 0, 237]",237,a,0.25076209334656596,colour,0.5
33,18,0,2,5,37,237,757.7765389550477,759.5288027850911,"[38, 0, 216]",216,a,1.2294522384181619,colour,0.5
33,18,0,2,5,38,238,761.5421770261601,762.7047950816341,"[66, 0, 188]",188,l,0.6398907471448183,colour,0.5
33,18,0,2,5,39,239,764.7141351522878,765.6648090234958,"[85, 0, 169]",169,l,0.4275972209870815,colour,0.5
33,18,0,2,5,40,240,767.6828074166551,768.4327987520956,"[93, 0, 161]",161,l,0.22725693741813302,colour,0.5
33,18,0,2,5,41,241,770.4484242196195,771.2408091970719,"[46, 0, 208]",208,a,0.26915512047708035,colour,0.5
33,18,0,2,5,42,242,773.2611655490473,774.0488302754238,"[28, 0, 226]",226,a,0.26518593495711684,colour,0.5
33,18,0,2,5,43,243,776.0577682289295,776.928843351081,"[92, 0, 162]",162,l,0.348269437905401,colour,0.5
33,18,0,2,5,44,244,778.9484033458866,779.6887777363881,"[75, 0, 179]",179,l,0.2170752165839076,colour,0.5
33,18,0,2,5,45,245,781.698320244439,782.75279946113,"[29, 0, 225]",225,a,0.5314364372752607,colour,0.5
33,18,0,2,5,46,246,784.7608134504408,785.6008089603856,"[3, 0, 251]",251,a,0.316630563698709,colour,0.5
33,18,0,2,5,47,247,787.6202444997616,788.4888541428372,"[40, 0, 214]",214,a,0.3453258294612169,colour,0.5
33,18,0,2,5,48,248,790.4952273676172,791.2248237533495,"[18, 0, 236]",236,a,0.20626019081100821,colour,0.5
33,18,0,2,5,49,249,793.2466857810505,793.9687860859558,"[81, 0, 173]",173,l,0.1988428789190948,colour,0.5
33,18,0,2,5,50,250,795.9810796119273,796.7608295981772,"[13, 0, 241]",241,a,0.25654572946950793,colour,0.5
33,18,0,2,6,1,251,806.3101813266985,807.432839712128,"[14, 0, 240]",240,a,0.5984675432555377,colour,0.5
33,18,0,2,6,2,252,809.4516242230311,810.1848172154278,"[83, 0, 171]",171,l,0.21000724658370018,colour,0.5
33,18,0,2,6,3,253,812.2018061801791,812.9928000913933,"[87, 0, 167]",167,l,0.2678853594698012,colour,0.5
33,18,0,2,6,4,254,814.9986928231083,815.7368325283751,"[5, 0, 249]",249,a,0.2149007902480662,colour,0.5
33,18,0,2,6,5,255,817.7486707675271,818.3768453677185,"[13, 0, 241]",241,a,0.10487700160592794,colour,0.5
33,18,0,2,6,6,256,820.3775680763647,821.1209723283537,"[91, 0, 163]",163,l,0.2200656938366592,colour,0.5
33,18,0,2,6,7,257,823.127536568325,823.7848888956942,"[33, 0, 221]",221,a,0.134117744397372,colour,0.5
33,18,0,2,6,8,258,825.7875422397628,826.4488519369625,"[18, 0, 236]",236,a,0.13793844962492585,colour,0.5
33,18,0,2,6,9,259,828.4594149012119,829.448945672717,"[57, 0, 197]",197,a,0.46623277897015214,colour,0.5
33,18,0,2,6,10,260,831.459425535053,832.8088946300559,"[31, 0, 223]",223,a,0.8260943023487926,colour,0.5
33,18,0,2,6,11,261,834.8188967569731,835.5928981588222,"[76, 0, 178]",178,l,0.25103148398920894,colour,0.5
33,18,0,2,6,12,262,837.6000571073964,841.2088556392118,"[59, 0, 195]",195,a,3.085604120977223,colour,0.5
33,18,0,2,6,13,263,843.2224713079631,845.5208372389898,"[60, 0, 194]",194,a,1.7752463510259986,colour,0.5
33,18,0,2,6,14,264,847.5349133140408,848.2728966623545,"[23, 0, 231]",231,a,0.21464951615780592,colour,0.5
33,18,0,2,6,15,265,850.2849499420263,850.9928784668446,"[16, 0, 238]",238,a,0.18476089602336287,colour,0.5
33,18,0,2,6,16,266,853.0037131849676,853.8728761821985,"[45, 0, 209]",209,a,0.34582168189808726,colour,0.5
33,18,0,2,6,17,267,855.8943037972786,856.6489129834808,"[44, 0, 210]",210,a,0.231158381793648,colour,0.5
33,18,0,2,6,18,268,858.6559659871273,859.4248509290628,"[79, 0, 175]",175,l,0.25764968153089285,colour,0.5
33,18,0,2,6,19,269,861.4406189690344,862.232868462801,"[69, 0, 185]",185,l,0.2687892368994653,colour,0.5
33,18,0,2,6,20,270,864.2532047289424,865.0008861543611,"[1, 0, 253]",253,a,0.22438343288376927,colour,0.5
33,18,0,2,6,21,271,867.0188274397515,867.6968244151212,"[30, 0, 224]",224,a,0.1545993397012353,colour,0.5
33,18,0,2,6,22,272,869.7049018139951,870.9528408148326,"[95, 0, 159]",159,l,0.7245842949487269,colour,0.5
33,18,0,2,6,23,273,872.9548966940492,873.5609040353447,"[89, 0, 165]",165,l,0.08304018061608076,colour,0.5
33,18,0,2,6,24,274,875.5798279675655,876.3849018923938,"[12, 0, 242]",242,a,0.28178853588178754,colour,0.5
33,18,0,2,6,25,275,878.3922687922604,878.9529065871611,"[92, 0, 162]",162,l,0.03667183918878436,colour,0.5
33,18,0,2,6,26,276,880.9711275035515,883.3049439555034,"[66, 0, 188]",188,l,1.810500736348331,colour,0.5
33,18,0,2,6,27,277,885.3148228083737,886.104933321476,"[27, 0, 227]",227,a,0.2667089393362403,colour,0.5
33,18,0,2,6,28,278,888.1117248111404,888.8889210964553,"[10, 0, 244]",244,a,0.25373799726366997,colour,0.5
33,18,0,2,6,29,279,890.9085972760804,891.776906020008,"[74, 0, 180]",180,l,0.34497530572116375,colour,0.5
33,18,0,2,6,30,280,893.7835817188025,894.9288969142362,"[64, 0, 190]",190,l,0.6220144461840391,colour,0.5
33,18,0,2,6,31,281,896.9385752994567,897.6648921254091,"[62, 0, 192]",192,a,0.20292667392641306,colour,0.5
33,18,0,2,6,32,282,899.6726229391061,900.2809023810551,"[46, 0, 208]",208,a,0.08466558484360576,colour,0.5
33,18,0,2,6,33,283,902.2946039084345,903.0089548886754,"[99, 0, 155]",155,l,0.19092341279610991,colour,0.5
33,18,0,2,6,34,284,905.0153852212243,905.5769887277856,"[84, 0, 170]",170,l,0.038880924228578806,colour,0.5
33,18,0,2,6,35,285,907.5936559196562,908.3529207655229,"[3, 0, 251]",251,a,0.23592274263501167,colour,0.5
33,18,0,2,6,36,286,910.3593377075158,911.4969370551407,"[68, 0, 186]",186,l,0.6142816632054746,colour,0.5
33,18,0,2,6,37,287,913.5160827231593,914.5049455310218,"[50, 0, 204]",204,a,0.4656660342589021,colour,0.5
33,18,0,2,6,38,288,916.5161087173037,917.2009082101285,"[8, 0, 246]",246,a,0.16161335306242108,colour,0.5
33,18,0,2,6,39,289,919.2191220372915,919.9929722021334,"[38, 0, 216]",216,a,0.25056359451264143,colour,0.5
33,18,0,2,6,40,290,922.0004639509134,922.8569683264941,"[90, 0, 164]",164,l,0.33340882044285536,colour,0.5
33,18,0,2,6,41,291,924.8753810464405,926.3769398909062,"[53, 0, 201]",201,a,0.978321110829711,colour,0.5
33,18,0,2,6,42,292,928.3831480941735,929.3449485241435,"[98, 0, 156]",156,l,0.4385126777924597,colour,0.5
33,18,0,2,6,43,293,931.3518845555373,932.3849609694444,"[15, 0, 239]",239,a,0.5098158372566104,colour,0.5
33,18,0,2,6,44,294,934.3987034568563,935.3609268781729,"[20, 0, 234]",234,a,0.4388765920884907,colour,0.5
33,18,0,2,6,45,295,937.3674741829745,938.6329283276573,"[40, 0, 214]",214,a,0.7422967557795346,colour,0.5
33,18,0,2,6,46,296,940.6486849463545,941.7930021346547,"[86, 0, 168]",168,l,0.6212771655991673,colour,0.5
33,18,0,2,6,47,297,943.8049900354818,944.6569572989829,"[52, 0, 202]",202,a,0.32897292682901025,colour,0.5
33,18,0,2,6,48,298,946.6526104146615,947.3689633170143,"[9, 0, 245]",245,a,0.192933211568743,colour,0.5
33,18,0,2,6,49,299,949.3870046394877,950.5690054586157,"[0, 0, 254]",254,a,0.6586193316616118,colour,0.5
33,18,0,2,6,50,300,952.5901140575297,953.3449493115768,"[41, 0, 213]",213,a,0.23154198797419667,colour,0.5
33,18,0,2,7,1,301,961.1792336530052,962.1929529034533,"[10, 0, 244]",244,a,0.4895827588625252,colour,0.5
33,18,0,2,7,2,302,964.2123407875188,965.2010700809769,"[59, 0, 195]",195,a,0.46543917851522565,colour,0.5
33,18,0,2,7,3,303,967.212325821165,967.99294857122,"[60, 0, 194]",194,a,0.2574184932745993,colour,0.5
33,18,0,2,7,4,304,970.0092034055851,970.6970248832367,"[44, 0, 210]",210,a,0.1648409254848957,colour,0.5
33,18,0,2,7,5,305,972.7122765905224,973.4490606756881,"[28, 0, 226]",226,a,0.21443250635638833,colour,0.5
33,18,0,2,7,6,306,975.4623726890422,976.1129583385773,"[54, 0, 200]",200,a,0.12758107297122478,colour,0.5
33,18,0,2,7,7,307,978.1343686245382,978.7529526674189,"[1, 0, 253]",253,a,0.09550975589081645,colour,0.5
33,18,0,2,7,8,308,980.7592357010581,981.6730648349039,"[98, 0, 156]",156,l,0.3904015659354627,colour,0.5
33,18,0,2,7,9,309,983.6862311246805,984.4009924931452,"[94, 0, 160]",160,l,0.19143580691888928,colour,0.5
33,18,0,2,7,10,310,986.4217320582829,987.3450170531869,"[68, 0, 186]",186,l,0.39999212278053164,colour,0.5
33,18,0,2,7,11,311,989.3610406997614,990.0970193692483,"[49, 0, 205]",205,a,0.21266886172816157,colour,0.5
33,18,0,2,7,12,312,992.1109894998372,993.0090092392638,"[81, 0, 173]",173,l,0.37471623346209526,colour,0.5
33,18,0,2,7,13,313,995.0172449643724,995.9530377383344,"[79, 0, 175]",175,l,0.4125916678458452,colour,0.5
33,18,0,2,7,14,314,997.9703638353385,998.7689857659861,"[45, 0, 209]",209,a,0.27569454815238714,colour,0.5
33,18,0,2,7,15,315,1000.7828306537122,1001.5930037098005,"[74, 0, 180]",180,l,0.28672500839456916,colour,0.5
33,18,0,2,7,16,316,1003.5986695862375,1004.209007664118,"[97, 0, 157]",157,l,0.08704284252598882,colour,0.5
33,18,0,2,7,17,317,1006.2255838774145,1006.9130229293369,"[26, 0, 228]",228,a,0.16416272148489952,colour,0.5
33,18,0,2,7,18,318,1008.9287535543554,1009.7130245049484,"[88, 0, 166]",166,l,0.261714571621269,colour,0.5
33,18,0,2,7,19,319,1011.7255381909199,1013.4570419760421,"[90, 0, 164]",164,l,1.2081786175258458,colour,0.5
33,18,0,2,7,20,320,1015.4764345856383,1016.2250340674073,"[8, 0, 246]",246,a,0.22542712651193142,colour,0.5
33,18,0,2,7,21,321,1018.2419489887543,1018.9850050802343,"[5, 0, 249]",249,a,0.22012595180422068,colour,0.5
33,18,0,2,7,22,322,1020.9918194133788,1022.5690156985074,"[62, 0, 192]",192,a,1.0538640283048153,colour,0.5
33,18,0,2,7,23,323,1024.5733885765076,1025.2971182246692,"[18, 0, 236]",236,a,0.200484037399292,colour,0.5
33,18,0,2,7,24,324,1027.3076244750991,1027.937034177594,"[93, 0, 161]",161,l,0.10609989520162344,colour,0.5
33,18,0,2,7,25,325,1029.9483119733632,1033.6491071498021,"[43, 0, 211]",211,a,3.177425897680223,colour,0.5
33,18,0,2,7,26,326,1035.6690054587089,1036.7530424641445,"[69, 0, 185]",185,l,0.5611139554530382,colour,0.5
33,18,0,2,7,27,327,1038.7627555076033,1039.4730412038043,"[32, 0, 222]",222,a,0.186998731456697,colour,0.5
33,18,0,2,7,28,328,1041.4815959446132,1044.2330374228768,"[7, 0, 247]",247,a,2.2282088645733893,colour,0.5
33,18,0,2,7,29,329,1046.239664284978,1047.0090844640508,"[72, 0, 182]",182,l,0.24603672232478857,colour,0.5
33,18,0,2,7,30,330,1049.0229269885458,1049.5850917268544,"[39, 0, 215]",215,a,0.038782068993896246,colour,0.5
33,18,0,2,7,31,331,1051.6010870160535,1052.425170338247,"[67, 0, 187]",187,a,0.3008802467957139,colour,0.5
33,18,0,2,7,32,332,1054.444787834771,1055.233061841689,"[21, 0, 233]",233,a,0.2649571103975177,colour,0.5
33,18,0,2,7,33,333,1057.2416870808229,1057.8410600773059,"[55, 0, 199]",199,a,0.07609509024769068,colour,0.5
33,18,0,2,7,34,334,1059.8510815026239,1060.3851870372891,"[6, 0, 248]",248,a,0.010868194978684187,colour,0.5
33,18,0,2,7,35,335,1062.397958299145,1063.9690676862374,"[86, 0, 168]",168,l,1.047837782651186,colour,0.5
33,18,0,2,7,36,336,1065.9760549175553,1066.6410711049102,"[13, 0, 241]",241,a,0.14197183214128017,colour,0.5
33,18,0,2,7,37,337,1068.647934274748,1069.3450528932735,"[85, 0, 169]",169,l,0.1738655250519514,colour,0.5
33,18,0,2,7,38,338,1071.36661244696,1072.6650583283044,"[3, 0, 251]",251,a,0.7750970828346908,colour,0.5
33,18,0,2,7,39,339,1074.6791678806767,1075.977041897364,"[77, 0, 177]",177,l,0.7745634214952588,colour,0.5
33,18,0,2,7,40,340,1077.9917260715738,1078.945157656446,"[40, 0, 214]",214,a,0.4301328049041331,colour,0.5
33,18,0,2,7,41,341,1080.9603987298906,1081.985126778949,"[46, 0, 208]",208,a,0.501683693844825,colour,0.5
33,18,0,2,7,42,342,1083.991582711693,1085.0011110408232,"[38, 0, 216]",216,a,0.48612202936783433,colour,0.5
33,18,0,2,7,43,343,1087.0072790714912,1088.001075594686,"[23, 0, 231]",231,a,0.47053397726267576,colour,0.5
33,18,0,2,7,44,344,1090.0365379313007,1091.3451033057645,"[35, 0, 219]",219,a,0.7802182696759701,colour,0.5
33,18,0,2,7,45,345,1093.3490973035805,1094.4170909705572,"[61, 0, 193]",193,a,0.5446054842323065,colour,0.5
33,18,0,2,7,46,346,1096.4272687528282,1097.5211172634736,"[34, 0, 220]",220,a,0.5705958106555045,colour,0.5
33,18,0,2,7,47,347,1099.5366438757628,1100.8890920258127,"[57, 0, 197]",197,a,0.8291064407676458,colour,0.5
33,18,0,2,7,48,348,1102.896069017239,1103.7291332222521,"[64, 0, 190]",190,a,0.3098118989728391,colour,0.5
33,18,0,2,7,49,349,1105.7397001250647,1106.5771183036268,"[36, 0, 218]",218,a,0.31401581689715385,colour,0.5
33,18,0,2,7,50,350,1108.5855017211288,1110.8010956807993,"[75, 0, 179]",179,l,1.6923853708431125,colour,0.5
33,18,0,2,8,1,351,1119.147198962979,1120.4971524891444,"[54, 0, 200]",200,a,0.8259273115545511,colour,0.5
33,18,0,2,8,2,352,1122.4981406503357,1123.473138090223,"[60, 0, 194]",194,a,0.4518140573054552,colour,0.5
33,18,0,2,8,3,353,1125.4824112071656,1126.433121706359,"[52, 0, 202]",202,a,0.4272766299545765,colour,0.5
33,18,0,2,8,4,354,1128.4511961117387,1129.057099477388,"[19, 0, 235]",235,a,0.0826534228399396,colour,0.5
33,18,0,2,8,5,355,1131.076099816244,1131.6891759154387,"[24, 0, 230]",230,a,0.09004040900617838,colour,0.5
33,18,0,2,8,6,356,1133.7011980810203,1134.5611367984675,"[63, 0, 191]",191,a,0.33686049189418554,colour,0.5
33,18,0,2,8,7,357,1136.5761313238181,1137.2094865813851,"[28, 0, 226]",226,a,0.12248154822736979,colour,0.5
33,18,0,2,8,8,358,1139.2200700258836,1139.881135144271,"[47, 0, 207]",207,a,0.14266027603298426,colour,0.5
33,18,0,2,8,9,359,1141.8870519008487,1142.7211251407862,"[57, 0, 197]",197,a,0.31073153065517545,colour,0.5
33,18,0,2,8,10,360,1144.7307881657034,1145.7851326866075,"[98, 0, 156]",156,l,0.5310118705965579,colour,0.5
33,18,0,2,8,11,361,1147.7933038207702,1148.6731542381458,"[32, 0, 222]",222,a,0.35654612351208925,colour,0.5
33,18,0,2,8,12,362,1150.683917670045,1152.2252179938368,"[62, 0, 192]",192,a,1.0180755872279406,colour,0.5
33,18,0,2,8,13,363,1154.2309055319056,1155.4572180253454,"[15, 0, 239]",239,a,0.7031854307278991,colour,0.5
33,18,0,2,8,14,364,1157.4652446177788,1158.1292033270001,"[34, 0, 220]",220,a,0.14076036028563976,colour,0.5
33,18,0,2,8,15,365,1160.1370601714589,1161.3931726701558,"[70, 0, 184]",184,l,0.7329117865301669,colour,0.5
33,18,0,2,8,16,366,1163.4027329008095,1164.057153828442,"[37, 0, 217]",217,a,0.13121352018788457,colour,0.5
33,18,0,2,8,17,367,1166.074509857688,1167.433183146175,"[49, 0, 205]",205,l,0.8353315792046487,colour,0.5
33,18,0,2,8,18,368,1169.4495214764029,1170.785156317521,"[25, 0, 229]",229,a,0.8123998646624386,colour,0.5
33,18,0,2,8,19,369,1172.7933038207702,1173.4971985691227,"[16, 0, 238]",238,a,0.18054043594747782,colour,0.5
33,18,0,2,8,20,370,1175.5119926268235,1176.6011571208946,"[92, 0, 162]",162,l,0.5658153016120195,colour,0.5
33,18,0,2,8,21,371,1178.6213740515523,1180.1611446752213,"[66, 0, 188]",188,l,1.0145191526971757,colour,0.5
33,18,0,2,8,22,372,1182.1701086228713,1183.449193796143,"[58, 0, 196]",196,l,0.7557548857294023,colour,0.5
33,18,0,2,8,23,373,1185.466981481295,1186.0812304550782,"[96, 0, 158]",158,l,0.09097618795931339,colour,0.5
33,18,0,2,8,24,374,1188.0920167304575,1189.2891786722466,"[95, 0, 159]",159,l,0.6737871496006846,colour,0.5
33,18,0,2,8,25,375,1191.2951584444381,1192.729231684003,"[59, 0, 195]",195,a,0.9107307428494096,colour,0.5
33,18,0,2,8,26,376,1194.7482402934693,1196.3452450903133,"[69, 0, 185]",185,l,1.0737068047747016,colour,0.5
33,18,0,2,8,27,377,1198.3576977304183,1199.5131714097224,"[56, 0, 198]",198,a,0.6322686350904405,colour,0.5
33,18,0,2,8,28,378,1201.5302639557049,1202.2811694089323,"[64, 0, 190]",190,a,0.22830299381166697,colour,0.5
33,18,0,2,8,29,379,1204.2950832196511,1204.833246555645,"[93, 0, 161]",161,l,0.014783423859626055,colour,0.5
33,18,0,2,8,30,380,1206.842005702667,1207.4012666102499,"[99, 0, 155]",155,l,0.035906595177948475,colour,0.5
33,18,0,2,8,31,381,1209.4134482839145,1210.3452017675154,"[33, 0, 221]",221,a,0.4083944451995194,colour,0.5
33,18,0,2,8,32,382,1212.366562822368,1213.1371865966357,"[90, 0, 164]",164,l,0.24734114203602076,colour,0.5
33,18,0,2,8,33,383,1215.1478779544123,1216.0012414040975,"[53, 0, 201]",201,a,0.3309669718146324,colour,0.5
33,18,0,2,8,34,384,1218.007277496159,1218.8812698395923,"[1, 0, 253]",253,a,0.35077666537836194,colour,0.5
33,18,0,2,8,35,385,1220.8977830377407,1221.8172823800705,"[88, 0, 166]",166,l,0.39967665215954185,colour,0.5
33,18,0,2,8,36,386,1223.8318440681323,1224.705233826302,"[21, 0, 233]",233,a,0.3499881844036281,colour,0.5
33,18,0,2,8,37,387,1226.7245157654397,1227.737257882487,"[0, 0, 254]",254,a,0.48942561401054263,colour,0.5
33,18,0,2,8,38,388,1229.7566170156933,1230.5692374343053,"[29, 0, 225]",225,a,0.2893023402430117,colour,0.5
33,18,0,2,8,39,389,1232.5846837018616,1233.4252361105755,"[48, 0, 206]",206,a,0.3172418135218322,colour,0.5
33,18,0,2,8,40,390,1235.4441305049695,1236.0812028860673,"[20, 0, 234]",234,a,0.11377557087689638,colour,0.5
33,18,0,2,8,41,391,1238.0912306127138,1238.9292931240052,"[9, 0, 245]",245,a,0.3147964207455516,colour,0.5
33,18,0,2,8,42,392,1240.9506616620347,1242.0172276352532,"[51, 0, 203]",203,a,0.5433349348604679,colour,0.5
33,18,0,2,8,43,393,1244.028844139073,1244.5932203256525,"[13, 0, 241]",241,a,0.04103526519611478,colour,0.5
33,18,0,2,8,44,394,1246.6069450895302,1247.737235433422,"[97, 0, 157]",157,l,0.6069687209092081,colour,0.5
33,18,0,2,8,45,395,1249.7412117081694,1250.9052653340623,"[40, 0, 214]",214,a,0.6407816275022924,colour,0.5
33,18,0,2,8,46,396,1252.9058864302933,1254.2572834040038,"[4, 0, 250]",250,a,0.8280851971358061,colour,0.5
33,18,0,2,8,47,397,1256.2652556453831,1257.5212807101198,"[45, 0, 209]",209,a,0.7327507031150162,colour,0.5
33,18,0,2,8,48,398,1259.5208734725602,1260.4094401076436,"[38, 0, 216]",216,a,0.3775227842852473,colour,0.5
33,18,0,2,8,49,399,1262.414666451048,1263.649259568192,"[68, 0, 186]",186,l,0.7115361588075757,colour,0.5
33,18,0,2,8,50,400,1265.664737737272,1266.6573290899396,"[3, 0, 251]",251,a,0.4695241544395685,colour,0.5
33,18,0,2,9,1,401,1274.351773884613,1275.7613026080653,"[55, 0, 199]",199,l,0.8906418127007782,colour,0.5
33,18,0,2,9,2,402,1277.7569175204262,1278.8013686165214,"[48, 0, 206]",206,a,0.5211637378670275,colour,0.5
33,18,0,2,9,3,403,1280.8203409919515,1282.105249186512,"[42, 0, 212]",212,a,0.7619095253758132,colour,0.5
33,18,0,2,9,4,404,1284.1059486577287,1284.657316093333,"[33, 0, 221]",221,a,0.0281293080188334,colour,0.5
33,18,0,2,9,5,405,1286.668535599485,1287.8092593317851,"[71, 0, 183]",183,l,0.6179306511767209,colour,0.5
33,18,0,2,9,6,406,1289.8259879639372,1290.665283608716,"[75, 0, 179]",179,l,0.3162347483448684,colour,0.5
33,18,0,2,9,7,407,1292.6857214872725,1293.3456038846634,"[43, 0, 211]",211,a,0.13681244244799018,colour,0.5
33,18,0,2,9,8,408,1295.3537781694904,1296.7933085472323,"[77, 0, 177]",177,l,0.9165368289686739,colour,0.5
33,18,0,2,9,9,409,1298.8069273666479,1299.6573306652717,"[90, 0, 164]",164,l,0.32701669121161103,colour,0.5
33,18,0,2,9,10,410,1301.6662918557413,1302.313411262352,"[24, 0, 230]",230,a,0.1240569343790412,colour,0.5
33,18,0,2,9,11,411,1304.32358510606,1305.1933447807096,"[53, 0, 201]",201,a,0.3463368332013488,colour,0.5
33,18,0,2,9,12,412,1307.2141820196994,1307.8574590594508,"[40, 0, 214]",214,a,0.11994399502873421,colour,0.5
33,18,0,2,9,13,413,1309.8705190108158,1310.6733086258173,"[73, 0, 181]",181,l,0.27955266926437616,colour,0.5
33,18,0,2,9,14,414,1312.6829098169692,1313.577298684977,"[51, 0, 203]",203,a,0.3711034790612757,colour,0.5
33,18,0,2,9,15,415,1315.5892586228438,1316.3053468605503,"[5, 0, 249]",249,a,0.1928020608611405,colour,0.5
33,18,0,2,9,16,416,1318.3235307554714,1319.3133915700018,"[20, 0, 234]",234,a,0.466317062266171,colour,0.5
33,18,0,2,9,17,417,1321.323559505865,1322.1216942486353,"[37, 0, 217]",217,a,0.27489897795021534,colour,0.5
33,18,0,2,9,18,418,1324.1360405031592,1324.889295250643,"[26, 0, 228]",228,a,0.23000834928825498,colour,0.5
33,18,0,2,9,19,419,1326.9017104753293,1327.7053192909807,"[32, 0, 222]",222,a,0.280538072809577,colour,0.5
33,18,0,2,9,20,420,1329.7161000524648,1330.4093353445642,"[38, 0, 216]",216,a,0.16990342922508717,colour,0.5
33,18,0,2,9,21,421,1332.4191043139435,1335.6653127535246,"[70, 0, 184]",184,l,2.7230349029414356,colour,0.5
33,18,0,2,9,22,422,1337.6848668404855,1338.4173489399254,"[36, 0, 218]",218,a,0.20961221866309643,colour,0.5
33,18,0,2,9,23,423,1340.4347880710848,1341.1533689629287,"[3, 0, 251]",251,a,0.19537702901288867,colour,0.5
33,18,0,2,9,24,424,1343.1691756001674,1343.921399651561,"[78, 0, 176]",176,l,0.22901861323043704,colour,0.5
33,18,0,2,9,25,425,1345.934797917027,1346.8413184406236,"[44, 0, 210]",210,a,0.3832839713431895,colour,0.5
33,18,0,2,9,26,426,1348.8567087817937,1350.2333564385772,"[67, 0, 187]",187,l,0.8533165813423693,colour,0.5
33,18,0,2,9,27,427,1352.2392601985484,1353.0653600147925,"[86, 0, 168]",168,l,0.3026962731964886,colour,0.5
33,18,0,2,9,28,428,1355.0829933122732,1355.9053972726688,"[54, 0, 200]",200,a,0.2998810582794249,colour,0.5
33,18,0,2,9,29,429,1357.9175580726005,1358.7133683329448,"[88, 0, 166]",166,l,0.2725280220620334,colour,0.5
33,18,0,2,9,30,430,1360.7300544292666,1361.6893897741102,"[49, 0, 205]",205,a,0.43615944497287273,colour,0.5
33,18,0,2,9,31,431,1363.6988176726736,1364.305341346655,"[12, 0, 242]",242,a,0.08348562056198716,colour,0.5
33,18,0,2,9,32,432,1366.323769426439,1367.0493765408173,"[35, 0, 219]",219,a,0.20227249478921294,colour,0.5
33,18,0,2,9,33,433,1369.0635695885867,1371.9533878676593,"[66, 0, 188]",188,l,2.3668396966531873,colour,0.5
33,18,0,2,9,34,434,1373.9697640067898,1374.6493978085928,"[84, 0, 170]",170,l,0.15646932367235422,colour,0.5
33,18,0,2,9,35,435,1376.6573015209287,1377.4254255509004,"[62, 0, 192]",192,l,0.24492253037169576,colour,0.5
33,18,0,2,9,36,436,1379.438504013233,1380.1373815503903,"[25, 0, 229]",229,a,0.17556024668738246,colour,0.5
33,18,0,2,9,37,437,1382.1435736059211,1383.945417595096,"[14, 0, 240]",240,a,1.2783289877697825,colour,0.5
33,18,0,2,9,38,438,1385.9565512430854,1386.8014194229618,"[76, 0, 178]",178,l,0.32161626778542995,colour,0.5
33,18,0,2,9,39,439,1388.815849172417,1389.6973407478072,"[95, 0, 159]",159,l,0.3585370173677802,colour,0.5
33,18,0,2,9,40,440,1391.706439784728,1392.7533847168088,"[82, 0, 172]",172,l,0.5236382754519582,colour,0.5
33,18,0,2,9,41,441,1394.7689199936576,1395.9854918746278,"[59, 0, 195]",195,l,0.6933597470633686,colour,0.5
33,18,0,2,9,42,442,1398.0032878308557,1399.1054472913966,"[52, 0, 202]",202,a,0.5788157824426889,colour,0.5
33,18,0,2,9,43,443,1401.1127539323643,1401.9694264805876,"[93, 0, 161]",161,l,0.3333430481143296,colour,0.5
33,18,0,2,9,44,444,1403.9878415632993,1406.6734161460772,"[69, 0, 185]",185,a,2.162310855463147,colour,0.5
33,18,0,2,9,45,445,1408.6908391290344,1409.577371546533,"[15, 0, 239]",239,a,0.36317377258092165,colour,0.5
33,18,0,2,9,46,446,1411.5971111352555,1412.5534233138897,"[8, 0, 246]",246,a,0.43301379261538386,colour,0.5
33,18,0,2,9,47,447,1414.5658960402943,1415.745428623166,"[98, 0, 156]",156,l,0.6562527078203857,colour,0.5
33,18,0,2,9,48,448,1417.753388655372,1418.6094712214544,"[6, 0, 248]",248,a,0.3317085849121213,colour,0.5
33,18,0,2,9,49,449,1420.6295991428196,1421.537423692178,"[18, 0, 236]",236,a,0.38450253242626786,colour,0.5
33,18,0,2,9,50,450,1423.5515903523192,1424.6654261811636,"[46, 0, 208]",208,a,0.5907004955224693,colour,0.5
33,18,0,2,10,1,451,1433.956856080331,1435.217407623306,"[28, 0, 226]",226,a,0.7363725160248578,colour,0.5
33,18,0,2,10,2,452,1437.2233310751617,1438.5374181782827,"[76, 0, 178]",178,l,0.7907607541419566,colour,0.5
33,18,0,2,10,3,453,1440.5514576258138,1441.51346640056,"[12, 0, 242]",242,a,0.4387198411859572,colour,0.5
33,18,0,2,10,4,454,1443.5077914660797,1444.425449969247,"[29, 0, 225]",225,a,0.39435578510165215,colour,0.5
33,18,0,2,10,5,455,1446.4452797491103,1447.2654198794626,"[9, 0, 245]",245,a,0.29745181277394295,colour,0.5
33,18,0,2,10,6,456,1449.2641477552243,1450.3774424390867,"[5, 0, 249]",249,a,0.590034500695765,colour,0.5
33,18,0,2,10,7,457,1452.3768284325488,1453.5054945531301,"[46, 0, 208]",208,a,0.6054650149308145,colour,0.5
33,18,0,2,10,8,458,1455.5174804846756,1456.5214394303039,"[33, 0, 221]",221,a,0.4811717723496258,colour,0.5
33,18,0,2,10,9,459,1458.5330913802609,1459.7694225418381,"[92, 0, 162]",162,l,0.7130556190386415,colour,0.5
33,18,0,2,10,10,460,1461.7830169429071,1462.6094570429996,"[27, 0, 227]",227,a,0.3031109939329326,colour,0.5
33,18,0,2,10,11,461,1464.6274069929495,1465.6335088573396,"[94, 0, 160]",160,l,0.4828231707215309,colour,0.5
33,18,0,2,10,12,462,1467.6429202142172,1468.5214677872136,"[45, 0, 209]",209,a,0.35522713139653206,colour,0.5
33,18,0,2,10,13,463,1470.5336281927302,1471.3694635019638,"[7, 0, 247]",247,a,0.3125656736083329,colour,0.5
33,18,0,2,10,14,464,1473.3773238915019,1474.2415263913572,"[87, 0, 167]",167,l,0.3408777262084186,colour,0.5
33,18,0,2,10,15,465,1476.2553196852095,1477.481528203003,"[59, 0, 195]",195,l,0.7029751166701317,colour,0.5
33,18,0,2,10,16,466,1479.4923290507868,1480.6254637539387,"[67, 0, 187]",187,l,0.6097382493317127,colour,0.5
33,18,0,2,10,17,467,1482.6330078844912,1483.9615255249664,"[57, 0, 197]",197,l,0.8052936913445592,colour,0.5
33,18,0,2,10,18,468,1485.9767602970824,1486.9854895118624,"[73, 0, 181]",181,l,0.4975360962562263,colour,0.5
33,18,0,2,10,19,469,1488.9960024575703,1489.7455089678988,"[71, 0, 183]",183,l,0.22617897996678948,colour,0.5
33,18,0,2,10,20,470,1491.7616464360617,1492.9455050290562,"[49, 0, 205]",205,a,0.6604389022104442,colour,0.5
33,18,0,2,10,21,471,1494.9647798789665,1497.0095464461483,"[13, 0, 241]",241,a,1.5214236765168607,colour,0.5
33,18,0,2,10,22,472,1499.0271116080694,1499.7295038318262,"[48, 0, 206]",206,a,0.17886028671637177,colour,0.5
33,18,0,2,10,23,473,1501.7350889695808,1503.2736229151487,"[63, 0, 191]",191,l,1.015447448939085,colour,0.5
33,18,0,2,10,24,474,1505.2818637602031,1505.8335021617822,"[95, 0, 159]",159,l,0.028260458260774612,colour,0.5
33,18,0,2,10,25,475,1507.8443762650713,1508.5054937652312,"[91, 0, 163]",163,l,0.1377458586357534,colour,0.5
33,18,0,2,10,26,476,1510.5163017017767,1511.7615424604155,"[78, 0, 176]",176,l,0.7219561571255326,colour,0.5
33,18,0,2,10,27,477,1513.781923231203,1514.6334942849353,"[77, 0, 177]",177,l,0.32830496318638325,colour,0.5
33,18,0,2,10,28,478,1516.6430584546179,1517.945519207511,"[80, 0, 174]",174,l,0.7791883610188961,colour,0.5
33,18,0,2,10,29,479,1519.9555252729915,1520.9375221538357,"[2, 0, 252]",252,a,0.45865438412874937,colour,0.5
33,18,0,2,10,30,480,1522.9556446084753,1523.649519113358,"[22, 0, 232]",232,a,0.17064386047422886,colour,0.5
33,18,0,2,10,31,481,1525.6586728943512,1526.2975069512613,"[44, 0, 210]",210,a,0.11625089589506388,colour,0.5
33,18,0,2,10,32,482,1528.3149547469802,1529.513504997827,"[85, 0, 169]",169,l,0.6753483572974801,colour,0.5
33,18,0,2,10,33,483,1531.533670334611,1532.3695501484908,"[96, 0, 158]",158,l,0.31253613578155637,colour,0.5
33,18,0,2,10,34,484,1534.3774156575091,1535.6415417515673,"[31, 0, 223]",223,a,0.7415815303102136,colour,0.5
33,18,0,2,10,35,485,1537.658663048409,1539.0895520388149,"[52, 0, 202]",202,a,0.9078895337879658,colour,0.5
33,18,0,2,10,36,486,1541.0961351837032,1541.9215296208858,"[36, 0, 218]",218,a,0.30212046951055527,colour,0.5
33,18,0,2,10,37,487,1543.9398927157745,1545.1215315903537,"[84, 0, 170]",170,l,0.6584968455135822,colour,0.5
33,18,0,2,10,38,488,1547.1430438822135,1548.185539136175,"[54, 0, 200]",200,a,0.5192169542424381,colour,0.5
33,18,0,2,10,39,489,1550.193188817706,1551.9455660753883,"[65, 0, 189]",189,l,1.2292064777575433,colour,0.5
33,18,0,2,10,40,490,1553.9560274272226,1554.9695371515118,"[98, 0, 156]",156,l,0.4900892456062138,colour,0.5
33,18,0,2,10,41,491,1556.981734185014,1557.9215938178822,"[38, 0, 216]",216,a,0.4167239055968821,colour,0.5
33,18,0,2,10,42,492,1559.9348758985288,1561.6255318894982,"[64, 0, 190]",190,a,1.1674611861817539,colour,0.5
33,18,0,2,10,43,493,1563.637880553957,1564.2335490295663,"[62, 0, 192]",192,a,0.07227399107068777,colour,0.5
33,18,0,2,10,44,494,1566.247336415574,1566.7776039163582,"[41, 0, 213]",213,a,0.00699392706155777,colour,0.5
33,18,0,2,10,45,495,1568.8115444295108,1569.8895536139607,"[30, 0, 224]",224,a,0.5547564844600856,colour,0.5
33,18,0,2,10,46,496,1571.9051849893294,1572.7135928254575,"[37, 0, 217]",217,a,0.2850574622862041,colour,0.5
33,18,0,2,10,47,497,1574.733339897357,1575.7695765360259,"[0, 0, 254]",254,a,0.5129087143577635,colour,0.5
33,18,0,2,10,48,498,1577.7802808913402,1578.993568092119,"[14, 0, 240]",240,a,0.6899939351715147,colour,0.5
33,18,0,2,10,49,499,1581.015072112903,1582.2975380648859,"[70, 0, 184]",184,l,0.7591388151049614,colour,0.5
33,18,0,2,10,50,500,1584.312009956222,1585.2735957400873,"[25, 0, 229]",229,a,0.43824210530146956,colour,0.5
33,18,0,2,11,1,501,1600.1323777302168,1601.4496246641502,"[7, 0, 247]",247,a,0.7918485584668815,colour,0.5
33,18,0,2,11,2,502,1603.462580639869,1605.1455908878706,"[60, 0, 194]",194,l,1.1598371053114533,colour,0.5
33,18,0,2,11,3,503,1607.16698463168,1608.2497605411336,"[37, 0, 217]",217,a,0.5597311602905393,colour,0.5
33,18,0,2,11,4,504,1610.2637294903398,1611.6096177324653,"[82, 0, 172]",172,l,0.8224717024713755,colour,0.5
33,18,0,2,11,5,505,1613.6241648481227,1614.8656427967362,"[36, 0, 218]",218,a,0.7180952792987227,colour,0.5
33,18,0,2,11,6,506,1616.8742526760325,1617.6576016317122,"[13, 0, 241]",241,a,0.2601072834804654,colour,0.5
33,18,0,2,11,7,507,1619.671878568828,1620.249611273408,"[17, 0, 237]",237,a,0.054788386449217796,colour,0.5
33,18,0,2,11,8,508,1622.2680488051847,1623.3136511147022,"[67, 0, 187]",187,l,0.5205300385132432,colour,0.5
33,18,0,2,11,9,509,1625.332493914757,1626.5136188194156,"[32, 0, 222]",222,a,0.6581404143944383,colour,0.5
33,18,0,2,11,10,510,1628.527672839351,1629.337643458508,"[10, 0, 244]",244,a,0.2866163067519665,colour,0.5
33,18,0,2,11,11,511,1631.3564693229273,1632.409683110658,"[56, 0, 198]",198,l,0.529864595271647,colour,0.5
33,18,0,2,11,12,512,1634.4216745565645,1635.4816467510536,"[39, 0, 215]",215,a,0.5372519753873348,colour,0.5
33,18,0,2,11,13,513,1637.4999590399675,1638.4176781955175,"[35, 0, 219]",219,a,0.3945019021630287,colour,0.5
33,18,0,2,11,14,514,1640.437391396612,1641.2816550219432,"[26, 0, 228]",228,a,0.32083999598398805,colour,0.5
33,18,0,2,11,15,515,1643.296810630709,1644.2576867025346,"[99, 0, 155]",155,l,0.43753948295488954,colour,0.5
33,18,0,2,11,16,516,1646.2581987031735,1647.4736508782953,"[22, 0, 232]",232,a,0.6920958934351802,colour,0.5
33,18,0,2,11,17,517,1649.4978944961913,1650.545679109171,"[74, 0, 180]",180,l,0.5244968608021736,colour,0.5
33,18,0,2,11,18,518,1652.560272699222,1653.4976447974332,"[45, 0, 209]",209,a,0.4140555951744318,colour,0.5
33,18,0,2,11,19,519,1655.5134632498957,1656.3296263180673,"[4, 0, 250]",250,a,0.29286428820341825,colour,0.5
33,18,0,2,11,20,520,1658.3404665505514,1659.121723393444,"[34, 0, 220]",220,a,0.257871022913605,colour,0.5
33,18,0,2,11,21,521,1661.1372728487477,1661.913647964131,"[51, 0, 203]",203,a,0.2530105630867183,colour,0.5
33,18,0,2,11,22,522,1663.9341898178682,1665.0736815985292,"[70, 0, 184]",184,l,0.6161225019022822,colour,0.5
33,18,0,2,11,23,523,1667.0904724579304,1667.9617177220061,"[12, 0, 242]",242,a,0.3479685392230749,colour,0.5
33,18,0,2,11,24,524,1669.9810307747684,1670.8896654667333,"[88, 0, 166]",166,l,0.38564074924215674,colour,0.5
33,18,0,2,11,25,525,1672.9025466116145,1674.1136452071369,"[86, 0, 168]",168,l,0.6878269910812378,colour,0.5
33,18,0,2,11,26,526,1676.123196773231,1677.337690719869,"[63, 0, 191]",191,a,0.6911069448105991,colour,0.5
33,18,0,2,11,27,527,1679.357587059494,1681.04172213329,"[94, 0, 160]",160,l,1.1608158140443265,colour,0.5
33,18,0,2,11,28,528,1683.0483001582325,1683.8336845128797,"[68, 0, 186]",186,l,0.2620690334588289,colour,0.5
33,18,0,2,11,29,529,1685.8451797119342,1687.0096472706646,"[18, 0, 236]",236,a,0.6412369143217802,colour,0.5
33,18,0,2,11,30,530,1689.0200475766324,1689.9456968326122,"[9, 0, 245]",245,a,0.40280970139428973,colour,0.5
33,18,0,2,11,31,531,1691.9484301274642,1693.0577201796696,"[33, 0, 221]",221,a,0.5864426204934716,colour,0.5
33,18,0,2,11,32,532,1695.0732952351682,1696.3456676877104,"[80, 0, 174]",174,l,0.7493970207870007,colour,0.5
33,18,0,2,11,33,533,1698.3545430195518,1699.4577579889446,"[84, 0, 170]",170,l,0.5802292972803116,colour,0.5
33,18,0,2,11,34,534,1701.4652131102048,1702.3057056544349,"[42, 0, 212]",212,a,0.31714295828714967,colour,0.5
33,18,0,2,11,35,535,1704.3154588704929,1705.241652422119,"[28, 0, 226]",226,a,0.4029187965206802,colour,0.5
33,18,0,2,11,36,536,1707.243681519758,1708.081770024728,"[93, 0, 161]",161,l,0.31483974354341626,colour,0.5
33,18,0,2,11,37,537,1710.1031098118983,1711.8177270325832,"[30, 0, 224]",224,a,1.1916559669189155,colour,0.5
33,18,0,2,11,38,538,1713.8374099074863,1714.9617287497967,"[85, 0, 169]",169,l,0.6009936747141182,colour,0.5
33,18,0,2,11,39,539,1716.9780544764362,1718.553676163312,"[16, 0, 238]",238,a,1.0526214423589408,colour,0.5
33,18,0,2,11,40,540,1720.5718332766555,1722.0017455276102,"[92, 0, 162]",162,l,0.9072971888817847,colour,0.5
33,18,0,2,11,41,541,1723.9999582520686,1725.9057115623727,"[65, 0, 189]",189,l,1.382433656603098,colour,0.5
33,18,0,2,11,42,542,1727.9217592333443,1728.8336730916053,"[96, 0, 158]",158,l,0.38857845030725,colour,0.5
33,18,0,2,11,43,543,1730.8438083385117,1731.809742581565,"[90, 0, 164]",164,l,0.4428146635182202,colour,0.5
33,18,0,2,11,44,544,1733.828313627746,1734.889716272708,"[81, 0, 173]",173,l,0.5380873237736523,colour,0.5
33,18,0,2,11,45,545,1736.906349199824,1737.7457121927291,"[57, 0, 197]",197,a,0.31596299447119236,colour,0.5
33,18,0,2,11,46,546,1739.7657357444987,1740.5137413055636,"[20, 0, 234]",234,a,0.22463667672127485,colour,0.5
33,18,0,2,11,47,547,1742.5314057166688,1743.3537533571944,"[46, 0, 208]",208,a,0.31154639879241586,colour,0.5
33,18,0,2,11,48,548,1745.3626015135087,1746.4657270801254,"[79, 0, 175]",175,l,0.5800071684643626,colour,0.5
33,18,0,2,11,49,549,1748.4721459909342,1749.6497247009538,"[44, 0, 210]",210,a,0.6459106914699078,colour,0.5
33,18,0,2,11,50,550,1751.667962946929,1752.6497235195711,"[78, 0, 176]",176,l,0.45874496875330806,colour,0.5
33,18,0,2,12,1,551,1760.4015293060802,1764.4497739318758,"[80, 0, 174]",174,a,3.5242420420981944,colour,0.5
33,18,0,2,12,2,552,1766.466879080981,1767.457780831959,"[34, 0, 220]",220,a,0.4676990695297718,colour,0.5
33,18,0,2,12,3,553,1769.456073507201,1770.377809504047,"[32, 0, 222]",222,a,0.3984135859645903,colour,0.5
33,18,0,2,12,4,554,1772.3936236244626,1773.4097937815823,"[12, 0, 242]",242,a,0.493071845266968,colour,0.5
33,18,0,2,12,5,555,1775.4279032396153,1776.6657849755138,"[99, 0, 155]",155,l,0.7147436453960836,colour,0.5
33,18,0,2,12,6,556,1778.6778362854384,1780.6817763266154,"[64, 0, 190]",190,a,1.4818397359922528,colour,0.5
33,18,0,2,12,7,557,1782.693427094724,1783.385775050614,"[2, 0, 252]",252,a,0.16904681269079447,colour,0.5
33,18,0,2,12,8,558,1785.3965333625674,1786.249774325639,"[91, 0, 163]",163,l,0.32996502611786127,colour,0.5
33,18,0,2,12,9,559,1788.2559372363612,1789.361847691238,"[63, 0, 191]",191,a,0.5825317241251469,colour,0.5
33,18,0,2,12,10,560,1791.3716284763068,1792.3858526381664,"[75, 0, 179]",179,l,0.49088324047625065,colour,0.5
33,18,0,2,12,11,561,1794.3935535196215,1795.8418221701868,"[69, 0, 185]",185,l,0.9250025600194931,colour,0.5
33,18,0,2,12,12,562,1797.8624018337578,1798.9618016113527,"[11, 0, 243]",243,a,0.5761978840455413,colour,0.5
33,18,0,2,12,13,563,1800.9717111843638,1801.8737950264476,"[88, 0, 166]",166,l,0.3789122747257352,colour,0.5
33,18,0,2,12,14,564,1803.894634234719,1804.930419919081,"[98, 0, 156]",156,l,0.512458547949791,colour,0.5
33,18,0,2,12,15,565,1806.9435976305977,1808.049787322525,"[77, 0, 177]",177,l,0.5832686112262309,colour,0.5
33,18,0,2,12,16,566,1810.0685194516554,1811.2018211460672,"[52, 0, 202]",202,a,0.6099182371981442,colour,0.5
33,18,0,2,12,17,567,1813.209175442811,1814.2978436900303,"[95, 0, 159]",159,l,0.565339928958565,colour,0.5
33,18,0,2,12,18,568,1816.3185592303053,1817.3857915918343,"[49, 0, 205]",205,a,0.5440474031493068,colour,0.5
33,18,0,2,12,19,569,1819.393602750264,1820.049848368857,"[21, 0, 233]",233,a,0.1332792448811233,colour,0.5
33,18,0,2,12,20,570,1822.0654742303304,1823.1218525753357,"[93, 0, 161]",161,l,0.5330133987590671,colour,0.5
33,18,0,2,12,21,571,1825.143616928719,1826.4578166720457,"[48, 0, 206]",206,a,0.7912668469361961,colour,0.5
33,18,0,2,12,22,572,1828.4734834935516,1829.2178262821399,"[38, 0, 216]",216,a,0.2137027089484036,colour,0.5
33,18,0,2,12,23,573,1831.2308496055193,1832.7698010285385,"[58, 0, 196]",196,l,1.0157385016791523,colour,0.5
33,18,0,2,12,24,574,1834.777684261091,1835.9058844610117,"[16, 0, 238]",238,a,0.6050152420066297,colour,0.5
33,18,0,2,12,25,575,1837.9154320890084,1838.6658239662647,"[17, 0, 237]",237,a,0.2270659222267568,colour,0.5
33,18,0,2,12,26,576,1840.6718750242144,1841.8978070621379,"[60, 0, 194]",194,l,0.7030570367351174,colour,0.5
33,18,0,2,12,27,577,1843.9061676366255,1845.2018565922044,"[55, 0, 199]",199,a,0.7721971906721592,colour,0.5
33,18,0,2,12,28,578,1847.2159184892662,1848.2098095356487,"[56, 0, 198]",198,a,0.4705418539233506,colour,0.5
33,18,0,2,12,29,579,1850.215953541454,1850.9858211302198,"[23, 0, 231]",231,a,0.24655463034287095,colour,0.5
33,18,0,2,12,30,580,1852.9971863599494,1853.8818168928847,"[57, 0, 197]",197,a,0.3613171805627644,colour,0.5
33,18,0,2,12,31,581,1855.8898608144373,1856.6578702353872,"[54, 0, 200]",200,a,0.2447819272056222,colour,0.5
33,18,0,2,12,32,582,1858.6716914917342,1859.9458933616988,"[94, 0, 160]",160,l,0.7511102533899248,colour,0.5
33,18,0,2,12,33,583,1861.956160153728,1863.025868628174,"[47, 0, 207]",207,a,0.5464116637594998,colour,0.5
33,18,0,2,12,34,584,1865.0443601175211,1865.5619544237852,"[42, 0, 212]",212,a,0.006866320502012968,colour,0.5
33,18,0,2,12,35,585,1867.5786830559373,1868.2578469985165,"[1, 0, 253]",253,a,0.15582853509113193,colour,0.5
33,18,0,2,12,36,586,1870.2570545789786,1871.0178420357406,"[20, 0, 234]",234,a,0.23758319998160005,colour,0.5
33,18,0,2,12,37,587,1873.0394673617557,1874.0738611924462,"[14, 0, 240]",240,a,0.5113746817223728,colour,0.5
33,18,0,2,12,38,588,1876.086394177284,1877.1218061014079,"[51, 0, 203]",203,a,0.5168656907044351,colour,0.5
33,18,0,2,12,39,589,1879.1284684091806,1880.1298961029388,"[89, 0, 165]",165,l,0.4780911044217646,colour,0.5
33,18,0,2,12,40,590,1882.1441013603471,1883.449857427273,"[6, 0, 248]",248,a,0.7824498042464256,colour,0.5
33,18,0,2,12,41,591,1885.4566174093634,1887.0419367793947,"[59, 0, 195]",195,l,1.0620690332725644,colour,0.5
33,18,0,2,12,42,592,1889.0503044431098,1890.6658688648604,"[66, 0, 188]",188,l,1.0922294077463448,colour,0.5
33,18,0,2,12,43,593,1892.675381834153,1893.5538900219835,"[30, 0, 224]",224,a,0.355172386392951,colour,0.5
33,18,0,2,12,44,594,1895.5659114001319,1896.5298606567085,"[25, 0, 229]",229,a,0.4405374429188669,colour,0.5
33,18,0,2,12,45,595,1898.5503958156332,1900.7378927632235,"[13, 0, 241]",241,a,1.6642391276545823,colour,0.5
33,18,0,2,12,46,596,1902.7534453691915,1904.305916362442,"[43, 0, 211]",211,a,1.0293206935748458,colour,0.5
33,18,0,2,12,47,597,1906.3167727426626,1907.321906532161,"[15, 0, 239]",239,a,0.4833749500103295,colour,0.5
33,18,0,2,12,48,598,1909.3315368676558,1910.1378762219101,"[37, 0, 217]",217,a,0.28293344797566533,colour,0.5
33,18,0,2,12,49,599,1912.144081667997,1913.5938882892951,"[81, 0, 173]",173,l,0.9264062293805182,colour,0.5
33,18,0,2,12,50,600,1915.6127720493823,1916.8339641438797,"[45, 0, 209]",209,a,0.6978129697963595,colour,0.5
33,18,0,2,13,1,601,1924.5650886548683,1926.8659165198915,"[56, 0, 198]",198,a,1.7770509556867182,colour,0.5
33,18,0,2,13,2,602,1928.8783998801373,1929.5219289814122,"[28, 0, 226]",226,a,0.12014879519119859,colour,0.5
33,18,0,2,13,3,603,1931.5346273817122,1932.4179148972034,"[16, 0, 238]",238,a,0.3599036647938192,colour,0.5
33,18,0,2,13,4,604,1934.4253782895394,1935.7379223019816,"[95, 0, 159]",159,l,0.7892361744306982,colour,0.5
33,18,0,2,13,5,605,1937.7533673876897,1938.7619556053542,"[37, 0, 217]",217,a,0.4854828165844083,colour,0.5
33,18,0,2,13,6,606,1940.7709971405566,1941.8979449085891,"[1, 0, 253]",253,a,0.603818342089653,colour,0.5
33,18,0,2,13,7,607,1943.9116161097772,1944.6739328727126,"[10, 0, 244]",244,a,0.2390463398769498,colour,0.5
33,18,0,2,13,8,608,1946.692883586511,1947.5939513044432,"[30, 0, 224]",224,a,0.3777366424910724,colour,0.5
33,18,0,2,13,9,609,1949.6147747589275,1950.7779469564557,"[41, 0, 213]",213,a,0.6398966545239091,colour,0.5
33,18,0,2,13,10,610,1952.7743550762534,1953.5779327782802,"[20, 0, 234]",234,a,0.2803273652680218,colour,0.5
33,18,0,2,13,11,611,1955.586801414378,1956.7619347316213,"[84, 0, 170]",170,l,0.6513851583003998,colour,0.5
33,18,0,2,13,12,612,1958.7749068550766,1959.8739285403863,"[82, 0, 172]",172,l,0.5756508316844702,colour,0.5
33,18,0,2,13,13,613,1961.884382802993,1963.0741396420635,"[29, 0, 225]",225,a,0.6663848040625453,colour,0.5
33,18,0,2,13,14,614,1965.075092356652,1966.2419596225955,"[70, 0, 184]",184,l,0.6438429970294237,colour,0.5
33,18,0,2,13,15,615,1968.2625542520545,1969.4819326833822,"[62, 0, 192]",192,l,0.6961639346554875,colour,0.5
33,18,0,2,13,16,616,1971.4969626553357,1972.618011389859,"[34, 0, 220]",220,a,0.5978393577970564,colour,0.5
33,18,0,2,13,17,617,1974.6375583875924,1975.8019542661496,"[44, 0, 210]",210,a,0.641615794505924,colour,0.5
33,18,0,2,13,18,618,1977.8056115251966,1979.250005907379,"[96, 0, 158]",158,l,0.9211160819977522,colour,0.5
33,18,0,2,13,19,619,1981.2493828423321,1982.5299232783727,"[6, 0, 248]",248,a,0.7575323148630559,colour,0.5
33,18,0,2,13,20,620,1984.5463498299941,1985.6981339547783,"[2, 0, 252]",252,a,0.6285211849026382,colour,0.5
33,18,0,2,13,21,621,1987.71818192536,1988.273981709499,"[8, 0, 246]",246,a,0.032476191874593496,colour,0.5
33,18,0,2,13,22,622,1990.280579032842,1991.3379597170278,"[81, 0, 173]",173,l,0.533994076307863,colour,0.5
33,18,0,2,13,23,623,1993.3587930174544,1994.2500047259964,"[93, 0, 161]",161,l,0.3679054453969002,colour,0.5
33,18,0,2,13,24,624,1996.264999251347,1997.1700404873118,"[23, 0, 231]",231,a,0.3819137793034315,colour,0.5
33,18,0,2,13,25,625,1999.186872700695,2001.2899896022864,"[19, 0, 235]",235,a,1.5800181957893074,colour,0.5
33,18,0,2,13,26,626,2003.2962966607884,2005.2019759276882,"[15, 0, 239]",239,a,1.3824163270182908,colour,0.5
33,18,0,2,13,27,627,2007.221369325649,2008.6660059234127,"[50, 0, 204]",204,a,0.9212767719291151,colour,0.5
33,18,0,2,13,28,628,2010.6745460918173,2011.8180243866518,"[90, 0, 164]",164,l,0.6202665553428233,colour,0.5
33,18,0,2,13,29,629,2013.83074917458,2015.026026560925,"[65, 0, 189]",189,a,0.6720105079002678,colour,0.5
33,18,0,2,13,30,630,2017.0338239348494,2018.162039888557,"[58, 0, 196]",196,a,0.6052354020066559,colour,0.5
33,18,0,2,13,31,631,2020.174530731514,2020.8580045369454,"[48, 0, 206]",206,a,0.1602648226544261,colour,0.5
33,18,0,2,13,32,632,2022.877662205603,2023.5779662551358,"[57, 0, 197]",197,a,0.1770899468101561,colour,0.5
33,18,0,2,13,33,633,2025.596345497761,2026.9380243080668,"[89, 0, 165]",165,l,0.8183434028178453,colour,0.5
33,18,0,2,13,34,634,2028.9556749346666,2030.1780355721712,"[38, 0, 216]",216,a,0.699122903868556,colour,0.5
33,18,0,2,13,35,635,2032.1753487507813,2034.074427937623,"[79, 0, 175]",175,l,1.3756811576895416,colour,0.5
33,18,0,2,13,36,636,2036.0749615998939,2037.0900931837969,"[21, 0, 233]",233,a,0.49187455186620355,colour,0.5
33,18,0,2,13,37,637,2039.1061818152666,2040.0820862837136,"[52, 0, 202]",202,a,0.4525647289119661,colour,0.5
33,18,0,2,13,38,638,2042.0905717075802,2043.0020330357365,"[77, 0, 177]",177,l,0.3881231639534235,colour,0.5
33,18,0,2,13,39,639,2045.004023142159,2046.186196859926,"[72, 0, 182]",182,l,0.6591711104847491,colour,0.5
33,18,0,2,13,40,640,2048.207079391461,2049.2180287190713,"[31, 0, 223]",223,a,0.48752766754478216,colour,0.5
33,18,0,2,13,41,641,2051.2384280008264,2052.274002583232,"[97, 0, 157]",157,l,0.5122860427945852,colour,0.5
33,18,0,2,13,42,642,2054.285285105463,2055.7620304361917,"[68, 0, 186]",186,l,0.9534686063416302,colour,0.5
33,18,0,2,13,43,643,2057.770747835748,2059.890095152892,"[11, 0, 243]",243,a,1.5946192685514688,colour,0.5
33,18,0,2,13,44,644,2061.9113727123477,2063.610078138765,"[32, 0, 222]",222,a,1.1755267693661153,colour,0.5
33,18,0,2,13,45,645,2065.6301410757005,2066.5220554061234,"[39, 0, 215]",215,a,0.3686931384727359,colour,0.5
33,18,0,2,13,46,646,2068.5363528234884,2069.666034674272,"[99, 0, 155]",155,l,0.6064248187467456,colour,0.5
33,18,0,2,13,47,647,2071.6769879404455,2072.72207194753,"[85, 0, 169]",169,l,0.5216966117732227,colour,0.5
33,18,0,2,13,48,648,2074.739479964599,2075.8180354144424,"[53, 0, 201]",201,a,0.5552700604312122,colour,0.5
33,18,0,2,13,49,649,2077.833192204591,2078.4820760437287,"[0, 0, 254]",254,a,0.12551219761371613,colour,0.5
33,18,0,2,13,50,650,2080.489446093794,2081.538057391066,"[78, 0, 176]",176,l,0.5252802218310535,colour,0.5
33,18,0,2,14,1,651,2089.5833784942515,2090.9301095679402,"[23, 0, 231]",231,a,0.8226186069659889,colour,0.5
33,18,0,2,14,2,652,2092.9435200425796,2093.602058635559,"[21, 0, 233]",233,a,0.13543201005086303,colour,0.5
33,18,0,2,14,3,653,2095.6155037689023,2096.3460954050533,"[52, 0, 202]",202,a,0.20736059779301286,colour,0.5
33,18,0,2,14,4,654,2098.36542303022,2098.9860696475953,"[50, 0, 204]",204,a,0.09801698243245482,colour,0.5
33,18,0,2,14,5,655,2101.0060510579497,2101.946047749836,"[87, 0, 167]",167,l,0.4166778256185353,colour,0.5
33,18,0,2,14,6,656,2103.9592605135404,2105.818120091688,"[46, 0, 208]",208,a,1.3355056596919894,colour,0.5
33,18,0,2,14,7,657,2107.825683520641,2108.482110701967,"[16, 0, 238]",238,a,0.1330452999100089,colour,0.5
33,18,0,2,14,8,658,2110.4912282493897,2111.658093940001,"[60, 0, 194]",194,a,0.6436315011233091,colour,0.5
33,18,0,2,14,9,659,2113.6793309333734,2114.5620690332726,"[45, 0, 209]",209,a,0.35942474799230695,colour,0.5
33,18,0,2,14,10,660,2116.5718699041754,2117.586073192302,"[75, 0, 179]",179,l,0.4908241634257138,colour,0.5
33,18,0,2,14,11,661,2119.6031220215373,2120.658149472438,"[74, 0, 180]",180,l,0.5321256686002016,colour,0.5
33,18,0,2,14,12,662,2122.6656231041998,2124.114181232173,"[59, 0, 195]",195,l,0.9262282103300095,colour,0.5
33,18,0,2,14,13,663,2126.1356694996357,2127.626082880888,"[61, 0, 193]",193,l,0.9670511921867728,colour,0.5
33,18,0,2,14,14,664,2129.635657683946,2130.626108874567,"[34, 0, 220]",220,a,0.4670799425803125,colour,0.5
33,18,0,2,14,15,665,2132.6357782012783,2134.250105157029,"[69, 0, 185]",185,l,1.0910671669989824,colour,0.5
33,18,0,2,14,16,666,2136.260739407502,2137.554127905518,"[54, 0, 200]",200,a,0.7700278842821717,colour,0.5
33,18,0,2,14,17,667,2139.5731849581935,2140.79423369281,"[71, 0, 183]",183,l,0.6977180535905063,colour,0.5
33,18,0,2,14,18,668,2142.807634714991,2143.994110812433,"[31, 0, 223]",223,a,0.6631426592357457,colour,0.5
33,18,0,2,14,19,669,2146.006039242726,2147.0581675893627,"[3, 0, 251]",251,a,0.5294203367084265,colour,0.5
33,18,0,2,14,20,670,2149.0560400304385,2150.0181441162713,"[26, 0, 228]",228,a,0.43882066616788507,colour,0.5
33,18,0,2,14,21,671,2152.024828085676,2152.8821461484767,"[24, 0, 230]",230,a,0.33411065535619855,colour,0.5
33,18,0,2,14,22,672,2154.8997920486145,2156.88222609926,"[13, 0, 241]",241,a,1.459114002995193,colour,0.5
33,18,0,2,14,23,673,2158.9017498600297,2159.994125778787,"[51, 0, 203]",203,a,0.5690184556879103,colour,0.5
33,18,0,2,14,24,674,2162.0111486138776,2162.6901369006373,"[8, 0, 246]",246,a,0.15646105213090777,colour,0.5
33,18,0,2,14,25,675,2164.6987723801285,2165.6581396264955,"[30, 0, 224]",224,a,0.43618858978152275,colour,0.5
33,18,0,2,14,26,676,2167.6674324353226,2168.2342421994545,"[15, 0, 239]",239,a,0.0438662339001894,colour,0.5
33,18,0,2,14,27,677,2170.2461056453176,2171.234150433447,"[29, 0, 225]",225,a,0.46502682100981474,colour,0.5
33,18,0,2,14,28,678,2173.246208045166,2174.610128551256,"[91, 0, 163]",163,l,0.840756815392524,colour,0.5
33,18,0,2,14,29,679,2176.621095208451,2177.9381629419513,"[9, 0, 245]",245,a,0.7940056556835771,colour,0.5
33,18,0,2,14,30,680,2179.949244996067,2181.1542027364485,"[36, 0, 218]",218,a,0.6819287454709411,colour,0.5
33,18,0,2,14,31,681,2183.168044866994,2184.1461603897624,"[41, 0, 213]",213,a,0.4548714878037572,colour,0.5
33,18,0,2,14,32,682,2186.152322906535,2187.4582388754934,"[65, 0, 189]",189,l,0.7829653494991362,colour,0.5
33,18,0,2,14,33,683,2189.4665651852265,2190.858186100144,"[80, 0, 174]",174,l,0.8684064182452857,colour,0.5
33,18,0,2,14,34,684,2192.872787960805,2193.9141442105174,"[38, 0, 216]",216,a,0.5180917344987392,colour,0.5
33,18,0,2,14,35,685,2195.93560136389,2197.3702141735703,"[66, 0, 188]",188,l,0.9112498327158391,colour,0.5
33,18,0,2,14,36,686,2199.3887505610473,2200.6502197659574,"[56, 0, 198]",198,a,0.7382168988697231,colour,0.5
33,18,0,2,14,37,687,2202.670285066124,2203.8341571288183,"[92, 0, 162]",162,l,0.640991548076272,colour,0.5
33,18,0,2,14,38,688,2205.8421218874864,2206.99421439413,"[18, 0, 236]",236,a,0.6287011727690697,colour,0.5
33,18,0,2,14,39,689,2209.013955164235,2210.5782553385943,"[68, 0, 186]",186,l,1.040947437286377,colour,0.5
33,18,0,2,14,40,690,2212.592423180118,2213.6103349267505,"[32, 0, 222]",222,a,0.4945322284474969,colour,0.5
33,18,0,2,14,41,691,2215.6236875061877,2216.5301591926254,"[89, 0, 165]",165,l,0.3831173740327358,colour,0.5
33,18,0,2,14,42,692,2218.5456235772,2219.4581766477786,"[94, 0, 160]",160,l,0.3870735624805093,colour,0.5
33,18,0,2,14,43,693,2221.469605680555,2222.514225736726,"[95, 0, 159]",159,l,0.5306475623510778,colour,0.5
33,18,0,2,14,44,694,2224.522763935849,2225.466220569797,"[84, 0, 170]",170,l,0.42017163848504424,colour,0.5
33,18,0,2,14,45,695,2227.4760167147033,2228.922261388041,"[62, 0, 192]",192,a,0.923039629124105,colour,0.5
33,18,0,2,14,46,696,2230.929084779229,2232.0342154181562,"[20, 0, 234]",234,a,0.5817542714066803,colour,0.5
33,18,0,2,14,47,697,2234.0541432653554,2234.5943010402843,"[7, 0, 247]",247,a,0.017074428964406252,colour,0.5
33,18,0,2,14,48,698,2236.6009877668694,2237.3142458228394,"[49, 0, 205]",205,a,0.19008688256144524,colour,0.5
33,18,0,2,14,49,699,2239.335325277876,2241.55424527172,"[67, 0, 187]",187,l,1.6955349617637694,colour,0.5
33,18,0,2,14,50,700,2243.5729659791104,2244.634314273484,"[14, 0, 240]",240,a,0.5375891076400876,colour,0.5
33,18,0,2,15,1,701,2252.8281529382803,2253.930231660139,"[32, 0, 222]",222,a,0.5782836955040693,colour,0.5
33,18,0,2,15,2,702,2255.93820862798,2256.906301150564,"[60, 0, 194]",194,a,0.4449146534316242,colour,0.5
33,18,0,2,15,3,703,2258.9212346300483,2259.8102573389187,"[79, 0, 175]",175,l,0.3659803234040737,colour,0.5
33,18,0,2,15,4,704,2261.8273345250636,2264.202238229569,"[56, 0, 198]",198,a,1.8515367889776826,colour,0.5
33,18,0,2,15,5,705,2266.2179731866345,2267.3062865780666,"[85, 0, 169]",169,l,0.5650634486228228,colour,0.5
33,18,0,2,15,6,706,2269.327304986771,2270.146333682351,"[30, 0, 224]",224,a,0.2960048206150532,colour,0.5
33,18,0,2,15,7,707,2272.155527635943,2273.3542744163424,"[95, 0, 159]",159,l,0.6754716313444078,colour,0.5
33,18,0,2,15,8,708,2275.3742014761083,2276.2902814424597,"[5, 0, 249]",249,a,0.39306830102577806,colour,0.5
33,18,0,2,15,9,709,2278.3117141774856,2279.0742837898433,"[12, 0, 242]",242,a,0.23931100498884916,colour,0.5
33,18,0,2,15,10,710,2281.0929796854034,2282.2662725574337,"[45, 0, 209]",209,a,0.6497959876433015,colour,0.5
33,18,0,2,15,11,711,2284.2873752489686,2285.13025410939,"[48, 0, 206]",206,a,0.319755342323333,colour,0.5
33,18,0,2,15,12,712,2287.1373457103036,2288.4662524713203,"[58, 0, 196]",196,a,0.8059825291857123,colour,0.5
33,18,0,2,15,13,713,2290.4811115134507,2292.8742747316137,"[89, 0, 165]",165,l,1.8698419891297817,colour,0.5
33,18,0,2,15,14,714,2294.8842268395238,2295.9063117844053,"[3, 0, 251]",251,a,0.49878340819850564,colour,0.5
33,18,0,2,15,15,715,2297.9153824639507,2298.962269501295,"[92, 0, 162]",162,l,0.5235287863761187,colour,0.5
33,18,0,2,15,16,716,2300.977932778187,2301.8102746685036,"[4, 0, 250]",250,a,0.30908131366595626,colour,0.5
33,18,0,2,15,17,717,2303.8246973287314,2305.0343367229216,"[10, 0, 244]",244,a,0.6862661773338914,colour,0.5
33,18,0,2,15,18,718,2307.043424731586,2307.666277283337,"[43, 0, 211]",211,a,0.09960260847583413,colour,0.5
33,18,0,2,15,19,719,2309.684073239565,2311.042290453799,"[18, 0, 236]",236,a,0.8352276040241122,colour,0.5
33,18,0,2,15,20,720,2313.0590769811533,2314.770350050647,"[70, 0, 184]",184,l,1.188049514312297,colour,0.5
33,18,0,2,15,21,721,2316.777753971517,2318.066547462251,"[68, 0, 186]",186,l,0.7654470549896359,colour,0.5
33,18,0,2,15,22,722,2320.065836175345,2320.8982847980224,"[1, 0, 253]",253,a,0.30934597831219435,colour,0.5
33,18,0,2,15,23,723,2322.9097122554667,2323.6903168885037,"[82, 0, 172]",172,l,0.2572818286716938,colour,0.5
33,18,0,2,15,24,724,2325.706516584847,2326.714284813963,"[25, 0, 229]",229,a,0.4844848094508052,colour,0.5
33,18,0,2,15,25,725,2328.722104243003,2329.8823344069533,"[33, 0, 221]",221,a,0.6368482825346291,colour,0.5
33,18,0,2,15,26,726,2331.8939182213508,2332.7463305317797,"[53, 0, 201]",201,a,0.3289788346737623,colour,0.5
33,18,0,2,15,27,727,2334.7533630556427,2335.7783384402283,"[67, 0, 187]",187,l,0.5016903895884752,colour,0.5
33,18,0,2,15,28,728,2337.7846041447483,2338.850346978754,"[63, 0, 191]",191,l,0.5424034879542887,colour,0.5
33,18,0,2,15,29,729,2340.8630268680863,2342.8345442800783,"[55, 0, 199]",199,l,1.448092995211482,colour,0.5
33,18,0,2,15,30,730,2344.847550668288,2345.7063755877316,"[26, 0, 228]",228,a,0.33557537058368325,colour,0.5
33,18,0,2,15,31,731,2347.725365292281,2348.530318306759,"[74, 0, 180]",180,l,0.2814486464485526,colour,0.5
33,18,0,2,15,32,732,2350.5385221298784,2351.3783758552745,"[71, 0, 183]",183,l,0.3166715237312019,colour,0.5
33,18,0,2,15,33,733,2353.3981879120693,2354.2904023532756,"[78, 0, 176]",176,l,0.36898497864603996,colour,0.5
33,18,0,2,15,34,734,2356.2954345308244,2358.1463340763003,"[22, 0, 232]",232,a,1.3275712272152305,colour,0.5
33,18,0,2,15,35,735,2360.1548537644558,2360.898313942831,"[44, 0, 210]",210,a,0.22050286317244172,colour,0.5
33,18,0,2,15,36,736,2362.9049018137157,2364.0423692232,"[83, 0, 171]",171,l,0.6143773682415485,colour,0.5
33,18,0,2,15,37,737,2366.061041487381,2366.8583207954653,"[20, 0, 234]",234,a,0.2740053404122591,colour,0.5
33,18,0,2,15,38,738,2368.873585499823,2369.9783624648117,"[24, 0, 230]",230,a,0.5814226525835693,colour,0.5
33,18,0,2,15,39,739,2371.998575456906,2372.874363740906,"[36, 0, 218]",218,a,0.35252849478274584,colour,0.5
33,18,0,2,15,40,740,2374.889233810827,2375.7063444736414,"[16, 0, 238]",238,a,0.29387686774134636,colour,0.5
33,18,0,2,15,41,741,2377.7173162507825,2378.578328593634,"[77, 0, 177]",177,l,0.33778169844299555,colour,0.5
33,18,0,2,15,42,742,2380.592266035266,2381.3303616298363,"[99, 0, 155]",155,l,0.21410010010004044,colour,0.5
33,18,0,2,15,43,743,2383.3428737404756,2384.130328546744,"[69, 0, 185]",185,a,0.2640874972566962,colour,0.5
33,18,0,2,15,44,744,2386.139734389726,2387.1784219355322,"[57, 0, 197]",197,a,0.5153915230184793,colour,0.5
33,18,0,2,15,45,745,2389.1866249712184,2390.010366434697,"[38, 0, 216]",216,a,0.30048955138772726,colour,0.5
33,18,0,2,15,46,746,2392.030388805084,2392.682371428702,"[0, 0, 254]",254,a,0.12560475151985884,colour,0.5
33,18,0,2,15,47,747,2394.689595361706,2395.2663946496323,"[98, 0, 156]",156,l,0.05359700042754412,colour,0.5
33,18,0,2,15,48,748,2397.2833186294883,2398.0264629428275,"[76, 0, 178]",178,l,0.21980614867061377,colour,0.5
33,18,0,2,15,49,749,2400.033322962001,2400.6983422995545,"[31, 0, 223]",223,a,0.14165439177304506,colour,0.5
33,18,0,2,15,50,750,2402.70269548567,2403.258373571094,"[21, 0, 233]",233,a,0.03245019819587469,colour,0.5
33,18,0,2,16,1,751,2410.68651114963,2411.2983860168606,"[20, 0, 234]",234,a,0.08788646198809147,colour,0.5
33,18,0,2,16,2,752,2413.3123214887455,2414.082382850349,"[6, 0, 248]",248,a,0.24684056313708425,colour,0.5
33,18,0,2,16,3,753,2416.0935405227356,2416.9063937044702,"[77, 0, 177]",177,l,0.28934054309502244,colour,0.5
33,18,0,2,16,4,754,2418.9230675916187,2419.4984155553393,"[99, 0, 155]",155,l,0.052012162283062935,colour,0.5
33,18,0,2,16,5,755,2421.5168156716973,2422.0904094427824,"[41, 0, 213]",213,a,0.05035564349964261,colour,0.5
33,18,0,2,16,6,756,2424.11068269331,2424.7543933577836,"[90, 0, 164]",164,l,0.12053830921649933,colour,0.5
33,18,0,2,16,7,757,2426.766840090044,2427.41839735955,"[88, 0, 166]",166,l,0.128239584621042,colour,0.5
33,18,0,2,16,8,758,2429.4299047677778,2430.0344072212465,"[38, 0, 216]",216,a,0.08109654719009995,colour,0.5
33,18,0,2,16,9,759,2432.0549703431316,2432.706401187461,"[3, 0, 251]",251,a,0.1283774310722947,colour,0.5
33,18,0,2,16,10,760,2434.7268587583676,2435.378425873816,"[86, 0, 168]",168,l,0.12825139984488487,colour,0.5
33,18,0,2,16,11,761,2437.3986955801956,2438.026459398214,"[71, 0, 183]",183,l,0.10449418285861611,colour,0.5
33,18,0,2,16,12,762,2440.039365355391,2440.90640236903,"[50, 0, 204]",204,a,0.3440997847355902,colour,0.5
33,18,0,2,16,13,763,2442.914339558687,2443.74639827339,"[28, 0, 226]",226,a,0.30874457489699125,colour,0.5
33,18,0,2,16,14,764,2445.758087244816,2446.346383307129,"[16, 0, 238]",238,a,0.06501815654337406,colour,0.5
33,18,0,2,16,15,765,2448.367410773877,2449.082414357923,"[87, 0, 167]",167,l,0.19161894544959068,colour,0.5
33,18,0,2,16,16,766,2451.1017833370715,2452.0104645024985,"[95, 0, 159]",159,l,0.3853315794840455,colour,0.5
33,18,0,2,16,17,767,2454.01396934269,2465.9144821311347,"[37, 0, 217]",217,l,11.377158476039767,colour,0.5
33,18,0,2,16,18,768,2467.935901475139,2468.594659440685,"[30, 0, 224]",224,a,0.13580104429274797,colour,0.5
33,18,0,2,16,19,769,2470.6105365762487,2471.946462470107,"[70, 0, 184]",184,l,0.8128736619837582,colour,0.5
33,18,0,2,16,20,770,2473.9436220489442,2474.7384122470394,"[56, 0, 198]",198,a,0.2714929934591055,colour,0.5
33,18,0,2,16,21,771,2476.756179845892,2477.634464723058,"[0, 0, 254]",254,a,0.3551759314723313,colour,0.5
33,18,0,2,16,22,772,2479.6467933012173,2480.618429260794,"[85, 0, 169]",169,l,0.44829858280718327,colour,0.5
33,18,0,2,16,23,773,2482.6311867381446,2483.4824923393317,"[43, 0, 211]",211,a,0.32801784900948405,colour,0.5
33,18,0,2,16,24,774,2485.4905878552236,2486.274488983676,"[74, 0, 180]",180,l,0.2606972656212747,colour,0.5
33,18,0,2,16,25,775,2488.287381550297,2488.842437358573,"[73, 0, 181]",181,l,0.03188778553158045,colour,0.5
33,18,0,2,16,26,776,2490.849986215122,2491.4504781295545,"[8, 0, 246]",246,a,0.07730223005637527,colour,0.5
33,18,0,2,16,27,777,2493.4593101381324,2494.3224421632476,"[69, 0, 185]",185,l,0.33981237141415477,colour,0.5
33,18,0,2,16,28,778,2496.334286704194,2497.058467700612,"[18, 0, 236]",236,a,0.20094089955091476,colour,0.5
33,18,0,2,16,29,779,2499.068578135222,2499.7224933635443,"[45, 0, 209]",209,a,0.13070270093157887,colour,0.5
33,18,0,2,16,30,780,2501.7406252706423,2502.5144703155383,"[54, 0, 200]",200,a,0.25062779150903225,colour,0.5
33,18,0,2,16,31,781,2504.521788378246,2505.306467353832,"[68, 0, 186]",186,l,0.2617673468776047,colour,0.5
33,18,0,2,16,32,782,2507.3186226398684,2507.842641764786,"[32, 0, 222]",222,a,0.0006108558736741543,colour,0.5
33,18,0,2,16,33,783,2509.8655195226893,2510.4745019809343,"[12, 0, 242]",242,a,0.0857297582551837,colour,0.5
33,18,0,2,16,34,784,2512.490502390545,2513.4265098106116,"[55, 0, 199]",199,a,0.412666498683393,colour,0.5
33,18,0,2,16,35,785,2515.4436378027312,2516.0265003582463,"[48, 0, 206]",206,a,0.059591738507151604,colour,0.5
33,18,0,2,16,36,786,2518.037342165597,2518.626501539722,"[9, 0, 245]",245,a,0.06593266781419516,colour,0.5
33,18,0,2,16,37,787,2520.6467708521523,2521.5624786335975,"[65, 0, 189]",189,l,0.39255551248788834,colour,0.5
33,18,0,2,16,38,788,2523.5685970396735,2524.1304935682565,"[1, 0, 253]",253,a,0.0382751883007586,colour,0.5
33,18,0,2,16,39,789,2526.1470890799537,2526.75448039826,"[36, 0, 218]",218,a,0.08404133841395378,colour,0.5
33,18,0,2,16,40,790,2528.7719140150584,2529.7785511170514,"[35, 0, 219]",219,a,0.4833615589886904,colour,0.5
33,18,0,2,16,41,791,2531.7877285294235,2532.370547761675,"[92, 0, 162]",162,l,0.05961694475263357,colour,0.5
33,18,0,2,16,42,792,2534.381495120004,2534.9785184278153,"[21, 0, 233]",233,a,0.07370404805988073,colour,0.5
33,18,0,2,16,43,793,2536.9908493692055,2537.570605263114,"[79, 0, 175]",175,l,0.05640985257923603,colour,0.5
33,18,0,2,16,44,794,2539.5847947662696,2540.4665364343673,"[97, 0, 157]",157,l,0.3583684512414038,colour,0.5
33,18,0,2,16,45,795,2542.475436972454,2543.386489094235,"[29, 0, 225]",225,a,0.3877659449353814,colour,0.5
33,18,0,2,16,46,796,2545.3972753696144,2546.034502532333,"[94, 0, 160]",160,l,0.11395713407546282,colour,0.5
33,18,0,2,16,47,797,2548.0411412096582,2548.946530211717,"[60, 0, 194]",194,a,0.38207525620236993,colour,0.5
33,18,0,2,16,48,798,2550.9630296248943,2551.7065437599085,"[5, 0, 249]",249,a,0.2210251037031412,colour,0.5
33,18,0,2,16,49,799,2553.727922931779,2554.3465231223963,"[81, 0, 173]",173,l,0.09524075826629996,colour,0.5
33,18,0,2,16,50,800,2556.352908950299,2557.3225993080996,"[49, 0, 205]",205,a,0.44637070409953594,colour,0.5
