id,age,condition,counterbalance,block,trialinblock,trial,tstart,tend,trialstim,trialintensity,response,RT,trialtype,colourfreq
21,21,0,1,Practice,1,NA,5.513837095350027e-06,6.058107285294682,"[99, 0, 155]",155,l,5.503648985322798,colour,0.5
21,21,0,1,Practice,2,NA,8.064695545064751,9.03410038826405,"[65, 0, 189]",189,a,0.4479028081987053,colour,0.5
21,21,0,1,Practice,3,NA,11.048434421856655,12.538094382878626,"[47, 0, 207]",207,l,0.9672855566313956,colour,0.5
21,21,0,1,Practice,4,NA,14.548738471145043,15.994124208082212,"[19, 0, 235]",235,l,0.9229676155955531,colour,0.5
21,21,0,1,Practice,5,NA,18.00264743436128,21.306150066433474,"[69, 0, 185]",185,l,2.781661101616919,colour,0.5
21,21,0,1,Practice,6,NA,23.315047052805312,26.354141411284218,"[40, 0, 214]",214,a,2.5166002248006407,colour,0.5
21,21,0,1,Practice,7,NA,28.36248425600934,31.4581203609996,"[73, 0, 181]",181,a,2.5734310544794425,colour,0.5
21,21,0,1,Practice,8,NA,33.47221336068469,34.36212152361986,"[89, 0, 165]",165,l,0.3676546693313867,colour,0.5
21,21,0,1,Practice,9,NA,36.37876034536748,36.954153147904435,"[32, 0, 222]",222,a,0.05337285975110717,colour,0.5
21,21,0,1,Practice,10,NA,38.972608388459776,40.386158746812725,"[27, 0, 227]",227,a,0.8911905262502842,colour,0.5
21,21,0,1,1,1,1,6.155592498340411,6.695899903192185,"[45, 0, 209]",209,a,0.01712207106174901,colour,0.5
21,21,0,1,1,2,2,8.703510981606087,14.37589787095203,"[3, 0, 251]",251,a,5.15015860190033,colour,0.5
21,21,0,1,1,3,3,16.391647781740176,17.615879013581434,"[46, 0, 208]",208,a,0.7019115720759146,colour,0.5
21,21,0,1,1,4,4,19.62622102178284,20.703912310913438,"[75, 0, 179]",179,l,0.5553739924507681,colour,0.5
21,21,0,1,1,5,5,22.72022345260484,23.383918155595893,"[93, 0, 161]",161,l,0.14142112323315814,colour,0.5
21,21,0,1,1,6,6,25.392329529568087,25.943991915119113,"[90, 0, 164]",164,l,0.02940928578027524,colour,0.5
21,21,0,1,1,7,7,27.954958169575548,29.12790432057227,"[51, 0, 203]",203,a,0.6506107373570558,colour,0.5
21,21,0,1,1,8,8,31.142731843487127,32.95987415825948,"[96, 0, 158]",158,l,1.2948269873159006,colour,0.5
21,21,0,1,1,9,9,34.971223625092534,35.51991995467688,"[22, 0, 232]",232,a,0.02642550674499944,colour,0.5
21,21,0,1,1,10,10,37.533921188209206,39.679866423102794,"[34, 0, 220]",220,l,1.6236830766720232,colour,0.5
21,21,0,1,1,11,11,41.69055344059598,42.46390281134518,"[18, 0, 236]",236,a,0.2511659817537293,colour,0.5
21,21,0,1,1,12,12,44.47204597602831,45.19989232244552,"[53, 0, 201]",201,a,0.20628168986877427,colour,0.5
21,21,0,1,1,13,13,47.2064951545035,48.40788212339976,"[74, 0, 180]",180,l,0.6790484045050107,colour,0.5
21,21,0,1,1,14,14,50.42555439763237,51.05590253407718,"[40, 0, 214]",214,a,0.10802690126001835,colour,0.5
21,21,0,1,1,15,15,53.06639302230906,54.73587726490223,"[66, 0, 188]",188,l,1.147239413607167,colour,0.5
21,21,0,1,1,16,16,56.75430611777119,57.72787982333102,"[14, 0, 240]",240,a,0.4514218242838979,colour,0.5
21,21,0,1,1,17,17,59.738774003926665,60.31992838298902,"[6, 0, 248]",248,a,0.05891979005536996,colour,0.5
21,21,0,1,1,18,18,62.33277446552529,62.911885570327286,"[73, 0, 181]",181,l,0.05681468194234185,colour,0.5
21,21,0,1,1,19,19,64.92665756095084,65.50388017305522,"[16, 0, 238]",238,a,0.054809216933790594,colour,0.5
21,21,0,1,1,20,20,67.5206517209881,68.20789212707314,"[37, 0, 217]",217,a,0.16490617400268093,colour,0.5
21,21,0,1,1,21,21,70.22398822871037,71.15988266532077,"[25, 0, 229]",229,a,0.41353893681662157,colour,0.5
21,21,0,1,1,22,22,73.1773686503002,74.06389643103466,"[58, 0, 196]",196,l,0.3641963055706583,colour,0.5
21,21,0,1,1,23,23,76.08382189957774,77.01590429851785,"[20, 0, 234]",234,a,0.4096804253058508,colour,0.5
21,21,0,1,1,24,24,79.0215831673122,79.91986883344362,"[92, 0, 162]",162,l,0.3759971201943699,colour,0.5
21,21,0,1,1,25,25,81.92806044121971,82.967917285976,"[91, 0, 163]",163,l,0.5176517942454666,colour,0.5
21,21,0,1,1,26,26,84.97521998282173,85.55993079332984,"[99, 0, 155]",155,l,0.06224267071229406,colour,0.5
21,21,0,1,1,27,27,87.56913537360379,88.42389591116807,"[0, 0, 254]",254,a,0.33258857010514475,colour,0.5
21,21,0,1,1,28,28,90.44447949674213,91.05592537714983,"[80, 0, 174]",174,l,0.08927982064778917,colour,0.5
21,21,0,1,1,29,29,93.06962965062121,93.60792213818058,"[35, 0, 219]",219,a,0.016057110857218504,colour,0.5
21,21,0,1,1,30,30,95.61671278605354,96.16796399615123,"[26, 0, 228]",228,a,0.028960694937268272,colour,0.5
21,21,0,1,1,31,31,98.17942295226385,98.7279495341063,"[84, 0, 170]",170,l,0.026589740620693192,colour,0.5
21,21,0,1,1,32,32,100.7420614384173,101.39987050334457,"[56, 0, 198]",198,a,0.13549531283206306,colour,0.5
21,21,0,1,1,33,33,103.41411670923117,103.9919493891648,"[42, 0, 212]",212,a,0.05550435552140698,colour,0.5
21,21,0,1,1,34,34,106.00818176160101,106.79194245749386,"[12, 0, 242]",242,a,0.26158439612481743,colour,0.5
21,21,0,1,1,35,35,108.8052355554828,109.43994041893166,"[68, 0, 186]",186,l,0.11244546214584261,colour,0.5
21,21,0,1,1,36,36,111.44605527553358,112.1279169236368,"[21, 0, 233]",233,a,0.1598259514721576,colour,0.5
21,21,0,1,1,37,37,114.13376908478676,115.77591055279481,"[86, 0, 168]",168,l,1.1198178697668482,colour,0.5
21,21,0,1,1,38,38,117.79030484484974,118.76788475428475,"[27, 0, 227]",227,a,0.45531499426579103,colour,0.5
21,21,0,1,1,39,39,120.77492514951155,121.86393282242352,"[94, 0, 160]",160,l,0.566802228539018,colour,0.5
21,21,0,1,1,40,40,123.88447584185633,124.6559343568515,"[7, 0, 247]",247,a,0.2490537844132632,colour,0.5
21,21,0,1,1,41,41,126.66609322655131,127.26395219966071,"[39, 0, 215]",215,a,0.075557036412647,colour,0.5
21,21,0,1,1,42,42,129.27558641735232,129.85592474701116,"[29, 0, 225]",225,a,0.05809625759138726,colour,0.5
21,21,0,1,1,43,43,131.86963610970997,132.8799028932699,"[62, 0, 192]",192,l,0.48802156071178615,colour,0.5
21,21,0,1,1,44,44,134.88536002664478,135.47191955137532,"[15, 0, 239]",239,a,0.06433399420347996,colour,0.5
21,21,0,1,1,45,45,137.47943413749454,138.5359305916936,"[71, 0, 183]",183,l,0.5346242037485354,colour,0.5
21,21,0,1,1,46,46,140.54209664827795,141.23195298106293,"[97, 0, 157]",157,l,0.16753234068164602,colour,0.5
21,21,0,1,1,47,47,143.24537053448148,144.207896065549,"[43, 0, 211]",211,a,0.4404595082742162,colour,0.5
21,21,0,1,1,48,48,146.21443942683982,146.83992198694614,"[95, 0, 159]",159,l,0.1031479341618251,colour,0.5
21,21,0,1,1,49,49,148.85524536226876,150.4399388435413,"[87, 0, 167]",167,l,1.0623131691827439,colour,0.5
21,21,0,1,1,50,50,152.4493415284669,153.91188950880314,"[79, 0, 175]",175,l,0.9402168990054633,colour,0.5
21,21,0,1,2,1,51,162.43364596847096,163.23990079801297,"[58, 0, 196]",196,a,0.2830801295931451,colour,0.5
21,21,0,1,2,2,52,165.24715662712697,166.19990059320116,"[64, 0, 190]",190,l,0.4304349401500076,colour,0.5
21,21,0,1,2,3,53,168.21611248562112,169.14391141294618,"[75, 0, 179]",179,l,0.40539537830045447,colour,0.5
21,21,0,1,2,4,54,171.15389344567666,172.05594073716202,"[39, 0, 215]",215,a,0.37971305937389843,colour,0.5
21,21,0,1,2,5,55,174.07606667344226,174.63194754597498,"[3, 0, 251]",251,a,0.03356790813268162,colour,0.5
21,21,0,1,2,6,56,176.63868034729967,177.75992394040804,"[94, 0, 160]",160,l,0.5989822225528769,colour,0.5
21,21,0,1,2,7,57,179.7796138889098,181.21593289176235,"[11, 0, 243]",243,a,0.9143159954401199,colour,0.5
21,21,0,1,2,8,58,183.2330573258805,184.5439189747849,"[60, 0, 194]",194,a,0.7886534476128872,colour,0.5
21,21,0,1,2,9,59,186.5614368613169,187.15993268380407,"[4, 0, 250]",250,a,0.07626556578907184,colour,0.5
21,21,0,1,2,10,60,189.1709875536617,189.76792610815028,"[8, 0, 246]",246,a,0.07464449471444823,colour,0.5
21,21,0,1,2,11,61,191.78055715063238,192.34394670158508,"[45, 0, 209]",209,a,0.0411498419707641,colour,0.5
21,21,0,1,2,12,62,194.35891561530298,195.49589769763406,"[36, 0, 218]",218,a,0.6147250441135839,colour,0.5
21,21,0,1,2,13,63,197.515364335326,198.72790778640774,"[42, 0, 212]",212,a,0.6901950405153912,colour,0.5
21,21,0,1,2,14,64,200.73437316613854,201.67996134003624,"[65, 0, 189]",189,l,0.42328151102992706,colour,0.5
21,21,0,1,2,15,65,203.68783353851177,204.6079280458507,"[79, 0, 175]",175,l,0.39785007218597457,colour,0.5
21,21,0,1,2,16,66,206.62549161855713,207.70395681553055,"[71, 0, 183]",183,l,0.556142386427382,colour,0.5
21,21,0,1,2,17,67,209.71946726783062,211.04796574483044,"[52, 0, 202]",202,a,0.806209143367596,colour,0.5
21,21,0,1,2,18,68,213.0635092801822,213.6399296275631,"[14, 0, 240]",240,a,0.054457906109746546,colour,0.5
21,21,0,1,2,19,69,215.657447514066,216.43193076812895,"[18, 0, 236]",236,a,0.2521474465902429,colour,0.5
21,21,0,1,2,20,70,218.4389116925886,219.35193744776188,"[2, 0, 252]",252,a,0.3907289384806063,colour,0.5
21,21,0,1,2,21,71,221.36106247108546,222.21596479328582,"[34, 0, 220]",220,a,0.33272838551783934,colour,0.5
21,21,0,1,2,22,72,224.23632585577434,225.83993143922999,"[10, 0, 244]",244,a,1.081421012931969,colour,0.5
21,21,0,1,2,23,73,227.84593720041448,229.49592526687775,"[67, 0, 187]",187,l,1.1279169236368034,colour,0.5
21,21,0,1,2,24,74,231.50245208662818,232.47992408220307,"[7, 0, 247]",247,a,0.4552283481170889,colour,0.5
21,21,0,1,2,25,75,234.4871082312893,235.72794205104583,"[87, 0, 167]",167,l,0.7185964738309849,colour,0.5
21,21,0,1,2,26,76,237.73737309288117,238.81591784683405,"[43, 0, 211]",211,a,0.5562518757069483,colour,0.5
21,21,0,1,2,27,77,240.83132747447235,242.25595830270322,"[25, 0, 229]",229,a,0.902341100765625,colour,0.5
21,21,0,1,2,28,78,244.26908244067454,245.55193610867718,"[63, 0, 191]",191,l,0.7606352267030161,colour,0.5
21,21,0,1,2,29,79,247.5661949176574,248.7599412696436,"[84, 0, 170]",170,l,0.6713841568271164,colour,0.5
21,21,0,1,2,30,80,250.76956568998867,251.87994976097252,"[83, 0, 171]",171,l,0.588030540413456,colour,0.5
21,21,0,1,2,31,81,253.8948718069878,255.90394759955234,"[61, 0, 193]",193,a,1.486819148180075,colour,0.5
21,21,0,1,2,32,82,257.9107788624242,259.0559297094587,"[78, 0, 176]",176,l,0.622850879561156,colour,0.5
21,21,0,1,2,33,83,261.0673847271246,262.11197048358736,"[49, 0, 205]",205,a,0.5223452597856522,colour,0.5
21,21,0,1,2,34,84,264.130022819445,265.2959262121294,"[89, 0, 165]",165,l,0.6437861698796041,colour,0.5
21,21,0,1,2,35,85,267.30218994256575,268.34397742158035,"[17, 0, 237]",237,a,0.5195454069180414,colour,0.5
21,21,0,1,2,36,86,270.3494384934311,270.92798876119195,"[21, 0, 233]",233,a,0.05631725417333655,colour,0.5
21,21,0,1,2,37,87,272.94322627803194,273.7839312313008,"[44, 0, 210]",210,a,0.3184136504132766,colour,0.5
21,21,0,1,2,38,88,275.8029209211818,276.69596488782554,"[92, 0, 162]",162,l,0.3707983499625698,colour,0.5
21,21,0,1,2,39,89,278.7093623550609,280.24793880575453,"[55, 0, 199]",199,a,1.0163005078502465,colour,0.5
21,21,0,1,2,40,90,282.2565053551225,283.3599726985849,"[77, 0, 177]",177,l,0.5811799790826626,colour,0.5
21,21,0,1,2,41,91,285.36615214595804,286.49594850381254,"[70, 0, 184]",184,l,0.6074455842317548,colour,0.5
21,21,0,1,2,42,92,288.50699195213383,289.3999929895217,"[37, 0, 217]",217,a,0.371411962347338,colour,0.5
21,21,0,1,2,43,93,291.41354169373517,292.29593527058023,"[5, 0, 249]",249,a,0.36047091404907405,colour,0.5
21,21,0,1,2,44,94,294.30430686607724,295.2159399809898,"[12, 0, 242]",242,a,0.38931621206575073,colour,0.5
21,21,0,1,2,45,95,297.22653798921965,297.82397515303455,"[32, 0, 222]",222,a,0.0752163594297599,colour,0.5
21,21,0,1,2,46,96,299.83604890308925,300.6879717785632,"[90, 0, 164]",164,l,0.3296587479999289,colour,0.5
21,21,0,1,2,47,97,302.69562184775714,303.72794362640707,"[6, 0, 248]",248,a,0.5101419342972804,colour,0.5
21,21,0,1,2,48,98,305.74271049702656,306.6239595567167,"[68, 0, 186]",186,l,0.3589191599166952,colour,0.5
21,21,0,1,2,49,99,308.63365250630886,309.6719709876925,"[57, 0, 197]",197,l,0.5160106369876303,colour,0.5
21,21,0,1,2,50,100,311.6807781771349,312.7359654864704,"[81, 0, 173]",173,l,0.5329220003332011,colour,0.5
21,21,0,1,3,1,101,346.2452098452195,347.239979173406,"[99, 0, 155]",155,l,0.4717328682891093,colour,0.5
21,21,0,1,3,2,102,349.2463835069793,350.9519346120651,"[67, 0, 187]",187,l,1.1835929961525835,colour,0.5
21,21,0,1,3,3,103,352.9653182947077,354.1439370129665,"[48, 0, 206]",206,a,0.6563691631017718,colour,0.5
21,21,0,1,3,4,104,356.1530624301231,356.9279615858104,"[24, 0, 230]",230,a,0.2526456620544195,colour,0.5
21,21,0,1,3,5,105,358.9344458701671,359.7119822202076,"[69, 0, 185]",185,l,0.2551225610077381,colour,0.5
21,21,0,1,3,6,106,361.731558740983,362.3120041968068,"[30, 0, 224]",224,a,0.05815809144405648,colour,0.5
21,21,0,1,3,7,107,364.325546599488,365.2559579088702,"[52, 0, 202]",202,a,0.40807510804734193,colour,0.5
21,21,0,1,3,8,108,367.26318459335016,368.5839479303686,"[59, 0, 195]",195,a,0.7987630865245592,colour,0.5
21,21,0,1,3,9,109,370.59162753802957,371.75997395889135,"[25, 0, 229]",229,a,0.6459968287672382,colour,0.5
21,21,0,1,3,10,110,373.77940003041294,374.631962512125,"[36, 0, 218]",218,a,0.33034010196570307,colour,0.5
21,21,0,1,3,11,111,376.6390336273762,377.2079724717187,"[84, 0, 170]",170,l,0.04657349840272218,colour,0.5
21,21,0,1,3,12,112,379.21739406127017,380.2879563397728,"[68, 0, 186]",186,l,0.5482930310536176,colour,0.5
21,21,0,1,3,13,113,382.29565485205967,382.91198836421245,"[85, 0, 169]",169,l,0.09410955701605417,colour,0.5
21,21,0,1,3,14,114,384.9209818429081,385.48796327147284,"[46, 0, 208]",208,a,0.0447803165006917,colour,0.5
21,21,0,1,3,15,115,387.49931234447286,388.20795002247905,"[81, 0, 173]",173,l,0.186433021328412,colour,0.5
21,21,0,1,3,16,116,390.21816993833636,391.1839407623629,"[38, 0, 216]",216,a,0.44342477654572576,colour,0.5
21,21,0,1,3,17,117,393.202867436863,393.91194740417995,"[72, 0, 182]",182,l,0.18690681832958944,colour,0.5
21,21,0,1,3,18,118,395.9218199476891,396.6719922554039,"[76, 0, 178]",178,l,0.22777899869834073,colour,0.5
21,21,0,1,3,19,119,398.6876771815587,399.79999424982816,"[11, 0, 243]",243,a,0.5900738146447111,colour,0.5
21,21,0,1,3,20,120,401.81289665238,402.5999916504661,"[33, 0, 221]",221,a,0.2649423291150015,colour,0.5
21,21,0,1,3,21,121,404.6099638370215,405.55198337024194,"[16, 0, 238]",238,a,0.41972507958416827,colour,0.5
21,21,0,1,3,22,122,407.5633930955664,408.4799933991453,"[78, 0, 176]",176,l,0.3945657884760294,colour,0.5
21,21,0,1,3,23,123,410.4854292648088,411.6961255770875,"[95, 0, 159]",159,l,0.6883703509520274,colour,0.5
21,21,0,1,3,24,124,413.7043994987034,414.31999730609823,"[75, 0, 179]",179,l,0.09319110758951865,colour,0.5
21,21,0,1,3,25,125,416.3297351541696,416.9840307168488,"[77, 0, 177]",177,l,0.13229097990551963,colour,0.5
21,21,0,1,3,26,126,419.0017415880284,419.8079877529526,"[47, 0, 207]",207,a,0.2845720191253349,colour,0.5
21,21,0,1,3,27,127,421.8144298957486,422.4639807929052,"[20, 0, 234]",234,a,0.12719303427729756,colour,0.5
21,21,0,1,3,28,128,424.4709514773567,425.27199020740227,"[31, 0, 223]",223,a,0.2788258026121184,colour,0.5
21,21,0,1,3,29,129,427.2837126466329,427.8399979992537,"[28, 0, 226]",226,a,0.033979477448156103,colour,0.5
21,21,0,1,3,30,130,429.84633656049846,430.84794305928517,"[2, 0, 252]",252,a,0.47936127593857236,colour,0.5
21,21,0,1,3,31,131,432.86224479749217,433.53594989015255,"[35, 0, 219]",219,a,0.1514279682887718,colour,0.5
21,21,0,1,3,32,132,435.5499357636727,436.376141661749,"[19, 0, 235]",235,a,0.3038192844251171,colour,0.5
21,21,0,1,3,33,133,438.3942700099433,439.2400142257102,"[51, 0, 203]",203,a,0.32379910376039334,colour,0.5
21,21,0,1,3,34,134,441.25359049916733,442.29597111057956,"[9, 0, 245]",245,a,0.5201479916577227,colour,0.5
21,21,0,1,3,35,135,444.31622425917885,445.1679494238342,"[27, 0, 227]",227,a,0.3293858125398401,colour,0.5
21,21,0,1,3,36,136,447.17587479154463,448.02396593702724,"[96, 0, 158]",158,l,0.3258152026392054,colour,0.5
21,21,0,1,3,37,137,450.0354776685126,450.7359524895437,"[56, 0, 198]",198,a,0.1781618566310499,colour,0.5
21,21,0,1,3,38,138,452.75445223471615,453.415957940364,"[55, 0, 199]",199,a,0.1394404705206398,colour,0.5
21,21,0,1,3,39,139,455.42650317322114,456.02400807855884,"[73, 0, 181]",181,l,0.07518091326346621,colour,0.5
21,21,0,1,3,40,140,458.0361401178816,458.56868560120347,"[14, 0, 240]",240,a,0.010380605119280517,colour,0.5
21,21,0,1,3,41,141,460.58323900715914,461.3519807708508,"[40, 0, 214]",214,a,0.24720625174813904,colour,0.5
21,21,0,1,3,42,142,463.36471460718894,464.40799318804056,"[61, 0, 193]",193,l,0.5210617149132304,colour,0.5
21,21,0,1,3,43,143,466.4274550995615,466.9680074767675,"[64, 0, 190]",190,a,0.01832290823222138,colour,0.5
21,21,0,1,3,44,144,468.9744236257393,470.08000198498485,"[7, 0, 247]",247,a,0.5831058871408459,colour,0.5
21,21,0,1,3,45,145,472.09955566268764,472.99999606152414,"[44, 0, 210]",210,a,0.3779324805655051,colour,0.5
21,21,0,1,3,46,146,475.0061755088973,475.77599759280565,"[58, 0, 196]",196,a,0.247515421040589,colour,0.5
21,21,0,1,3,47,147,477.78770703510963,484.71199758019065,"[65, 0, 189]",189,a,6.402201679185964,colour,0.5
21,21,0,1,3,48,148,486.7259216198581,487.66397000150755,"[45, 0, 209]",209,a,0.41576141110272147,colour,0.5
21,21,0,1,3,49,149,489.67928549990756,490.3279719045677,"[10, 0, 244]",244,a,0.12653767413576134,colour,0.5
21,21,0,1,3,50,150,492.33577793688164,493.37595340327243,"[60, 0, 194]",194,l,0.5179062189126853,colour,0.5
21,21,0,1,4,1,151,502.36700797380763,503.4559813820815,"[41, 0, 213]",213,a,0.565901896043215,colour,0.5
21,21,0,1,4,2,152,505.46178549400065,506.6079969689599,"[56, 0, 198]",198,l,0.6239650705829263,colour,0.5
21,21,0,1,4,3,153,508.6181834078743,509.2480215134565,"[12, 0, 242]",242,a,0.10744912884547375,colour,0.5
21,21,0,1,4,4,154,511.2591074971715,512.0399742109294,"[24, 0, 230]",230,a,0.2586041616741568,colour,0.5
21,21,0,1,4,5,155,514.05615026335,514.8319914992317,"[52, 0, 202]",202,a,0.25344674530788325,colour,0.5
21,21,0,1,4,6,156,516.8376695803308,517.3920372956491,"[35, 0, 219]",219,a,0.03200906474376097,colour,0.5
21,21,0,1,4,7,157,519.4003383926756,519.9440541428339,"[51, 0, 203]",203,a,0.02136576423072256,colour,0.5
21,21,0,1,4,8,158,521.963102515816,522.9759612014168,"[46, 0, 208]",208,a,0.4907646997307893,colour,0.5
21,21,0,1,4,9,159,524.9945771312341,525.8639607855002,"[40, 0, 214]",214,a,0.34751770534785464,colour,0.5
21,21,0,1,4,10,160,527.8698160974309,529.2880087213125,"[62, 0, 192]",192,a,0.895974970277166,colour,0.5
21,21,0,1,4,11,161,531.3075194697885,531.8560279347294,"[85, 0, 169]",169,l,0.02608010362018831,colour,0.5
21,21,0,1,4,12,162,533.8702473590674,534.6000270966033,"[23, 0, 231]",231,a,0.20744156697764993,colour,0.5
21,21,0,1,4,13,163,536.6204645652615,537.1522975807602,"[9, 0, 245]",245,a,0.00951020495267585,colour,0.5
21,21,0,1,4,14,164,539.1832558637834,539.7200363756274,"[18, 0, 236]",236,a,0.014525049016810954,colour,0.5
21,21,0,1,4,15,165,541.7302838607284,542.4400140681828,"[10, 0, 244]",244,a,0.18768545234343037,colour,0.5
21,21,0,1,4,16,166,544.4492332207737,545.3919821571908,"[4, 0, 250]",250,a,0.42041076585883275,colour,0.5
21,21,0,1,4,17,167,547.4025785900303,548.3519713185378,"[82, 0, 172]",172,l,0.42709630564786494,colour,0.5
21,21,0,1,4,18,168,550.3716305470152,551.168006925378,"[44, 0, 210]",210,a,0.27415360475424677,colour,0.5
21,21,0,1,4,19,169,553.1843629655195,553.7279971895041,"[48, 0, 206]",206,a,0.02138624421786517,colour,0.5
21,21,0,1,4,20,170,555.7518390649639,556.5599591502687,"[67, 0, 187]",187,l,0.291018888092367,colour,0.5
21,21,0,1,4,21,171,558.5753628702078,559.6560005230131,"[69, 0, 185]",185,l,0.5583676176320296,colour,0.5
21,21,0,1,4,22,172,561.6693491533515,562.7920204390248,"[49, 0, 205]",205,a,0.6003776197612751,colour,0.5
21,21,0,1,4,23,173,564.8101633595361,565.4720014714112,"[87, 0, 167]",167,l,0.13946016284171492,colour,0.5
21,21,0,1,4,24,174,567.4823647472949,568.3920038187352,"[98, 0, 156]",156,l,0.387416691693943,colour,0.5
21,21,0,1,4,25,175,570.4044036734849,571.4240002804145,"[83, 0, 171]",171,l,0.4972513471439015,colour,0.5
21,21,0,1,4,26,176,573.4359231873823,574.128010265209,"[95, 0, 159]",159,l,0.1698619411617983,colour,0.5
21,21,0,1,4,27,177,576.1392821443442,577.0319822832244,"[91, 0, 163]",163,l,0.37036275601712987,colour,0.5
21,21,0,1,4,28,178,579.0457999843929,579.9120088441996,"[50, 0, 204]",204,a,0.34405934158712626,colour,0.5
21,21,0,1,4,29,179,581.9210629752197,583.1040021866211,"[59, 0, 195]",195,a,0.6607475516502745,colour,0.5
21,21,0,1,4,30,180,585.1243565537152,586.1840707316296,"[70, 0, 184]",184,a,0.5373842781409621,colour,0.5
21,21,0,1,4,31,181,588.2026831168332,589.0960090773588,"[96, 0, 158]",158,l,0.37109767307993025,colour,0.5
21,21,0,1,4,32,182,591.1093171415268,592.2720276227919,"[29, 0, 225]",225,a,0.6404715599783231,colour,0.5
21,21,0,1,4,33,183,594.2813913169375,595.5520089702331,"[38, 0, 216]",216,a,0.7483472242893185,colour,0.5
21,21,0,1,4,34,184,597.5629082708328,598.2079850748123,"[36, 0, 218]",218,a,0.12301983963698149,colour,0.5
21,21,0,1,4,35,185,600.2192762524064,600.7680210250837,"[42, 0, 212]",212,a,0.026368399034254253,colour,0.5
21,21,0,1,4,36,186,602.7819718462997,604.5280190085759,"[93, 0, 161]",161,l,1.2237318348197732,colour,0.5
21,21,0,1,4,37,187,606.5478877632704,607.9360212550964,"[37, 0, 217]",217,a,0.8658150135888718,colour,0.5
21,21,0,1,4,38,188,609.9544564094977,610.8640332532232,"[3, 0, 251]",251,a,0.3873107470571995,colour,0.5
21,21,0,1,4,39,189,612.876492184907,613.4400254897191,"[17, 0, 237]",237,a,0.04107855577603914,colour,0.5
21,21,0,1,4,40,190,615.4548951541947,616.1680392207636,"[74, 0, 180]",180,l,0.19085748988436535,colour,0.5
21,21,0,1,4,41,191,618.1738756280683,618.7920586421096,"[73, 0, 181]",181,l,0.09600592657807283,colour,0.5
21,21,0,1,4,42,192,620.7990320835088,621.6719816215627,"[25, 0, 229]",229,a,0.35053968749707565,colour,0.5
21,21,0,1,4,43,193,623.6899098958529,624.8240413191961,"[54, 0, 200]",200,a,0.6117849820293486,colour,0.5
21,21,0,1,4,44,194,626.8308209882234,627.6000255212421,"[57, 0, 197]",197,a,0.24722594406921417,colour,0.5
21,21,0,1,4,45,195,629.6122430251853,630.25602525656,"[78, 0, 176]",176,l,0.12152952546603046,colour,0.5
21,21,0,1,4,46,196,632.2686779605865,633.3520331523905,"[28, 0, 226]",226,a,0.5609630643157288,colour,0.5
21,21,0,1,4,47,197,635.3627414375951,636.8319954376784,"[34, 0, 220]",220,a,0.9471474111196585,colour,0.5
21,21,0,1,4,48,198,638.8473723760981,639.4160205619119,"[90, 0, 164]",164,l,0.04650811990723014,colour,0.5
21,21,0,1,4,49,199,641.425703271525,642.3280290122784,"[89, 0, 165]",165,l,0.3800265609752387,colour,0.5
21,21,0,1,4,50,200,644.3477870961651,644.9760411522002,"[27, 0, 227]",227,a,0.10597614393918775,colour,0.5
21,21,0,1,5,1,201,653.7696220100042,655.0400317125022,"[88, 0, 166]",166,l,0.7472838394751307,colour,0.5
21,21,0,1,5,2,202,657.0518900286697,657.6880414893385,"[42, 0, 212]",212,a,0.1137790255015716,colour,0.5
21,21,0,1,5,3,203,659.7083379610267,660.6880446400901,"[56, 0, 198]",198,l,0.4573830808221828,colour,0.5
21,21,0,1,5,4,204,662.7086471303192,663.7600027096632,"[4, 0, 250]",250,a,0.529076879582135,colour,0.5
21,21,0,1,5,5,205,665.7713915611384,667.7760117712605,"[62, 0, 192]",192,l,1.4822670734138228,colour,0.5
21,21,0,1,5,6,206,669.787319096562,670.8240157191758,"[83, 0, 171]",171,l,0.5143458489619661,colour,0.5
21,21,0,1,5,7,207,672.8345034504891,674.1200557528646,"[71, 0, 183]",183,l,0.7633614303194918,colour,0.5
21,21,0,1,5,8,208,676.1316241982277,677.4160430111515,"[90, 0, 164]",164,l,0.7621617747063283,colour,0.5
21,21,0,1,5,9,209,679.4287697582622,679.9600612352078,"[79, 0, 175]",175,l,0.009052949462784454,colour,0.5
21,21,0,1,5,10,210,681.9757796383055,682.6560076122405,"[16, 0, 238]",238,a,0.15779724952881224,colour,0.5
21,21,0,1,5,11,211,684.6635095952661,685.576011928817,"[36, 0, 218]",218,a,0.39032760917325504,colour,0.5
21,21,0,1,5,12,212,687.585567819915,688.4240239111823,"[51, 0, 203]",203,a,0.3160730222298298,colour,0.5
21,21,0,1,5,13,213,690.4296082569053,691.5520385087002,"[53, 0, 201]",201,a,0.6002571028075181,colour,0.5
21,21,0,1,5,14,214,693.5704145861673,694.2000601009349,"[14, 0, 240]",240,a,0.10733176267240196,colour,0.5
21,21,0,1,5,15,215,696.2112922015949,698.2320211164479,"[78, 0, 176]",176,l,1.498491962760454,colour,0.5
21,21,0,1,5,16,216,700.2429507432098,700.8960108102765,"[41, 0, 213]",213,a,0.13083768729120493,colour,0.5
21,21,0,1,5,17,217,702.9150186171173,704.4160481311555,"[66, 0, 188]",188,a,0.9787421496585011,colour,0.5
21,21,0,1,5,18,218,706.4309107064037,707.4000465526187,"[98, 0, 156]",156,l,0.4472372080781497,colour,0.5
21,21,0,1,5,19,219,709.4154514541151,710.6000475766195,"[91, 0, 163]",163,l,0.6622650411736686,colour,0.5
21,21,0,1,5,20,220,712.6188454634103,714.8880452702579,"[64, 0, 190]",190,l,1.7473633963963948,colour,0.5
21,21,0,1,5,21,221,716.9005175927014,717.4800347529817,"[15, 0, 239]",239,a,0.05724948819261044,colour,0.5
21,21,0,1,5,22,222,719.494430226594,720.5040014777042,"[96, 0, 158]",158,l,0.4873346928798128,colour,0.5
21,21,0,1,5,23,223,722.5102726912592,723.4080451757472,"[11, 0, 243]",243,a,0.3754646400921047,colour,0.5
21,21,0,1,5,24,224,725.4167759589909,726.5280347624503,"[92, 0, 162]",162,l,0.5889875867578667,colour,0.5
21,21,0,1,5,25,225,728.5420915282739,729.2320664087601,"[99, 0, 155]",155,l,0.16780173149891198,colour,0.5
21,21,0,1,5,26,226,731.2453669898387,732.2080004347954,"[46, 0, 208]",208,a,0.44031929899938405,colour,0.5
21,21,0,1,5,27,227,734.2143433283491,734.9200425196323,"[86, 0, 168]",168,l,0.18366940232226625,colour,0.5
21,21,0,1,5,28,228,736.9333356176503,737.6960294785968,"[33, 0, 221]",221,a,0.2405782135319896,colour,0.5
21,21,0,1,5,29,229,739.7147958576679,740.968019292166,"[95, 0, 159]",159,l,0.7310294116614386,colour,0.5
21,21,0,1,5,30,230,742.9806570300425,743.5200467731629,"[6, 0, 248]",248,a,0.01768527115928009,colour,0.5
21,21,0,1,5,31,231,745.527697630052,746.3919809756335,"[93, 0, 161]",161,l,0.34193611654336564,colour,0.5
21,21,0,1,5,32,232,748.4030228485935,749.2160541963822,"[27, 0, 227]",227,a,0.2908392942044884,colour,0.5
21,21,0,1,5,33,233,751.2312854116899,752.1200273959257,"[9, 0, 245]",245,a,0.366468404448824,colour,0.5
21,21,0,1,5,34,234,754.1377756825241,754.8400362023385,"[35, 0, 219]",219,a,0.18001096468651667,colour,0.5
21,21,0,1,5,35,235,756.8568199595029,757.672021793871,"[50, 0, 204]",204,a,0.29292825461016037,colour,0.5
21,21,0,1,5,36,236,759.6851746826142,760.6400422675651,"[80, 0, 174]",174,l,0.43265780826914124,colour,0.5
21,21,0,1,5,37,237,762.6541006088082,763.7680446558516,"[69, 0, 185]",185,l,0.5916866149636917,colour,0.5
21,21,0,1,5,38,238,765.7793094457593,766.8080196545052,"[3, 0, 251]",251,a,0.5064657735929359,colour,0.5
21,21,0,1,5,39,239,768.8264697750565,769.3920825879613,"[43, 0, 211]",211,a,0.04332190391141921,colour,0.5
21,21,0,1,5,40,240,771.40479870126,773.7120487802022,"[19, 0, 235]",235,a,1.784965471480973,colour,0.5
21,21,0,1,5,41,241,775.7183956122317,776.8961876472458,"[20, 0, 234]",234,a,0.656273064611014,colour,0.5
21,21,0,1,5,42,242,778.9053815936786,780.2400260411086,"[8, 0, 246]",246,a,0.8123759876762051,colour,0.5
21,21,0,1,5,43,243,782.2493917044776,783.3280530369084,"[13, 0, 241]",241,a,0.5563936603430193,colour,0.5
21,21,0,1,5,44,244,785.3433539629914,786.2560504627181,"[34, 0, 220]",220,a,0.3903788091847673,colour,0.5
21,21,0,1,5,45,245,788.2655386122933,788.8560480208835,"[2, 0, 252]",252,a,0.06822637651930563,colour,0.5
21,21,0,1,5,46,246,790.8751353846455,792.0960571265896,"[47, 0, 207]",207,a,0.6986434360151179,colour,0.5
21,21,0,1,5,47,247,794.1096617569856,795.0080624262046,"[26, 0, 228]",228,a,0.37599790788954124,colour,0.5
21,21,0,1,5,48,248,797.0161894431803,797.7040737878706,"[48, 0, 206]",206,a,0.1655111218278762,colour,0.5
21,21,0,1,5,49,249,799.7195452493906,801.4320367127657,"[74, 0, 180]",180,l,1.1901757420564536,colour,0.5
21,21,0,1,5,50,250,803.438558018679,804.0640236433828,"[87, 0, 167]",167,l,0.1030833433906082,colour,0.5
21,21,0,1,6,1,251,817.3139612187515,817.9680283506168,"[75, 0, 179]",179,l,0.13134653662564233,colour,0.5
21,21,0,1,6,2,252,819.9867919727694,820.6320716075425,"[69, 0, 185]",185,l,0.12349363663815893,colour,0.5
21,21,0,1,6,3,253,822.643281652825,823.3600829755305,"[9, 0, 245]",245,a,0.1951236322929617,colour,0.5
21,21,0,1,6,4,254,825.3778576497862,826.0480374248291,"[88, 0, 166]",166,l,0.14792982605285943,colour,0.5
21,21,0,1,6,5,255,828.0655939083081,829.2400201334094,"[90, 0, 164]",164,l,0.65209514379967,colour,0.5
21,21,0,1,6,6,256,831.2532974775531,831.7840816805547,"[35, 0, 219]",219,a,0.008527558617061004,colour,0.5
21,21,0,1,6,7,257,833.8002029883501,834.5760434365075,"[72, 0, 182]",182,l,0.25337427758495323,colour,0.5
21,21,0,1,6,8,258,836.5818554253492,837.1920823516557,"[97, 0, 157]",157,l,0.08795177115825936,colour,0.5
21,21,0,1,6,9,259,839.2071501207829,840.096068548155,"[25, 0, 229]",229,a,0.36673149376292713,colour,0.5
21,21,0,1,6,10,260,842.1136478746776,843.0960626404558,"[56, 0, 198]",198,a,0.46032786910654977,colour,0.5
21,21,0,1,6,11,261,845.1138889085851,845.6480881522293,"[1, 0, 253]",253,a,0.012134402379160747,colour,0.5
21,21,0,1,6,12,262,847.661024031695,848.2800510582165,"[6, 0, 248]",248,a,0.09678298520157114,colour,0.5
21,21,0,1,6,13,263,850.2860398840276,851.1120390128344,"[12, 0, 242]",242,a,0.3035191736125853,colour,0.5
21,21,0,1,6,14,264,853.1300952871388,854.0720565311203,"[93, 0, 161]",161,l,0.41966482112184167,colour,0.5
21,21,0,1,6,15,265,856.0835005210538,858.8160612068605,"[62, 0, 192]",192,a,2.210207942931447,colour,0.5
21,21,0,1,6,16,266,860.8339162257616,862.176037056197,"[45, 0, 209]",209,a,0.8198496137629263,colour,0.5
21,21,0,1,6,17,267,864.1935821181105,864.920084661193,"[70, 0, 184]",184,l,0.2042927664006129,colour,0.5
21,21,0,1,6,18,268,866.9281317273853,868.0320795632433,"[47, 0, 207]",207,a,0.5816423545475118,colour,0.5
21,21,0,1,6,19,269,870.0377682782128,870.7680702558719,"[84, 0, 170]",170,l,0.208013825584203,colour,0.5
21,21,0,1,6,20,270,872.7879933613294,873.4320760973787,"[92, 0, 162]",162,l,0.12177528551546857,colour,0.5
21,21,0,1,6,21,271,875.4445192752173,876.0800748465408,"[30, 0, 224]",224,a,0.11335524695459753,colour,0.5
21,21,0,1,6,22,272,878.0852720414114,879.2720449520275,"[27, 0, 227]",227,a,0.6643855092988815,colour,0.5
21,21,0,1,6,23,273,881.288595552207,882.0800606680568,"[49, 0, 205]",205,a,0.2691194622020703,colour,0.5
21,21,0,1,6,24,274,884.0857462322747,885.3680997155607,"[22, 0, 232]",232,a,0.7599936512124259,colour,0.5
21,21,0,1,6,25,275,887.3829020323174,888.376058954047,"[73, 0, 181]",181,l,0.4708447450248059,colour,0.5
21,21,0,1,6,26,276,890.3831824508379,891.0640835080121,"[86, 0, 168]",168,l,0.1586877358786296,colour,0.5
21,21,0,1,6,27,277,893.0708297000965,893.8241567161458,"[42, 0, 212]",212,a,0.2309979039710015,colour,0.5
21,21,0,1,6,28,278,895.8366455801297,896.3920865264372,"[33, 0, 221]",221,a,0.033146492671221495,colour,0.5
21,21,0,1,6,29,279,898.3994081278797,899.1040904081892,"[65, 0, 189]",189,l,0.1824323313194327,colour,0.5
21,21,0,1,6,30,280,901.1183744232985,901.9040499995754,"[10, 0, 244]",244,a,0.26336103648645803,colour,0.5
21,21,0,1,6,31,281,903.9154526356433,904.520066071651,"[19, 0, 235]",235,a,0.0823441885295324,colour,0.5
21,21,0,1,6,32,282,906.5406661987654,907.1760776223673,"[57, 0, 197]",197,l,0.11382510550902225,colour,0.5
21,21,0,1,6,33,283,909.1815217588155,909.8401299377438,"[68, 0, 186]",186,a,0.13653230995987542,colour,0.5
21,21,0,1,6,34,284,911.8535715157632,913.21603883637,"[89, 0, 165]",165,l,0.8402441531361546,colour,0.5
21,21,0,1,6,35,285,915.2288573496917,916.120082140551,"[77, 0, 177]",177,l,0.36898350648698397,colour,0.5
21,21,0,1,6,36,286,918.1353456512734,918.7600889619789,"[0, 0, 254]",254,a,0.1023287340067327,colour,0.5
21,21,0,1,6,37,287,920.7761984543758,921.4240928342915,"[16, 0, 238]",238,a,0.125609378592344,colour,0.5
21,21,0,1,6,38,288,923.4326144851802,924.0560963064199,"[74, 0, 180]",180,l,0.10117003836785443,colour,0.5
21,21,0,1,6,39,289,926.0734393252351,927.4240928342915,"[53, 0, 201]",201,a,0.8283161261933856,colour,0.5
21,21,0,1,6,40,290,929.4330831622065,930.9040858395747,"[41, 0, 213]",213,a,0.948688925273018,colour,0.5
21,21,0,1,6,41,291,932.9176959837787,934.2800868982158,"[55, 0, 199]",199,a,0.839934590010671,colour,0.5
21,21,0,1,6,42,292,936.2930503469252,937.0560907925828,"[24, 0, 230]",230,a,0.24084405973553658,colour,0.5
21,21,0,1,6,43,293,939.0746196823893,939.9681681660295,"[13, 0, 241]",241,a,0.3714076300675515,colour,0.5
21,21,0,1,6,44,294,941.9810311839392,942.5360900993983,"[21, 0, 233]",233,a,0.03310474497266114,colour,0.5
21,21,0,1,6,45,295,944.5437015716743,946.0720573187864,"[67, 0, 187]",187,l,1.006087681191275,colour,0.5
21,21,0,1,6,46,296,948.0908394517319,948.9280608350527,"[83, 0, 171]",171,l,0.3149139327870216,colour,0.5
21,21,0,1,6,47,297,950.9348633471818,952.240091419575,"[20, 0, 234]",234,a,0.7829698526475113,colour,0.5
21,21,0,1,6,48,298,954.247498091805,955.3760802217585,"[38, 0, 216]",216,a,0.6064979902293999,colour,0.5
21,21,0,1,6,49,299,957.3884032764763,958.1520644237753,"[15, 0, 239]",239,a,0.24132652135449462,colour,0.5
21,21,0,1,6,50,300,960.1699438611395,960.6960728016857,"[51, 0, 203]",203,a,0.003925465396605432,colour,0.5
21,21,0,1,7,1,301,968.9198688334436,970.304101278336,"[26, 0, 228]",228,a,0.8611396649503149,colour,0.5
21,21,0,1,7,2,302,972.3115457598178,972.8721271871182,"[56, 0, 198]",198,a,0.03835235215956345,colour,0.5
21,21,0,1,7,3,303,974.8898935906182,976.2320900395571,"[71, 0, 183]",183,l,0.8200099091918673,colour,0.5
21,21,0,1,7,4,304,978.2494527506642,979.0400872448226,"[35, 0, 219]",219,a,0.2682829328405205,colour,0.5
21,21,0,1,7,5,305,981.0465758614882,981.9681331137253,"[88, 0, 166]",166,l,0.3993608663440682,colour,0.5
21,21,0,1,7,6,306,983.9842882922967,984.5361015209637,"[96, 0, 158]",158,l,0.02951247352757491,colour,0.5
21,21,0,1,7,7,307,986.547023270803,987.6881092308904,"[79, 0, 175]",175,l,0.6189384111203253,colour,0.5
21,21,0,1,7,8,308,989.7036444954865,990.392095191055,"[55, 0, 199]",199,a,0.16635946661699563,colour,0.5
21,21,0,1,7,9,309,992.4068801785761,993.1681270484987,"[15, 0, 239]",239,a,0.23906072400859557,colour,0.5
21,21,0,1,7,10,310,995.188317181688,995.8961037579866,"[57, 0, 197]",197,a,0.18551732882042415,colour,0.5
21,21,0,1,7,11,311,997.9073055325134,998.6561084369023,"[38, 0, 216]",216,a,0.22651750923250802,colour,0.5
21,21,0,1,7,12,312,1000.6731659171637,1001.704095449415,"[13, 0, 241]",241,a,0.5086370478384197,colour,0.5
21,21,0,1,7,13,313,1003.7203057664447,1004.6640657061362,"[87, 0, 167]",167,l,0.42154819375718944,colour,0.5
21,21,0,1,7,14,314,1006.6736369572754,1007.2321491164912,"[81, 0, 173]",173,l,0.03627835793304257,colour,0.5
21,21,0,1,7,15,315,1009.2519119265198,1010.0641098956985,"[3, 0, 251]",251,a,0.2899492017168086,colour,0.5
21,21,0,1,7,16,316,1012.0803399050492,1012.6560662953416,"[29, 0, 225]",225,a,0.05355639208573848,colour,0.5
21,21,0,1,7,17,317,1014.6740847604233,1015.3041111245111,"[98, 0, 156]",156,l,0.10754798428388312,colour,0.5
21,21,0,1,7,18,318,1017.3151210958895,1018.1441229083866,"[18, 0, 236]",236,a,0.3068298450380098,colour,0.5
21,21,0,1,7,19,319,1020.1590181728534,1020.7280917126045,"[33, 0, 221]",221,a,0.04666565841762349,colour,0.5
21,21,0,1,7,20,320,1022.7374270498403,1023.5040822161827,"[22, 0, 232]",232,a,0.2443918265926186,colour,0.5
21,21,0,1,7,21,321,1025.5189912652713,1026.3280687907536,"[60, 0, 194]",194,l,0.2868909857352264,colour,0.5
21,21,0,1,7,22,322,1028.3471754529746,1029.0161154000962,"[10, 0, 244]",244,a,0.1467408042808529,colour,0.5
21,21,0,1,7,23,323,1031.0349621238129,1032.2480896488414,"[68, 0, 186]",186,l,0.690863791416632,colour,0.5
21,21,0,1,7,24,324,1034.2539433853817,1034.7840891636442,"[14, 0, 240]",240,a,0.007852900016587228,colour,0.5
21,21,0,1,7,25,325,1036.8009816223348,1037.6561159199628,"[46, 0, 208]",208,a,0.3327630439889617,colour,0.5
21,21,0,1,7,26,326,1039.6763210193312,1040.5201121516584,"[44, 0, 210]",210,a,0.32160853102686815,colour,0.5
21,21,0,1,7,27,327,1042.5359093239822,1043.1601008561265,"[21, 0, 233]",233,a,0.10200381083996035,colour,0.5
21,21,0,1,7,28,328,1045.1766896593908,1047.2561197796604,"[70, 0, 184]",184,l,1.5571474820317235,colour,0.5
21,21,0,1,7,29,329,1049.270766133326,1050.312058153766,"[30, 0, 224]",224,a,0.5190298622183036,colour,0.5
21,21,0,1,7,30,330,1052.3178295764374,1053.1603899392649,"[52, 0, 202]",202,a,0.3202466107613873,colour,0.5
21,21,0,1,7,31,331,1055.1775423364888,1055.856084648578,"[0, 0, 254]",254,a,0.15632780923624523,colour,0.5
21,21,0,1,7,32,332,1057.865192342666,1058.5361204255605,"[28, 0, 226]",226,a,0.14869034310686402,colour,0.5
21,21,0,1,7,33,333,1060.552792330389,1061.2721272658964,"[67, 0, 187]",187,l,0.19689121417468414,colour,0.5
21,21,0,1,7,34,334,1063.2874786042958,1064.4481056389923,"[43, 0, 211]",211,a,0.638368814921705,colour,0.5
21,21,0,1,7,35,335,1066.459613825893,1067.240091419575,"[93, 0, 161]",161,l,0.25825521393562667,colour,0.5
21,21,0,1,7,36,336,1069.2567459951679,1070.4400967758847,"[4, 0, 250]",250,a,0.6611185547953937,colour,0.5
21,21,0,1,7,37,337,1072.4600974690693,1073.1440921883623,"[94, 0, 160]",160,l,0.16163921952829696,colour,0.5
21,21,0,1,7,38,338,1075.1633756875526,1077.488081031508,"[59, 0, 195]",195,a,1.802439641120145,colour,0.5
21,21,0,1,7,39,339,1079.5075709061057,1082.4961529099965,"[53, 0, 201]",201,a,2.4662666764343157,colour,0.5
21,21,0,1,7,40,340,1084.508010832331,1085.7440984111454,"[69, 0, 185]",185,a,0.7138565344212111,colour,0.5
21,21,0,1,7,41,341,1087.7582686046953,1088.736115541862,"[47, 0, 207]",207,a,0.45555366508779116,colour,0.5
21,21,0,1,7,42,342,1090.7428117154923,1092.3200914353365,"[73, 0, 181]",181,l,1.0550061400572304,colour,0.5
21,21,0,1,7,43,343,1094.3368795248098,1095.1601004622935,"[27, 0, 227]",227,a,0.3010320346802473,colour,0.5
21,21,0,1,7,44,344,1097.1652114048484,1098.5520995548577,"[66, 0, 188]",188,a,0.8645980287110433,colour,0.5
21,21,0,1,7,45,345,1100.571680407942,1101.1601292130654,"[9, 0, 245]",245,a,0.06612481301999651,colour,0.5
21,21,0,1,7,46,346,1103.1656702356995,1103.8641289578518,"[91, 0, 163]",163,l,0.17620404699118808,colour,0.5
21,21,0,1,7,47,347,1105.8846869434346,1106.616129893635,"[32, 0, 222]",222,a,0.20919300121022388,colour,0.5
21,21,0,1,7,48,348,1108.6349191158079,1109.4561022928974,"[8, 0, 246]",246,a,0.2989241696486715,colour,0.5
21,21,0,1,7,49,349,1111.463171438896,1112.2481148549996,"[64, 0, 190]",190,l,0.2627521501854062,colour,0.5
21,21,0,1,7,50,350,1114.2602949435532,1114.984124846087,"[84, 0, 170]",170,l,0.20157010736875236,colour,0.5
21,21,0,1,8,1,351,1137.308228392998,1138.5761170857586,"[71, 0, 183]",183,l,0.744783703587018,colour,0.5
21,21,0,1,8,2,352,1140.5906039316906,1141.184106571629,"[13, 0, 241]",241,a,0.07125544786686078,colour,0.5
21,21,0,1,8,3,353,1143.200069947081,1143.7521277542692,"[89, 0, 165]",165,l,0.029656621220055968,colour,0.5
21,21,0,1,8,4,354,1145.762823042518,1153.0320992555353,"[85, 0, 169]",169,l,6.746978214767296,colour,0.5
21,21,0,1,8,5,355,1155.0448043411307,1155.8240870053414,"[80, 0, 174]",174,l,0.25700317675364204,colour,0.5
21,21,0,1,8,6,356,1157.8419164242514,1159.3840957802604,"[10, 0, 244]",244,a,1.0198545762395952,colour,0.5
21,21,0,1,8,7,357,1161.4046226519858,1163.160112277692,"[54, 0, 200]",200,a,1.2331136459251866,colour,0.5
21,21,0,1,8,8,358,1165.1706193074351,1168.1441138499067,"[81, 0, 173]",173,l,2.451263891940471,colour,0.5
21,21,0,1,8,9,359,1170.1553648551926,1171.6001090166392,"[1, 0, 253]",253,a,0.9223839354817756,colour,0.5
21,21,0,1,8,10,360,1173.6087074675597,1174.8081094514346,"[49, 0, 205]",205,l,0.6769748040824197,colour,0.5
21,21,0,1,8,11,361,1176.8278017630219,1177.4081475757412,"[3, 0, 251]",251,a,0.05808680527843535,colour,0.5
21,21,0,1,8,12,362,1179.421731332288,1180.2561107212096,"[78, 0, 176]",176,l,0.312137316854205,colour,0.5
21,21,0,1,8,13,363,1182.2657690123306,1183.3201253061125,"[60, 0, 194]",194,l,0.5321421847911552,colour,0.5
21,21,0,1,8,14,364,1185.3293255540775,1186.6880946585734,"[98, 0, 156]",156,l,0.8374372110702097,colour,0.5
21,21,0,1,8,15,365,1188.7037728893629,1189.3761089725303,"[86, 0, 168]",168,l,0.15015820803819224,colour,0.5
21,21,0,1,8,16,366,1191.3913819355366,1192.1281595329347,"[75, 0, 179]",179,l,0.2144413960922975,colour,0.5
21,21,0,1,8,17,367,1194.141717689432,1194.6721698800393,"[33, 0, 221]",221,a,0.008194364665541798,colour,0.5
21,21,0,1,8,18,368,1196.688794917165,1197.3041221521853,"[73, 0, 181]",181,l,0.09313163679325953,colour,0.5
21,21,0,1,8,19,369,1199.3139407387353,1200.2241504933627,"[94, 0, 160]",160,l,0.38803345485939644,colour,0.5
21,21,0,1,8,20,370,1202.2360745818587,1204.4561578252178,"[6, 0, 248]",248,a,1.6978025743446779,colour,0.5
21,21,0,1,8,21,371,1206.470778185001,1208.2001495040313,"[84, 0, 170]",170,l,1.2070520530978683,colour,0.5
21,21,0,1,8,22,372,1210.205450674286,1210.9921380415326,"[63, 0, 191]",191,l,0.26440984901273623,colour,0.5
21,21,0,1,8,23,373,1213.002670671296,1214.0081022046797,"[17, 0, 237]",237,a,0.4832351474906318,colour,0.5
21,21,0,1,8,24,374,1216.0183973451494,1216.8802069425583,"[52, 0, 202]",202,a,0.3395907622470986,colour,0.5
21,21,0,1,8,25,375,1218.8936485205777,1221.152145949949,"[66, 0, 188]",188,l,1.736239603429567,colour,0.5
21,21,0,1,8,26,376,1223.159543169866,1223.9361260181759,"[37, 0, 217]",217,a,0.2542612192919478,colour,0.5
21,21,0,1,8,27,377,1225.9567170868686,1226.9121844996116,"[4, 0, 250]",250,a,0.4331335745227989,colour,0.5
21,21,0,1,8,28,378,1228.9256504961231,1230.2801152551547,"[15, 0, 239]",239,a,0.832132890005596,colour,0.5
21,21,0,1,8,29,379,1232.2853526223334,1233.384104051016,"[28, 0, 226]",226,a,0.5765613442927133,colour,0.5
21,21,0,1,8,30,380,1235.394897013146,1235.960217985994,"[20, 0, 234]",234,a,0.04296901766792871,colour,0.5
21,21,0,1,8,31,381,1237.9732503578125,1238.520144447044,"[14, 0, 240]",240,a,0.024540558690205216,colour,0.5
21,21,0,1,8,32,382,1240.5359747024777,1242.328139289224,"[29, 0, 225]",225,a,1.2698559546843171,colour,0.5
21,21,0,1,8,33,383,1244.3487528071273,1245.5521511487314,"[45, 0, 209]",209,a,0.6811373649106827,colour,0.5
21,21,0,1,8,34,384,1247.5677801487327,1248.6641247830703,"[22, 0, 232]",232,a,0.5739792883978225,colour,0.5
21,21,0,1,8,35,385,1250.6773816472269,1251.9681402029528,"[51, 0, 203]",203,a,0.7683833636110649,colour,0.5
21,21,0,1,8,36,386,1253.9745421734406,1254.6641499892285,"[32, 0, 222]",222,a,0.1673582606308628,colour,0.5
21,21,0,1,8,37,387,1256.6778818319435,1257.3441483508504,"[21, 0, 233]",233,a,0.14395591759239323,colour,0.5
21,21,0,1,8,38,388,1259.3499343458388,1260.7281291279942,"[79, 0, 175]",175,l,0.8558113192848396,colour,0.5
21,21,0,1,8,39,389,1262.740836182813,1263.9921518261544,"[38, 0, 216]",216,a,0.729040882026311,colour,0.5
21,21,0,1,8,40,390,1266.0067351644102,1267.0321551817178,"[57, 0, 197]",197,a,0.5030783021647949,colour,0.5
21,21,0,1,8,41,391,1269.038237742905,1270.0961481050763,"[65, 0, 189]",189,a,0.5356383577745873,colour,0.5
21,21,0,1,8,42,392,1272.1166292906564,1272.7442366511677,"[34, 0, 220]",220,a,0.10527706687571481,colour,0.5
21,21,0,1,8,43,393,1274.757487213763,1275.944152604381,"[35, 0, 219]",219,a,0.6644883031549398,colour,0.5
21,21,0,1,8,44,394,1277.9609170630574,1279.0561727125896,"[91, 0, 163]",163,l,0.5730998297804035,colour,0.5
21,21,0,1,8,45,395,1281.0704311277077,1282.216121544101,"[61, 0, 193]",193,a,0.6233837535255589,colour,0.5
21,21,0,1,8,46,396,1284.2269278969907,1285.360149141692,"[87, 0, 167]",167,l,0.6108440833631903,colour,0.5
21,21,0,1,8,47,397,1287.3677952724101,1288.488115296117,"[48, 0, 206]",206,a,0.5979668869986199,colour,0.5
21,21,0,1,8,48,398,1290.5087217247928,1291.8881441256672,"[5, 0, 249]",249,a,0.8571472457260825,colour,0.5
21,21,0,1,8,49,399,1293.8996133217588,1294.5361334224872,"[9, 0, 245]",245,a,0.11423943171394058,colour,0.5
21,21,0,1,8,50,400,1296.556004146405,1297.5201720162877,"[59, 0, 195]",195,l,0.44175211162655614,colour,0.5
21,21,0,1,9,1,401,1341.5119087284838,1343.5201531116618,"[63, 0, 191]",191,l,1.4849917016690597,colour,0.5
21,21,0,1,9,2,402,1345.5288346641464,1347.7841588744195,"[54, 0, 200]",200,a,1.733160119765671,colour,0.5
21,21,0,1,9,3,403,1349.7946804764797,1350.392168052611,"[75, 0, 179]",179,l,0.07526913483161479,colour,0.5
21,21,0,1,9,4,404,1352.4041779995896,1353.736149412638,"[78, 0, 176]",176,l,0.8096218209539074,colour,0.5
21,21,0,1,9,5,405,1355.7482763319567,1356.816156123794,"[84, 0, 170]",170,l,0.5458913567417767,colour,0.5
21,21,0,1,9,6,406,1358.8265910797054,1359.6481586506998,"[82, 0, 172]",172,l,0.299190803518286,colour,0.5
21,21,0,1,9,7,407,1361.654942652036,1362.328154255374,"[62, 0, 192]",192,a,0.15083247277652845,colour,0.5
21,21,0,1,9,8,408,1364.3427112059435,1366.1281500806217,"[53, 0, 201]",201,a,1.2631964087486267,colour,0.5
21,21,0,1,9,9,409,1368.1398599167587,1368.7201529541053,"[30, 0, 224]",224,a,0.057943839085055515,colour,0.5
21,21,0,1,9,10,410,1370.7338276891096,1371.5121895408665,"[74, 0, 180]",180,l,0.25592285656603053,colour,0.5
21,21,0,1,9,11,411,1373.5310713168874,1374.1841814024083,"[18, 0, 236]",236,a,0.1310346104146447,colour,0.5
21,21,0,1,9,12,412,1376.2031025630713,1376.7522738712141,"[38, 0, 216]",216,a,0.02691269453498535,colour,0.5
21,21,0,1,9,13,413,1378.7657280523272,1379.6481586506998,"[73, 0, 181]",181,l,0.36022594169480726,colour,0.5
21,21,0,1,9,14,414,1381.6566011385294,1382.3441637108335,"[6, 0, 248]",248,a,0.16522912791697308,colour,0.5
21,21,0,1,9,15,415,1384.3599234677968,1384.9521913998178,"[98, 0, 156]",156,l,0.07000892455107532,colour,0.5
21,21,0,1,9,16,416,1386.9695174832304,1389.6241675075144,"[49, 0, 205]",205,l,2.132359902985627,colour,0.5
21,21,0,1,9,17,417,1391.6417354125297,1392.6721604277554,"[32, 0, 222]",222,a,0.5081427708500996,colour,0.5
21,21,0,1,9,18,418,1394.6888508433476,1395.688156098593,"[0, 0, 254]",254,a,0.476985989313107,colour,0.5
21,21,0,1,9,19,419,1397.7047515972517,1398.2722024905088,"[42, 0, 212]",212,a,0.04516274118213914,colour,0.5
21,21,0,1,9,20,420,1400.2830470465124,1401.2641699966334,"[37, 0, 217]",217,a,0.45883164726546966,colour,0.5
21,21,0,1,9,21,421,1403.2833455819346,1403.8562035901414,"[23, 0, 231]",231,a,0.05060648382641375,colour,0.5
21,21,0,1,9,22,422,1405.8616686004389,1407.128152049845,"[39, 0, 215]",215,a,0.7442461034806911,colour,0.5
21,21,0,1,9,23,423,1409.1431493205018,1409.7281901741517,"[25, 0, 229]",229,a,0.06272237541270442,colour,0.5
21,21,0,1,9,24,424,1411.7371115789865,1414.0001638400136,"[40, 0, 214]",214,a,1.7406940043147188,colour,0.5
21,21,0,1,9,25,425,1416.0186805205885,1416.5441600086924,"[17, 0, 237]",237,a,0.003206696012057364,colour,0.5
21,21,0,1,9,26,426,1418.5657317544683,1419.1842148793512,"[86, 0, 168]",168,l,0.096218603575835,colour,0.5
21,21,0,1,9,27,427,1421.1909657976066,1421.8961880410789,"[81, 0, 173]",173,l,0.1829041590972338,colour,0.5
21,21,0,1,9,28,428,1423.9099915638217,1424.5121808762487,"[99, 0, 155]",155,l,0.07991179419332184,colour,0.5
21,21,0,1,9,29,429,1426.5195103546139,1427.2161818025634,"[60, 0, 194]",194,a,0.1743084650952369,colour,0.5
21,21,0,1,9,30,430,1429.222879945417,1429.8561657808896,"[14, 0, 240]",240,l,0.11109614494489506,colour,0.5
21,21,0,1,9,31,431,1431.8637579547067,1432.4881381391897,"[92, 0, 162]",162,l,0.10222515242639929,colour,0.5
21,21,0,1,9,32,432,1434.5045312008879,1435.064190634177,"[59, 0, 195]",195,a,0.037396093510324135,colour,0.5
21,21,0,1,9,33,433,1437.0828396470752,1438.5681901426578,"[71, 0, 183]",183,l,0.9630489527189638,colour,0.5
21,21,0,1,9,34,434,1440.583131093299,1443.584203142731,"[58, 0, 196]",196,a,2.478769325040048,colour,0.5
21,21,0,1,9,35,435,1445.5991850533755,1446.7761712789943,"[69, 0, 185]",185,l,0.654744941246463,colour,0.5
21,21,0,1,9,36,436,1448.786811822618,1450.13619202681,"[80, 0, 174]",174,l,0.8277036953077186,colour,0.5
21,21,0,1,9,37,437,1452.1466872411838,1453.1761855362274,"[35, 0, 219]",219,a,0.5073133306577802,colour,0.5
21,21,0,1,9,38,438,1455.1936534042761,1456.2161451748689,"[19, 0, 235]",235,a,0.5001701415749267,colour,0.5
21,21,0,1,9,39,439,1458.2251473181823,1458.8161671514972,"[31, 0, 223]",223,a,0.06865488123730756,colour,0.5
21,21,0,1,9,40,440,1460.8347212474619,1462.224195785675,"[10, 0, 244]",244,a,0.8671367615170311,colour,0.5
21,21,0,1,9,41,441,1464.2412540536607,1465.3761975879315,"[29, 0, 225]",225,a,0.6126817698823288,colour,0.5
21,21,0,1,9,42,442,1467.3821875952708,1468.6081797135994,"[26, 0, 228]",228,a,0.7040930863295216,colour,0.5
21,21,0,1,9,43,443,1470.616792736837,1472.0481421879376,"[93, 0, 161]",161,l,0.9090451513184234,colour,0.5
21,21,0,1,9,44,444,1474.054596146132,1475.2321499041864,"[56, 0, 198]",198,a,0.6553530398232397,colour,0.5
21,21,0,1,9,45,445,1477.2423505215556,1478.4161875527352,"[43, 0, 211]",211,a,0.6515410021529533,colour,0.5
21,21,0,1,9,46,446,1480.4300631493097,1481.0241687678208,"[27, 0, 227]",227,a,0.07189623569138348,colour,0.5
21,21,0,1,9,47,447,1483.039709152421,1484.1841967624205,"[2, 0, 252]",252,a,0.6222998886951245,colour,0.5
21,21,0,1,9,48,448,1486.1961803217127,1488.056169167976,"[65, 0, 189]",189,l,1.337665248021949,colour,0.5
21,21,0,1,9,49,449,1490.0714598540799,1491.7921740390593,"[45, 0, 209]",209,a,1.1984673867700621,colour,0.5
21,21,0,1,9,50,450,1493.8061130448768,1494.7281933249324,"[70, 0, 184]",184,l,0.3997109956399072,colour,0.5
21,21,0,1,10,1,451,1503.3061461279867,1503.8641974870989,"[52, 0, 202]",202,a,0.035030259197810665,colour,0.5
21,21,0,1,10,2,452,1505.869753475883,1506.6161747921142,"[53, 0, 201]",201,a,0.22429818572709337,colour,0.5
21,21,0,1,10,3,453,1508.6354291466705,1509.3922149203136,"[71, 0, 183]",183,l,0.23452046464080922,colour,0.5
21,21,0,1,10,4,454,1511.4012454205367,1512.4881601945963,"[13, 0, 241]",241,a,0.5646010219643358,colour,0.5
21,21,0,1,10,5,455,1514.4952852667484,1515.304208798363,"[69, 0, 185]",185,l,0.28664995182771236,colour,0.5
21,21,0,1,10,6,456,1517.3236155714258,1517.8562012270559,"[93, 0, 161]",161,l,0.01027387278736569,colour,0.5
21,21,0,1,10,7,457,1519.8706750760612,1520.5681550903537,"[18, 0, 236]",236,a,0.17505322833312675,colour,0.5
21,21,0,1,10,8,458,1522.5740391530271,1523.272208398208,"[19, 0, 235]",235,a,0.17586612692684866,colour,0.5
21,21,0,1,10,9,459,1525.2773508484534,1526.2081938133051,"[50, 0, 204]",204,a,0.4084996742894873,colour,0.5
21,21,0,1,10,10,460,1528.2151388977363,1529.5442096333136,"[12, 0, 242]",242,a,0.8070756050874479,colour,0.5
21,21,0,1,10,11,461,1531.5591265593248,1535.2002003101807,"[80, 0, 174]",174,l,3.1187978080124594,colour,0.5
21,21,0,1,10,12,462,1537.215833642491,1537.9841843168833,"[76, 0, 178]",178,l,0.24626456541591324,colour,0.5
21,21,0,1,10,13,463,1539.997276159469,1541.2242079949065,"[39, 0, 215]",215,a,0.7049378865049221,colour,0.5
21,21,0,1,10,14,464,1543.2319175348966,1544.496179691545,"[64, 0, 190]",190,l,0.7422154323139694,colour,0.5
21,21,0,1,10,15,465,1546.5135116826568,1547.2001932209532,"[63, 0, 191]",191,l,0.16450130008161068,colour,0.5
21,21,0,1,10,16,466,1549.2168162888556,1549.8321825146268,"[5, 0, 249]",249,a,0.09307531677768566,colour,0.5
21,21,0,1,10,17,467,1551.841963291954,1552.7282078972494,"[2, 0, 252]",252,a,0.36389225628226995,colour,0.5
21,21,0,1,10,18,468,1554.7484074827516,1555.608197436697,"[60, 0, 194]",194,l,0.33764949420583434,colour,0.5
21,21,0,1,10,19,469,1557.6237929597555,1558.7281952941557,"[92, 0, 162]",162,l,0.5822693577210885,colour,0.5
21,21,0,1,10,20,470,1560.733259369008,1562.2562044566148,"[56, 0, 198]",198,l,1.0005891939799767,colour,0.5
21,21,0,1,10,21,471,1564.2648182675184,1565.0562120972318,"[94, 0, 160]",160,l,0.2692876345827244,colour,0.5
21,21,0,1,10,22,472,1567.0619421660376,1567.8642002440174,"[81, 0, 173]",173,l,0.2799451135797426,colour,0.5
21,21,0,1,10,23,473,1569.874703729176,1570.688199815515,"[10, 0, 244]",244,a,0.29124810657231137,colour,0.5
21,21,0,1,10,24,474,1572.7029781076708,1573.432184405101,"[21, 0, 233]",233,a,0.20682244072668254,colour,0.5
21,21,0,1,10,25,475,1575.4375907323265,1576.1441839545441,"[75, 0, 179]",179,l,0.1843125532323029,colour,0.5
21,21,0,1,10,26,476,1578.1565936554398,1578.880225453322,"[33, 0, 221]",221,a,0.20135585503885522,colour,0.5
21,21,0,1,10,27,477,1580.8911554739461,1581.7601988450915,"[31, 0, 223]",223,a,0.34683989599579945,colour,0.5
21,21,0,1,10,28,478,1583.7663739601558,1584.928208133555,"[22, 0, 232]",232,a,0.6395928890269715,colour,0.5
21,21,0,1,10,29,479,1586.9385761355807,1588.464169445244,"[79, 0, 175]",175,l,1.0033788068103604,colour,0.5
21,21,0,1,10,30,480,1590.4700554771698,1591.2322074057302,"[27, 0, 227]",227,a,0.23986535184667446,colour,0.5
21,21,0,1,10,31,481,1593.2515196556924,1594.5282273532357,"[49, 0, 205]",205,a,0.7543655885383487,colour,0.5
21,21,0,1,10,32,482,1596.5486825449625,1597.5602029410948,"[44, 0, 210]",210,a,0.48950242256978527,colour,0.5
21,21,0,1,10,33,483,1599.5801433757879,1600.2882221859763,"[95, 0, 159]",159,l,0.18576820887392387,colour,0.5
21,21,0,1,10,34,484,1602.2991466927633,1603.0241860970564,"[25, 0, 229]",229,a,0.2029962245724164,colour,0.5
21,21,0,1,10,35,485,1605.0336801543308,1605.5922498150903,"[47, 0, 207]",207,a,0.03626536100637168,colour,0.5
21,21,0,1,10,36,486,1607.6120886374556,1608.3362021092908,"[83, 0, 171]",171,l,0.20196198439225554,colour,0.5
21,21,0,1,10,37,487,1610.3466350959498,1610.928212465864,"[6, 0, 248]",248,a,0.05916948858066462,colour,0.5
21,21,0,1,10,38,488,1612.9406473729177,1613.712217740249,"[51, 0, 203]",203,a,0.24928891062154435,colour,0.5
21,21,0,1,10,39,489,1615.7220646837377,1616.5041917054332,"[70, 0, 184]",184,l,0.25978885116637684,colour,0.5
21,21,0,1,10,40,490,1618.5192066991585,1619.1842097593471,"[74, 0, 180]",180,l,0.14273814501939341,colour,0.5
21,21,0,1,10,41,491,1621.1912473976554,1621.7282472818624,"[0, 0, 254]",254,a,0.014673922880319878,colour,0.5
21,21,0,1,10,42,492,1623.7383521946322,1624.47222005605,"[17, 0, 237]",237,a,0.2115281154983677,colour,0.5
21,21,0,1,10,43,493,1626.488515050034,1627.0322697909724,"[85, 0, 169]",169,a,0.021406330371974036,colour,0.5
21,21,0,1,10,44,494,1629.0512197023781,1629.6562076861446,"[15, 0, 239]",239,a,0.08258679779828526,colour,0.5
21,21,0,1,10,45,495,1631.6764773762843,1632.3362103800464,"[28, 0, 226]",226,a,0.1374645439791493,colour,0.5
21,21,0,1,10,46,496,1634.3485598224797,1635.0882144666102,"[38, 0, 216]",216,a,0.2175606582313776,colour,0.5
21,21,0,1,10,47,497,1637.098739219451,1637.7202332987508,"[77, 0, 177]",177,l,0.09946468420093879,colour,0.5
21,21,0,1,10,48,498,1639.7396373148658,1642.0562006756663,"[7, 0, 247]",247,a,1.7943220763991121,colour,0.5
21,21,0,1,10,49,499,1644.067966437986,1645.2642011104908,"[61, 0, 193]",193,l,0.6738287603948265,colour,0.5
21,21,0,1,10,50,500,1647.2714856903767,1647.904214627284,"[32, 0, 222]",222,a,0.1105034063803032,colour,0.5
21,21,0,1,11,1,501,1663.9282502750866,1665.3122180553328,"[28, 0, 226]",226,a,0.8607879602932371,colour,0.5
21,21,0,1,11,2,502,1667.3199835214764,1668.4642367929628,"[19, 0, 235]",235,a,0.62210611635237,colour,0.5
21,21,0,1,11,3,503,1670.4764074292034,1671.048231984867,"[0, 0, 254]",254,a,0.0495494005153887,colour,0.5
21,21,0,1,11,4,504,1673.0547410815489,1674.2322369441972,"[43, 0, 211]",211,a,0.6552762398205232,colour,0.5
21,21,0,1,11,5,505,1676.2424974261958,1676.9202469258162,"[6, 0, 248]",248,a,0.15615924305166118,colour,0.5
21,21,0,1,11,6,506,1678.930230140104,1679.4642415191047,"[89, 0, 165]",165,l,0.011676753056235611,colour,0.5
21,21,0,1,11,7,507,1681.4773038232233,1682.6962130109314,"[52, 0, 202]",202,a,0.6966060694830958,colour,0.5
21,21,0,1,11,8,508,1684.7119479555695,1685.976220352226,"[76, 0, 178]",178,l,0.7419621891749557,colour,0.5
21,21,0,1,11,9,509,1687.9934148910106,1689.06419102801,"[13, 0, 241]",241,a,0.5488530803704634,colour,0.5
21,21,0,1,11,10,510,1691.0718178602983,1692.5202334562782,"[66, 0, 188]",188,l,0.9260904223483521,colour,0.5
21,21,0,1,11,11,511,1694.5408670603647,1695.7122342817893,"[9, 0, 245]",245,a,0.6490936416666955,colour,0.5
21,21,0,1,11,12,512,1697.728634826548,1699.2642089874134,"[83, 0, 171]",171,l,1.0133572949562222,colour,0.5
21,21,0,1,11,13,513,1701.275799881987,1702.7202218772145,"[73, 0, 181]",181,l,0.9221602308389265,colour,0.5
21,21,0,1,11,14,514,1704.7291751835728,1706.0802225388761,"[27, 0, 227]",227,a,0.8287914985849056,colour,0.5
21,21,0,1,11,15,515,1708.088798146724,1709.6242112244654,"[25, 0, 229]",229,a,1.0131402856786735,colour,0.5
21,21,0,1,11,16,516,1711.635958475992,1713.0562345464423,"[74, 0, 180]",180,l,0.8979568045178894,colour,0.5
21,21,0,1,11,17,517,1715.0738418360706,1716.1922233486257,"[29, 0, 225]",225,a,0.5961961543362122,colour,0.5
21,21,0,1,11,18,518,1718.1989372453245,1720.0722321865323,"[67, 0, 187]",187,l,1.35118795838207,colour,0.5
21,21,0,1,11,19,519,1722.0900131623494,1723.152262922289,"[31, 0, 223]",223,a,0.5399958725029137,colour,0.5
21,21,0,1,11,20,520,1725.1682585931267,1725.9842327599763,"[15, 0, 239]",239,a,0.2935922793694772,colour,0.5
21,21,0,1,11,21,521,1727.9965963808645,1728.720224634133,"[5, 0, 249]",249,a,0.20171267972909845,colour,0.5
21,21,0,1,11,22,522,1730.7312353932357,1731.4242405266268,"[84, 0, 170]",170,l,0.1708587659522891,colour,0.5
21,21,0,1,11,23,523,1733.4346049840387,1735.304246607615,"[14, 0, 240]",240,l,1.3475338530552108,colour,0.5
21,21,0,1,11,24,524,1737.3099112979544,1737.9363875320705,"[24, 0, 230]",230,a,0.10457444519852288,colour,0.5
21,21,0,1,11,25,525,1739.9506841502734,1741.4962371930887,"[81, 0, 173]",173,l,1.0232199922611471,colour,0.5
21,21,0,1,11,26,526,1743.5135471288231,1746.4242358004558,"[44, 0, 210]",210,a,2.388455658016028,colour,0.5
21,21,0,1,11,27,527,1748.4357762827422,1752.8162278037926,"[56, 0, 198]",198,a,3.8581952705280855,colour,0.5
21,21,0,1,11,28,528,1754.8269183658995,1756.1602379146207,"[93, 0, 161]",161,l,0.8110412427922711,colour,0.5
21,21,0,1,11,29,529,1758.1708481321111,1758.7762319313188,"[2, 0, 252]",252,a,0.08295661941519938,colour,0.5
21,21,0,1,11,30,530,1760.7961361321504,1761.5042212439002,"[77, 0, 177]",177,l,0.18579774734098464,colour,0.5
21,21,0,1,11,31,531,1763.515076433745,1764.9122258534771,"[47, 0, 207]",207,a,0.8749900553666521,colour,0.5
21,21,0,1,11,32,532,1766.9215982122405,1767.8642731055734,"[39, 0, 215]",215,a,0.42046354126068763,colour,0.5
21,21,0,1,11,33,533,1769.8749806030537,1770.6962535771017,"[22, 0, 232]",232,a,0.29902814503293484,colour,0.5
21,21,0,1,11,34,534,1772.7034747477446,1774.4962604300235,"[69, 0, 185]",185,l,1.2706306502223015,colour,0.5
21,21,0,1,11,35,535,1776.516129578551,1777.256234782748,"[95, 0, 159]",159,l,0.21811046754010022,colour,0.5
21,21,0,1,11,36,536,1779.266278255498,1779.8082815622329,"[80, 0, 174]",174,l,0.01974154234630987,colour,0.5
21,21,0,1,11,37,537,1781.8134047140193,1782.4402657359315,"[12, 0, 242]",242,a,0.10455435904441401,colour,0.5
21,21,0,1,11,38,538,1784.454205135582,1785.088262909674,"[32, 0, 222]",222,a,0.11165146811981685,colour,0.5
21,21,0,1,11,39,539,1787.0950776310347,1787.7842463082634,"[94, 0, 160]",160,l,0.16702585440361872,colour,0.5
21,21,0,1,11,40,540,1789.7984554926225,1790.9282041950792,"[65, 0, 189]",189,a,0.6076905565860216,colour,0.5
21,21,0,1,11,41,541,1792.9392732434208,1793.4882767730742,"[90, 0, 164]",164,l,0.02673585756565444,colour,0.5
21,21,0,1,11,42,542,1795.5019869542448,1796.0562841710926,"[30, 0, 224]",224,a,0.031918086286168545,colour,0.5
21,21,0,1,11,43,543,1798.0646222896466,1802.4722409298993,"[92, 0, 162]",162,l,3.8854892082163133,colour,0.5
21,21,0,1,11,44,544,1804.4870716035948,1805.088262121979,"[20, 0, 234]",234,a,0.07878106166026555,colour,0.5
21,21,0,1,11,45,545,1807.0966549851873,1807.6322716814175,"[33, 0, 221]",221,a,0.013271436444483697,colour,0.5
21,21,0,1,11,46,546,1809.6437270929164,1810.3762602094794,"[60, 0, 194]",194,l,0.2102682014228776,colour,0.5
21,21,0,1,11,47,547,1812.3939450868056,1813.6642409677152,"[62, 0, 192]",192,l,0.7479612549650483,colour,0.5
21,21,0,1,11,48,548,1815.6755368714803,1817.2402446257765,"[88, 0, 166]",166,l,1.0424944330006838,colour,0.5
21,21,0,1,11,49,549,1819.253822474595,1819.9682374829717,"[75, 0, 179]",179,l,0.19203115167329088,colour,0.5
21,21,0,1,11,50,550,1821.9884630623274,1823.0562550264585,"[96, 0, 158]",158,l,0.5461343598435633,colour,0.5
21,21,0,1,12,1,551,1864.8661245767144,1866.032244190952,"[31, 0, 223]",223,a,0.6429614558292087,colour,0.5
21,21,0,1,12,2,552,1868.0390782107715,1868.8482435639598,"[72, 0, 182]",182,l,0.2870886965247337,colour,0.5
21,21,0,1,12,3,553,1870.867370312335,1871.5602352364804,"[75, 0, 179]",179,l,0.17061536898836493,colour,0.5
21,21,0,1,12,4,554,1873.570798586239,1874.1922560378443,"[8, 0, 246]",246,a,0.09918387181824073,colour,0.5
21,21,0,1,12,5,555,1876.2115320539451,1876.8402516362257,"[62, 0, 192]",192,l,0.10643221787177026,colour,0.5
21,21,0,1,12,6,556,1878.852362014004,1880.4802860268683,"[20, 0, 234]",234,a,1.1056039592367597,colour,0.5
21,21,0,1,12,7,557,1882.494123026525,1883.6962811463454,"[47, 0, 207]",207,l,0.6807576971477829,colour,0.5
21,21,0,1,12,8,558,1885.7123532233527,1886.3122834337992,"[27, 0, 227]",227,a,0.0776148829900194,colour,0.5
21,21,0,1,12,9,559,1888.3219184880145,1888.9522776521335,"[21, 0, 233]",233,a,0.10814505512826145,colour,0.5
21,21,0,1,12,10,560,1890.962703155732,1894.1842365408957,"[48, 0, 206]",206,a,2.6992054546135478,colour,0.5
21,21,0,1,12,11,561,1896.197496949666,1898.04828948644,"[90, 0, 164]",164,l,1.3285256524104625,colour,0.5
21,21,0,1,12,12,562,1900.0571766266366,1901.4242779420165,"[64, 0, 190]",190,l,0.8447659017401747,colour,0.5
21,21,0,1,12,13,563,1903.4324797897716,1904.496263186942,"[96, 0, 158]",158,l,0.5417819651484024,colour,0.5
21,21,0,1,12,14,564,1906.5108295898244,1907.1042581866786,"[30, 0, 224]",224,a,0.07112902324297465,colour,0.5
21,21,0,1,12,15,565,1909.1203676790756,1909.6882943386154,"[42, 0, 212]",212,a,0.04553374435636215,colour,0.5
21,21,0,1,12,16,566,1911.698725356051,1912.2722985889995,"[39, 0, 215]",215,l,0.05150405937456526,colour,0.5
21,21,0,1,12,17,567,1914.2926962791826,1915.5683138103632,"[60, 0, 194]",194,a,0.7533376498904545,colour,0.5
21,21,0,1,12,18,568,1917.5741986607609,1918.8962825641793,"[55, 0, 199]",199,a,0.799745732860174,colour,0.5
21,21,0,1,12,19,569,1920.902625851595,1922.1042361313011,"[5, 0, 249]",249,a,0.6793288230255712,colour,0.5
21,21,0,1,12,20,570,1924.1215795439493,1925.1363661068608,"[82, 0, 172]",172,l,0.4925314939173404,colour,0.5
21,21,0,1,12,21,571,1927.153105359379,1928.9842453630408,"[13, 0, 241]",241,l,1.308899900817778,colour,0.5
21,21,0,1,12,22,572,1930.9971520979016,1933.1122457821039,"[63, 0, 191]",191,a,1.593312412238447,colour,0.5
21,21,0,1,12,23,573,1935.122571642598,1936.1442895053187,"[95, 0, 159]",159,l,0.49956479988759384,colour,0.5
21,21,0,1,12,24,574,1938.1539600057004,1939.5922572981508,"[17, 0, 237]",237,a,0.9159126480517443,colour,0.5
21,21,0,1,12,25,575,1941.6073778426799,1942.6242372183187,"[85, 0, 169]",169,l,0.49451726663392037,colour,0.5
21,21,0,1,12,26,576,1944.6388985381054,1945.3762810833286,"[86, 0, 168]",168,l,0.21514007929363288,colour,0.5
21,21,0,1,12,27,577,1947.3890602120082,1949.4482978359738,"[98, 0, 156]",156,l,1.5368577057379298,colour,0.5
21,21,0,1,12,28,578,1951.4675498274446,1953.176246976247,"[77, 0, 177]",177,a,1.1864184490113985,colour,0.5
21,21,0,1,12,29,579,1955.1865314828756,1957.4882692899846,"[99, 0, 155]",155,l,1.77941657192423,colour,0.5
21,21,0,1,12,30,580,1959.499439950654,1960.7122701217886,"[88, 0, 166]",166,l,0.6908433114294894,colour,0.5
21,21,0,1,12,31,581,1962.7184527199424,1965.288298592146,"[81, 0, 173]",173,l,2.047522273962386,colour,0.5
21,21,0,1,12,32,582,1967.296947455383,1969.4002745895996,"[69, 0, 185]",185,a,1.581054342124844,colour,0.5
21,21,0,1,12,33,583,1971.4066076369782,1972.8802798041143,"[36, 0, 218]",218,a,0.9513686550490092,colour,0.5
21,21,0,1,12,34,584,1974.8912972585822,1975.4643033529574,"[24, 0, 230]",230,a,0.05142213933868334,colour,0.5
21,21,0,1,12,35,585,1977.469598221709,1978.0083456016437,"[3, 0, 251]",251,a,0.016411178628914058,colour,0.5
21,21,0,1,12,36,586,1980.0166490617266,1983.2002641132858,"[66, 0, 188]",188,a,2.661388733336935,colour,0.5
21,21,0,1,12,37,587,1985.2203451510868,1987.3922936895688,"[15, 0, 239]",239,a,1.6497324602678418,colour,0.5
21,21,0,1,12,38,588,1989.4080451757472,1992.2241674287652,"[19, 0, 235]",235,a,2.2938234671019018,colour,0.5
21,21,0,1,12,39,589,1994.236548772722,2003.4803167468926,"[12, 0, 242]",242,a,8.721365212841192,colour,0.5
21,21,0,1,12,40,590,2005.4874457575206,2006.728206321859,"[40, 0, 214]",214,a,0.7184763507102616,colour,0.5
21,21,0,1,12,41,591,2008.7376578437106,2012.1122938313347,"[73, 0, 181]",181,l,2.8523033309029415,colour,0.5
21,21,0,1,12,42,592,2014.1287357299589,2025.5763368519547,"[91, 0, 163]",163,a,10.925275554531254,colour,0.5
21,21,0,1,12,43,593,2027.5829861578823,2028.7922914052324,"[26, 0, 228]",228,a,0.6872549784020521,colour,0.5
21,21,0,1,12,44,594,2030.801952453301,2031.3603137694008,"[37, 0, 217]",217,a,0.03600384708261117,colour,0.5
21,21,0,1,12,45,595,2033.3803054041055,2033.976283761469,"[78, 0, 176]",176,l,0.07369532526354305,colour,0.5
21,21,0,1,12,46,596,2035.9899458934087,2036.5363972994674,"[97, 0, 157]",157,l,0.02470518639893271,colour,0.5
21,21,0,1,12,47,597,2038.5526383365213,2039.2323755780526,"[52, 0, 202]",202,a,0.15750147099606693,colour,0.5
21,21,0,1,12,48,598,2041.2402769211621,2041.8722985102213,"[23, 0, 231]",231,a,0.10965624311938882,colour,0.5
21,21,0,1,12,49,599,2043.8811285427364,2045.3202714230574,"[6, 0, 248]",248,a,0.9169161682366394,colour,0.5
21,21,0,1,12,50,600,2047.334507388936,2048.968252449122,"[28, 0, 226]",226,a,1.1114821142691653,colour,0.5
21,21,0,1,13,1,601,2073.3045569584356,2075.0242940109456,"[71, 0, 183]",183,l,1.1967143772053532,colour,0.5
21,21,0,1,13,2,602,2077.0400620386645,2078.0323233540403,"[69, 0, 185]",185,l,0.4701606341113802,colour,0.5
21,21,0,1,13,3,603,2080.0403117371607,2081.8162939699832,"[35, 0, 219]",219,a,1.253815779229626,colour,0.5
21,21,0,1,13,4,604,2083.821838537231,2084.904302061157,"[19, 0, 235]",235,a,0.56024980879738,colour,0.5
21,21,0,1,13,5,605,2086.9158126111142,2090.296305092197,"[80, 0, 174]",174,l,2.858412279805634,colour,0.5
21,21,0,1,13,6,606,2092.3068515065825,2093.008322364709,"[98, 0, 156]",156,l,0.1792232722218614,colour,0.5
21,21,0,1,13,7,607,2095.0258103189117,2095.568355951924,"[94, 0, 160]",160,l,0.02024487784365192,colour,0.5
21,21,0,1,13,8,608,2097.588609494356,2098.2883210413856,"[88, 0, 166]",166,l,0.17755809033405967,colour,0.5
21,21,0,1,13,9,609,2100.3075285282393,2101.0643233603623,"[83, 0, 171]",171,l,0.23449683387298137,colour,0.5
21,21,0,1,13,10,610,2103.073425146751,2104.29629051988,"[34, 0, 220]",220,a,0.7006457502720878,colour,0.5
21,21,0,1,13,11,611,2106.3079578206525,2107.0242888909415,"[17, 0, 237]",237,a,0.1940437059092801,colour,0.5
21,21,0,1,13,12,612,2109.0425515406823,2110.088315291243,"[87, 0, 167]",167,l,0.5235051369527355,colour,0.5
21,21,0,1,13,13,613,2112.1053247222735,2112.8163731330715,"[40, 0, 214]",214,a,0.18883115102653392,colour,0.5
21,21,0,1,13,14,614,2114.82424572538,2115.520304348611,"[95, 0, 159]",159,l,0.17376653268001974,colour,0.5
21,21,0,1,13,15,615,2117.5275889284967,2118.1842979809153,"[58, 0, 196]",196,a,0.1343756080023013,colour,0.5
21,21,0,1,13,16,616,2120.199718636257,2120.808324885322,"[29, 0, 225]",225,a,0.0865595247305464,colour,0.5
21,21,0,1,13,17,617,2122.824899116269,2123.968301286048,"[10, 0, 244]",244,a,0.621154190012021,colour,0.5
21,21,0,1,13,18,618,2125.981473079417,2126.7683120774454,"[13, 0, 241]",241,a,0.264670181350084,colour,0.5
21,21,0,1,13,19,619,2128.7785489287053,2129.352347441687,"[7, 0, 247]",247,a,0.05150602859794162,colour,0.5
21,21,0,1,13,20,620,2131.3724591994833,2133.2802987874893,"[64, 0, 190]",190,l,1.3855593128246255,colour,0.5
21,21,0,1,13,21,621,2135.294690322655,2135.912312105793,"[47, 0, 207]",207,a,0.09536435108748265,colour,0.5
21,21,0,1,13,22,622,2137.919914913451,2139.1842928609112,"[53, 0, 201]",201,a,0.7421370569209103,colour,0.5
21,21,0,1,13,23,623,2141.2013893319527,2141.9363237289945,"[75, 0, 179]",179,l,0.21261749416589737,colour,0.5
21,21,0,1,13,24,624,2143.9515699104522,2144.536318136379,"[2, 0, 252]",252,a,0.0629374154668767,colour,0.5
21,21,0,1,13,25,625,2146.545542802807,2147.1203042698326,"[23, 0, 231]",231,l,0.05248394879163243,colour,0.5
21,21,0,1,13,26,626,2149.1395231782517,2150.2163330395124,"[36, 0, 218]",218,a,0.5545512476528529,colour,0.5
21,21,0,1,13,27,627,2152.2335141875083,2152.8083587560977,"[52, 0, 202]",202,a,0.05261273650103249,colour,0.5
21,21,0,1,13,28,628,2154.8274937752576,2155.45632442215,"[93, 0, 161]",161,l,0.10654603943112306,colour,0.5
21,21,0,1,13,29,629,2157.4682500860363,2158.2483188673505,"[42, 0, 212]",212,a,0.25769122611382045,colour,0.5
21,21,0,1,13,30,630,2160.2653826491733,2160.9282880843384,"[14, 0, 240]",240,a,0.14054205844877288,colour,0.5
21,21,0,1,13,31,631,2162.9373189784237,2163.496462866984,"[22, 0, 232]",232,a,0.036832105717621744,colour,0.5
21,21,0,1,13,32,632,2165.515817258507,2167.496320294653,"[63, 0, 191]",191,a,1.4585118441318627,colour,0.5
21,21,0,1,13,33,633,2169.5160043354554,2170.9443436198053,"[44, 0, 210]",210,a,0.9068860862753354,colour,0.5
21,21,0,1,13,34,634,2172.953855006286,2173.784366431384,"[97, 0, 157]",157,l,0.30881286080693826,colour,0.5
21,21,0,1,13,35,635,2175.797781227855,2177.6723423846997,"[72, 0, 182]",182,l,1.3533029126410838,colour,0.5
21,21,0,1,13,36,636,2179.688775224873,2181.472327576077,"[79, 0, 175]",175,l,1.2613839283876587,colour,0.5
21,21,0,1,13,37,637,2183.4859790741466,2184.168318063923,"[38, 0, 216]",216,a,0.1599677361373324,colour,0.5
21,21,0,1,13,38,638,2186.17378149883,2186.936302855145,"[45, 0, 209]",209,a,0.24029070578399114,colour,0.5
21,21,0,1,13,39,639,2188.955155486561,2190.6483027984214,"[90, 0, 164]",164,l,1.1714310245297384,colour,0.5
21,21,0,1,13,40,640,2192.6594281667785,2196.784347132925,"[41, 0, 213]",213,a,3.603448832698632,colour,0.5
21,21,0,1,13,41,641,2198.799725646706,2200.3282869815594,"[18, 0, 236]",236,a,1.0065725058957469,colour,0.5
21,21,0,1,13,42,642,2202.3468343821296,2203.9042843380594,"[89, 0, 165]",165,l,1.0351306899974588,colour,0.5
21,21,0,1,13,43,643,2205.9096634899033,2206.9843119230645,"[73, 0, 181]",181,l,0.5523850934114307,colour,0.5
21,21,0,1,13,44,644,2209.0036663145584,2209.8083174022613,"[68, 0, 186]",186,l,0.2824031079362612,colour,0.5
21,21,0,1,13,45,645,2211.8163688007626,2213.2643495905213,"[4, 0, 250]",250,a,0.925907677737996,colour,0.5
21,21,0,1,13,46,646,2215.269775610039,2217.1283103760215,"[55, 0, 199]",199,l,1.3362446446553804,colour,0.5
21,21,0,1,13,47,647,2219.1450484470115,2220.456338994467,"[37, 0, 217]",217,a,0.7889700999658089,colour,0.5
21,21,0,1,13,48,648,2222.473526444024,2224.0403247340873,"[81, 0, 173]",173,l,1.0445345564512536,colour,0.5
21,21,0,1,13,49,649,2226.0518301640404,2227.3443188862584,"[12, 0, 242]",242,a,0.770182847045362,colour,0.5
21,21,0,1,13,50,650,2229.364622841036,2231.3603027417266,"[46, 0, 208]",208,a,1.473414591688197,colour,0.5
21,21,0,1,14,1,651,2239.536638333375,2241.5043397916306,"[74, 0, 180]",180,l,1.4447473121981602,colour,0.5
21,21,0,1,14,2,652,2243.5220632658747,2245.2563253674016,"[38, 0, 216]",216,a,1.2120578386820853,colour,0.5
21,21,0,1,14,3,653,2247.272252115159,2248.5443210917874,"[30, 0, 224]",224,a,0.7497560122574214,colour,0.5
21,21,0,1,14,4,654,2250.5538683182967,2251.9603436229518,"[43, 0, 211]",211,a,0.884264740278013,colour,0.5
21,21,0,1,14,5,655,2253.9759741983435,2254.6403502553294,"[16, 0, 238]",238,a,0.1420812095166184,colour,0.5
21,21,0,1,14,6,656,2256.648008595308,2259.776317002106,"[82, 0, 172]",172,l,2.606036796263652,colour,0.5
21,21,0,1,14,7,657,2261.789166235394,2263.1923533178633,"[90, 0, 164]",164,l,0.8810048750310671,colour,0.5
21,21,0,1,14,8,658,2265.2112280046567,2266.544327393349,"[0, 0, 254]",254,a,0.8107060796464793,colour,0.5
21,21,0,1,14,9,659,2268.5552022754855,2270.456338600634,"[61, 0, 193]",193,l,1.3787957915337756,colour,0.5
21,21,0,1,14,10,660,2272.461836694012,2273.8483286347473,"[73, 0, 181]",181,l,0.8642175732529722,colour,0.5
21,21,0,1,14,11,661,2275.8683517771424,2277.45635002217,"[8, 0, 246]",246,a,1.0656427452340722,colour,0.5
21,21,0,1,14,12,662,2279.462424312602,2281.1763363793434,"[56, 0, 198]",198,l,1.1916503023530822,colour,0.5
21,21,0,1,14,13,663,2283.1969983403396,2284.6243203198537,"[45, 0, 209]",209,a,0.9049562397412956,colour,0.5
21,21,0,1,14,14,664,2286.6348155342275,2289.960333776806,"[42, 0, 212]",212,a,2.8032438750960864,colour,0.5
21,21,0,1,14,15,665,2291.97905722665,2297.4644010268385,"[20, 0, 234]",234,l,4.963139143510489,colour,0.5
21,21,0,1,14,16,666,2299.479630666756,2300.744349291199,"[94, 0, 160]",160,a,0.7435383617994376,colour,0.5
21,21,0,1,14,17,667,2302.761088149884,2303.960373161419,"[41, 0, 213]",213,a,0.6769547179283109,colour,0.5
21,21,0,1,14,18,668,2305.9800579899165,2307.128400960675,"[65, 0, 189]",189,a,0.626815335766878,colour,0.5
21,21,0,1,14,19,669,2309.1366815776855,2310.6884077663417,"[53, 0, 201]",201,a,1.0295187750598416,colour,0.5
21,21,0,1,14,20,670,2312.6994011961797,2315.0723507342336,"[89, 0, 165]",165,l,1.8508382229192648,colour,0.5
21,21,0,1,14,21,671,2317.090395587031,2318.3363801277883,"[95, 0, 159]",159,l,0.7236995394632686,colour,0.5
21,21,0,1,14,22,672,2320.3562224947673,2321.7923587529513,"[22, 0, 232]",232,a,0.9137244384037331,colour,0.5
21,21,0,1,14,23,673,2323.8096198517305,2324.6723545939312,"[9, 0, 245]",245,a,0.34043477472732775,colour,0.5
21,21,0,1,14,24,674,2326.6848891440895,2328.3124421538378,"[36, 0, 218]",218,a,1.105279036128195,colour,0.5
21,21,0,1,14,25,675,2330.325774636469,2331.7683707605465,"[99, 0, 155]",155,l,0.920235898141982,colour,0.5
21,21,0,1,14,26,676,2333.77920468268,2335.008375927806,"[57, 0, 197]",197,a,0.7069110561278649,colour,0.5
21,21,0,1,14,27,677,2337.0137873750064,2338.0723609742417,"[31, 0, 223]",223,a,0.5362511825223919,colour,0.5
21,21,0,1,14,28,678,2340.0921887689037,2341.4243322927796,"[44, 0, 210]",210,a,0.8094800363178365,colour,0.5
21,21,0,1,14,29,679,2343.4361862766673,2345.21636415337,"[85, 0, 169]",169,l,1.257870820001699,colour,0.5
21,21,0,1,14,30,680,2347.2334476275137,2348.6723691662482,"[32, 0, 222]",222,a,0.916869694396155,colour,0.5
21,21,0,1,14,31,681,2350.6867981167743,2351.360348821734,"[13, 0, 241]",241,a,0.15167884834227152,colour,0.5
21,21,0,1,14,32,682,2353.3745005045203,2354.9443436198053,"[71, 0, 183]",183,l,1.0475470862875227,colour,0.5
21,21,0,1,14,33,683,2356.952952310734,2358.3363631923858,"[48, 0, 206]",206,a,0.8611038249509875,colour,0.5
21,21,0,1,14,34,684,2360.3437745907577,2364.144354489952,"[62, 0, 192]",192,a,3.2782295194047038,colour,0.5
21,21,0,1,14,35,685,2366.156755132397,2367.608362064406,"[87, 0, 167]",167,l,0.9292608845280483,colour,0.5
21,21,0,1,14,36,686,2369.6258484432474,2370.336344681622,"[86, 0, 168]",168,l,0.1882234463118948,colour,0.5
21,21,0,1,14,37,687,2372.34474187711,2373.824377270037,"[64, 0, 190]",190,a,0.9572932839218993,colour,0.5
21,21,0,1,14,38,688,2375.8450884617923,2376.6003339028393,"[4, 0, 250]",250,a,0.23301991051994264,colour,0.5
21,21,0,1,14,39,689,2378.6108657449076,2379.624340012175,"[58, 0, 196]",196,a,0.4911837521067355,colour,0.5
21,21,0,1,14,40,690,2381.6424360649544,2382.288371847564,"[83, 0, 171]",171,l,0.12369607359869406,colour,0.5
21,21,0,1,14,41,691,2384.298886360397,2385.6403553753335,"[70, 0, 184]",184,l,0.819364001363283,colour,0.5
21,21,0,1,14,42,692,2387.658447095804,2388.264372433594,"[39, 0, 215]",215,a,0.08356905030086637,colour,0.5
21,21,0,1,14,43,693,2390.2836582958407,2401.736416834232,"[68, 0, 186]",186,a,10.930681487865513,colour,0.5
21,21,0,1,14,44,694,2403.7535975883948,2404.9763782845694,"[2, 0, 252]",252,a,0.7004645810229704,colour,0.5
21,21,0,1,14,45,695,2406.9880932407395,2407.5364177794836,"[7, 0, 247]",247,a,0.026373125205282122,colour,0.5
21,21,0,1,14,46,696,2409.5508806007856,2410.1843535132357,"[24, 0, 230]",230,a,0.11125801576417871,colour,0.5
21,21,0,1,14,47,697,2412.191674720816,2413.8243402484804,"[1, 0, 253]",253,a,1.1103805263410322,colour,0.5
21,21,0,1,14,48,698,2415.8325511547155,2417.7763481159636,"[21, 0, 233]",233,a,1.4214745445351582,colour,0.5
21,21,0,1,14,49,699,2419.7860044378613,2421.064360775752,"[55, 0, 199]",199,a,0.7560343150398694,colour,0.5
21,21,0,1,14,50,700,2423.083189382538,2424.9603774937277,"[78, 0, 176]",176,l,1.355184316082159,colour,0.5
21,21,0,1,15,1,701,2433.0206355732807,2434.5444030118233,"[71, 0, 183]",183,l,1.0006994709256105,colour,0.5
21,21,0,1,15,2,702,2436.5529951612116,2437.3283901692776,"[50, 0, 204]",204,a,0.2530406898295041,colour,0.5
21,21,0,1,15,3,703,2439.3345097520214,2439.9043977657857,"[15, 0, 239]",239,a,0.047652637091232464,colour,0.5
21,21,0,1,15,4,704,2441.9127681797545,2442.448406931362,"[89, 0, 165]",165,l,0.013335239549633116,colour,0.5
21,21,0,1,15,5,705,2444.4598265028617,2445.4484569498454,"[73, 0, 181]",181,l,0.46633559951442294,colour,0.5
21,21,0,1,15,6,706,2447.4600884105894,2448.024403894029,"[93, 0, 161]",161,l,0.042039540596306324,colour,0.5
21,21,0,1,15,7,707,2450.0383708629233,2450.5844114873908,"[9, 0, 245]",245,a,0.02364928467432037,colour,0.5
21,21,0,1,15,8,708,2452.6017588384857,2453.352358075528,"[66, 0, 188]",188,a,0.22894399584038183,colour,0.5
21,21,0,1,15,9,709,2455.3669492907065,2456.080369049654,"[47, 0, 207]",207,a,0.1914072992221918,colour,0.5
21,21,0,1,15,10,710,2458.0859604846046,2458.6883624740003,"[74, 0, 180]",180,l,0.08009099421906285,colour,0.5
21,21,0,1,15,11,711,2460.695534413884,2461.2326957750483,"[36, 0, 218]",218,a,0.01495040295412764,colour,0.5
21,21,0,1,15,12,712,2463.242619124707,2463.7764103436493,"[85, 0, 169]",169,l,0.011495583807118237,colour,0.5
21,21,0,1,15,13,713,2465.7897290416586,2466.528398282506,"[95, 0, 159]",159,l,0.21631255952524953,colour,0.5
21,21,0,1,15,14,714,2468.539917890943,2469.088403118949,"[17, 0, 237]",237,a,0.026196682098088786,colour,0.5
21,21,0,1,15,15,715,2471.102598912519,2471.896377874975,"[20, 0, 234]",234,a,0.27143882267409936,colour,0.5
21,21,0,1,15,16,716,2473.9153273925476,2474.6883778340125,"[30, 0, 224]",224,a,0.2508107324538287,colour,0.5
21,21,0,1,15,17,717,2476.6967919649032,2477.344355907815,"[98, 0, 156]",156,l,0.12524585850769654,colour,0.5
21,21,0,1,15,18,718,2479.3532899157144,2479.9283900904993,"[57, 0, 197]",197,a,0.05277815193403512,colour,0.5
21,21,0,1,15,19,719,2481.9472352388257,2482.504385477776,"[77, 0, 177]",177,l,0.035554862377466634,colour,0.5
21,21,0,1,15,20,720,2484.50993989117,2485.0404377679515,"[45, 0, 209]",209,a,0.008247533929534256,colour,0.5
21,21,0,1,15,21,721,2487.0570155435416,2487.7043707479315,"[5, 0, 249]",249,a,0.12509501539170742,colour,0.5
21,21,0,1,15,22,722,2489.7134981343406,2490.784351071372,"[80, 0, 174]",174,l,0.5485313080134802,colour,0.5
21,21,0,1,15,23,723,2492.792006654432,2493.3683769833005,"[91, 0, 163]",163,l,0.05408572140731849,colour,0.5
21,21,0,1,15,24,724,2495.385888174438,2496.1683806854708,"[53, 0, 201]",201,a,0.26013898046221584,colour,0.5
21,21,0,1,15,25,725,2498.183102657582,2498.8403528547205,"[72, 0, 182]",182,l,0.1352294666285161,colour,0.5
21,21,0,1,15,26,726,2500.8550500145357,2501.6163606875343,"[59, 0, 195]",195,a,0.2390752963256091,colour,0.5
21,21,0,1,15,27,727,2503.6365882361133,2504.480366765347,"[41, 0, 213]",213,a,0.32153685099910945,colour,0.5
21,21,0,1,15,28,728,2506.496214743878,2507.312399224582,"[58, 0, 196]",196,l,0.2938663963286672,colour,0.5
21,21,0,1,15,29,729,2509.324556470063,2510.3763732433436,"[27, 0, 227]",227,a,0.5295829719689209,colour,0.5
21,21,0,1,15,30,730,2512.3875986486382,2513.024374749424,"[0, 0, 254]",254,a,0.11484477340127341,colour,0.5
21,21,0,1,15,31,731,2515.0437232332188,2515.7283930049744,"[40, 0, 214]",214,a,0.16234144734335132,colour,0.5
21,21,0,1,15,32,732,2517.7470368978684,2518.5924156243564,"[6, 0, 248]",248,a,0.3230370113160461,colour,0.5
21,21,0,1,15,33,733,2520.6067130302254,2521.352401398617,"[37, 0, 217]",217,a,0.2234250286128372,colour,0.5
21,21,0,1,15,34,734,2523.372564750287,2524.8403662454803,"[12, 0, 242]",242,a,0.9455480015894864,colour,0.5
21,21,0,1,15,35,735,2526.857103528775,2528.6403801876295,"[39, 0, 215]",215,a,1.2609357313776854,colour,0.5
21,21,0,1,15,36,736,2530.654416473466,2532.712369764893,"[96, 0, 158]",158,l,1.535618665482616,colour,0.5
21,21,0,1,15,37,737,2534.7328529196966,2535.8084103499714,"[35, 0, 219]",219,a,0.5534705336322077,colour,0.5
21,21,0,1,15,38,738,2537.82672065511,2539.0163899109175,"[97, 0, 157]",157,l,0.6671920575317927,colour,0.5
21,21,0,1,15,39,739,2541.0301465659286,2542.312385046127,"[8, 0, 246]",246,a,0.7598581681086216,colour,0.5
21,21,0,1,15,40,740,2544.3272933075204,2545.0244287063542,"[14, 0, 240]",240,a,0.17481337598292157,colour,0.5
21,21,0,1,15,41,741,2547.0306908614293,2547.776409555954,"[22, 0, 232]",232,a,0.22339194553205743,colour,0.5
21,21,0,1,15,42,742,2549.7965516399418,2550.4724914161197,"[56, 0, 198]",198,a,0.153658319497481,colour,0.5
21,21,0,1,15,43,743,2552.484207553818,2553.9924066446547,"[82, 0, 172]",172,l,0.9859042433672585,colour,0.5
21,21,0,1,15,44,744,2556.000093341543,2557.4564039791003,"[4, 0, 250]",250,a,0.9345746578765102,colour,0.5
21,21,0,1,15,45,745,2559.469075981586,2560.368413217162,"[31, 0, 223]",223,a,0.3770183634769637,colour,0.5
21,21,0,1,15,46,746,2562.375600123196,2563.4643710945093,"[7, 0, 247]",247,a,0.5664351638406515,colour,0.5
21,21,0,1,15,47,747,2565.4696407571028,2567.2723911428766,"[62, 0, 192]",192,l,1.28041654752451,colour,0.5
21,21,0,1,15,48,748,2569.282431464846,2570.4164234666096,"[2, 0, 252]",252,a,0.6118290927843191,colour,0.5
21,21,0,1,15,49,749,2572.423290963343,2573.2243734103395,"[87, 0, 167]",167,l,0.2787474272190593,colour,0.5
21,21,0,1,15,50,750,2575.236026138795,2575.7684152651636,"[83, 0, 171]",171,l,0.010000149661209434,colour,0.5
21,21,0,1,16,1,751,2595.8305283604714,2598.0644233973,"[60, 0, 194]",194,a,1.7106817399617285,colour,0.5
21,21,0,1,16,2,752,2600.0816868591646,2601.4323781774438,"[97, 0, 157]",157,l,0.8282991907908581,colour,0.5
21,21,0,1,16,3,753,2603.4413878038467,2604.1843720239995,"[56, 0, 198]",198,a,0.22067558809067123,colour,0.5
21,21,0,1,16,4,754,2606.191619976191,2606.9764286968857,"[13, 0, 241]",241,a,0.2625142670876812,colour,0.5
21,21,0,1,16,5,755,2608.988652108528,2611.248370855057,"[57, 0, 197]",197,a,1.7378311360662337,colour,0.5
21,21,0,1,16,6,756,2613.254664911685,2614.4964305715985,"[82, 0, 172]",172,l,0.7194495447620284,colour,0.5
21,21,0,1,16,7,757,2616.5048860563547,2617.032410000218,"[7, 0, 247]",247,a,0.00515347791952081,colour,0.5
21,21,0,1,16,8,758,2619.051939259458,2619.6564361169585,"[89, 0, 165]",165,l,0.08210866848821752,colour,0.5
21,21,0,1,16,9,759,2621.661546271818,2623.1364177007054,"[15, 0, 239]",239,a,0.9525580706540495,colour,0.5
21,21,0,1,16,10,760,2625.146186268772,2626.1604269608215,"[91, 0, 163]",163,l,0.49180563530535437,colour,0.5
21,21,0,1,16,11,761,2628.1777317765227,2630.0004068431444,"[41, 0, 213]",213,a,1.3003684037539642,colour,0.5
21,21,0,1,16,12,762,2632.0061656627513,2637.2883643644745,"[29, 0, 225]",225,a,4.76000270966324,colour,0.5
21,21,0,1,16,13,763,2639.303575099766,2640.192404124042,"[20, 0, 234]",234,a,0.3664514691045042,colour,0.5
21,21,0,1,16,14,764,2642.210292619857,2642.8084115314996,"[8, 0, 246]",246,a,0.07604934420669451,colour,0.5
21,21,0,1,16,15,765,2644.8195884937013,2645.8484113424493,"[47, 0, 207]",207,a,0.5064153612474911,colour,0.5
21,21,0,1,16,16,766,2647.8667941153108,2648.480405756127,"[32, 0, 222]",222,a,0.09161060265614651,colour,0.5
21,21,0,1,16,17,767,2650.4919974384247,2651.9603853706503,"[61, 0, 193]",193,a,0.9460592139803339,colour,0.5
21,21,0,1,16,18,768,2653.9766862723336,2654.5684189673048,"[51, 0, 203]",203,a,0.06949534907471389,colour,0.5
21,21,0,1,16,19,769,2656.586157407728,2657.496398670046,"[65, 0, 189]",189,a,0.3878727655974217,colour,0.5
21,21,0,1,16,20,770,2659.5083684447163,2661.9204229750903,"[78, 0, 176]",176,l,1.8897592890425585,colour,0.5
21,21,0,1,16,21,771,2663.9306318632443,2664.616402829066,"[86, 0, 168]",168,l,0.16359269683016464,colour,0.5
21,21,0,1,16,22,772,2666.633848641737,2667.2964240337606,"[1, 0, 253]",253,a,0.14041799688129686,colour,0.5
21,21,0,1,16,23,773,2669.3059700787126,2669.880449551827,"[5, 0, 249]",249,a,0.05214327180874534,colour,0.5
21,21,0,1,16,24,774,2671.8999729033676,2672.464448288374,"[24, 0, 230]",230,a,0.04240148526150733,colour,0.5
21,21,0,1,16,25,775,2674.478306949575,2675.136406673002,"[33, 0, 221]",221,a,0.13572728825965896,colour,0.5
21,21,0,1,16,26,776,2677.1503799434577,2677.824416260817,"[23, 0, 231]",231,a,0.15201125456951559,colour,0.5
21,21,0,1,16,27,777,2679.83817764197,2681.288424622937,"[17, 0, 237]",237,a,0.9279907304153312,colour,0.5
21,21,0,1,16,28,778,2683.3071476789482,2683.9524225875502,"[37, 0, 217]",217,a,0.12298557499889284,colour,0.5
21,21,0,1,16,29,779,2685.9635924605245,2686.856425325561,"[59, 0, 195]",195,a,0.3711772300011944,colour,0.5
21,21,0,1,16,30,780,2688.8700094759406,2690.352449447848,"[73, 0, 181]",181,l,0.960101801349083,colour,0.5
21,21,0,1,16,31,781,2692.3703355806065,2693.4083933357906,"[85, 0, 169]",169,l,0.5157184030977078,colour,0.5
21,21,0,1,16,32,782,2695.4174171406485,2696.8564052394067,"[19, 0, 235]",235,a,0.9168503959372174,colour,0.5
21,21,0,1,16,33,783,2698.870898780733,2700.4084205112013,"[94, 0, 160]",160,l,1.0152292460843455,colour,0.5
21,21,0,1,16,34,784,2702.4181189746305,2703.736406594253,"[98, 0, 156]",156,l,0.7960920213954523,colour,0.5
21,21,0,1,16,35,785,2705.746444159304,2707.128433649894,"[3, 0, 251]",251,a,0.8597442677710205,colour,0.5
21,21,0,1,16,36,786,2709.137293220876,2711.2484421412228,"[55, 0, 199]",199,a,1.5887516728544142,colour,0.5
21,21,0,1,16,37,787,2713.2626462055487,2716.7364325881063,"[92, 0, 162]",162,l,2.9515309197013266,colour,0.5
21,21,0,1,16,38,788,2718.7474709164235,2719.8004140899284,"[70, 0, 184]",184,a,0.5307093721930869,colour,0.5
21,21,0,1,16,39,789,2721.8102275564743,2724.41641165124,"[22, 0, 232]",232,a,2.08496759828995,colour,0.5
21,21,0,1,16,40,790,2726.436131925875,2730.2164614333888,"[12, 0, 242]",242,a,3.258617946325103,colour,0.5
21,21,0,1,16,41,791,2732.232860008924,2733.6564845600515,"[34, 0, 220]",220,a,0.9014017775189131,colour,0.5
21,21,0,1,16,42,792,2735.6706271843577,2737.176413179346,"[88, 0, 166]",166,l,0.9834419167309534,colour,0.5
21,21,0,1,16,43,793,2739.186544085969,2740.432407322078,"[6, 0, 248]",248,a,0.7234817424905486,colour,0.5
21,21,0,1,16,44,794,2742.4523544521653,2743.13641691301,"[46, 0, 208]",208,a,0.16161361950798891,colour,0.5
21,21,0,1,16,45,795,2745.1558035999187,2746.272426982876,"[68, 0, 186]",186,l,0.5942584308795631,colour,0.5
21,21,0,1,16,46,796,2748.2810021968617,2749.160440351581,"[67, 0, 187]",187,l,0.3581988151418045,colour,0.5
21,21,0,1,16,47,797,2751.171885523072,2751.744456417364,"[84, 0, 170]",170,l,0.05022720989654772,colour,0.5
21,21,0,1,16,48,798,2753.7502199631126,2754.984436772327,"[14, 0, 240]",240,a,0.7121192787017208,colour,0.5
21,21,0,1,16,49,799,2757.0004804923956,2757.6005142843933,"[66, 0, 188]",188,l,0.07823282771278173,colour,0.5
21,21,0,1,16,50,800,2759.6100650555163,2760.4724181607307,"[35, 0, 219]",219,a,0.3400834639032837,colour,0.5
