id,age,condition,counterbalance,block,trialinblock,trial,tstart,tend,trialstim,trialintensity,response,RT,trialtype,colourfreq
22,23,0,1,Practice,1,NA,6.695510819554329e-06,0.8543094687629491,"[18, 0, 236]",236,a,0.20145998895168304,colour,0.5
22,23,0,1,Practice,2,NA,2.8631812559906393,3.558327885111794,"[84, 0, 170]",170,l,0.18372665462084115,colour,0.5
22,23,0,1,Practice,3,NA,5.567204792285338,8.318291021045297,"[12, 0, 242]",242,a,2.2242337714415044,colour,0.5
22,23,0,1,Practice,4,NA,10.332860979950055,10.982386394869536,"[48, 0, 206]",206,a,0.1227261268068105,colour,0.5
22,23,0,1,Practice,5,NA,12.983981473371387,13.734333572210744,"[54, 0, 200]",200,a,0.23364237160421908,colour,0.5
22,23,0,1,Practice,6,NA,15.743047426920384,16.918293384136632,"[32, 0, 222]",222,a,0.6635806164704263,colour,0.5
22,23,0,1,Practice,7,NA,18.935314643895254,19.798264318378642,"[16, 0, 238]",238,a,0.33619292196817696,colour,0.5
22,23,0,1,Practice,8,NA,21.81383622274734,22.678353800205514,"[68, 0, 186]",186,a,0.34369806153699756,colour,0.5
22,23,0,1,Practice,9,NA,24.686780147021636,25.60630075703375,"[76, 0, 178]",178,l,0.3965798367280513,colour,0.5
22,23,0,1,Practice,10,NA,27.623739494243637,28.64629035932012,"[90, 0, 164]",164,l,0.4952194904908538,colour,0.5
22,23,0,1,1,1,1,5.689408284844831,6.487982166465372,"[80, 0, 174]",174,l,0.27101250062696636,colour,0.5
22,23,0,1,1,2,2,8.490147534757853,9.295945743564516,"[15, 0, 239]",239,a,0.2947232439182699,colour,0.5
22,23,0,1,1,3,3,11.30543547612615,12.088014855748042,"[91, 0, 163]",163,l,0.25588367343880236,colour,0.5
22,23,0,1,1,4,4,14.106377556920052,14.840027411701158,"[12, 0, 242]",242,a,0.22215504967607558,colour,0.5
22,23,0,1,1,5,5,16.86534701799974,17.58396217483096,"[3, 0, 251]",251,a,0.19578544818796217,colour,0.5
22,23,0,1,1,6,6,19.5998424612917,20.376008837716654,"[82, 0, 172]",172,l,0.26424779230728745,colour,0.5
22,23,0,1,1,7,7,22.397903554840013,23.17602498549968,"[89, 0, 165]",165,l,0.2512480996083468,colour,0.5
22,23,0,1,1,8,8,25.18352697440423,25.911972147179767,"[65, 0, 189]",189,a,0.21670263819396496,colour,0.5
22,23,0,1,1,9,9,27.93404567032121,28.703973911469802,"[2, 0, 252]",252,a,0.24261892191134393,colour,0.5
22,23,0,1,1,10,10,30.724674879573286,31.440044740913436,"[7, 0, 247]",247,a,0.20338826184161007,colour,0.5
22,23,0,1,1,11,11,33.4490315313451,34.04001402086578,"[96, 0, 158]",158,l,0.06840917514637113,colour,0.5
22,23,0,1,1,12,12,36.057030554628,36.92805211362429,"[75, 0, 179]",179,a,0.3438934092409909,colour,0.5
22,23,0,1,1,13,13,38.94856639858335,39.6640618967358,"[99, 0, 155]",155,l,0.18838901002891362,colour,0.5
22,23,0,1,1,14,14,41.671211787033826,42.30403298861347,"[68, 0, 186]",186,a,0.1181323011405766,colour,0.5
22,23,0,1,1,15,15,44.31580269848928,44.91201625787653,"[22, 0, 232]",232,a,0.07131576258689165,colour,0.5
22,23,0,1,1,16,16,46.92311800410971,47.48802706506103,"[24, 0, 230]",230,a,0.03675218392163515,colour,0.5
22,23,0,1,1,17,17,49.50612076907419,50.623990768101066,"[72, 0, 182]",182,l,0.6071601300500333,colour,0.5
22,23,0,1,1,18,18,52.62615259177983,53.46404417371377,"[83, 0, 171]",171,l,0.3303446944337338,colour,0.5
22,23,0,1,1,19,19,55.48270422895439,56.127987522864714,"[56, 0, 198]",198,a,0.13037856528535485,colour,0.5
22,23,0,1,1,20,20,58.13485660031438,59.152079115854576,"[51, 0, 203]",203,a,0.4952817184384912,colour,0.5
22,23,0,1,1,21,21,61.16061455802992,62.11200719932094,"[49, 0, 205]",205,a,0.43058336549438536,colour,0.5
22,23,0,1,1,22,22,64.12274227454327,64.9120690333657,"[6, 0, 248]",248,a,0.27834277250804007,colour,0.5
22,23,0,1,1,23,23,66.91557387378998,67.59207029361278,"[27, 0, 227]",227,a,0.15325592923909426,colour,0.5
22,23,0,1,1,24,24,69.59890353120863,70.3120481595397,"[10, 0, 244]",244,a,0.20188061730004847,colour,0.5
22,23,0,1,1,25,25,72.3289827730041,73.10409442847595,"[88, 0, 166]",166,l,0.2536604097113013,colour,0.5
22,23,0,1,1,26,26,75.12017478910275,75.85615936596878,"[60, 0, 194]",194,a,0.2134971208870411,colour,0.5
22,23,0,1,1,27,27,77.86517805792391,78.60806400794536,"[39, 0, 215]",215,a,0.21872070780955255,colour,0.5
22,23,0,1,1,28,28,80.61806810391136,81.26411270303652,"[29, 0, 225]",225,a,0.1226288469042629,colour,0.5
22,23,0,1,1,29,29,83.26990145957097,84.01605160953477,"[77, 0, 177]",177,l,0.2225626807194203,colour,0.5
22,23,0,1,1,30,30,86.03158294782043,86.73605507542379,"[45, 0, 209]",209,a,0.19316912558861077,colour,0.5
22,23,0,1,1,31,31,88.74598591588438,89.45603687968105,"[32, 0, 222]",222,a,0.18924641399644315,colour,0.5
22,23,0,1,1,32,32,91.45892574405298,92.13608461385593,"[54, 0, 200]",200,a,0.15417280397377908,colour,0.5
22,23,0,1,1,33,33,94.142310539959,94.77606003778055,"[28, 0, 226]",226,a,0.11108244769275188,colour,0.5
22,23,0,1,1,34,34,96.77774491347373,97.70408812700771,"[34, 0, 220]",220,a,0.4016321001108736,colour,0.5
22,23,0,1,1,35,35,99.71737335855141,100.58406103029847,"[37, 0, 217]",217,a,0.3458996636327356,colour,0.5
22,23,0,1,1,36,36,102.5967996029649,103.40806834027171,"[41, 0, 213]",213,a,0.2900037809740752,colour,0.5
22,23,0,1,1,37,37,105.41464597126469,106.16009704372846,"[9, 0, 245]",245,a,0.22208533878438175,colour,0.5
22,23,0,1,1,38,38,108.17442360543646,108.90410900092684,"[40, 0, 214]",214,a,0.20940190460532904,colour,0.5
22,23,0,1,1,39,39,110.9123951382935,111.54408442485146,"[0, 0, 254]",254,a,0.10828022961504757,colour,0.5
22,23,0,1,1,40,40,113.54543886310421,114.31208990723826,"[43, 0, 211]",211,a,0.24545028479769826,colour,0.5
22,23,0,1,1,41,41,116.31009034835733,117.08007254637778,"[53, 0, 201]",201,a,0.24097421881742775,colour,0.5
22,23,0,1,1,42,42,119.09154411475174,119.84011090709828,"[78, 0, 176]",176,l,0.2275708334054798,colour,0.5
22,23,0,1,1,43,43,121.84767197305337,122.58408032893203,"[42, 0, 212]",212,a,0.2130906714592129,colour,0.5
22,23,0,1,1,44,44,124.59009082103148,125.1360731923487,"[62, 0, 192]",192,a,0.024656368885189295,colour,0.5
22,23,0,1,1,45,45,127.1450615581125,127.91212259652093,"[14, 0, 240]",240,a,0.24635652569122612,colour,0.5
22,23,0,1,1,46,46,129.93132458464243,130.5281541198492,"[81, 0, 173]",173,l,0.07571345288306475,colour,0.5
22,23,0,1,1,47,47,132.53435090137646,133.26411309698597,"[61, 0, 193]",193,a,0.20896197808906436,colour,0.5
22,23,0,1,1,48,48,135.27359574008733,135.9920915614348,"[50, 0, 204]",204,a,0.19769836077466607,colour,0.5
22,23,0,1,1,49,49,138.0006896252744,138.72809267998673,"[73, 0, 181]",181,l,0.2068773484788835,colour,0.5
22,23,0,1,1,50,50,140.7402700211387,141.5041349946987,"[94, 0, 160]",160,l,0.241375548299402,colour,0.5
22,23,0,1,2,1,51,149.5248194213491,150.51212377799675,"[58, 0, 196]",196,a,0.46559868613258004,colour,0.5
22,23,0,1,2,2,52,152.5150197315961,153.27214008313604,"[9, 0, 245]",245,a,0.23576599196530879,colour,0.5
22,23,0,1,2,3,53,155.28732483671047,155.96013485291041,"[52, 0, 202]",202,a,0.16139831277541816,colour,0.5
22,23,0,1,2,4,54,157.96664316696115,158.56019353610463,"[92, 0, 162]",162,l,0.07251581293530762,colour,0.5
22,23,0,1,2,5,55,160.56837294111028,161.32810488902032,"[63, 0, 191]",191,a,0.23915898008272052,colour,0.5
22,23,0,1,2,6,56,163.33840437000617,164.00814947253093,"[76, 0, 178]",178,l,0.1492595684248954,colour,0.5
22,23,0,1,2,7,57,166.01754153100774,166.62412546365522,"[41, 0, 213]",213,a,0.085955826099962,colour,0.5
22,23,0,1,2,8,58,168.6320193298161,169.26414893683977,"[37, 0, 217]",217,a,0.12072026636451483,colour,0.5
22,23,0,1,2,9,59,171.26530960272066,171.88818617910147,"[87, 0, 167]",167,l,0.10121422889642417,colour,0.5
22,23,0,1,2,10,60,173.89939505164512,174.53617559256963,"[60, 0, 194]",194,a,0.11614180053584278,colour,0.5
22,23,0,1,2,11,61,176.54731436027214,177.08021314977668,"[24, 0, 230]",230,a,0.021650532260537148,colour,0.5
22,23,0,1,2,12,62,179.0864961836487,179.71219979040325,"[71, 0, 183]",183,l,0.10436381958425045,colour,0.5
22,23,0,1,2,13,63,181.718938898528,182.42416642373428,"[11, 0, 243]",243,a,0.18450410780496895,colour,0.5
22,23,0,1,2,14,64,184.43319890019484,185.01618906203657,"[36, 0, 218]",218,a,0.07171827368438244,colour,0.5
22,23,0,1,2,15,65,187.02001764415763,187.90420785639435,"[78, 0, 176]",176,a,0.36224429518915713,colour,0.5
22,23,0,1,2,16,66,189.91676722862758,190.60016423393972,"[34, 0, 220]",220,a,0.1718025568407029,colour,0.5
22,23,0,1,2,17,67,192.61295440024696,193.1681590822991,"[64, 0, 190]",190,a,0.034275676822289824,colour,0.5
22,23,0,1,2,18,68,195.18285822309554,196.16817168542184,"[40, 0, 214]",214,a,0.46481729461811483,colour,0.5
22,23,0,1,2,19,69,198.17335785669275,198.95220357133076,"[59, 0, 195]",195,a,0.2572030595038086,colour,0.5
22,23,0,1,2,20,70,200.9587284270674,201.50420509953983,"[43, 0, 211]",211,a,0.024180996231734753,colour,0.5
22,23,0,1,2,21,71,203.51377478265204,204.5201669121161,"[45, 0, 209]",209,a,0.4885540318209678,colour,0.5
22,23,0,1,2,22,72,206.52393602347001,207.34421203122474,"[79, 0, 175]",175,a,0.30836845142766833,colour,0.5
22,23,0,1,2,23,73,209.36106078629382,209.98419730132446,"[69, 0, 185]",185,a,0.10027214791625738,colour,0.5
22,23,0,1,2,24,74,212.00304640294053,212.57624790258706,"[62, 0, 192]",192,a,0.04753885278478265,colour,0.5
22,23,0,1,2,25,75,214.58076177793555,215.13623545714654,"[14, 0, 240]",240,a,0.026483423076570034,colour,0.5
22,23,0,1,2,26,76,217.1449406472966,217.7282065015752,"[91, 0, 163]",163,l,0.057333422591909766,colour,0.5
22,23,0,1,2,27,77,219.74559364491142,220.3522130236961,"[46, 0, 208]",208,a,0.08329618046991527,colour,0.5
22,23,0,1,2,28,78,222.3550573834218,223.00820500496775,"[8, 0, 246]",246,a,0.14189109369181097,colour,0.5
22,23,0,1,2,29,79,225.00486636767164,225.98422368895262,"[49, 0, 205]",205,a,0.45183020480908453,colour,0.5
22,23,0,1,2,30,80,227.99352279957384,228.752237835899,"[70, 0, 184]",184,a,0.24738210206851363,colour,0.5
22,23,0,1,2,31,81,230.75475490931422,231.72016691206954,"[80, 0, 174]",174,l,0.44919773447327316,colour,0.5
22,23,0,1,2,32,82,233.73128008004278,234.50422991183586,"[0, 0, 254]",254,a,0.24495955207385123,colour,0.5
22,23,0,1,2,33,83,236.5173379124608,237.41621938813478,"[86, 0, 168]",168,l,0.38631658954545856,colour,0.5
22,23,0,1,2,34,84,239.43085669493303,240.00021346472204,"[5, 0, 249]",249,a,0.057783589232712984,colour,0.5
22,23,0,1,2,35,85,242.00981386797503,242.88018439896405,"[3, 0, 251]",251,a,0.358883602777496,colour,0.5
22,23,0,1,2,36,86,244.8901502918452,245.50420391792431,"[65, 0, 189]",189,a,0.08852173644118011,colour,0.5
22,23,0,1,2,37,87,247.51969153922983,248.08823659131303,"[54, 0, 200]",200,a,0.056075082859024405,colour,0.5
22,23,0,1,2,38,88,250.10420076712035,250.7042531487532,"[85, 0, 169]",169,l,0.07098099309951067,colour,0.5
22,23,0,1,2,39,89,252.7249423014,253.2642044692766,"[32, 0, 222]",222,a,0.024383039446547627,colour,0.5
22,23,0,1,2,40,90,255.26096153678373,256.28018715581857,"[12, 0, 242]",242,a,0.5081801926717162,colour,0.5
22,23,0,1,2,41,91,258.2820784067735,259.34425535425544,"[38, 0, 216]",216,a,0.5391684323549271,colour,0.5
22,23,0,1,2,42,92,261.3505242096726,262.0802698635962,"[29, 0, 225]",225,a,0.21861318754963577,colour,0.5
22,23,0,1,2,43,93,264.0947661732789,264.83222334249876,"[21, 0, 233]",233,a,0.2165880287066102,colour,0.5
22,23,0,1,2,44,94,266.834505683044,267.5442392064724,"[83, 0, 171]",171,l,0.19915756210684776,colour,0.5
22,23,0,1,2,45,95,269.54705954156816,270.3283455292694,"[33, 0, 221]",221,a,0.2604857701808214,colour,0.5
22,23,0,1,2,46,96,272.33294841391034,272.88031751895323,"[95, 0, 159]",159,l,0.026088000973686576,colour,0.5
22,23,0,1,2,47,97,274.88867139793,275.55230557755567,"[42, 0, 212]",212,a,0.14253345713950694,colour,0.5
22,23,0,1,2,48,98,277.5528935904149,278.1042732349597,"[88, 0, 166]",166,l,0.030893322778865695,colour,0.5
22,23,0,1,2,49,99,280.1198860995937,281.08033524197526,"[22, 0, 232]",232,a,0.4371208241209388,colour,0.5
22,23,0,1,2,50,100,283.09055437822826,283.80826644506305,"[81, 0, 173]",173,l,0.1901286302600056,colour,0.5
22,23,0,1,3,1,101,291.224332626909,291.80027293553576,"[7, 0, 247]",247,a,0.047932699555531144,colour,0.5
22,23,0,1,3,2,102,293.80423227488063,294.74426362500526,"[33, 0, 221]",221,a,0.42798515991307795,colour,0.5
22,23,0,1,3,3,103,296.76350775477476,297.2802741958294,"[94, 0, 160]",160,l,0.005550479283556342,colour,0.5
22,23,0,1,3,4,104,299.29483391484246,299.86436791555025,"[97, 0, 157]",157,l,0.057633533608168364,colour,0.5
22,23,0,1,3,5,105,301.87405457138084,302.44829582585953,"[74, 0, 180]",180,a,0.05969335092231631,colour,0.5
22,23,0,1,3,6,106,304.4552854204085,305.04828479816206,"[66, 0, 188]",188,a,0.06639819452539086,colour,0.5
22,23,0,1,3,7,107,307.0435554890428,307.64034170121886,"[12, 0, 242]",242,a,0.0798476601485163,colour,0.5
22,23,0,1,3,8,108,309.64834308740683,310.37635581661016,"[42, 0, 212]",212,a,0.2161500712390989,colour,0.5
22,23,0,1,3,9,109,312.37624829658307,313.07228777580895,"[62, 0, 192]",192,a,0.17478200607001781,colour,0.5
22,23,0,1,3,10,110,315.0782057137694,315.76831465167925,"[31, 0, 223]",223,a,0.166739659383893,colour,0.5
22,23,0,1,3,11,111,317.7829716508277,318.44030428584665,"[13, 0, 241]",241,a,0.14551566331647336,colour,0.5
22,23,0,1,3,12,112,320.44821745040826,321.2882610098459,"[11, 0, 243]",243,a,0.3134530100505799,colour,0.5
22,23,0,1,3,13,113,323.2951836504508,323.95232763304375,"[48, 0, 206]",206,a,0.14569250051863492,colour,0.5
22,23,0,1,3,14,114,325.96824218402617,326.6003012924921,"[58, 0, 196]",196,a,0.10533150052651763,colour,0.5
22,23,0,1,3,15,115,328.61548447050154,329.2083290666342,"[52, 0, 202]",202,a,0.08186691137962043,colour,0.5
22,23,0,1,3,16,116,331.2302659251727,331.8323092008941,"[38, 0, 216]",216,a,0.09062645235098898,colour,0.5
22,23,0,1,3,17,117,333.84222192456946,334.74431797582656,"[72, 0, 182]",182,a,0.37575953314080834,colour,0.5
22,23,0,1,3,18,118,336.7514647152275,337.76030223770067,"[61, 0, 193]",193,a,0.497224563267082,colour,0.5
22,23,0,1,3,19,119,339.77140359021723,340.3443293974269,"[59, 0, 195]",195,a,0.061240380397066474,colour,0.5
22,23,0,1,3,20,120,342.3504808866419,343.3523130605463,"[65, 0, 189]",189,a,0.49040353507734835,colour,0.5
22,23,0,1,3,21,121,345.3693693727255,346.2322938409634,"[27, 0, 227]",227,a,0.3511972934938967,colour,0.5
22,23,0,1,3,22,122,348.24935881770216,349.09632580541074,"[20, 0, 234]",234,a,0.3354773025494069,colour,0.5
22,23,0,1,3,23,123,351.10735784098506,351.75242136837915,"[76, 0, 178]",178,a,0.11796570383012295,colour,0.5
22,23,0,1,3,24,124,353.76838239328936,354.45637046778575,"[3, 0, 251]",251,a,0.17741250712424517,colour,0.5
22,23,0,1,3,25,125,356.4641178229358,357.0643501924351,"[93, 0, 161]",161,l,0.07385922339744866,colour,0.5
22,23,0,1,3,26,126,359.0737127123866,359.6963037501555,"[2, 0, 252]",252,a,0.09579214360564947,colour,0.5
22,23,0,1,3,27,127,361.7023158175871,362.6083227649797,"[78, 0, 176]",176,a,0.3955924632027745,colour,0.5
22,23,0,1,3,28,128,364.6256268066354,365.39237434323877,"[77, 0, 177]",177,a,0.23956700507551432,colour,0.5
22,23,0,1,3,29,129,367.3966373382136,367.9364107188303,"[24, 0, 230]",230,a,0.028112372383475304,colour,0.5
22,23,0,1,3,30,130,369.94484179164283,370.54430576669984,"[16, 0, 238]",238,a,0.06924806837923825,colour,0.5
22,23,0,1,3,31,131,372.5565051632002,373.1203673798591,"[9, 0, 245]",245,a,0.0369951871689409,colour,0.5
22,23,0,1,3,32,132,375.13827597605996,376.0803313036449,"[70, 0, 184]",184,a,0.41892393259331584,colour,0.5
22,23,0,1,3,33,133,378.0885378839448,378.88037186977454,"[96, 0, 158]",158,l,0.2648113868199289,colour,0.5
22,23,0,1,3,34,134,380.88852843176574,381.6084302852396,"[49, 0, 205]",205,a,0.20819555269554257,colour,0.5
22,23,0,1,3,35,135,383.6233369829133,384.61634069285356,"[54, 0, 200]",200,a,0.4658479909412563,colour,0.5
22,23,0,1,3,36,136,386.6266189061571,387.2963478609454,"[79, 0, 175]",175,a,0.1429729899391532,colour,0.5
22,23,0,1,3,37,137,389.3022705251351,390.0483584476169,"[25, 0, 229]",229,a,0.2344529079273343,colour,0.5
22,23,0,1,3,38,138,392.05354619421996,392.5844190369826,"[91, 0, 163]",163,l,0.004050317918881774,colour,0.5
22,23,0,1,3,39,139,394.60076760686934,395.16836663964204,"[47, 0, 207]",207,a,0.04098918498493731,colour,0.5
22,23,0,1,3,40,140,397.18181137903593,397.73636818351224,"[15, 0, 239]",239,a,0.03132734168320894,colour,0.5
22,23,0,1,3,41,141,399.745338432258,400.2963947285898,"[0, 0, 254]",254,a,0.03944018646143377,colour,0.5
22,23,0,1,3,42,142,402.3074696934782,403.3843642922584,"[67, 0, 187]",187,a,0.5649275716859847,colour,0.5
22,23,0,1,3,43,143,405.3875579938758,406.2163938621525,"[21, 0, 233]",233,a,0.31500752246938646,colour,0.5
22,23,0,1,3,44,144,408.2246492796112,408.7764081982896,"[19, 0, 235]",235,a,0.02718643913976848,colour,0.5
22,23,0,1,3,45,145,410.7828913060948,411.45639724936336,"[89, 0, 165]",165,l,0.14993659080937505,colour,0.5
22,23,0,1,3,46,146,413.46603979426436,414.1524044331163,"[10, 0, 244]",244,a,0.16201271349564195,colour,0.5
22,23,0,1,3,47,147,416.1654423289001,416.8163926806301,"[39, 0, 215]",215,a,0.1294258504640311,colour,0.5
22,23,0,1,3,48,148,418.83287752140313,419.43238403182477,"[51, 0, 203]",203,a,0.07857002201490104,colour,0.5
22,23,0,1,3,49,149,421.43790142796934,422.05645593232475,"[83, 0, 171]",171,l,0.09704772615805268,colour,0.5
22,23,0,1,3,50,150,424.0727221884299,424.6644199034199,"[60, 0, 194]",194,a,0.06908540963195264,colour,0.5
22,23,0,1,4,1,151,440.1727938684635,440.8964242672082,"[16, 0, 238]",238,a,0.2021358299534768,colour,0.5
22,23,0,1,4,2,152,442.89968177187257,443.61641394835897,"[94, 0, 160]",160,l,0.20539806061424315,colour,0.5
22,23,0,1,4,3,153,445.6343154553324,446.15248123323545,"[95, 0, 159]",159,l,0.0010019456967711449,colour,0.5
22,23,0,1,4,4,154,448.1739714697469,448.7444510960486,"[54, 0, 200]",200,a,0.04272053437307477,colour,0.5
22,23,0,1,4,5,155,450.7569068868179,451.78449032315984,"[20, 0, 234]",234,a,0.5047308846842498,colour,0.5
22,23,0,1,4,6,156,453.7916398192756,454.3364166265819,"[41, 0, 213]",213,a,0.021758839953690767,colour,0.5
22,23,0,1,4,7,157,456.3535647050012,456.87245043436997,"[58, 0, 196]",196,a,0.007151465630158782,colour,0.5
22,23,0,1,4,8,158,458.8843922552187,459.4323950596154,"[91, 0, 163]",163,l,0.03618898335844278,colour,0.5
22,23,0,1,4,9,159,461.447934668744,461.9924897402525,"[19, 0, 235]",235,a,0.03362819319590926,colour,0.5
22,23,0,1,4,10,160,464.0104444164317,464.55243594083004,"[87, 0, 167]",167,l,0.014907091623172164,colour,0.5
22,23,0,1,4,11,161,466.5541219979059,467.2644518048037,"[79, 0, 175]",175,a,0.18396768881939352,colour,0.5
22,23,0,1,4,12,162,469.2755401604809,469.95242845779285,"[65, 0, 189]",189,a,0.1654864400625229,colour,0.5
22,23,0,1,4,13,163,471.96360385324806,472.63243877654895,"[26, 0, 228]",228,a,0.14221483538858593,colour,0.5
22,23,0,1,4,14,164,474.6391735523939,475.2564748369623,"[49, 0, 205]",205,a,0.0939812371507287,colour,0.5
22,23,0,1,4,15,165,477.26445338036865,478.1364067804534,"[34, 0, 220]",220,a,0.3603175978641957,colour,0.5
22,23,0,1,4,16,166,480.1350397390779,480.8564433292486,"[77, 0, 177]",177,a,0.20563003630377352,colour,0.5
22,23,0,1,4,17,167,482.85876032849774,483.4404314982239,"[37, 0, 217]",217,a,0.06998574268072844,colour,0.5
22,23,0,1,4,18,168,485.4538663914427,486.05648113857023,"[29, 0, 225]",225,a,0.0757173914462328,colour,0.5
22,23,0,1,4,19,169,488.0656034122221,488.7045079674572,"[70, 0, 184]",184,a,0.11423558322712779,colour,0.5
22,23,0,1,4,20,170,490.708061250858,491.31248808605596,"[50, 0, 204]",204,a,0.09249210334382951,colour,0.5
22,23,0,1,4,21,171,493.31863445509225,493.9604664717335,"[90, 0, 164]",164,l,0.13004261418245733,colour,0.5
22,23,0,1,4,22,172,495.97618016111664,496.5444365236908,"[10, 0, 244]",244,a,0.04150354862213135,colour,0.5
22,23,0,1,4,23,173,498.5579281307291,499.5685285103973,"[76, 0, 178]",178,a,0.48716847971081734,colour,0.5
22,23,0,1,4,24,174,501.56875300290994,502.2325222720392,"[81, 0, 173]",173,a,0.14826589380390942,colour,0.5
22,23,0,1,4,25,175,504.24801146867685,504.8244807133451,"[2, 0, 252]",252,a,0.06495474721305072,colour,0.5
22,23,0,1,4,26,176,506.84324553166516,507.43251793971285,"[18, 0, 236]",236,a,0.07531606196425855,colour,0.5
22,23,0,1,4,27,177,509.4336738791317,510.03249470260926,"[68, 0, 186]",186,a,0.07213141862303019,colour,0.5
22,23,0,1,4,28,178,512.0527750425972,512.6084869990591,"[82, 0, 172]",172,a,0.03596842917613685,colour,0.5
22,23,0,1,4,29,179,514.6152989687398,515.1444656683598,"[6, 0, 248]",248,a,0.01736666331999004,colour,0.5
22,23,0,1,4,30,180,517.147250951035,517.704513087403,"[9, 0, 245]",245,a,0.04536718316376209,colour,0.5
22,23,0,1,4,31,181,519.7102935730945,520.6645156079903,"[35, 0, 219]",219,a,0.4266567153390497,colour,0.5
22,23,0,1,4,32,182,522.6671787984669,523.6644927649759,"[23, 0, 231]",231,a,0.48532803473062813,colour,0.5
22,23,0,1,4,33,183,525.6714370672125,526.4405086920597,"[60, 0, 194]",194,a,0.25587737187743187,colour,0.5
22,23,0,1,4,34,184,528.4557229839265,529.3844686616212,"[85, 0, 169]",169,a,0.4040168409701437,colour,0.5
22,23,0,1,4,35,185,531.395142296562,532.1925117955543,"[78, 0, 176]",176,a,0.27056233398616314,colour,0.5
22,23,0,1,4,36,186,534.1960607469082,534.8965117011685,"[3, 0, 251]",251,a,0.1877710649278015,colour,0.5
22,23,0,1,4,37,187,536.9004651326686,537.5125227444805,"[12, 0, 242]",242,a,0.08562538889236748,colour,0.5
22,23,0,1,4,38,188,539.5251935755368,540.064661331242,"[97, 0, 157]",157,l,0.012324639828875661,colour,0.5
22,23,0,1,4,39,189,542.0697640071157,542.6564854709432,"[89, 0, 165]",165,l,0.06374563812278211,colour,0.5
22,23,0,1,4,40,190,544.6632883821148,545.248549856944,"[31, 0, 223]",223,a,0.07403212203644216,colour,0.5
22,23,0,1,4,41,191,547.259937142022,548.1044689766131,"[32, 0, 222]",222,a,0.33276724466122687,colour,0.5
22,23,0,1,4,42,192,550.1077583830338,550.760614558123,"[25, 0, 229]",229,a,0.13962883898057044,colour,0.5
22,23,0,1,4,43,193,552.7648578607477,553.6725024220068,"[21, 0, 233]",233,a,0.37901388690806925,colour,0.5
22,23,0,1,4,44,194,555.6766724693589,556.2085307158995,"[24, 0, 230]",230,a,0.020452844677492976,colour,0.5
22,23,0,1,4,45,195,558.2234960969072,558.8965333625674,"[4, 0, 250]",250,a,0.16232424578629434,colour,0.5
22,23,0,1,4,46,196,560.9121568610426,561.7367135868408,"[22, 0, 232]",232,a,0.31018014531582594,colour,0.5
22,23,0,1,4,47,197,563.7469575353898,564.360502311727,"[88, 0, 166]",166,l,0.09286743914708495,colour,0.5
22,23,0,1,4,48,198,566.367491906276,567.3285093696322,"[59, 0, 195]",195,a,0.43954888824373484,colour,0.5
22,23,0,1,4,49,199,569.3451647458132,569.9605357886758,"[66, 0, 188]",188,a,0.0917457640171051,colour,0.5
22,23,0,1,4,50,200,571.9662209635135,572.6805739130359,"[62, 0, 192]",192,a,0.19168274872936308,colour,0.5
22,23,0,1,5,1,201,582.3531736154109,583.0005462651607,"[43, 0, 211]",211,a,0.1350999977439642,colour,0.5
22,23,0,1,5,2,202,585.0056528793648,585.5925299124792,"[88, 0, 166]",166,l,0.06415681377984583,colour,0.5
22,23,0,1,5,3,203,587.5955936447717,588.1685513535049,"[58, 0, 196]",196,a,0.050487975822761655,colour,0.5
22,23,0,1,5,4,204,590.1677695682738,590.9605621765368,"[37, 0, 217]",217,a,0.2785314251668751,colour,0.5
22,23,0,1,5,5,205,592.9633758161217,593.4965987412725,"[98, 0, 156]",156,l,0.01213047350756824,colour,0.5
22,23,0,1,5,6,206,595.5013166288845,597.9525966302026,"[52, 0, 202]",202,a,1.9308393658138812,colour,0.5
22,23,0,1,5,7,207,599.9730199363548,600.7206088078674,"[49, 0, 205]",205,a,0.23655132204294205,colour,0.5
22,23,0,1,5,8,208,602.7233594320714,603.3205576078035,"[25, 0, 229]",229,a,0.0696442776825279,colour,0.5
22,23,0,1,5,9,209,605.3337168085855,605.8725733144674,"[28, 0, 226]",226,a,0.01211511343717575,colour,0.5
22,23,0,1,5,10,210,607.8751207138412,608.5126019075979,"[59, 0, 195]",195,a,0.11086228745989501,colour,0.5
22,23,0,1,5,11,211,610.5209167958237,611.2485561585054,"[56, 0, 198]",198,a,0.21620442206040025,colour,0.5
22,23,0,1,5,12,212,613.2561443997547,613.8405980952084,"[45, 0, 209]",209,a,0.05795924458652735,colour,0.5
22,23,0,1,5,13,213,615.8444306158926,616.8247146580834,"[33, 0, 221]",221,a,0.46332382853142917,colour,0.5
22,23,0,1,5,14,214,618.8381180434953,619.5685682890471,"[30, 0, 224]",224,a,0.20380061911419034,colour,0.5
22,23,0,1,5,15,215,621.5761935517658,622.2405413812958,"[70, 0, 184]",184,a,0.15252219326794147,colour,0.5
22,23,0,1,5,16,216,624.2485297708772,625.1285790803377,"[55, 0, 199]",199,a,0.35363638517446816,colour,0.5
22,23,0,1,5,17,217,627.1424928910565,627.7847707418259,"[78, 0, 176]",176,l,0.13066607317887247,colour,0.5
22,23,0,1,5,18,218,629.7991225097794,630.3686848676298,"[15, 0, 239]",239,a,0.0427811867557466,colour,0.5
22,23,0,1,5,19,219,632.3726264836732,632.9285920772236,"[13, 0, 241]",241,a,0.04000456864014268,colour,0.5
22,23,0,1,5,20,220,634.9442069111392,635.5126854032278,"[95, 0, 159]",159,l,0.05712035158649087,colour,0.5
22,23,0,1,5,21,221,637.5228194685187,638.1525840270333,"[6, 0, 248]",248,a,0.11811575922183692,colour,0.5
22,23,0,1,5,22,222,640.166865296429,640.6966385196429,"[11, 0, 243]",243,a,0.0032177262473851442,colour,0.5
22,23,0,1,5,23,223,642.713727127295,643.312595606083,"[84, 0, 170]",170,l,0.07214284013025463,colour,0.5
22,23,0,1,5,24,224,645.3268662416376,646.0006596927997,"[29, 0, 225]",225,a,0.15049585280939937,colour,0.5
22,23,0,1,5,25,225,648.0168223672081,648.6325923765544,"[89, 0, 165]",165,l,0.10367104364559054,colour,0.5
22,23,0,1,5,26,226,650.6423479553778,651.4246500672307,"[63, 0, 191]",191,a,0.2555162145290524,colour,0.5
22,23,0,1,5,27,227,653.4273664269131,654.0566055939998,"[71, 0, 183]",183,a,0.11771836807020009,colour,0.5
22,23,0,1,5,28,228,656.0687565475237,656.6646483342629,"[92, 0, 162]",162,l,0.06880499073304236,colour,0.5
22,23,0,1,5,29,229,658.6783660093788,659.2406473259907,"[87, 0, 167]",167,l,0.03557615797035396,colour,0.5
22,23,0,1,5,30,230,661.2439540617634,661.8726426314097,"[44, 0, 210]",210,a,0.10544059611856937,colour,0.5
22,23,0,1,5,31,231,663.8849763297476,664.4246733041946,"[96, 0, 158]",158,l,0.02760509797371924,colour,0.5
22,23,0,1,5,32,232,666.433746346971,667.0886654902715,"[50, 0, 204]",204,a,0.14320851024240255,colour,0.5
22,23,0,1,5,33,233,669.092271943111,669.7286239787936,"[1, 0, 253]",253,a,0.11025221925228834,colour,0.5
22,23,0,1,5,34,234,671.7363051678985,672.3286342187785,"[74, 0, 180]",180,a,0.08145691710524261,colour,0.5
22,23,0,1,5,35,235,674.3465097318403,675.2886209855787,"[9, 0, 245]",245,a,0.43036281131207943,colour,0.5
22,23,0,1,5,36,236,677.3039254683536,678.2886391025968,"[90, 0, 164]",164,l,0.4730703488457948,colour,0.5
22,23,0,1,5,37,237,680.2930352175608,680.840697738342,"[4, 0, 250]",250,a,0.02467487961985171,colour,0.5
22,23,0,1,5,38,238,682.8585059037432,683.4886233487632,"[67, 0, 187]",187,a,0.11592597258277237,colour,0.5
22,23,0,1,5,39,239,685.5023079407401,686.6486518632155,"[81, 0, 173]",173,a,0.6190507509745657,colour,0.5
22,23,0,1,5,40,240,688.6657396832015,689.3046603859402,"[22, 0, 232]",232,a,0.11242113215848804,colour,0.5
22,23,0,1,5,41,241,691.3088016824331,692.3366529345512,"[23, 0, 231]",231,a,0.5045083614531904,colour,0.5
22,23,0,1,5,42,242,694.3436472550966,694.9686667507049,"[54, 0, 200]",200,a,0.10187077126465738,colour,0.5
22,23,0,1,5,43,243,696.9861625954509,697.6326998968143,"[76, 0, 178]",178,a,0.13397005200386047,colour,0.5
22,23,0,1,5,44,244,699.6485415862408,700.3526907595806,"[82, 0, 172]",172,a,0.17765866126865149,colour,0.5
22,23,0,1,5,45,245,702.3735697462689,702.9687025905587,"[38, 0, 216]",216,a,0.08434184291400015,colour,0.5
22,23,0,1,5,46,246,704.9821359084453,705.9527061195113,"[46, 0, 208]",208,a,0.45877608261071146,colour,0.5
22,23,0,1,5,47,247,707.9713177317753,708.8406871045008,"[12, 0, 242]",242,a,0.3578091892413795,colour,0.5
22,23,0,1,5,48,248,710.8419099980965,711.5447307270952,"[27, 0, 227]",227,a,0.18743590149097145,colour,0.5
22,23,0,1,5,49,249,713.5537624158897,714.1527073010802,"[20, 0, 234]",234,a,0.08697037491947412,colour,0.5
22,23,0,1,5,50,250,716.1699006718118,716.7607090813108,"[39, 0, 215]",215,a,0.06102888472378254,colour,0.5
22,23,0,1,6,1,251,724.2905508338008,725.0567174465396,"[88, 0, 166]",166,l,0.24190763500519097,colour,0.5
22,23,0,1,6,2,252,727.0691228248179,727.6247028426733,"[60, 0, 194]",194,a,0.03491646517068148,colour,0.5
22,23,0,1,6,3,253,729.6422424046323,730.1846860647202,"[95, 0, 159]",159,l,0.021435098024085164,colour,0.5
22,23,0,1,6,4,254,732.1925125832204,733.1927358943503,"[31, 0, 223]",223,a,0.47720534377731383,colour,0.5
22,23,0,1,6,5,255,735.1977645270526,735.8407524831127,"[10, 0, 244]",244,a,0.120337447617203,colour,0.5
22,23,0,1,6,6,256,737.8457842664793,738.7526817009784,"[7, 0, 247]",247,a,0.3851996408775449,colour,0.5
22,23,0,1,6,7,257,740.7582420264371,741.4567304435186,"[4, 0, 250]",250,a,0.17672209395095706,colour,0.5
22,23,0,1,6,8,258,743.469581656158,744.4247867320664,"[24, 0, 230]",230,a,0.43489834829233587,colour,0.5
22,23,0,1,6,9,259,746.4272742667235,747.1367084668018,"[64, 0, 190]",190,a,0.18838901002891362,colour,0.5
22,23,0,1,6,10,260,749.145013902802,749.8007297974546,"[14, 0, 240]",240,a,0.12642670888453722,colour,0.5
22,23,0,1,6,11,261,751.8147054421715,752.3687128305901,"[70, 0, 184]",184,a,0.03278693673200905,colour,0.5
22,23,0,1,6,12,262,754.3695454222616,755.000738855917,"[21, 0, 233]",233,a,0.10994935128837824,colour,0.5
22,23,0,1,6,13,263,757.0101124036592,757.6807420856785,"[74, 0, 180]",180,a,0.14164336421526968,colour,0.5
22,23,0,1,6,14,264,759.6952482413035,760.6567414712626,"[29, 0, 225]",225,a,0.43987932545132935,colour,0.5
22,23,0,1,6,15,265,762.671435885597,763.2090931287967,"[67, 0, 187]",187,a,0.015902735525742173,colour,0.5
22,23,0,1,6,16,266,765.2111115923617,765.7687801783904,"[17, 0, 237]",237,a,0.0361763802357018,colour,0.5
22,23,0,1,6,17,267,767.7822024684865,768.304790355498,"[51, 0, 203]",203,a,0.009175049141049385,colour,0.5
22,23,0,1,6,18,268,770.317034650594,770.8887194471899,"[55, 0, 199]",199,a,0.044959945837035775,colour,0.5
22,23,0,1,6,19,269,772.9008349545766,773.5447393916547,"[63, 0, 191]",191,a,0.1208549621514976,colour,0.5
22,23,0,1,6,20,270,775.5558005718049,776.1847805879079,"[94, 0, 160]",160,l,0.11710121063515544,colour,0.5
22,23,0,1,6,21,271,778.1971205878071,778.7447137916461,"[8, 0, 246]",246,a,0.020899466704577208,colour,0.5
22,23,0,1,6,22,272,780.7607291673776,781.6407926555257,"[72, 0, 182]",182,a,0.3534678188152611,colour,0.5
22,23,0,1,6,23,273,783.6542618132662,784.5927473157644,"[82, 0, 172]",172,l,0.4077532629016787,colour,0.5
22,23,0,1,6,24,274,786.5995860672556,787.1607780044433,"[6, 0, 248]",248,a,0.04944782727397978,colour,0.5
22,23,0,1,6,25,275,789.1794278195594,789.8167262687348,"[18, 0, 236]",236,a,0.11134593118913472,colour,0.5
22,23,0,1,6,26,276,791.8251478893217,792.3687955383211,"[86, 0, 168]",168,l,0.0220676155295223,colour,0.5
22,23,0,1,6,27,277,794.3867100421339,795.0648413191084,"[73, 0, 181]",181,a,0.16638204688206315,colour,0.5
22,23,0,1,6,28,278,797.0758162469137,797.6807668979745,"[98, 0, 156]",156,l,0.09371420927345753,colour,0.5
22,23,0,1,6,29,279,799.6796448291279,800.2727599977516,"[83, 0, 171]",171,a,0.06645333324559033,colour,0.5
22,23,0,1,6,30,280,802.2686667505186,803.3367872361559,"[49, 0, 205]",205,a,0.5489834821783006,colour,0.5
22,23,0,1,6,31,281,805.3373059320729,805.8647452206351,"[50, 0, 204]",204,a,0.01043063192628324,colour,0.5
22,23,0,1,6,32,282,807.8775759532582,808.3928398697171,"[75, 0, 179]",179,a,0.0036804957780987024,colour,0.5
22,23,0,1,6,33,283,810.4085437129252,811.3847979172133,"[47, 0, 207]",207,a,0.4642233739141375,colour,0.5
22,23,0,1,6,34,284,813.3976140776649,814.0967428889126,"[62, 0, 192]",192,a,0.18796483729965985,colour,0.5
22,23,0,1,6,35,285,816.1047856293153,816.7048139860854,"[84, 0, 170]",170,a,0.08889234578236938,colour,0.5
22,23,0,1,6,36,286,818.7142174663022,819.4808303071186,"[22, 0, 232]",232,a,0.23999826703220606,colour,0.5
22,23,0,1,6,37,287,821.4829854355194,822.0328334106598,"[27, 0, 227]",227,a,0.038460690062493086,colour,0.5
22,23,0,1,6,38,288,824.0460004883353,824.8167636841536,"[9, 0, 245]",245,a,0.25946570793166757,colour,0.5
22,23,0,1,6,39,289,826.8312513290439,827.600768788252,"[5, 0, 249]",249,a,0.2462493993807584,colour,0.5
22,23,0,1,6,40,290,829.6160291603301,830.2408403109293,"[44, 0, 210]",210,a,0.09816231206059456,colour,0.5
22,23,0,1,6,41,291,832.2561310089659,832.8167699857149,"[92, 0, 162]",162,l,0.034512772457674146,colour,0.5
22,23,0,1,6,42,292,834.8189522894099,835.4488440603018,"[59, 0, 195]",195,a,0.11848479346372187,colour,0.5
22,23,0,1,6,43,293,837.4604203917552,837.9768004694488,"[16, 0, 238]",238,a,0.00494592497125268,colour,0.5
22,23,0,1,6,44,294,839.9951005489565,840.576814647764,"[11, 0, 243]",243,a,0.07050680159591138,colour,0.5
22,23,0,1,6,45,295,842.5898379713763,843.1209010421298,"[19, 0, 235]",235,a,0.0018172080162912607,colour,0.5
22,23,0,1,6,46,296,845.1396946113091,845.8488271248061,"[30, 0, 224]",224,a,0.18604010925628245,colour,0.5
22,23,0,1,6,47,297,847.8552708481438,848.824816664448,"[3, 0, 251]",251,a,0.448762534186244,colour,0.5
22,23,0,1,6,48,298,850.8347557757515,851.4567840066738,"[90, 0, 164]",164,l,0.10021464643068612,colour,0.5
22,23,0,1,6,49,299,853.4700117364991,854.0328141122591,"[32, 0, 222]",222,a,0.04055122775025666,colour,0.5
22,23,0,1,6,50,300,856.0432270208839,857.1927662205417,"[99, 0, 155]",155,l,0.626056493492797,colour,0.5
22,23,0,1,7,1,301,864.5275286915712,865.2888419334777,"[5, 0, 249]",249,a,0.23708340874873102,colour,0.5
22,23,0,1,7,2,302,867.3054768298753,867.9608024228364,"[35, 0, 219]",219,a,0.13459744933061302,colour,0.5
22,23,0,1,7,3,303,869.9731054010335,870.9128177356906,"[65, 0, 189]",189,a,0.41829023347236216,colour,0.5
22,23,0,1,7,4,304,872.9212700761855,873.9208522050176,"[74, 0, 180]",180,a,0.4769985743332654,colour,0.5
22,23,0,1,7,5,305,875.9312245475594,876.4568994035944,"[40, 0, 214]",214,a,0.004821863258257508,colour,0.5
22,23,0,1,7,6,306,878.4737812418025,879.4328464076389,"[55, 0, 199]",199,a,0.4444101359695196,colour,0.5
22,23,0,1,7,7,307,881.4414039053954,882.0968098428566,"[14, 0, 240]",240,a,0.13509881612844765,colour,0.5
22,23,0,1,7,8,308,884.103157073725,884.7208947404288,"[3, 0, 251]",251,a,0.0944605483673513,colour,0.5
22,23,0,1,7,9,309,886.7362937463913,887.3928272665944,"[44, 0, 210]",210,a,0.13515119766816497,colour,0.5
22,23,0,1,7,10,310,889.400793206878,889.9288910068572,"[49, 0, 205]",205,a,0.007545312168076634,colour,0.5
22,23,0,1,7,11,311,891.9459874914028,892.4968527723104,"[36, 0, 218]",218,a,0.022170803509652615,colour,0.5
22,23,0,1,7,12,312,894.506635526428,895.3928993407171,"[51, 0, 203]",203,a,0.36449552210979164,colour,0.5
22,23,0,1,7,13,313,897.4023343282752,898.0168715980835,"[53, 0, 201]",201,a,0.0874650462064892,colour,0.5
22,23,0,1,7,14,314,900.0225595298689,900.5928678328637,"[90, 0, 164]",164,l,0.04798508109524846,colour,0.5
22,23,0,1,7,15,315,902.5938142461237,903.2409253816586,"[45, 0, 209]",209,a,0.12552361888810992,colour,0.5
22,23,0,1,7,16,316,905.2429670821875,906.2488495742436,"[91, 0, 163]",163,l,0.48529219487681985,colour,0.5
22,23,0,1,7,17,317,908.2635506840888,908.8568584437016,"[61, 0, 193]",193,a,0.07139925821684301,colour,0.5
22,23,0,1,7,18,318,910.8632667206693,911.4968708890956,"[75, 0, 179]",179,a,0.12231455720029771,colour,0.5
22,23,0,1,7,19,319,913.5115176481195,914.1128913848661,"[11, 0, 243]",243,a,0.08010208490304649,colour,0.5
22,23,0,1,7,20,320,916.1288043605164,916.7289036100265,"[25, 0, 229]",229,a,0.07940103835426271,colour,0.5
22,23,0,1,7,21,321,918.7432486824691,919.3048793647904,"[41, 0, 213]",213,a,0.03868400119245052,colour,0.5
22,23,0,1,7,22,322,921.3136735642329,922.2808622086886,"[67, 0, 187]",187,a,0.4455751341301948,colour,0.5
22,23,0,1,7,23,323,924.2875375137664,924.8888801366556,"[39, 0, 215]",215,a,0.08054752554744482,colour,0.5
22,23,0,1,7,24,324,926.8894323094282,927.7369183870032,"[37, 0, 217]",217,a,0.3262506597675383,colour,0.5
22,23,0,1,7,25,325,929.7389518166892,930.3689077845775,"[29, 0, 225]",225,a,0.10994856362231076,colour,0.5
22,23,0,1,7,26,326,932.372854914749,933.1849066189025,"[84, 0, 170]",170,l,0.2910624404903501,colour,0.5
22,23,0,1,7,27,327,935.190514205955,935.7209711468313,"[63, 0, 191]",191,a,0.01961946557275951,colour,0.5
22,23,0,1,7,28,328,937.7302415065933,938.3289016406052,"[13, 0, 241]",241,a,0.07731404528021812,colour,0.5
22,23,0,1,7,29,329,940.3314482523128,940.9208990728948,"[69, 0, 185]",185,a,0.06869235076010227,colour,0.5
22,23,0,1,7,30,330,942.9324084501714,943.5209293989465,"[94, 0, 160]",160,l,0.06722369696944952,colour,0.5
22,23,0,1,7,31,331,945.5312123382464,946.5929080052301,"[77, 0, 177]",177,a,0.5409872157033533,colour,0.5
22,23,0,1,7,32,332,948.5998070151545,949.2489098326769,"[26, 0, 228]",228,a,0.1277086795307696,colour,0.5
22,23,0,1,7,33,333,951.2636227579787,952.0809271933977,"[24, 0, 230]",230,a,0.2964935842901468,colour,0.5
22,23,0,1,7,34,334,954.0965420273133,954.6969173629768,"[27, 0, 227]",227,a,0.07886816374957561,colour,0.5
22,23,0,1,7,35,335,956.6983513582963,957.7049057523254,"[60, 0, 194]",194,a,0.4857348781079054,colour,0.5
22,23,0,1,7,36,336,959.7200779027771,960.6649346607737,"[0, 0, 254]",254,a,0.4190145172178745,colour,0.5
22,23,0,1,7,37,337,962.6682508485392,963.680945310276,"[6, 0, 248]",248,a,0.49960615346208215,colour,0.5
22,23,0,1,7,38,338,965.6899592762347,966.2729612533003,"[64, 0, 190]",190,a,0.061526706675067544,colour,0.5
22,23,0,1,7,39,339,968.2766606537625,968.8094964276534,"[19, 0, 235]",235,a,0.012078485684469342,colour,0.5
22,23,0,1,7,40,340,970.815141036408,971.7609044290148,"[22, 0, 232]",232,a,0.4238537095952779,colour,0.5
22,23,0,1,7,41,341,973.7738178696018,974.3609615368769,"[50, 0, 204]",204,a,0.06648326548747718,colour,0.5
22,23,0,1,7,42,342,976.370341779897,977.2649905870203,"[76, 0, 178]",178,l,0.36748324194923043,colour,0.5
22,23,0,1,7,43,343,979.2724571297877,979.936948713148,"[98, 0, 156]",156,l,0.14378076908178627,colour,0.5
22,23,0,1,7,44,344,981.951507644495,983.1129760618787,"[96, 0, 158]",158,l,0.6500425352714956,colour,0.5
22,23,0,1,7,45,345,985.1131347820628,985.7449465550017,"[89, 0, 165]",165,l,0.1102864840067923,colour,0.5
22,23,0,1,7,46,346,987.7462635778356,988.6810496796388,"[80, 0, 174]",174,l,0.41391696128994226,colour,0.5
22,23,0,1,7,47,347,990.6885607270524,991.5849924774375,"[71, 0, 183]",183,a,0.37580364383757114,colour,0.5
22,23,0,1,7,48,348,993.6000106337015,994.21697163512,"[23, 0, 231]",231,a,0.09596228529699147,colour,0.5
22,23,0,1,7,49,349,996.2173544538673,996.7850149266887,"[93, 0, 161]",161,l,0.04476971784606576,colour,0.5
22,23,0,1,7,50,350,998.78990138066,999.3609638998751,"[30, 0, 224]",224,a,0.050331224920228124,colour,0.5
22,23,0,1,8,1,351,1006.7551975927781,1007.5289335423149,"[63, 0, 191]",191,a,0.24351728591136634,colour,0.5
22,23,0,1,8,2,352,1009.5350145327393,1010.5450808566529,"[94, 0, 160]",160,l,0.48931297403760254,colour,0.5
22,23,0,1,8,3,353,1012.5559628366027,1013.096967381658,"[41, 0, 213]",213,a,0.019666727166622877,colour,0.5
22,23,0,1,8,4,354,1015.1108662260231,1015.8890207398217,"[48, 0, 206]",206,a,0.25720975478179753,colour,0.5
22,23,0,1,8,5,355,1017.8974522065837,1018.8249820799101,"[70, 0, 184]",184,a,0.40590848587453365,colour,0.5
22,23,0,1,8,6,356,1020.8404960890766,1021.4170283488929,"[42, 0, 212]",212,a,0.06529660569503903,colour,0.5
22,23,0,1,8,7,357,1023.426616149256,1024.0889782044105,"[9, 0, 245]",245,a,0.14097855100408196,colour,0.5
22,23,0,1,8,8,358,1026.0921372475568,1027.1529959905893,"[8, 0, 246]",246,a,0.5398895654361695,colour,0.5
22,23,0,1,8,9,359,1029.1572034531273,1029.7610375492368,"[72, 0, 182]",182,a,0.0826211275998503,colour,0.5
22,23,0,1,8,10,360,1031.7718541505747,1032.3449634902645,"[71, 0, 183]",183,a,0.06172874988988042,colour,0.5
22,23,0,1,8,11,361,1034.35753585957,1035.3290560285095,"[23, 0, 231]",231,a,0.4505643821321428,colour,0.5
22,23,0,1,8,12,362,1037.3315081170294,1037.8570738777053,"[98, 0, 156]",156,l,0.004299622727558017,colour,0.5
22,23,0,1,8,13,363,1039.8701932998374,1040.4490236544516,"[25, 0, 229]",229,a,0.05756539828144014,colour,0.5
22,23,0,1,8,14,364,1042.4560975320637,1043.0890168014448,"[29, 0, 225]",225,a,0.11233960604295135,colour,0.5
22,23,0,1,8,15,365,1045.1020176757593,1045.6330015831627,"[49, 0, 205]",205,a,0.019699810072779655,colour,0.5
22,23,0,1,8,16,366,1047.6404752151575,1048.217012988869,"[2, 0, 252]",252,a,0.05498018930666149,colour,0.5
22,23,0,1,8,17,367,1050.2280418737791,1051.2890018352773,"[14, 0, 240]",240,a,0.5399510054849088,colour,0.5
22,23,0,1,8,18,368,1053.2954719462432,1053.8730349026155,"[96, 0, 158]",158,l,0.05633974773809314,colour,0.5
22,23,0,1,8,19,369,1055.8846297448035,1056.8090423226822,"[69, 0, 185]",185,a,0.40577497193589807,colour,0.5
22,23,0,1,8,20,370,1058.82472647354,1059.7210156514775,"[62, 0, 192]",192,a,0.37547596357762814,colour,0.5
22,23,0,1,8,21,371,1061.7366541160736,1062.3130185974296,"[17, 0, 237]",237,a,0.055024300469085574,colour,0.5
22,23,0,1,8,22,372,1064.3230085149407,1065.0489874205086,"[86, 0, 168]",168,l,0.2056981718633324,colour,0.5
22,23,0,1,8,23,373,1067.06446755887,1067.9690487817861,"[65, 0, 189]",189,a,0.3828223831951618,colour,0.5
22,23,0,1,8,24,374,1069.9760809116997,1070.5210321929771,"[39, 0, 215]",215,a,0.021240931702777743,colour,0.5
22,23,0,1,8,25,375,1072.5307231808547,1073.46501106699,"[64, 0, 190]",190,a,0.4127432988025248,colour,0.5
22,23,0,1,8,26,376,1075.4736300047953,1076.2970556032378,"[13, 0, 241]",241,a,0.31201783334836364,colour,0.5
22,23,0,1,8,27,377,1078.3100249697454,1079.2890514598694,"[99, 0, 155]",155,l,0.45851771906018257,colour,0.5
22,23,0,1,8,28,378,1081.298771986505,1082.0570774222724,"[55, 0, 199]",199,a,0.23774900939315557,colour,0.5
22,23,0,1,8,29,379,1084.0700771149714,1084.7530916952528,"[43, 0, 211]",211,a,0.16157514974474907,colour,0.5
22,23,0,1,8,30,380,1086.7650736887008,1087.4010448746849,"[16, 0, 238]",238,a,0.11538640270009637,colour,0.5
22,23,0,1,8,31,381,1089.4109969830606,1090.1690924987197,"[56, 0, 198]",198,a,0.2347762556746602,colour,0.5
22,23,0,1,8,32,382,1092.1855036902707,1092.833038998535,"[26, 0, 228]",228,a,0.11949697905220091,colour,0.5
22,23,0,1,8,33,383,1094.8318787266035,1095.657058911398,"[15, 0, 239]",239,a,0.2961580269038677,colour,0.5
22,23,0,1,8,34,384,1097.657816672232,1098.4090588642284,"[97, 0, 157]",157,l,0.23042070679366589,colour,0.5
22,23,0,1,8,35,385,1100.411579088308,1101.3050632909872,"[87, 0, 167]",167,l,0.38273061672225595,colour,0.5
22,23,0,1,8,36,386,1103.3213449071627,1103.977121454198,"[35, 0, 219]",219,a,0.12868620664812624,colour,0.5
22,23,0,1,8,37,387,1105.9810977289453,1106.6090828888118,"[91, 0, 163]",163,l,0.11639937618747354,colour,0.5
22,23,0,1,8,38,388,1108.6228852409404,1109.2171307490207,"[5, 0, 249]",249,a,0.08255259809084237,colour,0.5
22,23,0,1,8,39,389,1111.2333477742504,1111.8970957754645,"[30, 0, 224]",224,a,0.1387997919227928,colour,0.5
22,23,0,1,8,40,390,1113.9069817175623,1114.497068206314,"[54, 0, 200]",200,a,0.07861098204739392,colour,0.5
22,23,0,1,8,41,391,1116.49734862498,1117.1691240065265,"[21, 0, 233]",233,a,0.16074098297394812,colour,0.5
22,23,0,1,8,42,392,1119.1852803793736,1119.7771104266867,"[92, 0, 162]",162,l,0.06507605174556375,colour,0.5
22,23,0,1,8,43,393,1121.7830882293638,1122.31310603139,"[46, 0, 208]",208,a,0.006986443884670734,colour,0.5
22,23,0,1,8,44,394,1124.3303557222243,1125.0491177835502,"[4, 0, 250]",250,a,0.2078036752063781,colour,0.5
22,23,0,1,8,45,395,1127.0662154497113,1127.721106236102,"[51, 0, 203]",203,a,0.12843217561021447,colour,0.5
22,23,0,1,8,46,396,1129.7170787614305,1130.2891077799723,"[59, 0, 195]",195,a,0.051653761649504304,colour,0.5
22,23,0,1,8,47,397,1132.2923239308875,1132.9131016989704,"[19, 0, 235]",235,a,0.10974612645804882,colour,0.5
22,23,0,1,8,48,398,1134.918403267162,1135.5930746023078,"[89, 0, 165]",165,l,0.1628740557935089,colour,0.5
22,23,0,1,8,49,399,1137.6061321906745,1138.1930714515038,"[85, 0, 169]",169,l,0.05839011282660067,colour,0.5
22,23,0,1,8,50,400,1140.198287948966,1140.7852220900822,"[58, 0, 196]",196,a,0.06435531261377037,colour,0.5
22,23,0,1,9,1,401,1155.775723692961,1156.5690834403504,"[98, 0, 156]",156,l,0.27989295264706016,colour,0.5
22,23,0,1,9,2,402,1158.5807326333597,1159.7931313163135,"[54, 0, 200]",200,a,0.6891069924458861,colour,0.5
22,23,0,1,9,3,403,1161.8034367049113,1162.3291403115727,"[24, 0, 230]",230,a,0.014208801556378603,colour,0.5
22,23,0,1,9,4,404,1164.3365202082787,1165.0011047394946,"[37, 0, 217]",217,a,0.1530503414105624,colour,0.5
22,23,0,1,9,5,405,1167.001276456518,1167.5691535449587,"[83, 0, 171]",171,l,0.03847880708053708,colour,0.5
22,23,0,1,9,6,406,1169.5859759121668,1170.1531141444575,"[72, 0, 182]",182,l,0.04382724314928055,colour,0.5
22,23,0,1,9,7,407,1172.165127251763,1173.153145258315,"[43, 0, 211]",211,a,0.47639874601736665,colour,0.5
22,23,0,1,9,8,408,1175.1692705173045,1175.7771352389827,"[52, 0, 202]",202,a,0.09688073536381125,colour,0.5
22,23,0,1,9,9,409,1177.7810481043998,1178.7931628238875,"[1, 0, 253]",253,a,0.49909415282309055,colour,0.5
22,23,0,1,9,10,410,1180.802658464061,1181.8491642575245,"[91, 0, 163]",163,l,0.5349940529558808,colour,0.5
22,23,0,1,9,11,411,1183.8532933446113,1184.4172181829344,"[95, 0, 159]",159,l,0.052214205265045166,colour,0.5
22,23,0,1,9,12,412,1186.4329228138085,1187.4092211290263,"[84, 0, 170]",170,a,0.46500240243040025,colour,0.5
22,23,0,1,9,13,413,1189.4195206100121,1190.073168022791,"[20, 0, 234]",234,a,0.14186391816474497,colour,0.5
22,23,0,1,9,14,414,1192.0798649892677,1192.889199940022,"[8, 0, 246]",246,a,0.2826069490984082,colour,0.5
22,23,0,1,9,15,415,1194.894501902163,1195.5371436672285,"[26, 0, 228]",228,a,0.13090435042977333,colour,0.5
22,23,0,1,9,16,416,1197.5518148448318,1198.1291773333214,"[6, 0, 248]",248,a,0.050573834450915456,colour,0.5
22,23,0,1,9,17,417,1200.1450485612731,1200.71311824047,"[93, 0, 161]",161,l,0.04131410829722881,colour,0.5
22,23,0,1,9,18,418,1202.731668806402,1203.56118918024,"[66, 0, 188]",188,a,0.31847258447669446,colour,0.5
22,23,0,1,9,19,419,1205.5744484178722,1206.1451442658436,"[67, 0, 187]",187,a,0.056009310530498624,colour,0.5
22,23,0,1,9,20,420,1208.1626720123459,1208.7611651555635,"[99, 0, 155]",155,l,0.07555197598412633,colour,0.5
22,23,0,1,9,21,421,1210.7683741226792,1211.6811469597742,"[71, 0, 183]",183,a,0.3894886295311153,colour,0.5
22,23,0,1,9,22,422,1213.6924869832583,1214.3133411577437,"[32, 0, 222]",222,a,0.09948209184221923,colour,0.5
22,23,0,1,9,23,423,1216.3254936865997,1217.049172528321,"[73, 0, 181]",181,a,0.19785905024036765,colour,0.5
22,23,0,1,9,24,424,1219.0494513716549,1219.7531495906878,"[68, 0, 186]",186,a,0.1748111506458372,colour,0.5
22,23,0,1,9,25,425,1221.7655199167784,1222.3532031539362,"[58, 0, 196]",196,a,0.06674674898386002,colour,0.5
22,23,0,1,9,26,426,1224.367361149285,1225.0331406109035,"[87, 0, 167]",167,l,0.14575512195006013,colour,0.5
22,23,0,1,9,27,427,1227.0450631335843,1227.5612285647076,"[11, 0, 243]",243,a,0.0052318572998046875,colour,0.5
22,23,0,1,9,28,428,1229.5839227901306,1230.553249233868,"[27, 0, 227]",227,a,0.44754082220606506,colour,0.5
22,23,0,1,9,29,429,1232.5586303591263,1233.1771616267506,"[42, 0, 212]",212,a,0.09623167640529573,colour,0.5
22,23,0,1,9,30,430,1235.1931541592348,1235.8012047763914,"[14, 0, 240]",240,a,0.08700463944114745,colour,0.5
22,23,0,1,9,31,431,1237.8126342031173,1238.4412113144062,"[25, 0, 229]",229,a,0.10761581058613956,colour,0.5
22,23,0,1,9,32,432,1240.442779217381,1241.04119516653,"[94, 0, 160]",160,l,0.07629004423506558,colour,0.5
22,23,0,1,9,33,433,1243.0440485847648,1243.9133293423802,"[44, 0, 210]",210,a,0.34838798618875444,colour,0.5
22,23,0,1,9,34,434,1245.922843099339,1246.7371972303372,"[5, 0, 249]",249,a,0.2937980985734612,colour,0.5
22,23,0,1,9,35,435,1248.742712657433,1249.4493426699191,"[80, 0, 174]",174,a,0.1870735625270754,colour,0.5
22,23,0,1,9,36,436,1251.4493533039931,1252.017216213746,"[47, 0, 207]",207,a,0.04671098757535219,colour,0.5
22,23,0,1,9,37,437,1254.0197494346648,1254.609234913718,"[97, 0, 157]",157,l,0.06874591391533613,colour,0.5
22,23,0,1,9,38,438,1256.6217619904783,1257.313220246695,"[69, 0, 185]",185,a,0.17081557726487517,colour,0.5
22,23,0,1,9,39,439,1259.312768504722,1259.857208966976,"[19, 0, 235]",235,a,0.02362685394473374,colour,0.5
22,23,0,1,9,40,440,1261.8655738737434,1262.481225335272,"[59, 0, 195]",195,a,0.09482643171213567,colour,0.5
22,23,0,1,9,41,441,1264.483358802041,1265.0492178206332,"[9, 0, 245]",245,a,0.04405921860598028,colour,0.5
22,23,0,1,9,42,442,1267.051562389126,1267.673338558292,"[46, 0, 208]",208,a,0.09953250410035253,colour,0.5
22,23,0,1,9,43,443,1269.682007514406,1270.3932297779247,"[79, 0, 175]",175,a,0.19113018200732768,colour,0.5
22,23,0,1,9,44,444,1272.4073657179251,1273.0092865074985,"[77, 0, 177]",177,a,0.08096067048609257,colour,0.5
22,23,0,1,9,45,445,1275.0216591965873,1275.585214606952,"[3, 0, 251]",251,a,0.0526517687831074,colour,0.5
22,23,0,1,9,46,446,1277.5932731009088,1278.1372472487856,"[7, 0, 247]",247,a,0.02240632358007133,colour,0.5
22,23,0,1,9,47,447,1280.1483978321776,1281.0812174582388,"[13, 0, 241]",241,a,0.4120757286436856,colour,0.5
22,23,0,1,9,48,448,1283.089816703694,1283.8172386630904,"[30, 0, 224]",224,a,0.20616881852038205,colour,0.5
22,23,0,1,9,49,449,1285.8254003450274,1286.4092565751635,"[28, 0, 226]",226,a,0.055903759552165866,colour,0.5
22,23,0,1,9,50,450,1288.413735791808,1288.9932833409403,"[64, 0, 190]",190,a,0.05794900469481945,colour,0.5
22,23,0,1,10,1,451,1296.4165344655048,1297.1292576780543,"[0, 0, 254]",254,a,0.19021921511739492,colour,0.5
22,23,0,1,10,2,452,1299.1277642119676,1300.1052239804994,"[71, 0, 183]",183,a,0.45678400667384267,colour,0.5
22,23,0,1,10,3,453,1302.1149393869564,1303.0173099492677,"[85, 0, 169]",169,l,0.37933369050733745,colour,0.5
22,23,0,1,10,4,454,1305.0327384937555,1305.601270942716,"[74, 0, 180]",180,a,0.04786417027935386,colour,0.5
22,23,0,1,10,5,455,1307.6070002282504,1308.4973994311877,"[26, 0, 228]",228,a,0.36931580980308354,colour,0.5
22,23,0,1,10,6,456,1310.5072743454948,1311.0892696508672,"[56, 0, 198]",198,a,0.05943774455226958,colour,0.5
22,23,0,1,10,7,457,1313.0959362913854,1313.7372870272957,"[86, 0, 168]",168,l,0.11799130379222333,colour,0.5
22,23,0,1,10,8,458,1315.7479437270667,1316.3052818758879,"[17, 0, 237]",237,a,0.03544500726275146,colour,0.5
22,23,0,1,10,9,459,1318.3217738058884,1318.9052913282067,"[91, 0, 163]",163,l,0.06257748929783702,colour,0.5
22,23,0,1,10,10,460,1320.9113668049686,1321.5292872164864,"[63, 0, 191]",191,a,0.09652784885838628,colour,0.5
22,23,0,1,10,11,461,1323.5380522711203,1324.105317716021,"[96, 0, 158]",158,a,0.05218939296901226,colour,0.5
22,23,0,1,10,12,462,1326.1201602166984,1326.7053078697063,"[70, 0, 184]",184,a,0.06229155673645437,colour,0.5
22,23,0,1,10,13,463,1328.7086354792118,1329.361341992626,"[75, 0, 179]",179,a,0.12985632475465536,colour,0.5
22,23,0,1,10,14,464,1331.3762006410398,1332.2332615219057,"[12, 0, 242]",242,a,0.3335120084229857,colour,0.5
22,23,0,1,10,15,465,1334.2472611910198,1334.9615152850747,"[36, 0, 218]",218,a,0.1927047804929316,colour,0.5
22,23,0,1,10,16,466,1336.9749805044848,1337.5692858772818,"[7, 0, 247]",247,a,0.07089670980349183,colour,0.5
22,23,0,1,10,17,467,1339.5801087804139,1340.2333213866223,"[72, 0, 182]",182,a,0.12971690320409834,colour,0.5
22,23,0,1,10,18,468,1342.2484706938267,1343.3053177159745,"[31, 0, 223]",223,a,0.5332075650803745,colour,0.5
22,23,0,1,10,19,469,1345.3158349939622,1345.865345836617,"[93, 0, 161]",161,l,0.02889573317952454,colour,0.5
22,23,0,1,10,20,470,1347.8610560600646,1348.4333056327887,"[13, 0, 241]",241,a,0.05819909740239382,colour,0.5
22,23,0,1,10,21,471,1350.4369305963628,1351.5213283654302,"[99, 0, 155]",155,l,0.5631958283483982,colour,0.5
22,23,0,1,10,22,472,1353.5310981229413,1354.169286665041,"[25, 0, 229]",229,a,0.1262459335848689,colour,0.5
22,23,0,1,10,23,473,1356.1732889337,1357.257312154863,"[58, 0, 196]",196,a,0.5571707640774548,colour,0.5
22,23,0,1,10,24,474,1359.2671874628868,1359.9453691523522,"[92, 0, 162]",162,l,0.15160334925167263,colour,0.5
22,23,0,1,10,25,475,1361.9584543097299,1362.9213067039382,"[33, 0, 221]",221,a,0.43949059885926545,colour,0.5
22,23,0,1,10,26,476,1364.9420947120525,1365.4973399604205,"[1, 0, 253]",253,a,0.025971816387027502,colour,0.5
22,23,0,1,10,27,477,1367.5105405149516,1368.3773790299892,"[28, 0, 226]",226,a,0.3555843501817435,colour,0.5
22,23,0,1,10,28,478,1370.3855123547837,1371.1692740619183,"[10, 0, 244]",244,a,0.2572507148142904,colour,0.5
22,23,0,1,10,29,479,1373.1853729332797,1373.8653289012145,"[61, 0, 193]",193,a,0.16860924917273223,colour,0.5
22,23,0,1,10,30,480,1375.8734460782725,1376.4099269020371,"[29, 0, 225]",225,a,0.009719345020130277,colour,0.5
22,23,0,1,10,31,481,1378.4208514173515,1379.097386828158,"[35, 0, 219]",219,a,0.14953723037615418,colour,0.5
22,23,0,1,10,32,482,1381.1128673602361,1381.7933727442287,"[73, 0, 181]",181,a,0.16894795722328126,colour,0.5
22,23,0,1,10,33,483,1383.8033366678283,1384.521340180887,"[53, 0, 201]",201,a,0.19082967704162002,colour,0.5
22,23,0,1,10,34,484,1386.5260970594827,1387.1453975092154,"[39, 0, 215]",215,a,0.10803368175402284,colour,0.5
22,23,0,1,10,35,485,1389.1513410473708,1390.0014135150705,"[14, 0, 240]",240,a,0.33847920084372163,colour,0.5
22,23,0,1,10,36,486,1392.014631005004,1392.657361779362,"[37, 0, 217]",217,a,0.11956472066231072,colour,0.5
22,23,0,1,10,37,487,1394.670751774218,1395.8093908769079,"[76, 0, 178]",178,a,0.6240526020992547,colour,0.5
22,23,0,1,10,38,488,1397.8184820364695,1398.417378084734,"[68, 0, 186]",186,a,0.08744180924259126,colour,0.5
22,23,0,1,10,39,489,1400.4290327916387,1400.985447763931,"[65, 0, 189]",189,a,0.029702724423259497,colour,0.5
22,23,0,1,10,40,490,1402.986214583274,1403.6173532723915,"[21, 0, 233]",233,a,0.10487660788930953,colour,0.5
22,23,0,1,10,41,491,1405.629423487233,1406.2013772812206,"[97, 0, 157]",157,l,0.060369585640728474,colour,0.5
22,23,0,1,10,42,492,1408.2081632572226,1408.7853658439126,"[66, 0, 188]",188,a,0.06625522836111486,colour,0.5
22,23,0,1,10,43,493,1410.802318574395,1411.3853898686357,"[47, 0, 207]",207,a,0.056273187743499875,colour,0.5
22,23,0,1,10,44,494,1413.3906540214084,1414.4013623150531,"[41, 0, 213]",213,a,0.4945011145900935,colour,0.5
22,23,0,1,10,45,495,1416.4146896882448,1417.6173938384745,"[83, 0, 171]",171,l,0.6761269918642938,colour,0.5
22,23,0,1,10,46,496,1419.6232759365812,1420.177399510052,"[44, 0, 210]",210,a,0.042798122158274055,colour,0.5
22,23,0,1,10,47,497,1422.186678140657,1422.9774109316058,"[4, 0, 250]",250,a,0.2791233763564378,colour,0.5
22,23,0,1,10,48,498,1424.986513118958,1425.7053708850872,"[94, 0, 160]",160,l,0.19241924164816737,colour,0.5
22,23,0,1,10,49,499,1427.709067922784,1428.441352311289,"[3, 0, 251]",251,a,0.22033311519771814,colour,0.5
22,23,0,1,10,50,500,1430.4443624804262,1431.0255330712534,"[11, 0, 243]",243,a,0.05463557387702167,colour,0.5
22,23,0,1,11,1,501,1438.3909336524084,1439.2254200372845,"[66, 0, 188]",188,a,0.30746299820020795,colour,0.5
22,23,0,1,11,2,502,1441.2399592762813,1441.8014363583643,"[7, 0, 247]",247,a,0.049165045376867056,colour,0.5
22,23,0,1,11,3,503,1443.8194351452403,1444.889429158764,"[89, 0, 165]",165,l,0.5431112302467227,colour,0.5
22,23,0,1,11,4,504,1446.9021066850983,1447.7053862451576,"[85, 0, 169]",169,l,0.2765129613690078,colour,0.5
22,23,0,1,11,5,505,1449.7166120531037,1450.3214130424894,"[62, 0, 192]",192,a,0.09253778960555792,colour,0.5
22,23,0,1,11,6,506,1452.325787102338,1452.9294108841568,"[35, 0, 219]",219,a,0.09174891491420567,colour,0.5
22,23,0,1,11,7,507,1454.935072428314,1455.4818149234634,"[63, 0, 191]",191,a,0.019854197977110744,colour,0.5
22,23,0,1,11,8,508,1457.4975668159313,1458.0814057169482,"[6, 0, 248]",248,a,0.05674462206661701,colour,0.5
22,23,0,1,11,9,509,1460.0957917496562,1460.9294187612832,"[40, 0, 214]",214,a,0.3230305705219507,colour,0.5
22,23,0,1,11,10,510,1462.9401183901355,1463.9614073710982,"[99, 0, 155]",155,l,0.49506982904858887,colour,0.5
22,23,0,1,11,11,511,1465.9756126282737,1466.9696667268872,"[98, 0, 156]",156,l,0.4672532354015857,colour,0.5
22,23,0,1,11,12,512,1468.97949477355,1469.6414003607351,"[4, 0, 250]",250,a,0.13435877859592438,colour,0.5
22,23,0,1,11,13,513,1471.6464994917624,1472.6734043306205,"[67, 0, 187]",187,a,0.5083546666428447,colour,0.5
22,23,0,1,11,14,514,1474.6884858962148,1475.4094361693133,"[87, 0, 167]",167,l,0.19359881221316755,colour,0.5
22,23,0,1,11,15,515,1477.4270044818986,1478.0894728756975,"[48, 0, 206]",206,a,0.151143730385229,colour,0.5
22,23,0,1,11,16,516,1480.0989011679776,1480.6414558929391,"[13, 0, 241]",241,a,0.016049640253186226,colour,0.5
22,23,0,1,11,17,517,1482.6612092664,1483.194053310901,"[34, 0, 220]",220,a,0.004499302711337805,colour,0.5
22,23,0,1,11,18,518,1485.2131351758726,1485.9454128693324,"[37, 0, 217]",217,a,0.20925854449160397,colour,0.5
22,23,0,1,11,19,519,1487.9635719517246,1488.4974392096046,"[61, 0, 193]",193,a,0.022456735838204622,colour,0.5
22,23,0,1,11,20,520,1490.5104688347783,1491.177496396238,"[46, 0, 208]",208,a,0.14026805199682713,colour,0.5
22,23,0,1,11,21,521,1493.1865146942437,1493.7854946318548,"[36, 0, 218]",218,a,0.07573038851842284,colour,0.5
22,23,0,1,11,22,522,1495.796061928384,1496.3535099602304,"[0, 0, 254]",254,a,0.04579174960963428,colour,0.5
22,23,0,1,11,23,523,1498.3598473449238,1498.9214776332956,"[73, 0, 181]",181,l,0.05061282520182431,colour,0.5
22,23,0,1,11,24,524,1500.9389963212889,1501.4814399816096,"[70, 0, 184]",184,a,0.015682575525715947,colour,0.5
22,23,0,1,11,25,525,1503.5024788700975,1504.1054929776583,"[27, 0, 227]",227,a,0.07594149024225771,colour,0.5
22,23,0,1,11,26,526,1506.1156514615286,1506.8814963016193,"[79, 0, 175]",175,a,0.2546336045488715,colour,0.5
22,23,0,1,11,27,527,1508.898174914997,1509.481474246364,"[29, 0, 225]",225,a,0.056550849694758654,colour,0.5
22,23,0,1,11,28,528,1511.491778059397,1512.1294675981626,"[82, 0, 172]",172,a,0.11033374560065567,colour,0.5
22,23,0,1,11,29,529,1514.135938103078,1514.6895457373466,"[43, 0, 211]",211,a,0.04207620141096413,colour,0.5
22,23,0,1,11,30,530,1516.6986227184534,1517.6574779641815,"[8, 0, 246]",246,a,0.44718320947140455,colour,0.5
22,23,0,1,11,31,531,1519.671305916272,1520.3134758532979,"[28, 0, 226]",226,a,0.1281679046805948,colour,0.5
22,23,0,1,11,32,532,1522.3312513290439,1522.9214882671367,"[51, 0, 203]",203,a,0.06274920632131398,colour,0.5
22,23,0,1,11,33,533,1524.9269914850593,1525.569481619168,"[86, 0, 168]",168,l,0.11584917269647121,colour,0.5
22,23,0,1,11,34,534,1527.58760131686,1528.1935298889875,"[39, 0, 215]",215,a,0.09458185313269496,colour,0.5
22,23,0,1,11,35,535,1530.197215898661,1530.7134983025026,"[17, 0, 237]",237,a,0.004455192247405648,colour,0.5
22,23,0,1,11,36,536,1532.7290044345427,1533.3854469764046,"[71, 0, 183]",183,a,0.145142690744251,colour,0.5
22,23,0,1,11,37,537,1535.4002567878924,1536.3774688269477,"[22, 0, 232]",232,a,0.4501591140870005,colour,0.5
22,23,0,1,11,38,538,1538.3892243586015,1539.001496616751,"[69, 0, 185]",185,a,0.08569746278226376,colour,0.5
22,23,0,1,11,39,539,1541.0181988608092,1541.6094964277,"[2, 0, 252]",252,a,0.0680287191644311,colour,0.5
22,23,0,1,11,40,540,1543.6130465604365,1544.129507770529,"[42, 0, 212]",212,a,0.004411868983879685,colour,0.5
22,23,0,1,11,41,541,1546.1452435152605,1546.7135357179213,"[74, 0, 180]",180,a,0.05632438790053129,colour,0.5
22,23,0,1,11,42,542,1548.7260123824235,1549.7775452332571,"[59, 0, 195]",195,a,0.5248576244339347,colour,0.5
22,23,0,1,11,43,543,1551.7927607067395,1552.681524264859,"[65, 0, 189]",189,a,0.3620749411638826,colour,0.5
22,23,0,1,11,44,544,1554.6869573779404,1555.4894941435196,"[14, 0, 240]",240,a,0.2892184511292726,colour,0.5
22,23,0,1,11,45,545,1557.4968972769566,1558.0255216497462,"[97, 0, 157]",157,l,0.012935101985931396,colour,0.5
22,23,0,1,11,46,546,1560.0370322086383,1560.5855316533707,"[75, 0, 179]",179,a,0.025269981706514955,colour,0.5
22,23,0,1,11,47,547,1562.6004418956582,1563.129549912177,"[80, 0, 174]",174,l,0.01713074930012226,colour,0.5
22,23,0,1,11,48,548,1565.1300284357276,1565.7617704975419,"[18, 0, 236]",236,a,0.12013579811900854,colour,0.5
22,23,0,1,11,49,549,1567.7707872204483,1568.4574602411594,"[76, 0, 178]",178,a,0.15994186839088798,colour,0.5
22,23,0,1,11,50,550,1570.4615558513906,1571.089528014185,"[26, 0, 228]",228,a,0.10488724173046649,colour,0.5
22,23,0,1,12,1,551,1579.2986097217072,1580.0015293059405,"[56, 0, 198]",198,a,0.19063039077445865,colour,0.5
22,23,0,1,12,2,552,1582.01891605556,1582.9535032648128,"[26, 0, 228]",228,a,0.40713925613090396,colour,0.5
22,23,0,1,12,3,553,1584.9608087243978,1585.513543988578,"[60, 0, 194]",194,a,0.02649405668489635,colour,0.5
22,23,0,1,12,4,554,1587.5261376255658,1588.5695556623396,"[16, 0, 238]",238,a,0.5164596347603947,colour,0.5
22,23,0,1,12,5,555,1590.5912865391,1591.2815152064431,"[38, 0, 216]",216,a,0.1629252559505403,colour,0.5
22,23,0,1,12,6,556,1593.2979204901494,1593.8815731017385,"[58, 0, 196]",196,a,0.07265011454001069,colour,0.5
22,23,0,1,12,7,557,1595.890055374708,1596.4975739051588,"[24, 0, 230]",230,a,0.09588706050999463,colour,0.5
22,23,0,1,12,8,558,1598.5133903885726,1599.4655352768023,"[64, 0, 190]",190,a,0.42551968060433865,colour,0.5
22,23,0,1,12,9,559,1601.4695745669305,1602.0976026561111,"[62, 0, 192]",192,a,0.0998593969270587,colour,0.5
22,23,0,1,12,10,560,1604.1068852250464,1605.0576024197508,"[45, 0, 209]",209,a,0.4209278237540275,colour,0.5
22,23,0,1,12,11,561,1607.0674422816373,1607.7375942277722,"[82, 0, 172]",172,a,0.14378864620812237,colour,0.5
22,23,0,1,12,12,562,1609.748016194906,1610.329543610569,"[99, 0, 155]",155,a,0.06641040393151343,colour,0.5
22,23,0,1,12,13,563,1612.339274770813,1612.8815518340562,"[79, 0, 175]",175,a,0.027134057600051165,colour,0.5
22,23,0,1,12,14,564,1614.890070340829,1615.4335541499313,"[2, 0, 252]",252,a,0.02114601479843259,colour,0.5
22,23,0,1,12,15,565,1617.4473631973378,1618.0655392152257,"[36, 0, 218]",218,a,0.09392570471391082,colour,0.5
22,23,0,1,12,16,566,1620.083697509952,1620.6735658077523,"[10, 0, 244]",244,a,0.06875142781063914,colour,0.5
22,23,0,1,12,17,567,1622.6887824626174,1623.7856265704613,"[91, 0, 163]",163,l,0.5760706719011068,colour,0.5
22,23,0,1,12,18,568,1625.7915858624037,1626.4095740155317,"[3, 0, 251]",251,a,0.09450859762728214,colour,0.5
22,23,0,1,12,19,569,1628.428821689915,1629.0416776286438,"[22, 0, 232]",232,a,0.09029443957842886,colour,0.5
22,23,0,1,12,20,570,1631.0489858451765,1631.6336018051952,"[78, 0, 176]",176,l,0.06365662883035839,colour,0.5
22,23,0,1,12,21,571,1633.6384047637694,1634.2096350616775,"[11, 0, 243]",243,a,0.05029302183538675,colour,0.5
22,23,0,1,12,22,572,1636.2279457750265,1636.7776070670225,"[90, 0, 164]",164,l,0.028862256091088057,colour,0.5
22,23,0,1,12,23,573,1638.7761856748257,1639.3456121555064,"[20, 0, 234]",234,a,0.054248028667643666,colour,0.5
22,23,0,1,12,24,574,1641.3585858545266,1642.2176155741327,"[17, 0, 237]",237,a,0.3364926390349865,colour,0.5
22,23,0,1,12,25,575,1644.228714563651,1644.8176616542041,"[32, 0, 222]",222,a,0.06573732011020184,colour,0.5
22,23,0,1,12,26,576,1646.833699873183,1647.4655971105676,"[71, 0, 183]",183,a,0.11003205901943147,colour,0.5
22,23,0,1,12,27,577,1649.4700483642519,1650.0656034122221,"[48, 0, 206]",206,a,0.07167770760133862,colour,0.5
22,23,0,1,12,28,578,1652.075136861531,1652.6016384016257,"[73, 0, 181]",181,a,0.0050542326644063,colour,0.5
22,23,0,1,12,29,579,1654.6082243034616,1655.3696367945522,"[81, 0, 173]",173,a,0.24598630983382463,colour,0.5
22,23,0,1,12,30,580,1657.376781170955,1657.9536442619283,"[28, 0, 226]",226,a,0.05330594792030752,colour,0.5
22,23,0,1,12,31,581,1659.9692736680154,1661.01763487258,"[35, 0, 219]",219,a,0.5272809620946646,colour,0.5
22,23,0,1,12,32,582,1663.0247075688094,1663.6496356918942,"[69, 0, 185]",185,a,0.10369191761128604,colour,0.5
22,23,0,1,12,33,583,1665.6583223710768,1666.4737520972267,"[46, 0, 208]",208,a,0.3041090010665357,colour,0.5
22,23,0,1,12,34,584,1668.4826057674363,1669.0816916495096,"[88, 0, 166]",166,l,0.07584893610328436,colour,0.5
22,23,0,1,12,35,585,1671.0881361605134,1671.6656254676636,"[18, 0, 236]",236,a,0.05420470563694835,colour,0.5
22,23,0,1,12,36,586,1673.677306956146,1674.3536143295933,"[97, 0, 157]",157,l,0.1545323859900236,colour,0.5
22,23,0,1,12,37,587,1676.3605184594635,1677.0416571486276,"[75, 0, 179]",179,a,0.15963624324649572,colour,0.5
22,23,0,1,12,38,588,1679.0531547106802,1679.8817227634136,"[42, 0, 212]",212,a,0.30744960717856884,colour,0.5
22,23,0,1,12,39,589,1681.8899911777116,1682.8416169763077,"[50, 0, 204]",204,a,0.43064086721278727,colour,0.5
22,23,0,1,12,40,590,1684.852613565512,1685.6337140516844,"[85, 0, 169]",169,l,0.2588221626356244,colour,0.5
22,23,0,1,12,41,591,1687.6445401052479,1688.473698140122,"[37, 0, 217]",217,a,0.3074996257200837,colour,0.5
22,23,0,1,12,42,592,1690.4738095987123,1691.073637881549,"[44, 0, 210]",210,a,0.08005049102939665,colour,0.5
22,23,0,1,12,43,593,1693.088123163674,1693.9696789362933,"[93, 0, 161]",161,l,0.35950351716019213,colour,0.5
22,23,0,1,12,44,594,1695.96305049886,1696.8258142776322,"[29, 0, 225]",225,a,0.34470630856230855,colour,0.5
22,23,0,1,12,45,595,1698.8440867878962,1699.5936563136056,"[67, 0, 187]",187,a,0.22789772576652467,colour,0.5
22,23,0,1,12,46,596,1701.6030231660698,1702.1776689009275,"[96, 0, 158]",158,l,0.05070459144189954,colour,0.5
22,23,0,1,12,47,597,1704.1926500357222,1704.7776771718636,"[54, 0, 200]",200,a,0.06149716838262975,colour,0.5
22,23,0,1,12,48,598,1706.7819941237103,1707.60967996018,"[61, 0, 193]",193,a,0.30429095798172057,colour,0.5
22,23,0,1,12,49,599,1709.6217600214295,1710.4016588814557,"[5, 0, 249]",249,a,0.25907225511036813,colour,0.5
22,23,0,1,12,50,600,1712.4132182775065,1713.2976514929906,"[12, 0, 242]",242,a,0.361399888060987,colour,0.5
22,23,0,1,13,1,601,1720.8830307277385,1721.5777358550113,"[14, 0, 240]",240,a,0.17298370273783803,colour,0.5
22,23,0,1,13,2,602,1723.5804545776919,1724.105767094763,"[22, 0, 232]",232,a,0.0008235331624746323,colour,0.5
22,23,0,1,13,3,603,1726.1231439979747,1726.6496951626614,"[73, 0, 181]",181,a,0.0031184768304228783,colour,0.5
22,23,0,1,13,4,604,1728.665608532261,1729.6416638439987,"[56, 0, 198]",198,a,0.4526159286033362,colour,0.5
22,23,0,1,13,5,605,1731.6459386544302,1732.2176718942355,"[30, 0, 224]",224,a,0.04145392379723489,colour,0.5
22,23,0,1,13,6,606,1734.225494868122,1734.8177057651337,"[37, 0, 217]",217,a,0.0712948888540268,colour,0.5
22,23,0,1,13,7,607,1736.8234370199498,1737.6977050560527,"[81, 0, 173]",173,l,0.36306073889136314,colour,0.5
22,23,0,1,13,8,608,1739.7069801422767,1740.2576658290345,"[51, 0, 203]",203,a,0.02974526002071798,colour,0.5
22,23,0,1,13,9,609,1742.2584547037259,1742.8337183839176,"[57, 0, 197]",197,a,0.0637519396841526,colour,0.5
22,23,0,1,13,10,610,1744.852179152891,1745.393693729071,"[93, 0, 161]",161,l,0.02059423574246466,colour,0.5
22,23,0,1,13,11,611,1747.4066946033854,1748.3937303568237,"[24, 0, 230]",230,a,0.46644112397916615,colour,0.5
22,23,0,1,13,12,612,1750.400348160183,1751.2737103493419,"[82, 0, 172]",172,a,0.3520724205300212,colour,0.5
22,23,0,1,13,13,613,1753.2805841530208,1753.8737079864368,"[11, 0, 243]",243,a,0.07174859987571836,colour,0.5
22,23,0,1,13,14,614,1755.8815581356175,1756.9137913242448,"[53, 0, 201]",201,a,0.5112766141537577,colour,0.5
22,23,0,1,13,15,615,1758.9185245719273,1759.4737339802086,"[16, 0, 238]",238,a,0.03434893232770264,colour,0.5
22,23,0,1,13,16,616,1761.4888391767163,1762.1777898119763,"[40, 0, 214]",214,a,0.16835561208426952,colour,0.5
22,23,0,1,13,17,617,1764.1811737413518,1764.745724795619,"[86, 0, 168]",168,l,0.04295329749584198,colour,0.5
22,23,0,1,13,18,618,1766.7520929004531,1767.3377635816578,"[54, 0, 200]",200,a,0.06451442651450634,colour,0.5
22,23,0,1,13,19,619,1769.353445763234,1769.9536923111882,"[43, 0, 211]",211,a,0.07963813375681639,colour,0.5
22,23,0,1,13,20,620,1771.9606964781415,1772.5857203057967,"[78, 0, 176]",176,a,0.1108087245374918,colour,0.5
22,23,0,1,13,21,621,1774.5994994209614,1775.1937492615543,"[61, 0, 193]",193,a,0.07288878574036062,colour,0.5
22,23,0,1,13,22,622,1777.2010893793777,1777.7457015586551,"[3, 0, 251]",251,a,0.023812355706468225,colour,0.5
22,23,0,1,13,23,623,1779.7551011003088,1780.289762352826,"[10, 0, 244]",244,a,0.014225343242287636,colour,0.5
22,23,0,1,13,24,624,1782.2862626325805,1782.833755405387,"[34, 0, 220]",220,a,0.01763250958174467,colour,0.5
22,23,0,1,13,25,625,1784.8467736090533,1786.273706017062,"[55, 0, 199]",199,a,0.9055134577210993,colour,0.5
22,23,0,1,13,26,626,1788.2890357060824,1789.0737324047368,"[92, 0, 162]",162,l,0.2639669799245894,colour,0.5
22,23,0,1,13,27,627,1791.0750037415419,1791.6338129071519,"[65, 0, 189]",189,a,0.03796444367617369,colour,0.5
22,23,0,1,13,28,628,1793.6468039352912,1794.2017652201466,"[44, 0, 210]",210,a,0.03418784914538264,colour,0.5
22,23,0,1,13,29,629,1796.2155053443275,1797.065733381547,"[8, 0, 246]",246,a,0.32910092710517347,colour,0.5
22,23,0,1,13,30,630,1799.079878774006,1799.6657314123586,"[59, 0, 195]",195,a,0.06583066168241203,colour,0.5
22,23,0,1,13,31,631,1801.6799662078265,1802.3297334446106,"[26, 0, 228]",228,a,0.12842981261201203,colour,0.5
22,23,0,1,13,32,632,1804.3410199049395,1804.9138287396636,"[63, 0, 191]",191,a,0.051589564653113484,colour,0.5
22,23,0,1,13,33,633,1806.9271525682416,1807.4737623371184,"[27, 0, 227]",227,a,0.020765558816492558,colour,0.5
22,23,0,1,13,34,634,1809.4861074569635,1810.0497684180737,"[58, 0, 196]",196,a,0.04083085851743817,colour,0.5
22,23,0,1,13,35,635,1812.048936614301,1812.929809456924,"[64, 0, 190]",190,a,0.3518719526473433,colour,0.5
22,23,0,1,13,36,636,1814.9369995193556,1815.5057714271825,"[35, 0, 219]",219,a,0.04786101938225329,colour,0.5
22,23,0,1,13,37,637,1817.5144155710004,1818.5137692687567,"[12, 0, 242]",242,a,0.47081990959122777,colour,0.5
22,23,0,1,13,38,638,1820.5228840594646,1821.3057982088067,"[31, 0, 223]",223,a,0.25576551957055926,colour,0.5
22,23,0,1,13,39,639,1823.312066276325,1823.8897399036214,"[96, 0, 158]",158,l,0.05696832691319287,colour,0.5
22,23,0,1,13,40,640,1825.9003816372715,1826.5538644222543,"[71, 0, 183]",183,a,0.1327518846374005,colour,0.5
22,23,0,1,13,41,641,1828.5618343008682,1829.1297810999677,"[39, 0, 215]",215,a,0.04625885165296495,colour,0.5
22,23,0,1,13,42,642,1831.132479342632,1831.6978980409913,"[19, 0, 235]",235,a,0.04377998155541718,colour,0.5
22,23,0,1,13,43,643,1833.703277196968,1834.2417863302398,"[9, 0, 245]",245,a,0.01675501954741776,colour,0.5
22,23,0,1,13,44,644,1836.2437721046153,1836.77827660623,"[33, 0, 221]",221,a,0.014165084809064865,colour,0.5
22,23,0,1,13,45,645,1838.7740801712498,1839.417748694308,"[42, 0, 212]",212,a,0.12464376585558057,colour,0.5
22,23,0,1,13,46,646,1841.4268780571874,1841.9698171764612,"[83, 0, 171]",171,l,0.031095366226509213,colour,0.5
22,23,0,1,13,47,647,1843.9747749166563,1844.7138161365874,"[74, 0, 180]",180,a,0.22769016888923943,colour,0.5
22,23,0,1,13,48,648,1846.7199731394649,1847.297816514736,"[91, 0, 163]",163,l,0.04675824916921556,colour,0.5
22,23,0,1,13,49,649,1849.305605223868,1849.897803517757,"[21, 0, 233]",233,a,0.08129859087057412,colour,0.5
22,23,0,1,13,50,650,1851.915482895216,1852.7297870076727,"[52, 0, 202]",202,a,0.30220199609175324,colour,0.5
22,23,0,1,14,1,651,1860.2101431237534,1860.8417906626128,"[7, 0, 247]",247,a,0.11382558895274997,colour,0.5
22,23,0,1,14,2,652,1862.8457409434486,1863.4018053924665,"[56, 0, 198]",198,a,0.04455073922872543,colour,0.5
22,23,0,1,14,3,653,1865.409241215093,1865.993957606377,"[42, 0, 212]",212,a,0.0728466440923512,colour,0.5
22,23,0,1,14,4,654,1868.0038904161192,1868.7298244230915,"[33, 0, 221]",221,a,0.19900435581803322,colour,0.5
22,23,0,1,14,5,655,1870.7437941599637,1871.3458799712826,"[28, 0, 226]",226,a,0.09116405295208097,colour,0.5
22,23,0,1,14,6,656,1873.3552271311637,1873.9138153488748,"[62, 0, 192]",192,a,0.03802864043973386,colour,0.5
22,23,0,1,14,7,657,1875.9279824029654,1876.4737985709216,"[4, 0, 250]",250,a,0.0345946925226599,colour,0.5
22,23,0,1,14,8,658,1878.4905142060015,1879.3937898275908,"[36, 0, 218]",218,a,0.3771001866552979,colour,0.5
22,23,0,1,14,9,659,1881.4003091694321,1881.993887501536,"[8, 0, 246]",246,a,0.08189881290309131,colour,0.5
22,23,0,1,14,10,660,1884.0103262623306,1884.5379549912177,"[82, 0, 172]",172,l,0.0011984750162810087,colour,0.5
22,23,0,1,14,11,661,1886.5574381856713,1887.0898623899557,"[31, 0, 223]",223,a,0.005594590213149786,colour,0.5
22,23,0,1,14,12,662,1889.112189944135,1890.041856041178,"[35, 0, 219]",219,a,0.4064350586850196,colour,0.5
22,23,0,1,14,13,663,1892.0532882246189,1892.6338526855689,"[73, 0, 181]",181,a,0.05362575128674507,colour,0.5
22,23,0,1,14,14,664,1894.6520074356813,1895.2498456120957,"[52, 0, 202]",202,a,0.08719841204583645,colour,0.5
22,23,0,1,14,15,665,1897.26266295393,1897.8899061069824,"[19, 0, 235]",235,a,0.115744803333655,colour,0.5
22,23,0,1,14,16,666,1899.9036324466579,1900.90580647951,"[38, 0, 216]",216,a,0.4753519019577652,colour,0.5
22,23,0,1,14,17,667,1902.9213015839923,1903.5298768046778,"[32, 0, 222]",222,a,0.07943254592828453,colour,0.5
22,23,0,1,14,18,668,1905.5482438381296,1906.2259017114993,"[78, 0, 176]",176,l,0.1504434710368514,colour,0.5
22,23,0,1,14,19,669,1908.2418083855882,1908.929843327729,"[99, 0, 155]",155,a,0.17630461673252285,colour,0.5
22,23,0,1,14,20,670,1910.94538017991,1911.6898966545705,"[84, 0, 170]",170,l,0.2178680298384279,colour,0.5
22,23,0,1,14,21,671,1913.7042606316973,1914.2818806958385,"[39, 0, 215]",215,a,0.06580900005064905,colour,0.5
22,23,0,1,14,22,672,1916.298804281745,1917.2978236039635,"[18, 0, 236]",236,a,0.486795507138595,colour,0.5
22,23,0,1,14,23,673,1919.3030684583355,1919.8898911406286,"[47, 0, 207]",207,a,0.06048104399815202,colour,0.5
22,23,0,1,14,24,674,1921.8964419902768,1922.4659157325514,"[12, 0, 242]",242,a,0.05823139287531376,colour,0.5
22,23,0,1,14,25,675,1924.4747524673585,1925.0498759383336,"[11, 0, 243]",243,a,0.04845257708802819,colour,0.5
22,23,0,1,14,26,676,1927.0470225200988,1927.6658881632611,"[41, 0, 213]",213,a,0.10129851195961237,colour,0.5
22,23,0,1,14,27,677,1929.6827605490107,1930.5461005254183,"[9, 0, 245]",245,a,0.35141784767620265,colour,0.5
22,23,0,1,14,28,678,1932.5541420839727,1933.5539632777218,"[81, 0, 173]",173,l,0.4822702102828771,colour,0.5
22,23,0,1,14,29,679,1935.5639295643196,1936.1058860365301,"[89, 0, 165]",165,l,0.015508495271205902,colour,0.5
22,23,0,1,14,30,680,1938.1058683134615,1938.9059364488348,"[86, 0, 168]",168,l,0.2860215986147523,colour,0.5
22,23,0,1,14,31,681,1940.910138791427,1941.4659050987102,"[85, 0, 169]",169,l,0.030211574397981167,colour,0.5
22,23,0,1,14,32,682,1943.4712653500028,1944.1139256260358,"[54, 0, 200]",200,a,0.11603270517662168,colour,0.5
22,23,0,1,14,33,683,1946.1312265167944,1946.8178955991752,"[76, 0, 178]",178,a,0.1634230779018253,colour,0.5
22,23,0,1,14,34,684,1948.8354836041108,1949.4179101714399,"[87, 0, 167]",167,l,0.0708750484045595,colour,0.5
22,23,0,1,14,35,685,1951.4315534094349,1952.3218911723234,"[72, 0, 182]",182,a,0.36367395822890103,colour,0.5
22,23,0,1,14,36,686,1954.3253865602892,1955.0178900852334,"[27, 0, 227]",227,a,0.1803190945647657,colour,0.5
22,23,0,1,14,37,687,1957.0293226626236,1957.6979177333415,"[70, 0, 184]",184,a,0.1418257150799036,colour,0.5
22,23,0,1,14,38,688,1959.7050459617749,1960.7058986395132,"[57, 0, 197]",197,a,0.488984112162143,colour,0.5
22,23,0,1,14,39,689,1962.7094928831793,1963.6099335975014,"[29, 0, 225]",225,a,0.38898489996790886,colour,0.5
22,23,0,1,14,40,690,1965.6169826628175,1966.4338830118068,"[34, 0, 220]",220,a,0.2900309565011412,colour,0.5
22,23,0,1,14,41,691,1968.4489240110852,1969.017910959199,"[96, 0, 158]",158,l,0.04480043798685074,colour,0.5
22,23,0,1,14,42,692,1971.0229852779303,1971.7619851441123,"[61, 0, 193]",193,a,0.21200483641587198,colour,0.5
22,23,0,1,14,43,693,1973.7766728631686,1974.2979397885501,"[0, 0, 254]",254,a,0.010508219478651881,colour,0.5
22,23,0,1,14,44,694,1976.3087040085811,1976.897977991728,"[59, 0, 195]",195,a,0.07753263018094003,colour,0.5
22,23,0,1,14,45,695,1978.9052676972933,1979.4339519347996,"[50, 0, 204]",204,a,0.01727213989943266,colour,0.5
22,23,0,1,14,46,696,1981.4372007749043,1982.0339255472645,"[71, 0, 183]",183,a,0.07042291248217225,colour,0.5
22,23,0,1,14,47,697,1984.0493816607632,1984.8179538883269,"[65, 0, 189]",189,a,0.24119437905028462,colour,0.5
22,23,0,1,14,48,698,1986.8347983111162,1987.362148590386,"[26, 0, 228]",228,a,0.015800335677340627,colour,0.5
22,23,0,1,14,49,699,1989.3622415380087,1990.4339259411208,"[2, 0, 252]",252,a,0.5441982466727495,colour,0.5
22,23,0,1,14,50,700,1992.444763810141,1993.0259718161542,"[97, 0, 157]",157,l,0.054682835238054395,colour,0.5
22,23,0,1,15,1,701,2000.468550959602,2001.0340043164324,"[77, 0, 177]",177,a,0.03766708937473595,colour,0.5
22,23,0,1,15,2,702,2003.047273006523,2004.0259277054574,"[65, 0, 189]",189,a,0.4605121579952538,colour,0.5
22,23,0,1,15,3,703,2006.041146329604,2006.865994501859,"[11, 0, 243]",243,a,0.2953754540067166,colour,0.5
22,23,0,1,15,4,704,2008.8723314926028,2009.441955290502,"[96, 0, 158]",158,l,0.048976786667481065,colour,0.5
22,23,0,1,15,5,705,2011.4617527746595,2012.0419383549597,"[12, 0, 242]",242,a,0.06387127516791224,colour,0.5
22,23,0,1,15,6,706,2014.0561447937507,2014.6339818672277,"[82, 0, 172]",172,l,0.059245941461995244,colour,0.5
22,23,0,1,15,7,707,2016.6414176898543,2017.3299559678417,"[9, 0, 245]",245,a,0.1602175608277321,colour,0.5
22,23,0,1,15,8,708,2019.3458768203855,2020.001967263408,"[15, 0, 239]",239,a,0.13529652706347406,colour,0.5
22,23,0,1,15,9,709,2022.0086240577511,2022.6979957148433,"[87, 0, 167]",167,l,0.17873425595462322,colour,0.5
22,23,0,1,15,10,710,2024.7036832526792,2025.3139843090903,"[98, 0, 156]",156,l,0.08912747236900032,colour,0.5
22,23,0,1,15,11,711,2027.320352019975,2028.2900183531456,"[26, 0, 228]",228,a,0.448747961781919,colour,0.5
22,23,0,1,15,12,712,2030.2956554787233,2031.1699680194724,"[78, 0, 176]",176,a,0.35359700047411025,colour,0.5
22,23,0,1,15,13,713,2033.1761482595466,2033.8099733758718,"[13, 0, 241]",241,a,0.1125176246277988,colour,0.5
22,23,0,1,15,14,714,2035.824957267614,2036.4100111851003,"[92, 0, 162]",162,l,0.06421077088452876,colour,0.5
22,23,0,1,15,15,715,2038.4235862877686,2038.9459626791067,"[84, 0, 170]",170,l,0.011009586276486516,colour,0.5
22,23,0,1,15,16,716,2040.9494108054787,2041.514004001394,"[45, 0, 209]",209,a,0.042729986598715186,colour,0.5
22,23,0,1,15,17,717,2043.5204678107984,2044.0819602529518,"[37, 0, 217]",217,a,0.040923018706962466,colour,0.5
22,23,0,1,15,18,718,2046.0902802611236,2046.6900167777203,"[17, 0, 237]",237,a,0.0790757208596915,colour,0.5
22,23,0,1,15,19,719,2048.7052712419536,2049.2500047259964,"[35, 0, 219]",219,a,0.021608784329146147,colour,0.5
22,23,0,1,15,20,720,2051.260341622401,2052.1300244971644,"[56, 0, 198]",198,a,0.34811111190356314,colour,0.5
22,23,0,1,15,21,721,2054.140688286163,2054.6740049466025,"[74, 0, 180]",180,a,0.010061203734949231,colour,0.5
22,23,0,1,15,22,722,2056.6805227131117,2057.393991477089,"[43, 0, 211]",211,a,0.19204902602359653,colour,0.5
22,23,0,1,15,23,723,2059.4068600190803,2059.938021551119,"[73, 0, 181]",181,a,0.010518459603190422,colour,0.5
22,23,0,1,15,24,724,2061.9450844011735,2062.5140532322694,"[29, 0, 225]",225,a,0.04779721633531153,colour,0.5
22,23,0,1,15,25,725,2064.528412483167,2065.15407749312,"[20, 0, 234]",234,a,0.11491299932822585,colour,0.5
22,23,0,1,15,26,726,2067.157448425656,2067.7859873338602,"[50, 0, 204]",204,a,0.1168235489167273,colour,0.5
22,23,0,1,15,27,727,2069.8018865247723,2070.3460540513042,"[59, 0, 195]",195,a,0.01777232508175075,colour,0.5
22,23,0,1,15,28,728,2072.3554232667666,2072.9700554534793,"[89, 0, 165]",165,l,0.09440028993412852,colour,0.5
22,23,0,1,15,29,729,2074.9778291964903,2075.9300859372597,"[61, 0, 193]",193,a,0.43966979905962944,colour,0.5
22,23,0,1,15,30,730,2077.9354276778176,2078.53002528497,"[95, 0, 159]",159,l,0.07159066759049892,colour,0.5
22,23,0,1,15,31,731,2080.544821705669,2081.0820772254374,"[42, 0, 212]",212,a,0.025509834522381425,colour,0.5
22,23,0,1,15,32,732,2083.092316841474,2083.7860475922935,"[85, 0, 169]",169,l,0.1822879333049059,colour,0.5
22,23,0,1,15,33,733,2085.7950521057937,2086.3620331932325,"[46, 0, 208]",208,a,0.040255842730402946,colour,0.5
22,23,0,1,15,34,734,2088.3768469432835,2088.9140429922845,"[63, 0, 191]",191,a,0.01424346026033163,colour,0.5
22,23,0,1,15,35,735,2090.923718226375,2091.514134758385,"[51, 0, 203]",203,a,0.07852906198240817,colour,0.5
22,23,0,1,15,36,736,2093.5181878332514,2094.1940651263576,"[79, 0, 175]",175,l,0.16450930666178465,colour,0.5
22,23,0,1,15,37,737,2096.205024300143,2097.0660358557943,"[40, 0, 214]",214,a,0.33430679072625935,colour,0.5
22,23,0,1,15,38,738,2099.0849700281397,2099.6260486163665,"[91, 0, 163]",163,l,0.029818515526130795,colour,0.5
22,23,0,1,15,39,739,2101.6327172259334,2102.274025426712,"[4, 0, 250]",250,a,0.11447582975961268,colour,0.5
22,23,0,1,15,40,740,2104.2682027993724,2104.8663174558897,"[1, 0, 253]",253,a,0.08217214234173298,colour,0.5
22,23,0,1,15,41,741,2106.8703232691623,2107.4660539727192,"[72, 0, 182]",182,a,0.08298937417566776,colour,0.5
22,23,0,1,15,42,742,2109.479838995496,2110.1300536417402,"[6, 0, 248]",248,a,0.136825833003968,colour,0.5
22,23,0,1,15,43,743,2112.1380696005654,2112.682078406913,"[8, 0, 246]",246,a,0.017169740051031113,colour,0.5
22,23,0,1,15,44,744,2114.6799445464276,2115.2180491993204,"[5, 0, 249]",249,a,0.024138066917657852,colour,0.5
22,23,0,1,15,45,745,2117.233437571209,2117.786101549398,"[36, 0, 218]",218,a,0.04122549295425415,colour,0.5
22,23,0,1,15,46,746,2119.7976184098516,2120.48205832066,"[71, 0, 183]",183,a,0.17215071711689234,colour,0.5
22,23,0,1,15,47,747,2122.4866998021025,2123.5220290184952,"[44, 0, 210]",210,a,0.5083692390471697,colour,0.5
22,23,0,1,15,48,748,2125.537629673956,2126.090162500972,"[0, 0, 254]",254,a,0.02577883144840598,colour,0.5
22,23,0,1,15,49,749,2128.1000641968567,2128.6421092844103,"[33, 0, 221]",221,a,0.015275731915608048,colour,0.5
22,23,0,1,15,50,750,2130.6416638439987,2131.6180614084005,"[90, 0, 164]",164,l,0.459421596955508,colour,0.5
22,23,0,1,16,1,751,2141.2138307089917,2142.0661705511156,"[52, 0, 202]",202,a,0.3397958299610764,colour,0.5
22,23,0,1,16,2,752,2144.0760620071087,2144.6500598646235,"[72, 0, 182]",182,a,0.04741321597248316,colour,0.5
22,23,0,1,16,3,753,2146.6636219702195,2147.2660768157803,"[23, 0, 231]",231,a,0.09115617605857551,colour,0.5
22,23,0,1,16,4,754,2149.274680393515,2149.9301083865575,"[29, 0, 225]",225,a,0.14367561228573322,colour,0.5
22,23,0,1,16,5,755,2151.9483206381556,2152.8820717115887,"[0, 0, 254]",254,a,0.4071211393456906,colour,0.5
22,23,0,1,16,6,756,2154.8892385370564,2155.4581301740836,"[16, 0, 238]",238,a,0.057740266202017665,colour,0.5
22,23,0,1,16,7,757,2157.467006293591,2158.1141044322867,"[34, 0, 220]",220,a,0.12085574981756508,colour,0.5
22,23,0,1,16,8,758,2160.1267965310253,2160.8101135853212,"[90, 0, 164]",164,l,0.15973273571580648,colour,0.5
22,23,0,1,16,9,759,2162.8274991530925,2163.7781155230477,"[7, 0, 247]",247,a,0.4346624342724681,colour,0.5
22,23,0,1,16,10,760,2165.789963214658,2166.626139200991,"[80, 0, 174]",174,l,0.3244200609624386,colour,0.5
22,23,0,1,16,11,761,2168.629302576417,2169.43415082735,"[8, 0, 246]",246,a,0.28884744737297297,colour,0.5
22,23,0,1,16,12,762,2171.4507691822946,2172.026135656517,"[83, 0, 171]",171,l,0.06476018694229424,colour,0.5
22,23,0,1,16,13,763,2174.0294482996687,2174.818102762336,"[15, 0, 239]",239,a,0.2622242090292275,colour,0.5
22,23,0,1,16,14,764,2176.8293573211413,2177.42610808718,"[60, 0, 194]",194,a,0.08496727142482996,colour,0.5
22,23,0,1,16,15,765,2179.4404689136427,2179.9941706771497,"[85, 0, 169]",169,l,0.04285956220701337,colour,0.5
22,23,0,1,16,16,766,2182.002862476511,2182.650106732268,"[76, 0, 178]",178,a,0.12035359535366297,colour,0.5
22,23,0,1,16,17,767,2184.662772049429,2185.234192575095,"[25, 0, 229]",229,a,0.04799925955012441,colour,0.5
22,23,0,1,16,18,768,2187.2401495040394,2188.0341051411815,"[43, 0, 211]",211,a,0.28260734281502664,colour,0.5
22,23,0,1,16,19,769,2190.0369105101563,2191.2341799719725,"[95, 0, 159]",159,l,0.6703138169832528,colour,0.5
22,23,0,1,16,20,770,2193.2474482681137,2193.7788338991813,"[19, 0, 235]",235,a,0.008250691229477525,colour,0.5
22,23,0,1,16,21,771,2195.795014690375,2196.3381625481416,"[48, 0, 206]",206,a,0.03140099090524018,colour,0.5
22,23,0,1,16,22,772,2198.3431990577374,2198.898154041264,"[74, 0, 180]",180,a,0.029671610798686743,colour,0.5
22,23,0,1,16,23,773,2200.9045410505496,2201.4501429661177,"[69, 0, 185]",185,a,0.034368230728432536,colour,0.5
22,23,0,1,16,24,774,2203.467851094436,2204.0101431238,"[93, 0, 161]",161,l,0.015725110890343785,colour,0.5
22,23,0,1,16,25,775,2206.025831212988,2207.0501457231585,"[68, 0, 186]",186,a,0.5080734603106976,colour,0.5
22,23,0,1,16,26,776,2209.065298968926,2209.682176080765,"[53, 0, 201]",201,a,0.09029562119394541,colour,0.5
22,23,0,1,16,27,777,2211.694109237287,2212.426148653263,"[81, 0, 173]",173,a,0.2203929799143225,colour,0.5
22,23,0,1,16,28,778,2214.428970563924,2215.050138633931,"[82, 0, 172]",172,a,0.09437232674099505,colour,0.5
22,23,0,1,16,29,779,2217.0598245018627,2217.67421959294,"[13, 0, 241]",241,a,0.09412499098107219,colour,0.5
22,23,0,1,16,30,780,2219.682251699269,2220.2501453293953,"[30, 0, 224]",224,a,0.056228289380669594,colour,0.5
22,23,0,1,16,31,781,2222.2672579614446,2222.8261722840834,"[41, 0, 213]",213,a,0.04442470823414624,colour,0.5
22,23,0,1,16,32,782,2224.8386249241885,2225.3542444841005,"[2, 0, 252]",252,a,0.0007475207094103098,colour,0.5
22,23,0,1,16,33,783,2227.3728576716967,2227.986166534014,"[20, 0, 234]",234,a,0.09042519680224359,colour,0.5
22,23,0,1,16,34,784,2229.9936362274457,2230.9221648955718,"[45, 0, 209]",209,a,0.40762368752621114,colour,0.5
22,23,0,1,16,35,785,2232.924535851693,2233.578230132349,"[64, 0, 190]",190,a,0.13062629476189613,colour,0.5
22,23,0,1,16,36,786,2235.592290847795,2236.2421868722886,"[32, 0, 222]",222,a,0.12643261696211994,colour,0.5
22,23,0,1,16,37,787,2238.244171858765,2238.802169700619,"[92, 0, 162]",162,l,0.0345324648078531,colour,0.5
22,23,0,1,16,38,788,2240.8082703833934,2241.4342102981173,"[40, 0, 214]",214,a,0.10809709085151553,colour,0.5
22,23,0,1,16,39,789,2243.4389277920127,2244.010142336134,"[96, 0, 158]",158,l,0.050416689831763506,colour,0.5
22,23,0,1,16,40,790,2246.0284077571705,2246.666220963467,"[4, 0, 250]",250,a,0.11617567110806704,colour,0.5
22,23,0,1,16,41,791,2248.6805136546027,2249.34617102379,"[78, 0, 176]",176,a,0.1451915274374187,colour,0.5
22,23,0,1,16,42,792,2251.361245894106,2251.92220270494,"[99, 0, 155]",155,l,0.037205895176157355,colour,0.5
22,23,0,1,16,43,793,2253.935243751621,2254.538216111483,"[71, 0, 183]",183,a,0.07950265076942742,colour,0.5
22,23,0,1,16,44,794,2256.546795664355,2257.0902172457427,"[44, 0, 210]",210,a,0.026153773535043,colour,0.5
22,23,0,1,16,45,795,2259.1042082502972,2259.666197726736,"[21, 0, 233]",233,a,0.038711176719516516,colour,0.5
22,23,0,1,16,46,796,2261.673891125014,2262.6181748362724,"[18, 0, 236]",236,a,0.42316250898875296,colour,0.5
22,23,0,1,16,47,797,2264.6288661945146,2265.1942951327655,"[65, 0, 189]",189,a,0.053783683804795146,colour,0.5
22,23,0,1,16,48,798,2267.2005947080906,2268.338209416019,"[61, 0, 193]",193,a,0.6162520775105804,colour,0.5
22,23,0,1,16,49,799,2270.3465739288367,2270.9301682510413,"[79, 0, 175]",175,l,0.0631619575433433,colour,0.5
22,23,0,1,16,50,800,2272.929356139619,2273.8502166154794,"[17, 0, 237]",237,a,0.39978889818303287,colour,0.5
