id,age,condition,counterbalance,block,trialinblock,trial,tstart,tend,trialstim,trialintensity,response,RT,trialtype,colourfreq
14,24,1,2,Practice,1,NA,6.301328539848328e-06,1.4540247903205454,"[93, 0, 161]",161,l,0.8974732421338558,colour,0.5
14,24,1,2,Practice,2,NA,3.4719369024969637,6.510005261749029,"[28, 0, 226]",226,a,2.5161780091002584,colour,0.5
14,24,1,2,Practice,3,NA,8.519171237945557,9.47799779754132,"[44, 0, 210]",210,a,0.43669044971466064,colour,0.5
14,24,1,2,Practice,4,NA,11.488146025221795,12.16596942814067,"[85, 0, 169]",169,l,0.15590587724000216,colour,0.5
14,24,1,2,Practice,5,NA,14.176189335994422,15.381994309835136,"[14, 0, 240]",240,a,0.6847444572485983,colour,0.5
14,24,1,2,Practice,6,NA,17.39488449273631,18.390003954060376,"[64, 0, 190]",190,a,0.47297941287979484,colour,0.5
14,24,1,2,Practice,7,NA,20.39509992627427,20.99802092416212,"[97, 0, 157]",157,l,0.08107239520177245,colour,0.5
14,24,1,2,Practice,8,NA,23.004657621961087,23.893998339306563,"[91, 0, 163]",163,l,0.36739837983623147,colour,0.5
14,24,1,2,Practice,9,NA,25.911197590641677,26.925982173066586,"[7, 0, 247]",247,a,0.4926772229373455,colour,0.5
14,24,1,2,Practice,10,NA,28.942684784531593,29.942050692625344,"[12, 0, 242]",242,a,0.4772561858408153,colour,0.5
14,24,1,2,1,1,1,6.255571344401687,6.991993505973369,"[78, 0, 176]",176,l,0.21349008893594146,colour,0.5
14,24,1,2,1,2,2,9.006627245340496,9.647969094105065,"[85, 0, 169]",169,l,0.1192025882191956,colour,0.5
14,24,1,2,1,3,3,11.65376965655014,12.511914626695216,"[44, 0, 210]",210,a,0.3359529338777065,colour,0.5
14,24,1,2,1,4,4,14.528889779467136,15.423957017250359,"[92, 0, 162]",162,l,0.37279210006818175,colour,0.5
14,24,1,2,1,5,5,17.42316184192896,18.39995644055307,"[2, 0, 252]",252,a,0.454660851508379,colour,0.5
14,24,1,2,1,6,6,20.407720718998462,21.311956295743585,"[11, 0, 243]",243,a,0.3819777686148882,colour,0.5
14,24,1,2,1,7,7,23.329838869627565,24.07997868489474,"[76, 0, 178]",178,l,0.22796944063156843,colour,0.5
14,24,1,2,1,8,8,26.09566635545343,26.77594381198287,"[7, 0, 247]",247,a,0.15821420773863792,colour,0.5
14,24,1,2,1,9,9,28.783308730926365,29.423948746174574,"[79, 0, 175]",175,l,0.11835069907829165,colour,0.5
14,24,1,2,1,10,10,31.439843580126762,32.19998038653284,"[84, 0, 170]",170,l,0.23799636401236057,colour,0.5
14,24,1,2,1,11,11,34.20568681973964,34.96804491709918,"[47, 0, 207]",207,a,0.24019559938460588,colour,0.5
14,24,1,2,1,12,12,36.9808449097909,37.73597278352827,"[82, 0, 172]",172,l,0.23296340694651008,colour,0.5
14,24,1,2,1,13,13,39.74673029081896,40.65596377244219,"[4, 0, 250]",250,a,0.3870749222114682,colour,0.5
14,24,1,2,1,14,14,42.668718866538256,43.487934530247,"[22, 0, 232]",232,a,0.296956280246377,colour,0.5
14,24,1,2,1,15,15,45.499193797353655,46.20807982748374,"[80, 0, 174]",174,l,0.1873229662887752,colour,0.5
14,24,1,2,1,16,16,48.21811620332301,48.95195394800976,"[74, 0, 180]",180,l,0.21242512948811054,colour,0.5
14,24,1,2,1,17,17,50.96842694794759,51.7599394894205,"[97, 0, 157]",157,l,0.2694485057145357,colour,0.5
14,24,1,2,1,18,18,53.76549901859835,54.44791545206681,"[57, 0, 197]",197,a,0.16026968974620104,colour,0.5
14,24,1,2,1,19,19,56.45326033513993,57.19995833095163,"[77, 0, 177]",177,l,0.2246182058006525,colour,0.5
14,24,1,2,1,20,20,59.21902598720044,59.84792978828773,"[46, 0, 208]",208,a,0.10670034307986498,colour,0.5
14,24,1,2,1,21,21,61.85988458711654,62.57598587498069,"[3, 0, 251]",251,a,0.19398959632962942,colour,0.5
14,24,1,2,1,22,22,64.59451553784311,65.21594177978113,"[16, 0, 238]",238,a,0.09957094397395849,colour,0.5
14,24,1,2,1,23,23,67.23524692561477,67.83199084363878,"[45, 0, 209]",209,a,0.07458299584686756,colour,0.5
14,24,1,2,1,24,24,69.84992619324476,70.99992162454873,"[32, 0, 222]",222,a,0.6276194690726697,colour,0.5
14,24,1,2,1,25,25,73.00658943597227,73.75993555085734,"[27, 0, 227]",227,a,0.23180707544088364,colour,0.5
14,24,1,2,1,26,26,75.77240313729271,76.34393540257588,"[83, 0, 171]",171,l,0.04943317687138915,colour,0.5
14,24,1,2,1,27,27,78.35078044468537,79.28793917736039,"[86, 0, 168]",168,l,0.4156464743427932,colour,0.5
14,24,1,2,1,28,28,81.304819019977,81.96791888633743,"[20, 0, 234]",234,a,0.1409322489053011,colour,0.5
14,24,1,2,1,29,29,83.97688518278301,84.65593462763354,"[89, 0, 165]",165,l,0.156941297929734,colour,0.5
14,24,1,2,1,30,30,86.66462247492746,87.42390621080995,"[48, 0, 206]",206,a,0.23706491850316525,colour,0.5
14,24,1,2,1,31,31,89.4304582318291,90.01591491978616,"[6, 0, 248]",248,a,0.06322211679071188,colour,0.5
14,24,1,2,1,32,32,92.02445507468656,92.88794295815751,"[94, 0, 160]",160,l,0.3413750105537474,colour,0.5
14,24,1,2,1,33,33,94.89962836680934,96.01589955948293,"[72, 0, 182]",182,l,0.5943780858069658,colour,0.5
14,24,1,2,1,34,34,98.02488869894296,98.75990876927972,"[26, 0, 228]",228,a,0.21293279714882374,colour,0.5
14,24,1,2,1,35,35,100.7751061017625,101.46389771951362,"[21, 0, 233]",233,a,0.16663187695667148,colour,0.5
14,24,1,2,1,36,36,103.47840700345114,104.35992633504793,"[60, 0, 194]",194,a,0.3595226430334151,colour,0.5
14,24,1,2,1,37,37,106.36932152928784,106.89594984613359,"[18, 0, 236]",236,a,0.00458042835816741,colour,0.5
14,24,1,2,1,38,38,108.91635854775086,109.5119390450418,"[50, 0, 204]",204,a,0.07341248588636518,colour,0.5
14,24,1,2,1,39,39,111.52622462436557,112.05589421931654,"[14, 0, 240]",240,a,0.0076461248099803925,colour,0.5
14,24,1,2,1,40,40,114.07321280566975,114.95190786803141,"[65, 0, 189]",189,a,0.3565372908487916,colour,0.5
14,24,1,2,1,41,41,116.96405683318153,117.54387522302568,"[37, 0, 217]",217,a,0.057655497919768095,colour,0.5
14,24,1,2,1,42,42,119.5579548208043,120.2479327027686,"[15, 0, 239]",239,a,0.16778190713375807,colour,0.5
14,24,1,2,1,43,43,122.26139908237383,123.04787591006607,"[61, 0, 193]",193,a,0.2645041639916599,colour,0.5
14,24,1,2,1,44,44,125.05857591610402,125.83990123914555,"[62, 0, 192]",192,a,0.2592041795141995,colour,0.5
14,24,1,2,1,45,45,127.84675849042833,128.415924529545,"[33, 0, 221]",221,a,0.046916501596570015,colour,0.5
14,24,1,2,1,46,46,130.42517872713506,131.68789483048022,"[53, 0, 201]",201,a,0.7394516249187291,colour,0.5
14,24,1,2,1,47,47,133.70806761831045,134.52790792193264,"[5, 0, 249]",249,a,0.2976809567771852,colour,0.5
14,24,1,2,1,48,48,136.5364520153962,137.2398828859441,"[51, 0, 203]",203,a,0.181240804027766,colour,0.5
14,24,1,2,1,49,49,139.25541853206232,140.04789875308052,"[19, 0, 235]",235,a,0.27033899119123816,colour,0.5
14,24,1,2,1,50,50,142.06813022401184,142.80789377493784,"[75, 0, 179]",179,l,0.21767115779221058,colour,0.5
14,24,1,2,2,1,51,151.4575162343681,152.07988179894164,"[29, 0, 225]",225,a,0.09932676004245877,colour,0.5
14,24,1,2,2,2,52,154.09928737487644,155.15187013801187,"[44, 0, 210]",210,a,0.5305069112218916,colour,0.5
14,24,1,2,2,3,53,157.1620010365732,157.95988442981616,"[4, 0, 250]",250,a,0.27615097537636757,colour,0.5
14,24,1,2,2,4,54,159.9746646792628,160.64786984492093,"[50, 0, 204]",204,a,0.1510804770514369,colour,0.5
14,24,1,2,2,5,55,162.6624244209379,163.6078322562389,"[9, 0, 245]",245,a,0.4234588020481169,colour,0.5
14,24,1,2,2,6,56,165.61581669468433,166.54387482907623,"[62, 0, 192]",192,l,0.4059948860667646,colour,0.5
14,24,1,2,2,7,57,168.5534236235544,169.44790284894407,"[70, 0, 184]",184,l,0.37227458599954844,colour,0.5
14,24,1,2,2,8,58,171.4599249958992,172.2718493901193,"[92, 0, 162]",162,l,0.2897548074834049,colour,0.5
14,24,1,2,2,9,59,174.2882479527034,175.04789363313466,"[37, 0, 217]",217,a,0.2374489181675017,colour,0.5
14,24,1,2,2,10,60,177.0541160046123,177.9918580232188,"[67, 0, 187]",187,l,0.4155708560720086,colour,0.5
14,24,1,2,2,11,61,180.00752166938037,180.84787780046463,"[11, 0, 243]",243,a,0.3182739783078432,colour,0.5
14,24,1,2,2,12,62,182.86563276825473,183.79189535975456,"[53, 0, 201]",201,a,0.40411466592922807,colour,0.5
14,24,1,2,2,13,63,185.80277614109218,186.3518406781368,"[7, 0, 247]",247,a,0.026897707022726536,colour,0.5
14,24,1,2,2,14,64,188.365509100724,189.11986661190167,"[69, 0, 185]",185,l,0.23217571480199695,colour,0.5
14,24,1,2,2,15,65,191.13134446367621,191.87984076002613,"[40, 0, 214]",214,a,0.2263042600825429,colour,0.5
14,24,1,2,2,16,66,193.897159346845,194.68787986412644,"[73, 0, 181]",181,l,0.26850721379742026,colour,0.5
14,24,1,2,2,17,67,196.69437714060768,197.48786757607013,"[66, 0, 188]",188,l,0.27146302722394466,colour,0.5
14,24,1,2,2,18,68,199.5070935585536,200.0878650555387,"[41, 0, 213]",213,a,0.058552679140120745,colour,0.5
14,24,1,2,2,19,69,202.10105534922332,202.735871959012,"[45, 0, 209]",209,a,0.11268128734081984,colour,0.5
14,24,1,2,2,20,70,204.74174262629822,205.33586589386687,"[49, 0, 205]",205,a,0.07190799480304122,colour,0.5
14,24,1,2,2,21,71,207.34235214209184,208.35186509648338,"[83, 0, 171]",171,l,0.487365422770381,colour,0.5
14,24,1,2,2,22,72,210.35814536362886,211.2158535583876,"[48, 0, 206]",206,a,0.33578082313761115,colour,0.5
14,24,1,2,2,23,73,213.23333047144115,213.80782682122663,"[28, 0, 226]",226,a,0.052952978294342756,colour,0.5
14,24,1,2,2,24,74,215.82741002179682,216.57583818258718,"[68, 0, 186]",186,l,0.22639523819088936,colour,0.5
14,24,1,2,2,25,75,218.59324459685013,219.31186571111903,"[80, 0, 174]",174,l,0.19644286250695586,colour,0.5
14,24,1,2,2,26,76,221.32784167677164,222.19978897739202,"[95, 0, 159]",159,l,0.350033319555223,colour,0.5
14,24,1,2,2,27,77,224.21865459065884,224.95184997282922,"[43, 0, 211]",211,a,0.21106911823153496,colour,0.5
14,24,1,2,2,28,78,226.96887947665527,227.71184302540496,"[14, 0, 240]",240,a,0.2208101092837751,colour,0.5
14,24,1,2,2,29,79,229.7066871887073,230.3038588236086,"[8, 0, 246]",246,a,0.07489807298406959,colour,0.5
14,24,1,2,2,30,80,232.316282692831,233.13578231958672,"[2, 0, 252]",252,a,0.29728041496127844,colour,0.5
14,24,1,2,2,31,81,235.14463164377958,235.9358397424221,"[46, 0, 208]",208,a,0.2692259824834764,colour,0.5
14,24,1,2,2,32,82,237.94184234784916,238.6798367430456,"[60, 0, 194]",194,a,0.2158799464814365,colour,0.5
14,24,1,2,2,33,83,240.6919711357914,241.223851387389,"[93, 0, 161]",161,l,0.009676400106400251,colour,0.5
14,24,1,2,2,34,84,243.2388762156479,243.98382553551346,"[72, 0, 182]",182,l,0.22269308706745505,colour,0.5
14,24,1,2,2,35,85,245.98932913830504,246.59184211166576,"[97, 0, 157]",157,l,0.08044814923778176,colour,0.5
14,24,1,2,2,36,86,248.59895024308935,249.15981440385804,"[5, 0, 249]",249,a,0.038853687699884176,colour,0.5
14,24,1,2,2,37,87,251.17722160601988,251.87183111533523,"[57, 0, 197]",197,a,0.17277587298303843,colour,0.5
14,24,1,2,2,38,88,253.88042207667604,254.56784507958218,"[15, 0, 239]",239,a,0.16516519477590919,colour,0.5
14,24,1,2,2,39,89,256.574682245031,257.3918097377755,"[84, 0, 170]",170,l,0.29509457061067224,colour,0.5
14,24,1,2,2,40,90,259.4029654231854,260.07181780366227,"[6, 0, 248]",248,a,0.14678795030340552,colour,0.5
14,24,1,2,2,41,91,262.09070035256445,262.8478214805946,"[56, 0, 198]",198,a,0.2350177075713873,colour,0.5
14,24,1,2,2,42,92,264.85652350634336,265.58380883652717,"[20, 0, 234]",234,a,0.20517600188031793,colour,0.5
14,24,1,2,2,43,93,267.5910426042974,268.3278298615478,"[54, 0, 200]",200,a,0.21460073487833142,colour,0.5
14,24,1,2,2,44,94,270.3413379890844,271.05581426853314,"[79, 0, 175]",175,l,0.19233268639072776,colour,0.5
14,24,1,2,2,45,95,273.07590356096625,273.80783981783316,"[26, 0, 228]",228,a,0.20976863894611597,colour,0.5
14,24,1,2,2,46,96,275.82679010834545,276.5037895850837,"[59, 0, 195]",195,a,0.15510282525792718,colour,0.5
14,24,1,2,2,47,97,278.51451282808557,279.40783808520064,"[32, 0, 222]",222,a,0.37114109797403216,colour,0.5
14,24,1,2,2,48,98,281.4209980526939,282.1038142400794,"[61, 0, 193]",193,a,0.16063557285815477,colour,0.5
14,24,1,2,2,49,99,284.10869517270476,284.6638174536638,"[0, 0, 254]",254,a,0.03293654648587108,colour,0.5
14,24,1,2,2,50,100,286.6714690923691,287.26384486537427,"[96, 0, 158]",158,l,0.07071109674870968,colour,0.5
14,24,1,2,3,1,101,296.046419467777,296.91177733195946,"[97, 0, 157]",157,l,0.34237774228677154,colour,0.5
14,24,1,2,3,2,102,298.9224115656689,299.471825838089,"[98, 0, 156]",156,l,0.027200968470424414,colour,0.5
14,24,1,2,3,3,103,301.4852130548097,302.0637735007331,"[67, 0, 187]",187,a,0.05653382511809468,colour,0.5
14,24,1,2,3,4,104,304.07910592248663,304.78376086615026,"[99, 0, 155]",155,l,0.18274056911468506,colour,0.5
14,24,1,2,3,5,105,306.7976868641563,307.36781349312514,"[51, 0, 203]",203,a,0.04792080819606781,colour,0.5
14,24,1,2,3,6,106,309.37596531631425,309.98377630487084,"[41, 0, 213]",213,a,0.0856614881195128,colour,0.5
14,24,1,2,3,7,107,312.0011697220616,312.98379757255316,"[45, 0, 209]",209,a,0.4696892239153385,colour,0.5
14,24,1,2,3,8,108,314.9921522261575,315.66377688758075,"[89, 0, 165]",165,l,0.14951139455661178,colour,0.5
14,24,1,2,3,9,109,317.679841469042,318.2637660964392,"[42, 0, 212]",212,a,0.06222450500354171,colour,0.5
14,24,1,2,3,10,110,320.273846976459,321.135772079695,"[13, 0, 241]",241,a,0.3397842668928206,colour,0.5
14,24,1,2,3,11,111,323.14909588731825,323.7997616440989,"[17, 0, 237]",237,a,0.12587945768609643,colour,0.5
14,24,1,2,3,12,112,325.8082088516094,326.33578436775133,"[66, 0, 188]",188,a,0.005393720231950283,colour,0.5
14,24,1,2,3,13,113,328.35526004852727,328.8958025476895,"[31, 0, 223]",223,a,0.01908695511519909,colour,0.5
14,24,1,2,3,14,114,330.90251604514197,331.4957657624036,"[69, 0, 185]",185,a,0.07131565036252141,colour,0.5
14,24,1,2,3,15,115,333.5119418022223,334.18378859292716,"[90, 0, 164]",164,l,0.14991390518844128,colour,0.5
14,24,1,2,3,16,116,336.1997235985473,337.12779157981277,"[49, 0, 205]",205,a,0.4063001167960465,colour,0.5
14,24,1,2,3,17,117,339.13737857714295,339.66376664768904,"[52, 0, 202]",202,a,0.004251566715538502,colour,0.5
14,24,1,2,3,18,118,341.6844514356926,342.3597861258313,"[39, 0, 215]",215,a,0.1537535092793405,colour,0.5
14,24,1,2,3,19,119,344.3722162968479,345.23975134128705,"[37, 0, 217]",217,a,0.34540208522230387,colour,0.5
14,24,1,2,3,20,120,347.24740297999233,347.9677617419511,"[91, 0, 163]",163,l,0.207462671212852,colour,0.5
14,24,1,2,3,21,121,349.98836500383914,350.5437873955816,"[7, 0, 247]",247,a,0.0332539863884449,colour,0.5
14,24,1,2,3,22,122,352.55109323747456,353.29576332028955,"[50, 0, 204]",204,a,0.222629283554852,colour,0.5
14,24,1,2,3,23,123,355.3012606217526,356.0957317338325,"[44, 0, 210]",210,a,0.28156635630875826,colour,0.5
14,24,1,2,3,24,124,358.1047425349243,358.6317576081492,"[87, 0, 167]",167,l,0.004897473845630884,colour,0.5
14,24,1,2,3,25,125,360.64244186040014,361.18378307903185,"[68, 0, 186]",186,a,0.019254733342677355,colour,0.5
14,24,1,2,3,26,126,363.18954977113754,363.82375513156876,"[74, 0, 180]",180,l,0.11210902919992805,colour,0.5
14,24,1,2,3,27,127,365.83029651874676,366.647762324661,"[20, 0, 234]",234,a,0.29530842835083604,colour,0.5
14,24,1,2,3,28,128,368.6587226628326,369.22387501830235,"[57, 0, 197]",197,a,0.043031211476773024,colour,0.5
14,24,1,2,3,29,129,371.2370704319328,372.27173478063196,"[70, 0, 184]",184,a,0.5125093339011073,colour,0.5
14,24,1,2,3,30,130,374.28403104422614,375.0237642689608,"[21, 0, 233]",233,a,0.21756166825070977,colour,0.5
14,24,1,2,3,31,131,377.0343169765547,377.87972221244127,"[3, 0, 251]",251,a,0.32330772280693054,colour,0.5
14,24,1,2,3,32,132,379.8939215396531,380.56776985526085,"[25, 0, 229]",229,a,0.15179018722847104,colour,0.5
14,24,1,2,3,33,133,382.5816596192308,383.2957578068599,"[6, 0, 248]",248,a,0.19202509289607406,colour,0.5
14,24,1,2,3,34,134,385.3163268035278,386.11972522130236,"[12, 0, 242]",242,a,0.2813249290920794,colour,0.5
14,24,1,2,3,35,135,388.128952243831,388.895768282935,"[53, 0, 201]",201,a,0.2449185997247696,colour,0.5
14,24,1,2,3,36,136,390.9104016283527,391.46376775065437,"[5, 0, 249]",249,a,0.031226467806845903,colour,0.5
14,24,1,2,3,37,137,393.4731298619881,394.1917348280549,"[55, 0, 199]",199,a,0.19643065333366394,colour,0.5
14,24,1,2,3,38,138,396.2077423017472,396.887750367634,"[32, 0, 222]",222,a,0.16760506993159652,colour,0.5
14,24,1,2,3,39,139,398.90329507226124,399.7516797524877,"[43, 0, 211]",211,a,0.32626905012875795,colour,0.5
14,24,1,2,3,40,140,401.7628890015185,402.3997264346108,"[8, 0, 246]",246,a,0.12699876818805933,colour,0.5
14,24,1,2,3,41,141,404.3947052927688,404.9757603588514,"[71, 0, 183]",183,l,0.05915329419076443,colour,0.5
14,24,1,2,3,42,142,406.98861706489697,407.6717207599431,"[27, 0, 227]",227,a,0.16098452033475041,colour,0.5
14,24,1,2,3,43,143,409.6919266311452,410.3997319485061,"[59, 0, 195]",195,a,0.1856357306241989,colour,0.5
14,24,1,2,3,44,144,412.4109155968763,413.00771937984973,"[10, 0, 244]",244,a,0.07480748789384961,colour,0.5
14,24,1,2,3,45,145,415.0204736860469,415.5677312584594,"[62, 0, 192]",192,a,0.025071837473660707,colour,0.5
14,24,1,2,3,46,146,417.58306210441515,418.2397576426156,"[15, 0, 239]",239,a,0.1345027140341699,colour,0.5
14,24,1,2,3,47,147,420.25525823654607,421.1277065090835,"[88, 0, 166]",166,l,0.35037202714011073,colour,0.5
14,24,1,2,3,48,148,423.146077058278,423.7997198966332,"[29, 0, 225]",225,a,0.13149373140186071,colour,0.5
14,24,1,2,3,49,149,425.8189545436762,426.72767563164234,"[82, 0, 172]",172,l,0.3873332850635052,colour,0.5
14,24,1,2,3,50,150,428.7402999685146,429.4477023812942,"[80, 0, 174]",174,l,0.18527457350865006,colour,0.5
14,24,1,2,4,1,151,437.6595812472515,438.22375371400267,"[84, 0, 170]",170,l,0.04129789583384991,colour,0.5
14,24,1,2,4,2,152,440.2386706280522,440.95972570963204,"[60, 0, 194]",194,a,0.19894102681428194,colour,0.5
14,24,1,2,4,3,153,442.97330394154415,443.83967714058235,"[87, 0, 167]",167,l,0.34415753185749054,colour,0.5
14,24,1,2,4,4,154,445.8484831415117,446.56772535061464,"[73, 0, 181]",181,l,0.19701708992943168,colour,0.5
14,24,1,2,4,5,155,448.5831467816606,449.22369266767055,"[12, 0, 242]",242,a,0.11841607792302966,colour,0.5
14,24,1,2,4,6,156,451.2395571754314,451.97569655580446,"[98, 0, 156]",156,l,0.21396388579159975,colour,0.5
14,24,1,2,4,7,157,453.98978599952534,454.6397077818401,"[96, 0, 158]",158,l,0.12774825654923916,colour,0.5
14,24,1,2,4,8,158,456.64619206124917,457.1997109958902,"[41, 0, 213]",213,a,0.031911366153508425,colour,0.5
14,24,1,2,4,9,159,459.2089202948846,459.7677270048298,"[23, 0, 231]",231,a,0.036681233905255795,colour,0.5
14,24,1,2,4,10,160,461.77488988032565,462.36768313031644,"[56, 0, 198]",198,a,0.0706780138425529,colour,0.5
14,24,1,2,4,11,161,464.3844771143049,465.02367289643735,"[45, 0, 209]",209,a,0.11716561671346426,colour,0.5
14,24,1,2,4,12,162,467.04088514484465,467.99168669991195,"[8, 0, 246]",246,a,0.4286682019010186,colour,0.5
14,24,1,2,4,13,163,470.009920978453,470.75968664046377,"[21, 0, 233]",233,a,0.22760316403582692,colour,0.5
14,24,1,2,4,14,164,472.775711836759,473.44769371673465,"[71, 0, 183]",183,a,0.14981741271913052,colour,0.5
14,24,1,2,4,15,165,475.46343416301534,476.3276707478799,"[19, 0, 235]",235,a,0.3420650288462639,colour,0.5
14,24,1,2,4,16,166,478.3386326613836,478.8717224141583,"[20, 0, 234]",234,a,0.010873298160731792,colour,0.5
14,24,1,2,4,17,167,480.8857358456589,481.4157610833645,"[1, 0, 253]",253,a,0.007900549098849297,colour,0.5
14,24,1,2,4,18,168,483.4485054332763,484.39969807770103,"[31, 0, 223]",223,a,0.4290120298974216,colour,0.5
14,24,1,2,4,19,169,486.4174372917041,487.29562862496823,"[27, 0, 227]",227,a,0.35598472505807877,colour,0.5
14,24,1,2,4,20,170,489.31248523062095,489.9036751338281,"[92, 0, 162]",162,l,0.06914910394698381,colour,0.5
14,24,1,2,4,21,171,491.922079553362,492.4636960704811,"[83, 0, 171]",171,l,0.019444173201918602,colour,0.5
14,24,1,2,4,22,172,494.46922921203077,495.0001543876715,"[88, 0, 166]",166,l,0.008791428990662098,colour,0.5
14,24,1,2,4,23,173,497.0319184549153,497.93564045615494,"[95, 0, 159]",159,l,0.38157683284953237,colour,0.5
14,24,1,2,4,24,174,499.9539956455119,500.5676997504197,"[38, 0, 216]",216,a,0.092262739315629,colour,0.5
14,24,1,2,4,25,175,502.57923077140003,503.27967865299433,"[4, 0, 250]",250,a,0.17850633151829243,colour,0.5
14,24,1,2,4,26,176,505.29817680828273,505.96766367414966,"[85, 0, 169]",169,l,0.14730900805443525,colour,0.5
14,24,1,2,4,27,177,507.9858908634633,508.8316521360539,"[29, 0, 225]",225,a,0.32353615341708064,colour,0.5
14,24,1,2,4,28,178,510.84553835587576,511.50365252699703,"[32, 0, 222]",222,a,0.13625808572396636,colour,0.5
14,24,1,2,4,29,179,513.517494241707,514.2716792486608,"[25, 0, 229]",229,a,0.2319488599896431,colour,0.5
14,24,1,2,4,30,180,516.2833406324498,517.0157014550641,"[10, 0, 244]",244,a,0.21015027584508061,colour,0.5
14,24,1,2,4,31,181,519.0335903307423,519.6476378696971,"[40, 0, 214]",214,a,0.09179642610251904,colour,0.5
14,24,1,2,4,32,182,521.6588321523741,522.2636849642731,"[70, 0, 184]",184,l,0.0826265113428235,colour,0.5
14,24,1,2,4,33,183,524.2840420720167,524.9516396592371,"[9, 0, 245]",245,a,0.14534174790605903,colour,0.5
14,24,1,2,4,34,184,526.9716879921034,527.543656244874,"[93, 0, 161]",161,l,0.049757312051951885,colour,0.5
14,24,1,2,4,35,185,529.5500003150664,530.2156857801601,"[22, 0, 232]",232,a,0.14339969400316477,colour,0.5
14,24,1,2,4,36,186,532.2221436714754,532.7836793400347,"[6, 0, 248]",248,a,0.039386955089867115,colour,0.5
14,24,1,2,4,37,187,534.8004217301495,535.735645103734,"[81, 0, 173]",173,l,0.4129643836058676,colour,0.5
14,24,1,2,4,38,188,537.7540388898924,538.7436389941722,"[90, 0, 164]",164,l,0.46746123768389225,colour,0.5
14,24,1,2,4,39,189,540.7542393575422,541.3676433516666,"[54, 0, 200]",200,a,0.09128678916022182,colour,0.5
14,24,1,2,4,40,190,543.3794736955315,544.2556575965136,"[67, 0, 187]",187,a,0.35403636936098337,colour,0.5
14,24,1,2,4,41,191,546.2703957045451,546.8636690527201,"[91, 0, 163]",163,l,0.07112187799066305,colour,0.5
14,24,1,2,4,42,192,548.8707582792267,549.5436436417513,"[58, 0, 196]",196,a,0.150807935744524,colour,0.5
14,24,1,2,4,43,193,551.558551103808,552.2076895264909,"[2, 0, 252]",252,a,0.12701452197507024,colour,0.5
14,24,1,2,4,44,194,554.215015060734,555.0796179221943,"[48, 0, 206]",206,a,0.34244863456115127,colour,0.5
14,24,1,2,4,45,195,557.0902998112142,557.7836312907748,"[80, 0, 174]",174,l,0.17117646522819996,colour,0.5
14,24,1,2,4,46,196,559.7935873218812,560.3277164339088,"[3, 0, 251]",251,a,0.011609002482146025,colour,0.5
14,24,1,2,4,47,197,562.3412631582469,563.0476214857772,"[78, 0, 176]",176,l,0.18418913427740335,colour,0.5
14,24,1,2,4,48,198,565.0601796563715,565.6556676002219,"[62, 0, 192]",192,a,0.07329984614625573,colour,0.5
14,24,1,2,4,49,199,567.6697716163471,568.2000753032044,"[52, 0, 202]",202,a,0.008012795355170965,colour,0.5
14,24,1,2,4,50,200,570.2325077271089,570.7516364296898,"[39, 0, 215]",215,a,0.004621781874448061,colour,0.5
14,24,1,2,5,1,201,579.2872755471617,579.9436497068964,"[86, 0, 168]",168,l,0.13338182866573334,colour,0.4
14,24,1,2,5,2,202,581.9583547320217,582.5036418931559,"[62, 0, 192]",192,a,0.023892662953585386,colour,0.4
14,24,1,2,5,3,203,584.507920241449,585.0476407841779,"[88, 0, 166]",166,l,0.016086243093013763,colour,0.4
14,24,1,2,5,4,204,587.0563081512228,587.9836116773076,"[49, 0, 205]",205,a,0.40507013630121946,colour,0.4
14,24,1,2,5,5,205,589.9940801016055,590.6796283982694,"[74, 0, 180]",180,l,0.16413962002843618,colour,0.4
14,24,1,2,5,6,206,592.6973825786263,593.2956380774267,"[76, 0, 178]",178,a,0.0760457394644618,colour,0.4
14,24,1,2,5,7,207,595.3069623294286,596.0396145978011,"[71, 0, 183]",183,a,0.21037240466102958,colour,0.4
14,24,1,2,5,8,208,598.0571785508655,598.7276023761369,"[0, 0, 254]",254,a,0.14822391234338284,colour,0.4
14,24,1,2,5,9,209,600.7356829131022,601.6716096955352,"[25, 0, 229]",229,a,0.4137808266095817,colour,0.4
14,24,1,2,5,10,210,603.6890539187007,604.6556144310161,"[26, 0, 228]",228,a,0.444325546734035,colour,0.4
14,24,1,2,5,11,211,606.6736667524092,607.3116077417508,"[98, 0, 156]",156,l,0.11643188167363405,colour,0.4
14,24,1,2,5,12,212,609.3209367701784,610.3676382317208,"[73, 0, 181]",181,a,0.5245299055241048,colour,0.4
14,24,1,2,5,13,213,612.3836071086116,613.1436312748119,"[78, 0, 176]",176,l,0.23785221623256803,colour,0.4
14,24,1,2,5,14,214,615.1495125759393,615.7916007628664,"[40, 0, 214]",214,a,0.11997216288000345,colour,0.4
14,24,1,2,5,15,215,617.8059036713094,618.8396294852719,"[93, 0, 161]",161,l,0.5116405100561678,colour,0.4
14,24,1,2,5,16,216,620.8438613596372,621.4635830367915,"[72, 0, 182]",182,l,0.09770805295556784,colour,0.4
14,24,1,2,5,17,217,623.4690070827492,624.3195854849182,"[24, 0, 230]",230,a,0.32843914115801454,colour,0.4
14,24,1,2,5,18,218,626.328414328862,627.1436399393715,"[67, 0, 187]",187,a,0.29326397413387895,colour,0.4
14,24,1,2,5,19,219,629.1568995499983,629.8476229822263,"[2, 0, 252]",252,a,0.1690615126863122,colour,0.4
14,24,1,2,5,20,220,631.8602839470841,632.4156291452236,"[64, 0, 190]",190,a,0.03313780203461647,colour,0.4
14,24,1,2,5,21,221,634.4229318359867,635.1757033299655,"[6, 0, 248]",248,a,0.23107058368623257,colour,0.4
14,24,1,2,5,22,222,637.1887762574479,637.8240075870417,"[81, 0, 173]",173,l,0.11356625938788056,colour,0.4
14,24,1,2,5,23,223,639.8296667588875,640.4076021714136,"[69, 0, 185]",185,l,0.05576346255838871,colour,0.4
14,24,1,2,5,24,224,642.4236163403839,643.375580528751,"[61, 0, 193]",193,a,0.4298725831322372,colour,0.4
14,24,1,2,5,25,225,645.3927463032305,645.9596099192277,"[9, 0, 245]",245,a,0.04483817657455802,colour,0.4
14,24,1,2,5,26,226,647.971002700273,648.5996032394469,"[58, 0, 196]",196,a,0.10713042272254825,colour,0.4
14,24,1,2,5,27,227,650.611758899875,651.1516168951057,"[99, 0, 155]",155,l,0.018104703165590763,colour,0.4
14,24,1,2,5,28,228,653.1588715366088,653.9915240416303,"[31, 0, 223]",223,a,0.3104258105158806,colour,0.4
14,24,1,2,5,29,229,656.0028278133832,656.5435688109137,"[60, 0, 194]",194,a,0.01854265993461013,colour,0.4
14,24,1,2,5,30,230,658.5499282409437,659.4715521149337,"[36, 0, 218]",218,a,0.3995098192244768,colour,0.4
14,24,1,2,5,31,231,661.4876328441314,662.0236083059572,"[17, 0, 237]",237,a,0.013816902879625559,colour,0.4
14,24,1,2,5,32,232,664.0346726193093,664.5915715396404,"[65, 0, 189]",189,a,0.034766748547554016,colour,0.4
14,24,1,2,5,33,233,666.5974662313238,667.3036079434678,"[56, 0, 198]",198,a,0.1840497124940157,colour,0.4
14,24,1,2,5,34,234,669.3162960838526,670.2155810170807,"[52, 0, 202]",202,a,0.37702121725305915,colour,0.4
14,24,1,2,5,35,235,672.2228112407029,672.7675690725446,"[48, 0, 206]",206,a,0.02260990673676133,colour,0.4
14,24,1,2,5,36,236,674.7855552281253,675.607591222506,"[11, 0, 243]",243,a,0.29996250616386533,colour,0.4
14,24,1,2,5,37,237,677.614651304204,678.2155652632937,"[68, 0, 186]",186,a,0.07873925194144249,colour,0.4
14,24,1,2,5,38,238,680.2242491720244,681.0155033506453,"[59, 0, 195]",195,a,0.2691716318950057,colour,0.4
14,24,1,2,5,39,239,683.0213216366246,683.5676001077518,"[41, 0, 213]",213,a,0.024417659733444452,colour,0.4
14,24,1,2,5,40,240,685.5839959131554,686.1275879614986,"[18, 0, 236]",236,a,0.02136220270767808,colour,0.4
14,24,1,2,5,41,241,688.1467517162673,688.6795838936232,"[96, 0, 158]",158,l,0.01066574128344655,colour,0.4
14,24,1,2,5,42,242,690.6937970053405,691.5515331630595,"[37, 0, 217]",217,a,0.3356354939751327,colour,0.4
14,24,1,2,5,43,243,693.5690274052322,694.0955911311321,"[12, 0, 242]",242,a,0.004394926596432924,colour,0.4
14,24,1,2,5,44,244,696.1161246821284,696.8155832225457,"[85, 0, 169]",169,l,0.17737205512821674,colour,0.4
14,24,1,2,5,45,245,698.8301716693677,699.4075631806627,"[90, 0, 164]",164,l,0.055242798291146755,colour,0.4
14,24,1,2,5,46,246,701.4241594537161,701.9995581046678,"[87, 0, 167]",167,l,0.05324718076735735,colour,0.4
14,24,1,2,5,47,247,704.0181145491078,705.1195629569702,"[77, 0, 177]",177,l,0.5793512887321413,colour,0.4
14,24,1,2,5,48,248,707.1277147796936,707.8795745200478,"[66, 0, 188]",188,a,0.22980673192068934,colour,0.4
14,24,1,2,5,49,249,709.8936163089238,710.6795496293344,"[20, 0, 234]",234,a,0.26377279218286276,colour,0.4
14,24,1,2,5,50,250,712.690615911968,713.5195174282417,"[33, 0, 221]",221,a,0.30673311091959476,colour,0.4
14,24,1,2,6,1,251,734.9885067883879,735.6635779957287,"[52, 0, 202]",202,l,0.15207139356061816,colour,0.28
14,24,1,2,6,2,252,737.6781392670237,738.6395195233636,"[61, 0, 193]",193,a,0.4398041954264045,colour,0.28
14,24,1,2,6,3,253,740.6470376481302,741.2155837737955,"[57, 0, 197]",197,a,0.046352120116353035,colour,0.28
14,24,1,2,6,4,254,743.225476001855,743.8795272586867,"[23, 0, 231]",231,a,0.13188009429723024,colour,0.28
14,24,1,2,6,5,255,745.897537832614,746.7274897363968,"[8, 0, 246]",246,a,0.30778940627351403,colour,0.28
14,24,1,2,6,6,256,748.7291092304513,749.783515106421,"[65, 0, 189]",189,a,0.5415357789024711,colour,0.28
14,24,1,2,6,7,257,751.7982417927124,752.7034923103638,"[34, 0, 220]",220,a,0.38313488755375147,colour,0.28
14,24,1,2,6,8,258,754.7202882636338,755.2715154085308,"[76, 0, 178]",178,l,0.02896776143461466,colour,0.28
14,24,1,2,6,9,259,757.2830164972693,758.0794824389741,"[40, 0, 214]",214,a,0.27436685329303145,colour,0.28
14,24,1,2,6,10,260,760.092431305442,760.9755161744542,"[82, 0, 172]",172,l,0.3608829868026078,colour,0.28
14,24,1,2,6,11,261,762.9833040833473,763.6875080736354,"[60, 0, 194]",194,a,0.1820312524214387,colour,0.28
14,24,1,2,6,12,262,765.7022316097282,766.5595030291006,"[86, 0, 168]",168,l,0.3350734757259488,colour,0.28
14,24,1,2,6,13,263,768.577483670786,769.2875024024397,"[81, 0, 173]",173,l,0.18792279390618205,colour,0.28
14,24,1,2,6,14,264,771.2964844522066,771.9515392286703,"[66, 0, 188]",188,a,0.1330124014057219,colour,0.28
14,24,1,2,6,15,265,773.9685565228574,774.5674894368276,"[91, 0, 163]",163,l,0.07678616978228092,colour,0.28
14,24,1,2,6,16,266,776.5658092903905,777.207504812628,"[71, 0, 183]",183,a,0.11953341867774725,colour,0.28
14,24,1,2,6,17,267,779.2229490866885,780.0634808731265,"[97, 0, 157]",157,l,0.3183795288205147,colour,0.28
14,24,1,2,6,18,268,782.0765049639158,782.6155457287095,"[96, 0, 158]",158,l,0.016903079580515623,colour,0.28
14,24,1,2,6,19,269,784.6248534889892,785.2715201349929,"[78, 0, 176]",176,a,0.1245419573970139,colour,0.28
14,24,1,2,6,20,270,787.2812879076228,787.8235353655182,"[50, 0, 204]",204,a,0.020016431342810392,colour,0.28
14,24,1,2,6,21,271,789.8440945167094,790.7275023390539,"[37, 0, 217]",217,a,0.36142137413844466,colour,0.28
14,24,1,2,6,22,272,792.7348428396508,793.3755045165308,"[41, 0, 213]",213,a,0.11852950556203723,colour,0.28
14,24,1,2,6,23,273,795.391348937992,796.1275210077874,"[33, 0, 221]",221,a,0.21394891990348697,colour,0.28
14,24,1,2,6,24,274,798.1428431891836,798.6875206767581,"[88, 0, 166]",166,l,0.022472454234957695,colour,0.28
14,24,1,2,6,25,275,800.7056171093136,801.3114789542742,"[74, 0, 180]",180,l,0.08375921193510294,colour,0.28
14,24,1,2,6,26,276,803.3307797675952,803.8954858952202,"[87, 0, 167]",167,l,0.04256765451282263,colour,0.28
14,24,1,2,6,27,277,805.9091086317785,806.8234451748431,"[89, 0, 165]",165,l,0.3921984634362161,colour,0.28
14,24,1,2,6,28,278,808.8312248135917,809.5995118673891,"[85, 0, 169]",169,l,0.24610250117257237,colour,0.28
14,24,1,2,6,29,279,811.6126923146658,812.2955104713328,"[47, 0, 207]",207,a,0.16091599082574248,colour,0.28
14,24,1,2,6,30,280,814.3012106032111,815.2154782232828,"[54, 0, 200]",200,a,0.4045404130592942,colour,0.28
14,24,1,2,6,31,281,817.2265204815194,817.8874675864354,"[0, 0, 254]",254,a,0.13883068738505244,colour,0.28
14,24,1,2,6,32,282,819.8985760104842,820.431486169342,"[90, 0, 164]",164,l,0.010656682774424553,colour,0.28
14,24,1,2,6,33,283,822.445739059709,823.5515028373338,"[75, 0, 179]",179,l,0.5838911505416036,colour,0.28
14,24,1,2,6,34,284,825.5709418901242,826.2954769944772,"[99, 0, 155]",155,l,0.20239978190511465,colour,0.28
14,24,1,2,6,35,285,828.3055114010349,829.0234716413543,"[80, 0, 174]",174,l,0.1957323644310236,colour,0.28
14,24,1,2,6,36,286,831.0401033605449,831.5754766319878,"[67, 0, 187]",187,a,0.01318832440301776,colour,0.28
14,24,1,2,6,37,287,833.5872022127733,834.3274631910026,"[5, 0, 249]",249,a,0.21812053583562374,colour,0.28
14,24,1,2,6,38,288,836.337536981795,836.9515081145801,"[94, 0, 160]",160,l,0.09197050565853715,colour,0.28
14,24,1,2,6,39,289,838.9626271724701,839.6795007921755,"[68, 0, 186]",186,a,0.19503446947783232,colour,0.28
14,24,1,2,6,40,290,841.6972136185504,842.2954860529862,"[48, 0, 206]",206,a,0.07616546889767051,colour,0.28
14,24,1,2,6,41,291,844.3068150309846,845.1674597407691,"[12, 0, 242]",242,a,0.3385968212969601,colour,0.28
14,24,1,2,6,42,292,847.1820202246308,847.7514847987331,"[84, 0, 170]",170,l,0.04729144275188446,colour,0.28
14,24,1,2,6,43,293,849.7603998952545,850.3594541135244,"[38, 0, 216]",216,a,0.07689132681116462,colour,0.28
14,24,1,2,6,44,294,852.3699225382879,853.0874593942426,"[73, 0, 181]",181,a,0.19535899814218283,colour,0.28
14,24,1,2,6,45,295,855.1045786947943,855.6635169493966,"[30, 0, 224]",224,a,0.03687421837821603,colour,0.28
14,24,1,2,6,46,296,857.6828547841869,858.2314691552892,"[95, 0, 159]",159,l,0.027119442354887724,colour,0.28
14,24,1,2,6,47,297,860.2454577749595,860.7594881420955,"[59, 0, 195]",195,a,0.00324489688500762,colour,0.28
14,24,1,2,6,48,298,862.7812524614856,863.6394643853419,"[62, 0, 192]",192,a,0.3361589154228568,colour,0.28
14,24,1,2,6,49,299,865.6564438706264,866.2554500396363,"[79, 0, 175]",175,a,0.07691771443933249,colour,0.28
14,24,1,2,6,50,300,868.2659932952374,868.9834789512679,"[69, 0, 185]",185,l,0.19535190938040614,colour,0.28
14,24,1,2,7,1,301,878.6097561935894,879.2554208952934,"[52, 0, 202]",202,a,0.12331433966755867,colour,0.14
14,24,1,2,7,2,302,881.2577816075645,882.1354404613376,"[54, 0, 200]",200,a,0.3555050208233297,colour,0.14
14,24,1,2,7,3,303,884.1485196906142,885.0153989815153,"[23, 0, 231]",231,a,0.3445285349152982,colour,0.14
14,24,1,2,7,4,304,887.0238166502677,887.5914557487704,"[21, 0, 233]",233,a,0.045441942289471626,colour,0.14
14,24,1,2,7,5,305,889.602238856256,890.1515463963151,"[85, 0, 169]",169,l,0.027277374640107155,colour,0.14
14,24,1,2,7,6,306,892.1648296378553,892.7754680463113,"[92, 0, 162]",162,l,0.08832900645211339,colour,0.14
14,24,1,2,7,7,307,894.7900470406748,895.4154271022417,"[17, 0, 237]",237,a,0.103395976126194,colour,0.14
14,24,1,2,7,8,308,897.4309182437137,897.9834407479502,"[56, 0, 198]",198,a,0.03038363717496395,colour,0.14
14,24,1,2,7,9,309,899.9935854314826,900.9593936977908,"[61, 0, 193]",193,a,0.4436209565028548,colour,0.14
14,24,1,2,7,10,310,902.9782254402526,903.5514236739837,"[74, 0, 180]",180,l,0.051162554416805506,colour,0.14
14,24,1,2,7,11,311,905.5440382752568,906.1754516623914,"[94, 0, 160]",160,l,0.10927727725356817,colour,0.14
14,24,1,2,7,12,312,908.1849004197866,909.2474340936169,"[53, 0, 201]",201,a,0.5404747575521469,colour,0.14
14,24,1,2,7,13,313,911.2632749704644,912.06345645478,"[68, 0, 186]",186,a,0.27805758360773325,colour,0.14
14,24,1,2,7,14,314,914.0671487599611,914.655424203258,"[66, 0, 188]",188,a,0.06605189945548773,colour,0.14
14,24,1,2,7,15,315,916.6610585632734,917.3194373990409,"[91, 0, 163]",163,l,0.13634276296943426,colour,0.14
14,24,1,2,7,16,316,919.3331546583213,919.8714522356167,"[82, 0, 172]",172,l,0.01606143033131957,colour,0.14
14,24,1,2,7,17,317,921.8703321381472,922.8234329656698,"[59, 0, 195]",195,a,0.43103088391944766,colour,0.14
14,24,1,2,7,18,318,924.8392750239,925.5594242601655,"[79, 0, 175]",175,l,0.1980560552328825,colour,0.14
14,24,1,2,7,19,319,927.5739540238865,928.1433941796422,"[99, 0, 155]",155,l,0.0475092395208776,colour,0.14
14,24,1,2,7,20,320,930.1521950606257,930.7514446265996,"[81, 0, 173]",173,l,0.077027203515172,colour,0.14
14,24,1,2,7,21,321,932.7618110449985,933.6954503706656,"[64, 0, 190]",190,a,0.41176512325182557,colour,0.14
14,24,1,2,7,22,322,935.7040547225624,936.2714330949821,"[98, 0, 156]",156,l,0.04533402854576707,colour,0.14
14,24,1,2,7,23,323,938.2833461463451,938.9434055224992,"[77, 0, 177]",177,a,0.13790357392281294,colour,0.14
14,24,1,2,7,24,324,940.9554308201186,941.5114372852258,"[62, 0, 192]",192,a,0.04012935468927026,colour,0.14
14,24,1,2,7,25,325,943.527409312781,944.3833617423661,"[70, 0, 184]",184,a,0.33382380241528153,colour,0.14
14,24,1,2,7,26,326,946.4025207711384,947.1194069939665,"[72, 0, 182]",182,a,0.1945145926438272,colour,0.14
14,24,1,2,7,27,327,949.137264361605,950.0153942555189,"[57, 0, 197]",197,a,0.35667119873687625,colour,0.14
14,24,1,2,7,28,328,952.0281347772107,952.7273971824907,"[2, 0, 252]",252,a,0.17730273818597198,colour,0.14
14,24,1,2,7,29,329,954.7470500939526,955.3594060642645,"[63, 0, 191]",191,a,0.10269020358100533,colour,0.14
14,24,1,2,7,30,330,957.3754615872167,958.0874286745675,"[96, 0, 158]",158,l,0.1897982880473137,colour,0.14
14,24,1,2,7,31,331,960.094434405677,960.647379506845,"[71, 0, 183]",183,a,0.03090784652158618,colour,0.14
14,24,1,2,7,32,332,962.6571299498901,963.3353991862386,"[55, 0, 199]",199,a,0.15609925519675016,colour,0.14
14,24,1,2,7,33,333,965.344860940706,966.0473942365497,"[6, 0, 248]",248,a,0.18051573354750872,colour,0.14
14,24,1,2,7,34,334,968.0637983130291,968.8154394687153,"[69, 0, 185]",185,a,0.22941643046215177,colour,0.14
14,24,1,2,7,35,335,970.8295738114975,971.5354106863961,"[80, 0, 174]",174,l,0.18381261732429266,colour,0.14
14,24,1,2,7,36,336,973.5489093619399,974.1433760626242,"[90, 0, 164]",164,l,0.07228884333744645,colour,0.14
14,24,1,2,7,37,337,976.1458864365704,976.9913783189841,"[60, 0, 194]",194,a,0.3234609290957451,colour,0.14
14,24,1,2,7,38,338,979.0055654365569,979.6474058944732,"[88, 0, 166]",166,l,0.11957910470664501,colour,0.14
14,24,1,2,7,39,339,981.6655779452994,982.2394240554422,"[86, 0, 168]",168,l,0.05160838831216097,colour,0.14
14,24,1,2,7,40,340,984.2595436740667,984.975403140299,"[76, 0, 178]",178,a,0.1936315898783505,colour,0.14
14,24,1,2,7,41,341,986.9942230680026,987.615404731594,"[83, 0, 171]",171,l,0.09914165223017335,colour,0.14
14,24,1,2,7,42,342,989.634961544536,990.6793861831538,"[78, 0, 176]",176,l,0.5206430400721729,colour,0.14
14,24,1,2,7,43,343,992.6994037958793,993.2873826730065,"[11, 0, 243]",243,a,0.06586088426411152,colour,0.14
14,24,1,2,7,44,344,995.293378977105,995.879396895878,"[67, 0, 187]",187,a,0.06392395030707121,colour,0.14
14,24,1,2,7,45,345,997.8873065034859,998.5273908022791,"[73, 0, 181]",181,a,0.1178706013597548,colour,0.14
14,24,1,2,7,46,346,1000.5374173317105,1001.2153994543478,"[84, 0, 170]",170,l,0.1557471575215459,colour,0.14
14,24,1,2,7,47,347,1003.2251439900137,1003.8314189794473,"[58, 0, 196]",196,a,0.08409949485212564,colour,0.14
14,24,1,2,7,48,348,1005.8503283099271,1006.6953385183588,"[20, 0, 234]",234,a,0.32276736618950963,colour,0.14
14,24,1,2,7,49,349,1008.7118839854375,1009.6233450593427,"[87, 0, 167]",167,l,0.3895864775404334,colour,0.14
14,24,1,2,7,50,350,1011.6338973729871,1012.5193283823319,"[51, 0, 203]",203,a,0.36391244968399405,colour,0.14
14,24,1,2,8,1,351,1025.0866468902677,1025.9513486069627,"[97, 0, 157]",157,l,0.3417956382036209,colour,0.06
14,24,1,2,8,2,352,1027.962698458694,1028.871378192678,"[99, 0, 155]",155,l,0.3867685100995004,colour,0.06
14,24,1,2,8,3,353,1030.8847665907815,1031.5113821467385,"[32, 0, 222]",222,a,0.10470708878710866,colour,0.06
14,24,1,2,8,4,354,1033.5255865938962,1034.4553449614905,"[87, 0, 167]",167,l,0.40757617773488164,colour,0.06
14,24,1,2,8,5,355,1036.4633802059107,1037.0713885114528,"[58, 0, 196]",196,a,0.08595962915569544,colour,0.06
14,24,1,2,8,6,356,1039.0885298675857,1039.6713599972427,"[83, 0, 171]",171,l,0.06072237668558955,colour,0.06
14,24,1,2,8,7,357,1041.6824892950244,1042.3193775340915,"[93, 0, 161]",161,l,0.11518260277807713,colour,0.06
14,24,1,2,8,8,358,1044.3389804274775,1044.9033856568858,"[73, 0, 181]",181,a,0.04228172264993191,colour,0.06
14,24,1,2,8,9,359,1046.917250215076,1047.5513618402183,"[65, 0, 189]",189,a,0.11187508469447494,colour,0.06
14,24,1,2,8,10,360,1049.5581009378657,1050.1593524226919,"[69, 0, 185]",185,a,0.07906653778627515,colour,0.06
14,24,1,2,8,11,361,1052.1676877778955,1052.6953420629725,"[52, 0, 202]",202,a,0.005398446228355169,colour,0.06
14,24,1,2,8,12,362,1054.7147815097123,1055.471305961255,"[74, 0, 180]",180,a,0.23429578775539994,colour,0.06
14,24,1,2,8,13,363,1057.4805837897584,1058.055356619414,"[5, 0, 249]",249,a,0.052605212200433016,colour,0.06
14,24,1,2,8,14,364,1060.074434909504,1060.5994271901436,"[89, 0, 165]",165,l,0.0027411673218011856,colour,0.06
14,24,1,2,8,15,365,1062.605994177051,1063.3353302632459,"[94, 0, 160]",160,l,0.20712593290954828,colour,0.06
14,24,1,2,8,16,366,1065.340659392532,1066.1593319424428,"[68, 0, 186]",186,a,0.2965785814449191,colour,0.06
14,24,1,2,8,17,367,1068.1689862878993,1068.7993839462288,"[91, 0, 163]",163,l,0.10832771472632885,colour,0.06
14,24,1,2,8,18,368,1070.810959865339,1071.3433619630523,"[62, 0, 192]",192,a,0.010222664568573236,colour,0.06
14,24,1,2,8,19,369,1073.3580937697552,1074.2872806671076,"[70, 0, 184]",184,a,0.40702518727630377,colour,0.06
14,24,1,2,8,20,370,1076.2958428775892,1077.0233487612568,"[82, 0, 172]",172,l,0.20555094303563237,colour,0.06
14,24,1,2,8,21,371,1079.0304501974024,1079.7273467699997,"[84, 0, 170]",170,l,0.1747458903118968,colour,0.06
14,24,1,2,8,22,372,1081.7337180157192,1082.4233457683586,"[1, 0, 253]",253,a,0.16737348912283778,colour,0.06
14,24,1,2,8,23,373,1084.4370661787689,1085.0953300110996,"[66, 0, 188]",188,a,0.13602886721491814,colour,0.06
14,24,1,2,8,24,374,1087.1092642797157,1087.7353119100444,"[64, 0, 190]",190,a,0.10399619722738862,colour,0.06
14,24,1,2,8,25,375,1089.7500141784549,1090.5273084882647,"[76, 0, 178]",178,l,0.2550727352499962,colour,0.06
14,24,1,2,8,26,376,1092.5471114548855,1093.215336438734,"[95, 0, 159]",159,l,0.14601443661376834,colour,0.06
14,24,1,2,8,27,377,1095.2348318118602,1096.087280194275,"[51, 0, 203]",203,a,0.33022759575396776,colour,0.06
14,24,1,2,8,28,378,1098.0944911194965,1098.711307394784,"[63, 0, 191]",191,a,0.09478374663740396,colour,0.06
14,24,1,2,8,29,379,1100.7196506271139,1101.2873157192953,"[90, 0, 164]",164,l,0.0455033821053803,colour,0.06
14,24,1,2,8,30,380,1103.2979881563224,1103.90332421707,"[81, 0, 173]",173,l,0.08315820340067148,colour,0.06
14,24,1,2,8,31,381,1105.9201315916143,1106.503309880849,"[71, 0, 183]",183,a,0.061011459212750196,colour,0.06
14,24,1,2,8,32,382,1108.5140788098797,1109.0953028360382,"[61, 0, 193]",193,a,0.059154476039111614,colour,0.06
14,24,1,2,8,33,383,1111.1080413884483,1111.9432960334234,"[88, 0, 166]",166,l,0.3130578827112913,colour,0.06
14,24,1,2,8,34,384,1113.9519834867679,1114.5193059332669,"[96, 0, 158]",158,l,0.04515522299334407,colour,0.06
14,24,1,2,8,35,385,1116.5303162895143,1117.231323432643,"[80, 0, 174]",174,l,0.17880092840641737,colour,0.06
14,24,1,2,8,36,386,1119.2493347940035,1119.7752971174195,"[60, 0, 194]",194,a,0.00384511798620224,colour,0.06
14,24,1,2,8,37,387,1121.7860680152662,1122.4313298128545,"[67, 0, 187]",187,a,0.12315837666392326,colour,0.06
14,24,1,2,8,38,388,1124.4424977074377,1125.031297753565,"[72, 0, 182]",182,a,0.0666572405025363,colour,0.06
14,24,1,2,8,39,389,1127.0364626492374,1127.8233140241355,"[85, 0, 169]",169,l,0.2647266867570579,colour,0.06
14,24,1,2,8,40,390,1129.8336237287149,1130.5272761927918,"[50, 0, 204]",204,a,0.17151477839797735,colour,0.06
14,24,1,2,8,41,391,1132.5368876089342,1133.1912886006758,"[54, 0, 200]",200,a,0.13220895593985915,colour,0.06
14,24,1,2,8,42,392,1135.208961254917,1135.847325234674,"[56, 0, 198]",198,a,0.11693954933434725,colour,0.06
14,24,1,2,8,43,393,1137.865414578002,1138.4712945399806,"[75, 0, 179]",179,l,0.08366902125999331,colour,0.06
14,24,1,2,8,44,394,1140.480635383632,1141.1113150357269,"[86, 0, 168]",168,l,0.10860143741592765,colour,0.06
14,24,1,2,8,45,395,1143.1213297494687,1143.6953274905682,"[79, 0, 175]",175,l,0.052785593550652266,colour,0.06
14,24,1,2,8,46,396,1145.6997157218866,1146.5912320446223,"[55, 0, 199]",199,a,0.36939320946112275,colour,0.06
14,24,1,2,8,47,397,1148.6062084292062,1149.1592980721034,"[92, 0, 162]",162,l,0.030859009828418493,colour,0.06
14,24,1,2,8,48,398,1151.1688968846574,1151.719305224251,"[59, 0, 195]",195,a,0.028250568080693483,colour,0.06
14,24,1,2,8,49,399,1153.7315715551376,1154.271274374798,"[53, 0, 201]",201,a,0.017444617114961147,colour,0.06
14,24,1,2,8,50,400,1156.2786857676692,1156.9113204707392,"[57, 0, 197]",197,a,0.11066637141630054,colour,0.06
14,24,1,2,9,1,401,1169.062857809011,1169.6632952140644,"[57, 0, 197]",197,a,0.07748327730223536,colour,0.06
14,24,1,2,9,2,402,1171.673273300752,1172.3272875356488,"[70, 0, 184]",184,l,0.13259728765115142,colour,0.06
14,24,1,2,9,3,403,1174.345339463558,1175.2152667278424,"[73, 0, 181]",181,l,0.34799949871376157,colour,0.06
14,24,1,2,9,4,404,1177.2205218141899,1177.8392789624631,"[56, 0, 198]",198,a,0.09652100130915642,colour,0.06
14,24,1,2,9,5,405,1179.8457837216556,1180.4633620893583,"[76, 0, 178]",178,l,0.09566871915012598,colour,0.06
14,24,1,2,9,6,406,1182.4709101463668,1183.087266803719,"[71, 0, 183]",183,l,0.09415910765528679,colour,0.06
14,24,1,2,9,7,407,1185.096146847587,1185.8952720370144,"[88, 0, 166]",166,l,0.2771694608964026,colour,0.06
14,24,1,2,9,8,408,1187.9088916229084,1188.447298295796,"[94, 0, 160]",160,l,0.01624890137463808,colour,0.06
14,24,1,2,9,9,409,1190.455953059718,1191.1512608584017,"[80, 0, 174]",174,l,0.17307755956426263,colour,0.06
14,24,1,2,9,10,410,1193.1593677825294,1193.7512323437259,"[97, 0, 157]",157,l,0.06982179265469313,colour,0.06
14,24,1,2,9,11,411,1195.7688707332127,1196.3832577671856,"[99, 0, 155]",155,l,0.09223241312429309,colour,0.06
14,24,1,2,9,12,412,1198.3941074348986,1199.3198190354742,"[55, 0, 199]",199,a,0.40358573058620095,colour,0.06
14,24,1,2,9,13,413,1201.3317966777831,1202.0312532489188,"[58, 0, 196]",196,a,0.17724996292963624,colour,0.06
14,24,1,2,9,14,414,1204.052572522778,1204.6152948485687,"[63, 0, 191]",191,a,0.04063505306839943,colour,0.06
14,24,1,2,9,15,415,1206.63088248251,1207.2392606092617,"[59, 0, 195]",195,a,0.08617663849145174,colour,0.06
14,24,1,2,9,16,416,1209.2561298175715,1210.1352683505975,"[96, 0, 158]",158,l,0.35693468153476715,colour,0.06
14,24,1,2,9,17,417,1212.1468938947655,1212.743306982331,"[82, 0, 172]",172,l,0.07425925461575389,colour,0.06
14,24,1,2,9,18,418,1214.756545719225,1215.3912689872086,"[60, 0, 194]",194,a,0.11261551501229405,colour,0.06
14,24,1,2,9,19,419,1217.3848882894963,1217.959249550011,"[69, 0, 185]",185,a,0.05285175936296582,colour,0.06
14,24,1,2,9,20,420,1219.9787776125595,1220.599239719566,"[8, 0, 246]",246,a,0.09847250767052174,colour,0.06
14,24,1,2,9,21,421,1222.6196413324215,1223.5111777409911,"[89, 0, 165]",165,l,0.36930616945028305,colour,0.06
14,24,1,2,9,22,422,1225.5250316648744,1226.1592760165222,"[51, 0, 203]",203,a,0.11207830905914307,colour,0.06
14,24,1,2,9,23,423,1228.1566175566986,1228.9992323941551,"[95, 0, 159]",159,l,0.3204747890122235,colour,0.06
14,24,1,2,9,24,424,1231.0162453562953,1231.679217223078,"[83, 0, 171]",171,l,0.14089089492335916,colour,0.06
14,24,1,2,9,25,425,1233.6883166395128,1234.4072158085182,"[65, 0, 189]",189,a,0.19673115760087967,colour,0.06
14,24,1,2,9,26,426,1236.4235958601348,1237.0872671976686,"[68, 0, 186]",186,a,0.1423024390824139,colour,0.06
14,24,1,2,9,27,427,1239.0949787008576,1239.8152445149608,"[54, 0, 200]",200,a,0.19825888564810157,colour,0.06
14,24,1,2,9,28,428,1241.8244597218,1242.4952167412266,"[62, 0, 192]",192,a,0.14868234936147928,colour,0.06
14,24,1,2,9,29,429,1244.5120942206122,1245.2392334337346,"[78, 0, 176]",176,l,0.2052012076601386,colour,0.06
14,24,1,2,9,30,430,1247.2467267462052,1247.951224151533,"[66, 0, 188]",188,a,0.18243336910381913,colour,0.06
14,24,1,2,9,31,431,1249.965638518799,1250.6311967717484,"[52, 0, 202]",202,a,0.14337015571072698,colour,0.06
14,24,1,2,9,32,432,1252.6377101955004,1253.3432107265107,"[81, 0, 173]",173,l,0.1832840763963759,colour,0.06
14,24,1,2,9,33,433,1255.3566633216105,1255.9272641413845,"[74, 0, 180]",180,l,0.04839736223220825,colour,0.06
14,24,1,2,9,34,434,1257.9350138474256,1258.9191973889247,"[98, 0, 156]",156,l,0.4620375852100551,colour,0.06
14,24,1,2,9,35,435,1260.9353045057505,1261.5752099985257,"[64, 0, 190]",190,a,0.1178639056161046,colour,0.06
14,24,1,2,9,36,436,1263.582522929646,1264.2792371516116,"[92, 0, 162]",162,l,0.17455960111692548,colour,0.06
14,24,1,2,9,37,437,1266.2857663296163,1266.8232407690957,"[72, 0, 182]",182,a,0.015253258869051933,colour,0.06
14,24,1,2,9,38,438,1268.8329199263826,1269.6231993362308,"[61, 0, 193]",193,a,0.2681291215121746,colour,0.06
14,24,1,2,9,39,439,1271.6299719107337,1272.2712393226102,"[17, 0, 237]",237,a,0.11933807097375393,colour,0.06
14,24,1,2,9,40,440,1274.286487067584,1274.9193151490763,"[93, 0, 161]",161,l,0.11141349747776985,colour,0.06
14,24,1,2,9,41,441,1276.927255476825,1277.6152310455218,"[87, 0, 167]",167,l,0.16573745291680098,colour,0.06
14,24,1,2,9,42,442,1279.621336051263,1280.1912184963003,"[86, 0, 168]",168,l,0.04764747992157936,colour,0.06
14,24,1,2,9,43,443,1282.1997629832476,1282.9191969954409,"[18, 0, 236]",236,a,0.1973006590269506,colour,0.06
14,24,1,2,9,44,444,1284.9342143400572,1285.519200776238,"[85, 0, 169]",169,l,0.06265300931409001,colour,0.06
14,24,1,2,9,45,445,1287.5281938537955,1288.1112390235066,"[79, 0, 175]",175,l,0.06147186551243067,colour,0.06
14,24,1,2,9,46,446,1290.1236219331622,1290.7432238808833,"[90, 0, 164]",164,l,0.09747292706742883,colour,0.06
14,24,1,2,9,47,447,1292.748954338953,1293.2792414841242,"[84, 0, 170]",170,l,0.008041152264922857,colour,0.06
14,24,1,2,9,48,448,1295.2961020278744,1295.8872096170671,"[75, 0, 179]",179,l,0.06925819907337427,colour,0.06
14,24,1,2,9,49,449,1297.9056242769584,1298.591178481467,"[53, 0, 201]",201,a,0.16338894981890917,colour,0.06
14,24,1,2,9,50,450,1300.6090106433257,1301.335175481625,"[77, 0, 177]",177,a,0.20452339900657535,colour,0.06
14,24,1,2,10,1,451,1311.7653584154323,1312.7431707116775,"[92, 0, 162]",162,l,0.4551377990283072,colour,0.06
14,24,1,2,10,2,452,1314.7507124668919,1315.3431859142147,"[90, 0, 164]",164,l,0.07028613705188036,colour,0.06
14,24,1,2,10,3,453,1317.3602378671058,1317.9432172640227,"[59, 0, 195]",195,a,0.060747976414859295,colour,0.06
14,24,1,2,10,4,454,1319.9543343530968,1320.5991503167897,"[57, 0, 197]",197,a,0.12271293671801686,colour,0.06
14,24,1,2,10,5,455,1322.6106498297304,1323.1352175446227,"[82, 0, 172]",172,l,0.002282337285578251,colour,0.06
14,24,1,2,10,6,456,1325.1577601036988,1325.7032000767067,"[65, 0, 189]",189,a,0.02321918634697795,colour,0.06
14,24,1,2,10,7,457,1327.7205281155184,1328.3031766824424,"[54, 0, 200]",200,a,0.06049355212599039,colour,0.06
14,24,1,2,10,8,458,1330.3144670631737,1331.0392211456783,"[43, 0, 211]",211,a,0.20150023745372891,colour,0.06
14,24,1,2,10,9,459,1333.0501948748715,1333.7031772336923,"[76, 0, 178]",178,l,0.130932895001024,colour,0.06
14,24,1,2,10,10,460,1335.722215745598,1336.3671577400528,"[56, 0, 198]",198,a,0.12282951548695564,colour,0.06
14,24,1,2,10,11,461,1338.3785828161053,1338.9112027105875,"[86, 0, 168]",168,l,0.010651562828570604,colour,0.06
14,24,1,2,10,12,462,1340.9257116005756,1341.479201390408,"[80, 0, 174]",174,l,0.0312910582870245,colour,0.06
14,24,1,2,10,13,463,1343.488370123785,1344.4071224671789,"[60, 0, 194]",194,a,0.39664852898567915,colour,0.06
14,24,1,2,10,14,464,1346.4262444740161,1347.04720203951,"[96, 0, 158]",158,l,0.0988336643204093,colour,0.06
14,24,1,2,10,15,465,1349.0670258803293,1349.687172123231,"[93, 0, 161]",161,l,0.0980487298220396,colour,0.06
14,24,1,2,10,16,466,1351.6921511231922,1352.6071524783038,"[64, 0, 190]",190,a,0.39273370057344437,colour,0.06
14,24,1,2,10,17,467,1354.6143295322545,1355.2871707840823,"[87, 0, 167]",167,l,0.15070829261094332,colour,0.06
14,24,1,2,10,18,468,1357.3019049540162,1357.959143605549,"[75, 0, 179]",179,a,0.13448420353233814,colour,0.06
14,24,1,2,10,19,469,1359.974670981057,1360.7351909992285,"[61, 0, 193]",193,a,0.23841265914961696,colour,0.06
14,24,1,2,10,20,470,1362.7405555746518,1363.3191581619903,"[85, 0, 169]",169,l,0.05649089580401778,colour,0.06
14,24,1,2,10,21,471,1365.334370460827,1366.2071428680792,"[77, 0, 177]",177,l,0.35048151575028896,colour,0.06
14,24,1,2,10,22,472,1368.2252743528225,1369.1111374110915,"[52, 0, 202]",202,a,0.3638758221641183,colour,0.06
14,24,1,2,10,23,473,1371.1161317713559,1371.9751798301004,"[70, 0, 184]",184,a,0.33691431209445,colour,0.06
14,24,1,2,10,24,474,1373.9913574447855,1374.5671507292427,"[72, 0, 182]",182,a,0.053608731366693974,colour,0.06
14,24,1,2,10,25,475,1376.5853353831917,1377.279147354886,"[44, 0, 210]",210,a,0.1840485311113298,colour,0.06
14,24,1,2,10,26,476,1379.2826746390201,1379.879165314138,"[97, 0, 157]",157,l,0.07431951304897666,colour,0.06
14,24,1,2,10,27,477,1381.8922102791257,1382.4951474242844,"[89, 0, 165]",165,l,0.0806635832414031,colour,0.06
14,24,1,2,10,28,478,1384.5017707310617,1385.0471811657771,"[84, 0, 170]",170,l,0.023288109339773655,colour,0.06
14,24,1,2,10,29,479,1387.064507235773,1387.6791479061358,"[53, 0, 201]",201,a,0.09249589592218399,colour,0.06
14,24,1,2,10,30,480,1389.689846730791,1390.3511502663605,"[78, 0, 176]",176,l,0.1392075978219509,colour,0.06
14,24,1,2,10,31,481,1392.3495677933097,1392.9591282457113,"[95, 0, 159]",159,l,0.08736841613426805,colour,0.06
14,24,1,2,10,32,482,1394.9675207082182,1395.5671526985243,"[88, 0, 166]",166,l,0.07678971439599991,colour,0.06
14,24,1,2,10,33,483,1397.577792446129,1398.511096608825,"[50, 0, 204]",204,a,0.4119096645154059,colour,0.06
14,24,1,2,10,34,484,1400.5311429724097,1401.3511270293966,"[73, 0, 181]",181,a,0.29775539319962263,colour,0.06
14,24,1,2,10,35,485,1403.3595190984197,1403.975158562418,"[83, 0, 171]",171,l,0.09353407425805926,colour,0.06
14,24,1,2,10,36,486,1405.9855714547448,1406.6231453795917,"[51, 0, 203]",203,a,0.11625228822231293,colour,0.06
14,24,1,2,10,37,487,1408.6411539842375,1409.1751684872434,"[99, 0, 155]",155,l,0.011824436020106077,colour,0.06
14,24,1,2,10,38,488,1411.188246928621,1411.7351287715137,"[98, 0, 156]",156,l,0.024744945112615824,colour,0.06
14,24,1,2,10,39,489,1413.7508349530399,1414.66311995266,"[91, 0, 163]",163,l,0.3900193143635988,colour,0.06
14,24,1,2,10,40,490,1416.673032660503,1417.327153234277,"[67, 0, 187]",187,a,0.1326685738749802,colour,0.06
14,24,1,2,10,41,491,1419.3451055190526,1420.1191513878293,"[63, 0, 191]",191,a,0.2520153094083071,colour,0.06
14,24,1,2,10,42,492,1422.1265879864804,1422.8471294930205,"[68, 0, 186]",186,a,0.1983782211318612,colour,0.06
14,24,1,2,10,43,493,1424.8611425310373,1425.5191452438012,"[62, 0, 192]",192,a,0.1358394273556769,colour,0.06
14,24,1,2,10,44,494,1427.533263438847,1428.127124011051,"[58, 0, 196]",196,a,0.07166932383552194,colour,0.06
14,24,1,2,10,45,495,1430.1428534290753,1430.8151358137839,"[55, 0, 199]",199,a,0.15007341280579567,colour,0.06
14,24,1,2,10,46,496,1432.8305777246132,1433.3751441473141,"[71, 0, 183]",183,a,0.022362571209669113,colour,0.06
14,24,1,2,10,47,497,1435.393295718357,1435.9591191872023,"[69, 0, 185]",185,a,0.043684995733201504,colour,0.06
14,24,1,2,10,48,498,1437.9716060720384,1438.879071578849,"[66, 0, 188]",188,a,0.38528252905234694,colour,0.06
14,24,1,2,10,49,499,1440.8937510042451,1441.5111178765073,"[81, 0, 173]",173,l,0.09530362393707037,colour,0.06
14,24,1,2,10,50,500,1443.51893729344,1444.2071251450107,"[14, 0, 240]",240,a,0.1660052677616477,colour,0.06
14,24,1,2,11,1,501,1455.2534197638743,1455.7911072741263,"[75, 0, 179]",179,l,0.014765677507966757,colour,0.06
14,24,1,2,11,2,502,1457.8012681049295,1458.4790997784585,"[83, 0, 171]",171,l,0.15564593905583024,colour,0.06
14,24,1,2,11,3,503,1460.4890105170198,1461.1591042997316,"[90, 0, 164]",164,l,0.14884225046262145,colour,0.06
14,24,1,2,11,4,504,1463.1767163015902,1463.7910895510577,"[55, 0, 199]",199,a,0.0922131147235632,colour,0.06
14,24,1,2,11,5,505,1465.801883686334,1466.7270899824798,"[59, 0, 195]",195,a,0.40305876499041915,colour,0.06
14,24,1,2,11,6,506,1468.7396855689585,1469.6630616635084,"[99, 0, 155]",155,l,0.40123959071934223,colour,0.06
14,24,1,2,11,7,507,1471.6780632548034,1472.2711117165163,"[61, 0, 193]",193,a,0.07145192101597786,colour,0.06
14,24,1,2,11,8,508,1474.2876583654433,1474.839102519676,"[97, 0, 157]",157,l,0.029267084319144487,colour,0.06
14,24,1,2,11,9,509,1476.850410623476,1477.3911189320497,"[51, 0, 203]",203,a,0.018557232338935137,colour,0.06
14,24,1,2,11,10,510,1479.3974496112205,1480.039109687321,"[53, 0, 201]",201,a,0.11946410173550248,colour,0.06
14,24,1,2,11,11,511,1482.0538462204859,1482.7831405587494,"[80, 0, 174]",174,l,0.20703692408278584,colour,0.06
14,24,1,2,11,12,512,1484.788435423281,1485.3431028123014,"[92, 0, 162]",162,l,0.03239422058686614,colour,0.06
14,24,1,2,11,13,513,1487.3511660201475,1488.0230884291232,"[57, 0, 197]",197,a,0.1496649943292141,colour,0.06
14,24,1,2,11,14,514,1490.038925761357,1490.695090001449,"[65, 0, 189]",189,a,0.1340088313445449,colour,0.06
14,24,1,2,11,15,515,1492.7109938934445,1493.4550814786926,"[79, 0, 175]",175,l,0.22191484738141298,colour,0.06
14,24,1,2,11,16,516,1495.461180576589,1496.1191246062517,"[60, 0, 194]",194,a,0.13583982130512595,colour,0.06
14,24,1,2,11,17,517,1498.1333400812,1498.8150605889969,"[66, 0, 188]",188,a,0.15960842231288552,colour,0.06
14,24,1,2,11,18,518,1500.8210084503517,1501.4470812864602,"[56, 0, 198]",198,a,0.1039512986317277,colour,0.06
14,24,1,2,11,19,519,1503.4618438133039,1504.3750834953971,"[71, 0, 183]",183,l,0.3912370861507952,colour,0.06
14,24,1,2,11,20,520,1506.371749195736,1507.255065252073,"[87, 0, 167]",167,l,0.3611062974669039,colour,0.06
14,24,1,2,11,21,521,1509.26271886006,1509.8710780823603,"[50, 0, 204]",204,a,0.08645036164671183,colour,0.06
14,24,1,2,11,22,522,1511.8878114139661,1512.49507653201,"[93, 0, 161]",161,l,0.08504551276564598,colour,0.06
14,24,1,2,11,23,523,1514.5130528411828,1515.1910542622209,"[78, 0, 176]",176,l,0.1559417168609798,colour,0.06
14,24,1,2,11,24,524,1517.200727906078,1517.8550875438377,"[16, 0, 238]",238,a,0.13212546054273844,colour,0.06
14,24,1,2,11,25,525,1519.8728346349671,1520.535046379082,"[19, 0, 235]",235,a,0.13998308032751083,colour,0.06
14,24,1,2,11,26,526,1522.54494490847,1523.2070786715485,"[69, 0, 185]",185,l,0.1400602743960917,colour,0.06
14,24,1,2,11,27,527,1525.2170177670196,1525.8390871593729,"[76, 0, 178]",178,l,0.0997946485877037,colour,0.06
14,24,1,2,11,28,528,1527.8578940900043,1528.5670589632355,"[72, 0, 182]",182,l,0.18694684328511357,colour,0.06
14,24,1,2,11,29,529,1530.5768141327426,1531.1990595743991,"[77, 0, 177]",177,l,0.10012193443253636,colour,0.06
14,24,1,2,11,30,530,1533.2084366520867,1533.783116927836,"[82, 0, 172]",172,l,0.06246278155595064,colour,0.06
14,24,1,2,11,31,531,1535.7824974083342,1536.5350700099953,"[73, 0, 181]",181,l,0.22834123158827424,colour,0.06
14,24,1,2,11,32,532,1538.5524874520488,1539.143118487671,"[54, 0, 200]",200,a,0.069576820358634,colour,0.06
14,24,1,2,11,33,533,1541.1550701358356,1541.7590962653048,"[85, 0, 169]",169,l,0.08245833916589618,colour,0.06
14,24,1,2,11,34,534,1543.7561959838495,1544.3670844845474,"[98, 0, 156]",156,l,0.08866613823920488,colour,0.06
14,24,1,2,11,35,535,1546.372307275422,1546.983094557654,"[64, 0, 190]",190,a,0.08854247070848942,colour,0.06
14,24,1,2,11,36,536,1548.997568001505,1549.6390410009772,"[96, 0, 158]",158,l,0.11934043420478702,colour,0.06
14,24,1,2,11,37,537,1551.653979182709,1552.375063015148,"[63, 0, 191]",191,a,0.1989107010886073,colour,0.06
14,24,1,2,11,38,538,1554.3903253325261,1555.3110339082778,"[58, 0, 196]",196,a,0.3988052289932966,colour,0.06
14,24,1,2,11,39,539,1557.328019301407,1557.879037708044,"[67, 0, 187]",187,a,0.02894373657181859,colour,0.06
14,24,1,2,11,40,540,1559.8907581688836,1560.439084244892,"[52, 0, 202]",202,a,0.026198630686849356,colour,0.06
14,24,1,2,11,41,541,1562.4534411104396,1563.135036769323,"[84, 0, 170]",170,l,0.1594965704716742,colour,0.06
14,24,1,2,11,42,542,1565.1412792271003,1565.7030366305262,"[89, 0, 165]",165,l,0.039644923992455006,colour,0.06
14,24,1,2,11,43,543,1567.7187487198971,1568.5750339492224,"[37, 0, 217]",217,a,0.3342558518052101,colour,0.06
14,24,1,2,11,44,544,1570.5939031075686,1571.1750692380592,"[81, 0, 173]",173,l,0.059037109836936,colour,0.06
14,24,1,2,11,45,545,1573.187800701242,1573.7830137405545,"[62, 0, 192]",192,a,0.07297098496928811,colour,0.06
14,24,1,2,11,46,546,1575.7974021132104,1576.6229980811477,"[94, 0, 160]",160,l,0.3034909716807306,colour,0.06
14,24,1,2,11,47,547,1578.6414147103205,1579.2550215353258,"[70, 0, 184]",184,a,0.09148174291476607,colour,0.06
14,24,1,2,11,48,548,1581.2688014162704,1581.8150649215095,"[95, 0, 159]",159,l,0.02423137053847313,colour,0.06
14,24,1,2,11,49,549,1583.8314599394798,1584.399034053553,"[68, 0, 186]",186,a,0.0453686872497201,colour,0.06
14,24,1,2,11,50,550,1586.4097813209519,1587.0230269893073,"[74, 0, 180]",180,l,0.09104496752843261,colour,0.06
14,24,1,2,12,1,551,1603.3478451110423,1604.2950106807984,"[75, 0, 179]",179,a,0.424209866207093,colour,0.06
14,24,1,2,12,2,552,1606.3020408307202,1607.0230525895022,"[50, 0, 204]",204,a,0.19891227642074227,colour,0.06
14,24,1,2,12,3,553,1609.036632002797,1609.607024084311,"[60, 0, 194]",194,a,0.048278814647346735,colour,0.06
14,24,1,2,12,4,554,1611.614894701168,1612.2710061660036,"[78, 0, 176]",176,l,0.13386665331199765,colour,0.06
14,24,1,2,12,5,555,1614.2812284366228,1614.839025719557,"[99, 0, 155]",155,l,0.03560603456571698,colour,0.06
14,24,1,2,12,6,556,1616.8595301257446,1617.4870290784165,"[94, 0, 160]",160,l,0.11068330705165863,colour,0.06
14,24,1,2,12,7,557,1619.4949508951977,1620.7509968238883,"[77, 0, 177]",177,l,0.7340035540983081,colour,0.06
14,24,1,2,12,8,558,1622.7608638457023,1623.3909956580028,"[91, 0, 163]",163,l,0.10797049617394805,colour,0.06
14,24,1,2,12,9,559,1625.401703541167,1625.975015596021,"[59, 0, 195]",195,a,0.051142468117177486,colour,0.06
14,24,1,2,12,10,560,1627.9956606053747,1628.5430308175273,"[68, 0, 186]",186,a,0.025391640607267618,colour,0.06
14,24,1,2,12,11,561,1630.558356544003,1631.4149769362994,"[92, 0, 162]",162,l,0.3344854637980461,colour,0.06
14,24,1,2,12,12,562,1633.433614118956,1634.0309944921173,"[76, 0, 178]",178,a,0.07520054606720805,colour,0.06
14,24,1,2,12,13,563,1636.0431623621844,1636.7029905505478,"[87, 0, 167]",167,l,0.13765820767730474,colour,0.06
14,24,1,2,12,14,564,1638.7152753928676,1639.2949937456287,"[63, 0, 191]",191,a,0.05759405856952071,colour,0.06
14,24,1,2,12,15,565,1641.3092340324074,1641.8950207633898,"[61, 0, 193]",193,a,0.06356200529262424,colour,0.06
14,24,1,2,12,16,566,1643.903153681662,1644.5029928348958,"[66, 0, 188]",188,a,0.07761364011093974,colour,0.06
14,24,1,2,12,17,567,1646.5127554875799,1647.3750011813827,"[62, 0, 192]",192,a,0.34028917737305164,colour,0.06
14,24,1,2,12,18,568,1649.3880272414535,1650.1110117742792,"[73, 0, 181]",181,l,0.20089607825502753,colour,0.06
14,24,1,2,12,19,569,1652.1226511029527,1652.6870236434042,"[93, 0, 161]",161,l,0.04229865828529,colour,0.06
14,24,1,2,12,20,570,1654.700882293284,1655.3269771849737,"[52, 0, 202]",202,a,0.10390679398551583,colour,0.06
14,24,1,2,12,21,571,1657.341723564081,1657.991008497309,"[98, 0, 156]",156,l,0.12878525303676724,colour,0.06
14,24,1,2,12,22,572,1659.996658217162,1660.6149927689694,"[96, 0, 158]",158,l,0.09636346343904734,colour,0.06
14,24,1,2,12,23,573,1662.6218417491764,1663.7989936447702,"[70, 0, 184]",184,a,0.6649021054618061,colour,0.06
14,24,1,2,12,24,574,1665.8157080719247,1666.4549609618261,"[64, 0, 190]",190,a,0.11703367857262492,colour,0.06
14,24,1,2,12,25,575,1668.4623294253834,1669.5829667937942,"[72, 0, 182]",182,l,0.5986280771903694,colour,0.06
14,24,1,2,12,26,576,1671.6032069297507,1672.183015473187,"[24, 0, 230]",230,a,0.05764171341434121,colour,0.06
14,24,1,2,12,27,577,1674.1971261850558,1674.8069717814215,"[56, 0, 198]",198,a,0.08769097551703453,colour,0.06
14,24,1,2,12,28,578,1676.8223254708573,1677.390990538057,"[55, 0, 199]",199,a,0.04645294463261962,colour,0.06
14,24,1,2,12,29,579,1679.4007358616218,1679.958977008704,"[85, 0, 169]",169,l,0.03615702502429485,colour,0.06
14,24,1,2,12,30,580,1681.9789698091336,1682.5109953903593,"[86, 0, 168]",168,l,0.010015895590186119,colour,0.06
14,24,1,2,12,31,581,1684.5261123781092,1685.806942243129,"[79, 0, 175]",175,l,0.7587315640412271,colour,0.06
14,24,1,2,12,32,582,1687.8232679441571,1688.4229649193585,"[58, 0, 196]",196,a,0.0776309696957469,colour,0.06
14,24,1,2,12,33,583,1690.4329300085083,1691.478944602888,"[71, 0, 183]",183,l,0.5239170813001692,colour,0.06
14,24,1,2,12,34,584,1693.4955456024036,1694.1109751467593,"[74, 0, 180]",180,l,0.10269493004307151,colour,0.06
14,24,1,2,12,35,585,1696.1271693031304,1696.974967546761,"[53, 0, 201]",201,a,0.3256581951864064,colour,0.06
14,24,1,2,12,36,586,1698.9867699276656,1699.574981961865,"[90, 0, 164]",164,l,0.06614248408004642,colour,0.06
14,24,1,2,12,37,587,1701.5806797305122,1702.238980584778,"[65, 0, 189]",189,a,0.13612969173118472,colour,0.06
14,24,1,2,12,38,588,1704.2527821273543,1704.8549489099532,"[83, 0, 171]",171,l,0.08000152790918946,colour,0.06
14,24,1,2,12,39,589,1706.862348487135,1707.5189798288047,"[69, 0, 185]",185,l,0.13465513288974762,colour,0.06
14,24,1,2,12,40,590,1709.5343350935727,1710.0949385282584,"[88, 0, 166]",166,l,0.038241257425397635,colour,0.06
14,24,1,2,12,41,591,1712.1127923517488,1712.9669657791965,"[95, 0, 159]",159,a,0.33228898514062166,colour,0.06
14,24,1,2,12,42,592,1714.972360680811,1715.5189495026134,"[84, 0, 170]",170,l,0.02445743791759014,colour,0.06
14,24,1,2,12,43,593,1717.5350676467642,1718.1509705935605,"[81, 0, 173]",173,l,0.09369948925450444,colour,0.06
14,24,1,2,12,44,594,1720.1603134064935,1721.0389616014436,"[80, 0, 174]",174,l,0.35651208460330963,colour,0.06
14,24,1,2,12,45,595,1723.051079846453,1723.6069464967586,"[89, 0, 165]",165,l,0.03376756189391017,colour,0.06
14,24,1,2,12,46,596,1725.6138557358645,1726.4709333833307,"[46, 0, 208]",208,a,0.33498131623491645,colour,0.06
14,24,1,2,12,47,597,1728.4890396618284,1729.2789323148318,"[67, 0, 187]",187,a,0.267742364667356,colour,0.06
14,24,1,2,12,48,598,1731.2832516231574,1731.966933877673,"[12, 0, 242]",242,a,0.16143429232761264,colour,0.06
14,24,1,2,12,49,599,1733.9883291637525,1734.5989427599125,"[97, 0, 157]",157,l,0.0887189139612019,colour,0.06
14,24,1,2,12,50,600,1736.6135717728175,1737.5269374856725,"[54, 0, 200]",200,a,0.3914863904938102,colour,0.06
14,24,1,2,13,1,601,1745.0822039144114,1745.9588974518701,"[94, 0, 160]",160,l,0.3537453170865774,colour,0.06
14,24,1,2,13,2,602,1747.9738423293456,1748.6869003693573,"[73, 0, 181]",181,l,0.19094004714861512,colour,0.06
14,24,1,2,13,3,603,1750.6927702492103,1752.0629003443755,"[19, 0, 235]",235,a,0.8479053699411452,colour,0.06
14,24,1,2,13,4,604,1754.0680325506255,1754.6789643741213,"[14, 0, 240]",240,a,0.08877129526808858,colour,0.06
14,24,1,2,13,5,605,1756.6932759471238,1757.2709533907473,"[76, 0, 178]",178,l,0.055522034876048565,colour,0.06
14,24,1,2,13,6,606,1759.2872385256924,1759.9189142137766,"[68, 0, 186]",186,l,0.1095179165713489,colour,0.06
14,24,1,2,13,7,607,1761.9275902458467,1762.5269288206473,"[61, 0, 193]",193,a,0.0772024649195373,colour,0.06
14,24,1,2,13,8,608,1764.5371369132772,1765.4709081770852,"[85, 0, 169]",169,l,0.41143429232761264,colour,0.06
14,24,1,2,13,9,609,1767.4905717223883,1768.4469335940666,"[67, 0, 187]",187,a,0.4374135504476726,colour,0.06
14,24,1,2,13,10,610,1770.4574221051298,1770.998917711433,"[97, 0, 157]",157,l,0.019396517891436815,colour,0.06
14,24,1,2,13,11,611,1773.0045111109503,1773.9108706987463,"[86, 0, 168]",168,l,0.3826449434272945,colour,0.06
14,24,1,2,13,12,612,1775.9281798331067,1776.542954805307,"[77, 0, 177]",177,l,0.09277395159006119,colour,0.06
14,24,1,2,13,13,613,1778.5533539131284,1779.1349004986696,"[29, 0, 225]",225,a,0.059369515627622604,colour,0.06
14,24,1,2,13,14,614,1781.1472904975526,1781.7669223775156,"[88, 0, 166]",166,l,0.09758714213967323,colour,0.06
14,24,1,2,13,15,615,1783.7746677515097,1784.3668981953524,"[93, 0, 161]",161,l,0.0699430969543755,colour,0.06
14,24,1,2,13,16,616,1786.3717523464002,1786.9669067026116,"[53, 0, 201]",201,a,0.07293593231588602,colour,0.06
14,24,1,2,13,17,617,1788.981334459968,1789.53496012697,"[50, 0, 204]",204,a,0.03446545684710145,colour,0.06
14,24,1,2,13,18,618,1791.5437590386719,1792.1349304309115,"[52, 0, 202]",202,a,0.06905891327187419,colour,0.06
14,24,1,2,13,19,619,1794.1533340630122,1794.7189361904748,"[79, 0, 175]",175,l,0.04342702683061361,colour,0.06
14,24,1,2,13,20,620,1796.7317220047116,1797.26293586893,"[83, 0, 171]",171,l,0.009073028340935707,colour,0.06
14,24,1,2,13,21,621,1799.2787814722396,1799.838889054954,"[51, 0, 203]",203,a,0.03811089415103197,colour,0.06
14,24,1,2,13,22,622,1801.8571319980547,1802.5909157861024,"[69, 0, 185]",185,a,0.21172959776595235,colour,0.06
14,24,1,2,13,23,623,1804.6072670873255,1805.2468992508948,"[82, 0, 172]",172,l,0.11742240469902754,colour,0.06
14,24,1,2,13,24,624,1807.2637692471035,1807.878906951286,"[62, 0, 192]",192,a,0.09307248657569289,colour,0.06
14,24,1,2,13,25,625,1809.8889500224032,1810.7748686126433,"[78, 0, 176]",176,l,0.3637501848861575,colour,0.06
14,24,1,2,13,26,626,1812.7798499758355,1813.3669139491394,"[63, 0, 191]",191,a,0.06508579524233937,colour,0.06
14,24,1,2,13,27,627,1815.3738877787255,1816.0948814204894,"[75, 0, 179]",179,l,0.19880199944600463,colour,0.06
14,24,1,2,13,28,628,1818.1093729813583,1819.0708761177957,"[66, 0, 188]",188,a,0.439405623357743,colour,0.06
14,24,1,2,13,29,629,1821.078246156685,1821.7028987845406,"[74, 0, 180]",180,l,0.10258741024881601,colour,0.06
14,24,1,2,13,30,630,1823.719137052074,1824.246902401559,"[59, 0, 195]",195,a,0.0056544458493590355,colour,0.06
14,24,1,2,13,31,631,1826.266215030104,1826.9109069323167,"[65, 0, 189]",189,a,0.12249002000316978,colour,0.06
14,24,1,2,13,32,632,1828.9226852888241,1829.830862869043,"[81, 0, 173]",173,l,0.38605131674557924,colour,0.06
14,24,1,2,13,33,633,1831.8447983190417,1832.4389097713865,"[99, 0, 155]",155,l,0.0720395389944315,colour,0.06
14,24,1,2,13,34,634,1834.4543816144578,1835.0868973759934,"[87, 0, 167]",167,l,0.11036744248121977,colour,0.06
14,24,1,2,13,35,635,1837.0951563250273,1837.7748930314556,"[89, 0, 165]",165,l,0.15767306415364146,colour,0.06
14,24,1,2,13,36,636,1839.782820362132,1840.4069023071788,"[55, 0, 199]",199,a,0.10184461669996381,colour,0.06
14,24,1,2,13,37,637,1842.4237908138894,1843.102872160729,"[64, 0, 190]",190,a,0.15693814726546407,colour,0.06
14,24,1,2,13,38,638,1845.1114190109074,1845.678910810966,"[54, 0, 200]",200,a,0.045374988578259945,colour,0.06
14,24,1,2,13,39,639,1847.6897892290726,1848.4388979561627,"[98, 0, 156]",156,l,0.22695568157359958,colour,0.06
14,24,1,2,13,40,640,1850.455581269227,1851.3028667257167,"[80, 0, 174]",174,l,0.32511429442092776,colour,0.06
14,24,1,2,13,41,641,1853.3059446313418,1853.958868701011,"[71, 0, 183]",183,a,0.13078914117068052,colour,0.06
14,24,1,2,13,42,642,1855.9779942529276,1856.6389007917605,"[58, 0, 196]",196,a,0.13878539483994246,colour,0.06
14,24,1,2,13,43,643,1858.6501844772138,1859.2068975022994,"[95, 0, 159]",159,l,0.034518232103437185,colour,0.06
14,24,1,2,13,44,644,1861.2337345569395,1861.9669366348535,"[57, 0, 197]",197,a,0.2164100632071495,colour,0.06
14,24,1,2,13,45,645,1863.9786492185667,1864.8868382205255,"[91, 0, 163]",163,l,0.38615056592971087,colour,0.06
14,24,1,2,13,46,646,1866.903141866438,1867.5268476884812,"[72, 0, 182]",182,a,0.10151930013671517,colour,0.06
14,24,1,2,13,47,647,1869.5439291801304,1870.1589058013633,"[56, 0, 198]",198,a,0.09277867758646607,colour,0.06
14,24,1,2,13,48,648,1872.1691942382604,1873.0708843888715,"[70, 0, 184]",184,a,0.37960957270115614,colour,0.06
14,24,1,2,13,49,649,1875.0912411026657,1876.0868509025313,"[90, 0, 164]",164,l,0.47429643385112286,colour,0.06
14,24,1,2,13,50,650,1878.1070934012532,1878.6948702353984,"[96, 0, 158]",158,l,0.06555210892111063,colour,0.06
14,24,1,2,14,1,651,1886.6851079766639,1887.42285109777,"[81, 0, 173]",173,l,0.21552784787490964,colour,0.06
14,24,1,2,14,2,652,1889.4381850948557,1890.0788629194722,"[92, 0, 162]",162,l,0.11850863136351109,colour,0.06
14,24,1,2,14,3,653,1892.0947171868756,1892.814837672282,"[75, 0, 179]",179,l,0.198682663962245,colour,0.06
14,24,1,2,14,4,654,1894.8293587714434,1895.390849541407,"[91, 0, 163]",163,l,0.03959214920178056,colour,0.06
14,24,1,2,14,5,655,1897.4076254083775,1898.2868013563566,"[95, 0, 159]",159,l,0.35699257673695683,colour,0.06
14,24,1,2,14,6,656,1900.2984375343658,1900.958876971621,"[56, 0, 198]",198,a,0.1383474380709231,colour,0.06
14,24,1,2,14,7,657,1902.97063445393,1903.5188774284907,"[99, 0, 155]",155,l,0.026085596531629562,colour,0.06
14,24,1,2,14,8,658,1905.5239781271666,1906.1668886644766,"[84, 0, 170]",170,l,0.12082208273932338,colour,0.06
14,24,1,2,14,9,659,1908.1804798929952,1908.8308656257577,"[58, 0, 196]",196,a,0.1285040471702814,colour,0.06
14,24,1,2,14,10,660,1910.8368938313797,1911.4148623272777,"[83, 0, 171]",171,l,0.055813481099903584,colour,0.06
14,24,1,2,14,11,661,1913.4308331729844,1914.0308582214639,"[61, 0, 193]",193,a,0.07786767091602087,colour,0.06
14,24,1,2,14,12,662,1916.0404282836244,1916.886822072789,"[97, 0, 157]",157,l,0.32429155008867383,colour,0.06
14,24,1,2,14,13,663,1918.9000785327516,1919.4788563814946,"[33, 0, 221]",221,a,0.0566082620061934,colour,0.06
14,24,1,2,14,14,664,1921.4939548587427,1924.5188478901982,"[65, 0, 189]",189,a,2.5026679122820497,colour,0.06
14,24,1,2,14,15,665,1926.5255944710225,1927.1508453506976,"[55, 0, 199]",199,a,0.10303245624527335,colour,0.06
14,24,1,2,14,16,666,1929.1666815015487,1930.0787821807899,"[8, 0, 246]",246,a,0.39003585558384657,colour,0.06
14,24,1,2,14,17,667,1932.088764993474,1932.686864135787,"[63, 0, 191]",191,a,0.07605637377128005,colour,0.06
14,24,1,2,14,18,668,1934.6890432848595,1935.3828198104165,"[78, 0, 176]",176,l,0.17159315384924412,colour,0.06
14,24,1,2,14,19,669,1937.3923981431872,1938.0708453981206,"[66, 0, 188]",188,a,0.1562638832256198,colour,0.06
14,24,1,2,14,20,670,1940.0814154348336,1940.8468396225944,"[76, 0, 178]",178,a,0.2433581822551787,colour,0.06
14,24,1,2,14,21,671,1942.8628384317271,1943.494806747418,"[82, 0, 172]",172,l,0.11003503622487187,colour,0.06
14,24,1,2,14,22,672,1945.5036698561162,1946.5108154024929,"[68, 0, 186]",186,l,0.48508623614907265,colour,0.06
14,24,1,2,14,23,673,1948.5195111269131,1949.2548380033113,"[57, 0, 197]",197,l,0.2132147909142077,colour,0.06
14,24,1,2,14,24,674,1951.2696627574041,1952.01480388036,"[73, 0, 181]",181,l,0.22292624367401004,colour,0.06
14,24,1,2,14,25,675,1954.0198829174042,1954.8468356840312,"[89, 0, 165]",165,l,0.30482453340664506,colour,0.06
14,24,1,2,14,26,676,1956.8639668002725,1957.518804173451,"[67, 0, 187]",187,a,0.13278909074142575,colour,0.06
14,24,1,2,14,27,677,1959.535948680248,1960.27879801346,"[85, 0, 169]",169,l,0.22078569093719125,colour,0.06
14,24,1,2,14,28,678,1962.2861605691724,1963.0548359551467,"[71, 0, 183]",183,a,0.2464731098152697,colour,0.06
14,24,1,2,14,29,679,1965.0676643042825,1965.6548318592831,"[98, 0, 156]",156,l,0.06498536467552185,colour,0.06
14,24,1,2,14,30,680,1967.661559141241,1968.2148295589723,"[64, 0, 190]",190,a,0.03107877541333437,colour,0.06
14,24,1,2,14,31,681,1970.2243121871725,1970.8948254156858,"[51, 0, 203]",203,a,0.14833418931812048,colour,0.06
14,24,1,2,14,32,682,1972.9120199410245,1973.4948299843818,"[26, 0, 228]",228,a,0.06077318266034126,colour,0.06
14,24,1,2,14,33,683,1975.5059565254487,1976.1028056005016,"[96, 0, 158]",158,l,0.07467318652197719,colour,0.06
14,24,1,2,14,34,684,1978.1155579378828,1978.7108414750546,"[86, 0, 168]",168,l,0.07305487338453531,colour,0.06
14,24,1,2,14,35,685,1980.725119965151,1981.4947756337933,"[50, 0, 204]",204,a,0.24746560165658593,colour,0.06
14,24,1,2,14,36,686,1983.5066398479976,1984.4147890717722,"[54, 0, 200]",200,a,0.3860461967997253,colour,0.06
14,24,1,2,14,37,687,1986.4287662697025,1987.0468239476904,"[59, 0, 195]",195,a,0.09607753111049533,colour,0.06
14,24,1,2,14,38,688,1989.0539127802476,1989.7268308321945,"[69, 0, 185]",185,a,0.1507275910116732,colour,0.06
14,24,1,2,14,39,689,1991.7416295926087,1992.3108279271983,"[88, 0, 166]",166,l,0.047047652304172516,colour,0.06
14,24,1,2,14,40,690,1994.3200254109688,1995.5267945192754,"[72, 0, 182]",182,a,0.6939884144812822,colour,0.06
14,24,1,2,14,41,691,1997.5452430499718,1998.1107573499903,"[52, 0, 202]",202,a,0.04346522968262434,colour,0.06
14,24,1,2,14,42,692,2000.123613268137,2000.6628151158802,"[62, 0, 192]",192,a,0.017167349811643362,colour,0.06
14,24,1,2,14,43,693,2002.6707093636505,2003.3827749122865,"[80, 0, 174]",174,l,0.18991880491375923,colour,0.06
14,24,1,2,14,44,694,2005.3896278310567,2005.9187657339498,"[79, 0, 175]",175,l,0.006958863697946072,colour,0.06
14,24,1,2,14,45,695,2007.936774732545,2008.4948193505406,"[90, 0, 164]",164,l,0.04828747920691967,colour,0.06
14,24,1,2,14,46,696,2010.4994108062238,2011.0707670226693,"[77, 0, 177]",177,l,0.04910667892545462,colour,0.06
14,24,1,2,14,47,697,2013.0777412462048,2014.0467861383222,"[87, 0, 167]",167,l,0.4468359206803143,colour,0.06
14,24,1,2,14,48,698,2016.0623895260505,2016.9507381459698,"[93, 0, 161]",161,l,0.36637044232338667,colour,0.06
14,24,1,2,14,49,699,2018.957416985184,2019.8547452916391,"[70, 0, 184]",184,a,0.37515911366790533,colour,0.06
14,24,1,2,14,50,700,2021.86392584024,2022.5987706491724,"[74, 0, 180]",180,a,0.2128122802823782,colour,0.06
14,24,1,2,15,1,701,2042.608545904979,2043.1352502335794,"[88, 0, 166]",166,l,0.0048639969900250435,colour,0.06
14,24,1,2,15,2,702,2045.1481321463361,2045.7187770768069,"[85, 0, 169]",169,l,0.04864075919613242,colour,0.06
14,24,1,2,15,3,703,2047.7263369490393,2048.638734982349,"[54, 0, 200]",200,a,0.3903261199593544,colour,0.06
14,24,1,2,15,4,704,2050.6526601929218,2051.390736113768,"[80, 0, 174]",174,l,0.215998494066298,colour,0.06
14,24,1,2,15,5,705,2053.402896894142,2054.1667638150975,"[81, 0, 173]",173,l,0.24178201099857688,colour,0.06
14,24,1,2,15,6,706,2056.1843931460753,2056.7827305649407,"[58, 0, 196]",196,a,0.0761079671792686,colour,0.06
14,24,1,2,15,7,707,2058.7939532045275,2059.422815651633,"[78, 0, 176]",176,l,0.10665268776938319,colour,0.06
14,24,1,2,15,8,708,2061.4281294206157,2062.0868646870367,"[67, 0, 187]",187,a,0.13443733612075448,colour,0.06
14,24,1,2,15,9,709,2064.0925876619294,2064.718758959789,"[77, 0, 177]",177,l,0.10408717533573508,colour,0.06
14,24,1,2,15,10,710,2066.7207522140816,2067.366736324504,"[94, 0, 160]",160,l,0.12380113266408443,colour,0.06
14,24,1,2,15,11,711,2069.3772331061773,2070.462752809748,"[70, 0, 184]",184,a,0.5634154952131212,colour,0.06
14,24,1,2,15,12,712,2072.4711310938,2073.1508752829395,"[50, 0, 204]",204,l,0.15773292817175388,colour,0.06
14,24,1,2,15,13,713,2075.155053988099,2075.9187480108812,"[90, 0, 164]",164,l,0.24201201694086194,colour,0.06
14,24,1,2,15,14,714,2077.9362312252633,2078.5747405341826,"[72, 0, 182]",182,a,0.11632987577468157,colour,0.06
14,24,1,2,15,15,715,2080.592800732702,2081.2307925280184,"[91, 0, 163]",163,l,0.11608923599123955,colour,0.06
14,24,1,2,15,16,716,2083.2489886037074,2083.918738558423,"[56, 0, 198]",198,a,0.14777571568265557,colour,0.06
14,24,1,2,15,17,717,2085.935511274729,2086.550727748312,"[60, 0, 194]",194,a,0.09308193903416395,colour,0.06
14,24,1,2,15,18,718,2088.5606892933138,2089.086759530008,"[66, 0, 188]",188,a,0.003897499293088913,colour,0.06
14,24,1,2,15,19,719,2091.107848797459,2091.8227555505,"[97, 0, 157]",157,l,0.19282893184572458,colour,0.06
14,24,1,2,15,20,720,2093.8423308744095,2094.422750667203,"[35, 0, 219]",219,a,0.058206882793456316,colour,0.06
14,24,1,2,15,21,721,2096.4363265358843,2097.3987445766106,"[68, 0, 186]",186,a,0.44100069953128695,colour,0.06
14,24,1,2,15,22,722,2099.4052895079367,2100.0147546497174,"[62, 0, 192]",192,a,0.08728019474074244,colour,0.06
14,24,1,2,15,23,723,2102.030507698655,2103.030729040038,"[64, 0, 190]",190,a,0.47827112674713135,colour,0.06
14,24,1,2,15,24,724,2105.0464072586037,2105.8147270018235,"[75, 0, 179]",179,l,0.2464120639488101,colour,0.06
14,24,1,2,15,25,725,2107.828643547371,2108.470708103385,"[40, 0, 214]",214,a,0.11998437205329537,colour,0.06
14,24,1,2,15,26,726,2110.4851098670624,2111.174712019507,"[93, 0, 161]",161,l,0.1673711254261434,colour,0.06
14,24,1,2,15,27,727,2113.1884296732023,2113.7987317373045,"[99, 0, 155]",155,l,0.08810530183836818,colour,0.06
14,24,1,2,15,28,728,2115.8136699190363,2116.3587105325423,"[63, 0, 191]",191,a,0.02304274309426546,colour,0.06
14,24,1,2,15,29,729,2118.376356405206,2118.9587324303575,"[89, 0, 165]",165,l,0.06020053057000041,colour,0.06
14,24,1,2,15,30,730,2120.970283143688,2121.510740572121,"[87, 0, 167]",167,l,0.018220494035631418,colour,0.06
14,24,1,2,15,31,731,2123.5174186234362,2124.2067139698192,"[61, 0, 193]",193,a,0.16712615359574556,colour,0.06
14,24,1,2,15,32,732,2126.220676595811,2126.854737021029,"[82, 0, 172]",172,l,0.11182939866557717,colour,0.06
14,24,1,2,15,33,733,2128.8491960028186,2129.422717189882,"[57, 0, 197]",197,a,0.051282677333801985,colour,0.06
14,24,1,2,15,34,734,2131.443200328853,2132.166716159787,"[83, 0, 171]",171,l,0.20138090243563056,colour,0.06
14,24,1,2,15,35,735,2134.1777115501463,2135.0627439874224,"[86, 0, 168]",168,l,0.36322479462251067,colour,0.06
14,24,1,2,15,36,736,2137.0713010774925,2137.7107327738777,"[7, 0, 247]",247,a,0.11729755531996489,colour,0.06
14,24,1,2,15,37,737,2139.716291121207,2140.286747005768,"[76, 0, 178]",178,l,0.04883571248501539,colour,0.06
14,24,1,2,15,38,738,2142.288299546577,2142.902717300225,"[55, 0, 199]",199,a,0.09282278828322887,colour,0.06
14,24,1,2,15,39,739,2144.91361659253,2145.438698275946,"[95, 0, 159]",159,l,0.0019786818884313107,colour,0.06
14,24,1,2,15,40,740,2147.4500205586664,2147.982706225477,"[74, 0, 180]",180,a,0.01083706459030509,colour,0.06
14,24,1,2,15,41,741,2149.99715013057,2150.9347082232125,"[98, 0, 156]",156,l,0.41556140407919884,colour,0.06
14,24,1,2,15,42,742,2152.9505341337062,2153.5186927150935,"[69, 0, 185]",185,a,0.04600671771913767,colour,0.06
14,24,1,2,15,43,743,2155.52278280491,2156.1827878304757,"[96, 0, 158]",158,l,0.13790908781811595,colour,0.06
14,24,1,2,15,44,744,2158.194842272438,2158.75870123785,"[92, 0, 162]",162,l,0.04174884920939803,colour,0.06
14,24,1,2,15,45,745,2160.773147900123,2161.4546797559597,"[65, 0, 189]",189,a,0.1595540721900761,colour,0.06
14,24,1,2,15,46,746,2163.4607902751304,2164.0467148520984,"[53, 0, 201]",201,a,0.06373175280168653,colour,0.06
14,24,1,2,15,47,747,2166.0548044475727,2166.790666166693,"[79, 0, 175]",175,l,0.21367559069767594,colour,0.06
14,24,1,2,15,48,748,2168.805041148793,2169.335089229513,"[71, 0, 183]",183,a,0.007906062994152308,colour,0.06
14,24,1,2,15,49,749,2171.3678197949193,2171.966705447063,"[59, 0, 195]",195,a,0.07678735163062811,colour,0.06
14,24,1,2,15,50,750,2173.9772715456784,2174.5346978255548,"[73, 0, 181]",181,a,0.035233062226325274,colour,0.06
14,24,1,2,16,1,751,2181.9804636668414,2182.686709354166,"[56, 0, 198]",198,a,0.18332897499203682,colour,0.06
14,24,1,2,16,2,752,2184.700146589428,2185.6386534562334,"[65, 0, 189]",189,a,0.41652238741517067,colour,0.06
14,24,1,2,16,3,753,2187.6535152322613,2188.1986708487384,"[78, 0, 176]",176,l,0.022993906401097775,colour,0.06
14,24,1,2,16,4,754,2190.218697519973,2190.7826986634172,"[62, 0, 192]",192,a,0.0418205289170146,colour,0.06
14,24,1,2,16,5,755,2192.7970027537085,2193.462692551315,"[75, 0, 179]",179,l,0.1437135892920196,colour,0.06
14,24,1,2,16,6,756,2195.4691244489513,2196.3506792266853,"[51, 0, 203]",203,a,0.35953524615615606,colour,0.06
14,24,1,2,16,7,757,2198.359926335048,2198.886696829926,"[87, 0, 167]",167,l,0.004568218719214201,colour,0.06
14,24,1,2,16,8,758,2200.9069479932077,2201.5266641564667,"[52, 0, 202]",202,a,0.0945175071246922,colour,0.06
14,24,1,2,16,9,759,2203.535156262107,2204.1346905785613,"[58, 0, 196]",196,a,0.07782592298462987,colour,0.06
14,24,1,2,16,10,760,2206.1447509787977,2207.0227587800473,"[54, 0, 200]",200,a,0.3558677528053522,colour,0.06
14,24,1,2,16,11,761,2209.035582009703,2209.686681785155,"[63, 0, 191]",191,a,0.12891285959631205,colour,0.06
14,24,1,2,16,12,762,2211.692076686304,2212.22264621919,"[84, 0, 170]",170,l,0.008448782842606306,colour,0.06
14,24,1,2,16,13,763,2214.2391562401317,2214.862644265406,"[97, 0, 157]",157,l,0.1013641245663166,colour,0.06
14,24,1,2,16,14,764,2216.879993966315,2217.518650967162,"[88, 0, 166]",166,l,0.11673396173864603,colour,0.06
14,24,1,2,16,15,765,2219.536378759891,2220.1826554979198,"[91, 0, 163]",163,l,0.12402365589514375,colour,0.06
14,24,1,2,16,16,766,2222.1804668963887,2222.838681104593,"[57, 0, 197]",197,a,0.13620806764811277,colour,0.06
14,24,1,2,16,17,767,2224.8525224253535,2225.494661024306,"[69, 0, 185]",185,a,0.11995680257678032,colour,0.06
14,24,1,2,16,18,768,2227.5090635758825,2228.158643499948,"[73, 0, 181]",181,a,0.1274040355347097,colour,0.06
14,24,1,2,16,19,769,2230.1655944865197,2230.9506416535005,"[96, 0, 158]",158,l,0.26289884746074677,colour,0.06
14,24,1,2,16,20,770,2232.962605904788,2233.662657971494,"[27, 0, 227]",227,a,0.17790689785033464,colour,0.06
14,24,1,2,16,21,771,2235.681593689602,2236.3266774686053,"[26, 0, 228]",228,a,0.12350574880838394,colour,0.06
14,24,1,2,16,22,772,2238.3381017572246,2239.294629044365,"[94, 0, 160]",160,l,0.4344699466601014,colour,0.06
14,24,1,2,16,23,773,2241.3070651232265,2241.9506546505727,"[95, 0, 159]",159,l,0.12141678994521499,colour,0.06
14,24,1,2,16,24,774,2243.9634633073583,2244.5586326299235,"[61, 0, 193]",193,a,0.07319468911737204,colour,0.06
14,24,1,2,16,25,775,2246.5730820489116,2247.318628439214,"[64, 0, 190]",190,a,0.2234264276921749,colour,0.06
14,24,1,2,16,26,776,2249.3389335596003,2250.110677399207,"[81, 0, 173]",173,l,0.2495848867110908,colour,0.06
14,24,1,2,16,27,777,2252.1203640396707,2253.014658157248,"[74, 0, 180]",180,l,0.37213634606450796,colour,0.06
14,24,1,2,16,28,778,2255.0283848694526,2255.798646666575,"[70, 0, 184]",184,a,0.24814577354118228,colour,0.06
14,24,1,2,16,29,779,2257.809903570451,2258.510650381446,"[89, 0, 165]",165,l,0.17865087324753404,colour,0.06
14,24,1,2,16,30,780,2260.535737578757,2261.670651861932,"[76, 0, 178]",178,l,0.6198264397680759,colour,0.06
14,24,1,2,16,31,781,2263.6852926905267,2264.4546384019777,"[93, 0, 161]",161,l,0.24776177341118455,colour,0.06
14,24,1,2,16,32,782,2266.4668421116658,2267.1586092351936,"[55, 0, 199]",199,a,0.16960068745538592,colour,0.06
14,24,1,2,16,33,783,2269.171879086178,2269.894618252758,"[82, 0, 172]",172,l,0.2006105398759246,colour,0.06
14,24,1,2,16,34,784,2271.906502159778,2272.4306575176306,"[68, 0, 186]",186,a,0.0021137711592018604,colour,0.06
14,24,1,2,16,35,785,2274.4378928611986,2275.0546347000636,"[49, 0, 205]",205,a,0.09460966754704714,colour,0.06
14,24,1,2,16,36,786,2277.063109476585,2277.662635522429,"[79, 0, 175]",175,l,0.07753880973905325,colour,0.06
14,24,1,2,16,37,787,2279.672759331763,2280.3026162395254,"[77, 0, 177]",177,l,0.10818632366135716,colour,0.06
14,24,1,2,16,38,788,2282.313545857556,2283.2225989573635,"[50, 0, 204]",204,a,0.3870930387638509,colour,0.06
14,24,1,2,16,39,789,2285.235623442102,2285.846639548894,"[80, 0, 174]",174,l,0.08883312903344631,colour,0.06
14,24,1,2,16,40,790,2287.862362272106,2288.5105936676264,"[72, 0, 182]",182,l,0.1266348548233509,colour,0.06
14,24,1,2,16,41,791,2290.518073983025,2291.1106238360517,"[85, 0, 169]",169,l,0.07029401371255517,colour,0.06
14,24,1,2,16,42,792,2293.1277978811413,2293.7346411906183,"[92, 0, 162]",162,l,0.08480014698579907,colour,0.06
14,24,1,2,16,43,793,2295.7530038626865,2296.31862528855,"[60, 0, 194]",194,a,0.04350422043353319,colour,0.06
14,24,1,2,16,44,794,2298.3211396010593,2298.9586060056463,"[59, 0, 195]",195,a,0.11528894072398543,colour,0.06
14,24,1,2,16,45,795,2300.977648062166,2301.510603119619,"[86, 0, 168]",168,l,0.010799255222082138,colour,0.06
14,24,1,2,16,46,796,2303.524754397571,2304.062602596823,"[83, 0, 171]",171,l,0.015771166421473026,colour,0.06
14,24,1,2,16,47,797,2306.071762665175,2306.7425842750818,"[99, 0, 155]",155,l,0.14864847855642438,colour,0.06
14,24,1,2,16,48,798,2308.7595314648934,2309.3105876808986,"[67, 0, 187]",187,a,0.02802686346694827,colour,0.06
14,24,1,2,16,49,799,2311.3232840918936,2311.862599367276,"[66, 0, 188]",188,a,0.017142537515610456,colour,0.06
14,24,1,2,16,50,800,2313.8703510425985,2314.5745940236375,"[90, 0, 164]",164,l,0.18206433579325676,colour,0.06
