id,age,condition,counterbalance,block,trialinblock,trial,tstart,tend,trialstim,trialintensity,response,RT,trialtype,colourfreq
08,25,1,1,Practice,1,NA,5.513837095350027e-06,1.1450966615375364,"[46, 0, 208]",208,a,0.5894147690560203,colour,0.5
08,25,1,1,Practice,2,NA,3.1573070570011623,3.769058386038523,"[50, 0, 204]",204,a,0.08856248714437243,colour,0.5
08,25,1,1,Practice,3,NA,5.782535782840569,6.769082410624833,"[13, 0, 241]",241,a,0.463258142961422,colour,0.5
08,25,1,1,Practice,4,NA,8.78275554870197,9.641049504032708,"[1, 0, 253]",253,a,0.3349609659635462,colour,0.5
08,25,1,1,Practice,5,NA,11.658292458727374,12.305092108683311,"[98, 0, 156]",156,l,0.12383254314772785,colour,0.5
08,25,1,1,Practice,6,NA,14.314419554284541,15.0571844134829,"[56, 0, 198]",198,a,0.21946574054891244,colour,0.5
08,25,1,1,Practice,7,NA,17.064693867752794,18.02499423015979,"[69, 0, 185]",185,a,0.437701501257834,colour,0.5
08,25,1,1,Practice,8,NA,20.033657652063994,20.64106210709724,"[10, 0, 244]",244,a,0.08415614246041514,colour,0.5
08,25,1,1,Practice,9,NA,22.658818242620328,23.5210498663655,"[15, 0, 239]",239,a,0.3388899697747547,colour,0.5
08,25,1,1,Practice,10,NA,25.5340944268537,26.441019650534145,"[53, 0, 201]",201,a,0.38364422193262726,colour,0.5
08,25,1,1,1,1,1,5.994647244297084,6.847989772606525,"[26, 0, 228]",228,a,0.32915174319350626,colour,0.5
08,25,1,1,1,2,2,8.855041972128674,9.736074997650576,"[35, 0, 219]",219,a,0.35760354397643823,colour,0.5
08,25,1,1,1,3,3,11.745931377910892,12.640046379252453,"[76, 0, 178]",178,l,0.3711179622769123,colour,0.5
08,25,1,1,1,4,4,14.652391863783123,15.53600260883104,"[5, 0, 249]",249,a,0.3601694481330924,colour,0.5
08,25,1,1,1,5,5,17.543247792695183,18.359992217607214,"[2, 0, 252]",252,a,0.2933669309859397,colour,0.5
08,25,1,1,1,6,6,20.37162366003031,21.239986672255327,"[40, 0, 214]",214,a,0.3450371120707132,colour,0.5
08,25,1,1,1,7,7,23.246778145970893,24.16001198865706,"[15, 0, 239]",239,a,0.3898228718753671,colour,0.5
08,25,1,1,1,8,8,26.16891093023878,27.096049886051333,"[96, 0, 158]",158,l,0.40372089578886516,colour,0.5
08,25,1,1,1,9,9,29.10660928073048,29.991972244912176,"[87, 0, 167]",167,l,0.36191694111039396,colour,0.5
08,25,1,1,1,10,10,32.01312608651642,32.79198216981604,"[27, 0, 227]",227,a,0.25557783847034443,colour,0.5
08,25,1,1,1,11,11,34.81019477240625,35.63197845191462,"[86, 0, 168]",168,l,0.2984006717451848,colour,0.5
08,25,1,1,1,12,12,37.63852731673978,38.559988200388034,"[54, 0, 200]",200,a,0.3979514514503535,colour,0.5
08,25,1,1,1,13,13,40.57622606107907,41.64796543295961,"[6, 0, 248]",248,a,0.5482799580640858,colour,0.5
08,25,1,1,1,14,14,43.65458794690494,44.52806543823681,"[1, 0, 253]",253,a,0.350064157450106,colour,0.5
08,25,1,1,1,15,15,46.545450965029886,47.39198587196006,"[42, 0, 212]",212,a,0.323147566858097,colour,0.5
08,25,1,1,1,16,16,49.40509778005071,50.07997862205957,"[65, 0, 189]",189,l,0.151491138865822,colour,0.5
08,25,1,1,1,17,17,52.09279632745893,52.92001783332671,"[59, 0, 195]",195,l,0.3038164427416632,colour,0.5
08,25,1,1,1,18,18,54.93687639469863,55.81593979832542,"[73, 0, 181]",181,l,0.35571899272326846,colour,0.5
08,25,1,1,1,19,19,57.827646465273574,58.663950838614255,"[25, 0, 229]",229,a,0.3129402701597428,colour,0.5
08,25,1,1,1,20,20,60.67157568964467,61.807977815464255,"[56, 0, 198]",198,a,0.6130112411483424,colour,0.5
08,25,1,1,1,21,21,63.8281379846012,64.69604256053572,"[88, 0, 166]",166,l,0.34499930290621705,colour,0.5
08,25,1,1,1,22,22,66.70327041517885,67.5999544714432,"[9, 0, 245]",245,a,0.3732648146979045,colour,0.5
08,25,1,1,1,23,23,69.60978722096479,70.42398582785972,"[19, 0, 235]",235,a,0.2909002759261057,colour,0.5
08,25,1,1,1,24,24,72.43808589458058,73.28793343693542,"[23, 0, 231]",231,a,0.3263554393633967,colour,0.5
08,25,1,1,1,25,25,75.29773349726747,76.18393298953015,"[63, 0, 191]",191,l,0.3629062812833581,colour,0.5
08,25,1,1,1,26,26,78.20424990922038,79.03987686810433,"[14, 0, 240]",240,a,0.31233177869580686,colour,0.5
08,25,1,1,1,27,27,81.04823860427132,81.92793531164352,"[83, 0, 171]",171,l,0.35679497894307133,colour,0.5
08,25,1,1,1,28,28,83.93909335164062,84.77592665964039,"[75, 0, 179]",179,l,0.3135838138841791,colour,0.5
08,25,1,1,1,29,29,86.78300327758188,87.74406454971177,"[17, 0, 237]",237,a,0.43798113164666574,colour,0.5
08,25,1,1,1,30,30,89.75201826183184,90.57590665228781,"[50, 0, 204]",204,l,0.3005494934041053,colour,0.5
08,25,1,1,1,31,31,92.5959549692634,93.4399058551353,"[37, 0, 217]",217,a,0.32063325647322927,colour,0.5
08,25,1,1,1,32,32,95.45555649203015,96.29586706293048,"[92, 0, 162]",162,l,0.31697206768149044,colour,0.5
08,25,1,1,1,33,33,98.31517810092191,99.1679381315771,"[33, 0, 221]",221,a,0.32962553946708795,colour,0.5
08,25,1,1,1,34,34,101.17482530977577,102.09594276004646,"[30, 0, 224]",224,a,0.3978108485462144,colour,0.5
08,25,1,1,1,35,35,104.11250436183764,104.99989051090961,"[49, 0, 205]",205,l,0.36399250746762846,colour,0.5
08,25,1,1,1,36,36,107.01899438611872,107.9438336774183,"[60, 0, 194]",194,l,0.40153150804690085,colour,0.5
08,25,1,1,1,37,37,109.95666044128302,111.12786000836059,"[55, 0, 199]",199,l,0.6477543317159871,colour,0.5
08,25,1,1,1,38,38,113.14441491477191,113.7038678789686,"[69, 0, 185]",185,l,0.03612391327624209,colour,0.5
08,25,1,1,1,39,39,115.72280476363085,116.2718810775259,"[79, 0, 175]",175,l,0.02582524440367706,colour,0.5
08,25,1,1,1,40,40,118.28542818500136,118.84788500968716,"[91, 0, 163]",163,l,0.03903403850563336,colour,0.5
08,25,1,1,1,41,41,120.86376092625142,121.59181565188919,"[81, 0, 173]",173,l,0.20477648079395294,colour,0.5
08,25,1,1,1,42,42,123.59841689818131,124.43188597697008,"[74, 0, 180]",180,l,0.3103274983877782,colour,0.5
08,25,1,1,1,43,43,126.4422925595427,127.37586931571423,"[47, 0, 207]",207,a,0.4101354592567077,colour,0.5
08,25,1,1,1,44,44,129.39571243913088,130.27983478964597,"[53, 0, 201]",201,a,0.3607405242801178,colour,0.5
08,25,1,1,1,45,45,132.28651086658647,133.13598583100247,"[13, 0, 241]",241,a,0.3260494213172933,colour,0.5
08,25,1,1,1,46,46,135.14619037078228,135.97584820559132,"[46, 0, 208]",208,a,0.30633863002003636,colour,0.5
08,25,1,1,1,47,47,137.99016134279373,138.85583754026447,"[52, 0, 202]",202,a,0.34231209428980947,colour,0.5
08,25,1,1,1,48,48,140.8653339456214,142.14380445407005,"[58, 0, 196]",196,l,0.7553155372879701,colour,0.5
08,25,1,1,1,49,49,144.16250700059754,145.1038543306786,"[20, 0, 234]",234,a,0.4180474237364251,colour,0.5
08,25,1,1,1,50,50,147.11584259723895,147.9438281635812,"[7, 0, 247]",247,a,0.30477939525735565,colour,0.5
08,25,1,1,2,1,51,156.14695797588502,156.84779836364032,"[11, 0, 243]",243,a,0.17669410719827283,colour,0.5
08,25,1,1,2,2,52,158.86691444806638,159.65581556367397,"[28, 0, 226]",226,a,0.26564453227911144,colour,0.5
08,25,1,1,2,3,53,161.66383701722953,162.25581965966558,"[48, 0, 206]",206,a,0.06871503143338487,colour,0.5
08,25,1,1,2,4,54,164.27341510617407,164.79980748826347,"[3, 0, 251]",251,a,0.0030022850987734273,colour,0.5
08,25,1,1,2,5,55,166.82057693655952,167.80787856636744,"[6, 0, 248]",248,a,0.46406198185286485,colour,0.5
08,25,1,1,2,6,56,169.8207002102281,170.6318437567097,"[80, 0, 174]",174,l,0.28780189249664545,colour,0.5
08,25,1,1,2,7,57,172.64910285908263,173.48027621180518,"[9, 0, 245]",245,a,0.30799632621346973,colour,0.5
08,25,1,1,2,8,58,175.4930301142158,176.343753569221,"[19, 0, 235]",235,a,0.32732705648231786,colour,0.5
08,25,1,1,2,9,59,178.35264660311805,179.35975984869583,"[55, 0, 199]",199,l,0.4837105455371784,colour,0.5
08,25,1,1,2,10,60,181.36854299966944,182.4397896706796,"[61, 0, 193]",193,l,0.5478817801486002,colour,0.5
08,25,1,1,2,11,61,184.4469359992945,185.79976022678602,"[44, 0, 210]",210,a,0.8295830041461159,colour,0.5
08,25,1,1,2,12,62,187.80650995287579,188.5997941762762,"[10, 0, 244]",244,a,0.269820871137199,colour,0.5
08,25,1,1,2,13,63,190.61925723867898,191.42381214194756,"[34, 0, 220]",220,a,0.28118843701668084,colour,0.5
08,25,1,1,2,14,64,193.43191905999265,194.17572800391645,"[74, 0, 180]",180,l,0.22064648968807887,colour,0.5
08,25,1,1,2,15,65,196.18217249964073,197.04780576794292,"[91, 0, 163]",163,l,0.3425787277665222,colour,0.5
08,25,1,1,2,16,66,199.05745971156284,199.8797790210956,"[97, 0, 157]",157,l,0.29904657854058314,colour,0.5
08,25,1,1,2,17,67,201.90136806211376,202.74380697468587,"[30, 0, 224]",224,a,0.31904527098231483,colour,0.5
08,25,1,1,2,18,68,204.76100503097405,205.55973180689034,"[35, 0, 219]",219,a,0.2753776388708502,colour,0.5
08,25,1,1,2,19,69,207.5737156891555,208.37598825708847,"[41, 0, 213]",213,a,0.2788773509528255,colour,0.5
08,25,1,1,2,20,70,210.38642871039337,211.06372697676125,"[67, 0, 187]",187,l,0.15391053244820796,colour,0.5
08,25,1,1,2,21,71,213.0739622365072,214.16772584879072,"[59, 0, 195]",195,a,0.5710469912883127,colour,0.5
08,25,1,1,2,22,72,216.18376718052605,216.99970461579505,"[32, 0, 222]",222,a,0.2926576150493929,colour,0.5
08,25,1,1,2,23,73,219.0121099648386,219.81570388481487,"[60, 0, 194]",194,l,0.2803137059090659,colour,0.5
08,25,1,1,2,24,74,221.8248210168531,222.75972582043323,"[79, 0, 175]",175,l,0.4115919003234012,colour,0.5
08,25,1,1,2,25,75,224.77818457652756,225.5916778059327,"[54, 0, 200]",200,a,0.2909416297188727,colour,0.5
08,25,1,1,2,26,76,227.60647301014978,228.40772985026706,"[66, 0, 188]",188,l,0.2779352722573094,colour,0.5
08,25,1,1,2,27,77,230.41924353285867,231.28770618801354,"[8, 0, 246]",246,a,0.34512336425541434,colour,0.5
08,25,1,1,2,28,78,233.29443110182183,234.0956930619286,"[73, 0, 181]",181,l,0.2778513831435703,colour,0.5
08,25,1,1,2,29,79,236.10721422759525,236.92770688119344,"[14, 0, 240]",240,a,0.29722858720924705,colour,0.5
08,25,1,1,2,30,80,238.93545303666906,239.69573339172348,"[76, 0, 178]",178,l,0.2368957719154423,colour,0.5
08,25,1,1,2,31,81,241.71699632857053,242.5597034500097,"[23, 0, 231]",231,a,0.31940918433247134,colour,0.5
08,25,1,1,2,32,82,244.57654153140902,245.2077307167201,"[78, 0, 176]",176,l,0.10779396833095234,colour,0.5
08,25,1,1,2,33,83,247.21740435261745,248.0876487653295,"[25, 0, 229]",229,a,0.34692363254725933,colour,0.5
08,25,1,1,2,34,84,250.10827603536018,250.91968857838947,"[27, 0, 227]",227,a,0.28805355985241476,colour,0.5
08,25,1,1,2,35,85,252.936584948955,253.74367346102372,"[81, 0, 173]",173,l,0.2836952643265249,colour,0.5
08,25,1,1,2,36,86,255.76485959796992,256.55172374407994,"[96, 0, 158]",158,l,0.26375407334126066,colour,0.5
08,25,1,1,2,37,87,258.5620397421735,259.4076625026646,"[65, 0, 189]",189,l,0.3222314819722669,colour,0.5
08,25,1,1,2,38,88,261.4216034557612,262.6556781115505,"[75, 0, 179]",179,l,0.7106833772704704,colour,0.5
08,25,1,1,2,39,89,264.6718876153609,265.67163831109065,"[57, 0, 197]",197,l,0.4762999465165194,colour,0.5
08,25,1,1,2,40,90,267.68767570436466,268.47169943593326,"[12, 0, 242]",242,a,0.2606757760513574,colour,0.5
08,25,1,1,2,41,91,270.49180682975566,271.8797325473133,"[18, 0, 236]",236,a,0.8716031800577184,colour,0.5
08,25,1,1,2,42,92,273.89136241436063,274.4878258383105,"[85, 0, 169]",169,l,0.07311704382300377,colour,0.5
08,25,1,1,2,43,93,276.50094365408586,277.3516359952773,"[94, 0, 160]",160,l,0.3274160655855667,colour,0.5
08,25,1,1,2,44,94,279.36052351533726,280.1676163597149,"[49, 0, 205]",205,a,0.2837287411966827,colour,0.5
08,25,1,1,2,45,95,282.188937191866,282.99161148232815,"[53, 0, 201]",201,l,0.2794582732312847,colour,0.5
08,25,1,1,2,46,96,285.00154426864174,285.67969757382525,"[92, 0, 162]",162,l,0.15474902975256555,colour,0.5
08,25,1,1,2,47,97,287.6892845636903,288.3036829290795,"[71, 0, 183]",183,l,0.09108506829943508,colour,0.5
08,25,1,1,2,48,98,290.3145077756926,291.13563885302574,"[36, 0, 218]",218,a,0.29782644484657794,colour,0.5
08,25,1,1,2,49,99,293.1429218460544,293.951625125148,"[40, 0, 214]",214,a,0.285336812841706,colour,0.5
08,25,1,1,2,50,100,295.9711488397734,296.927629687445,"[21, 0, 233]",233,a,0.43301276925194543,colour,0.5
08,25,1,1,3,1,101,304.971069282954,305.9676321923034,"[65, 0, 189]",189,l,0.47225790900120046,colour,0.5
08,25,1,1,3,2,102,307.98775415841374,308.799599537786,"[97, 0, 157]",157,l,0.28848757772357203,colour,0.5
08,25,1,1,3,3,103,310.8161701980134,311.64763184572803,"[4, 0, 250]",250,a,0.308183009037748,colour,0.5
08,25,1,1,3,4,104,313.66011163160147,314.43965064318036,"[69, 0, 185]",185,l,0.25622728986490984,colour,0.5
08,25,1,1,3,5,105,316.4571854374808,317.2796315653104,"[44, 0, 210]",210,a,0.2991942706576083,colour,0.5
08,25,1,1,3,6,106,319.3011650740809,320.0715652921208,"[32, 0, 222]",222,a,0.24704556715732906,colour,0.5
08,25,1,1,3,7,107,322.08259966460173,322.767605489571,"[43, 0, 211]",211,a,0.1622781762998784,colour,0.5
08,25,1,1,3,8,108,324.78596814733464,325.5515744766017,"[52, 0, 202]",202,a,0.24263489016448148,colour,0.5
08,25,1,1,3,9,109,327.56755712533777,328.2236751624441,"[89, 0, 165]",165,l,0.13282994613109622,colour,0.5
08,25,1,1,3,10,110,330.23960700508906,330.975570938288,"[88, 0, 166]",166,l,0.21261203923495486,colour,0.5
08,25,1,1,3,11,111,332.98981475865,333.7355692998826,"[51, 0, 203]",203,a,0.2223553857911611,colour,0.5
08,25,1,1,3,12,112,335.7556826013897,336.53556032020424,"[29, 0, 225]",225,a,0.2566683969635051,colour,0.5
08,25,1,1,3,13,113,338.5528076072078,339.2955712848634,"[31, 0, 223]",223,a,0.21945550055534113,colour,0.5
08,25,1,1,3,14,114,341.3029700685147,342.3516198476136,"[57, 0, 197]",197,a,0.5260997547884472,colour,0.5
08,25,1,1,3,15,115,344.36571794509655,345.10362471868575,"[48, 0, 206]",206,a,0.2147951254446525,colour,0.5
08,25,1,1,3,16,116,347.1159772924293,348.1275413872645,"[1, 0, 253]",253,a,0.4882378008333035,colour,0.5
08,25,1,1,3,17,117,350.14747509517474,350.695565613496,"[30, 0, 224]",224,a,0.025526315585011616,colour,0.5
08,25,1,1,3,18,118,352.71012175342184,353.447537007698,"[9, 0, 245]",245,a,0.21412046792102046,colour,0.5
08,25,1,1,3,19,119,355.4603834638401,356.1995410910895,"[27, 0, 227]",227,a,0.21587583780637942,colour,0.5
08,25,1,1,3,20,120,358.210586097397,359.1435902020603,"[73, 0, 181]",181,l,0.40967505374283064,colour,0.5
08,25,1,1,3,21,121,361.1638649802626,361.9595579634333,"[2, 0, 252]",252,a,0.27239268297853414,colour,0.5
08,25,1,1,3,22,122,363.9767052136449,364.7516066931712,"[39, 0, 215]",215,a,0.2515901516599115,colour,0.5
08,25,1,1,3,23,123,366.75812286879227,367.49553891076357,"[0, 0, 254]",254,a,0.21407793260004837,colour,0.5
08,25,1,1,3,24,124,369.50829438856454,370.27952483313857,"[94, 0, 160]",160,l,0.24828933159005828,colour,0.5
08,25,1,1,3,25,125,372.28977545285306,373.0634831863281,"[34, 0, 220]",220,a,0.2504444547666935,colour,0.5
08,25,1,1,3,26,126,375.0711682957335,375.79956094091176,"[24, 0, 230]",230,a,0.2049198406020878,colour,0.5
08,25,1,1,3,27,127,377.80585262454406,378.583533078694,"[67, 0, 187]",187,l,0.2544037846964784,colour,0.5
08,25,1,1,3,28,128,380.60297408574843,381.33551274365163,"[91, 0, 163]",163,l,0.20932067144894972,colour,0.5
08,25,1,1,3,29,129,383.3531814454618,384.015513972452,"[23, 0, 231]",231,a,0.1389514884504024,colour,0.5
08,25,1,1,3,30,130,386.0252616513317,386.7595237776404,"[59, 0, 195]",195,l,0.21097718609962612,colour,0.5
08,25,1,1,3,31,131,388.7754583772039,389.50352688744897,"[71, 0, 183]",183,l,0.20477845003188122,colour,0.5
08,25,1,1,3,32,132,391.5100422753894,392.1514690835029,"[60, 0, 194]",194,l,0.11814541251806077,colour,0.5
08,25,1,1,3,33,133,394.16644545670715,394.84746871487005,"[96, 0, 158]",158,l,0.15772177642793395,colour,0.5
08,25,1,1,3,34,134,396.85426688396547,397.53545004343323,"[61, 0, 193]",193,l,0.15788522236107383,colour,0.5
08,25,1,1,3,35,135,399.5418835114979,400.4795452343533,"[63, 0, 191]",191,l,0.41427753354946617,colour,0.5
08,25,1,1,3,36,136,402.49528881879814,403.09546935762046,"[58, 0, 196]",196,a,0.07687196787446737,colour,0.5
08,25,1,1,3,37,137,405.1048133447475,405.8154545805446,"[78, 0, 176]",176,a,0.1872885541379219,colour,0.5
08,25,1,1,3,38,138,407.823808439789,408.9355176273384,"[84, 0, 170]",170,l,0.5886420439637732,colour,0.5
08,25,1,1,3,39,139,410.94905843329616,411.671509917418,"[8, 0, 246]",246,a,0.19917954082484357,colour,0.5
08,25,1,1,3,40,140,413.68372306981473,414.2394593129866,"[68, 0, 186]",186,l,0.03247769061999861,colour,0.5
08,25,1,1,3,41,141,416.2463531865651,416.9035160960775,"[12, 0, 242]",242,a,0.13388190776458941,colour,0.5
08,25,1,1,3,42,142,418.9184168509237,420.2155717889982,"[87, 0, 167]",167,l,0.7738392779137939,colour,0.5
08,25,1,1,3,43,143,422.2312228197261,422.8634383667086,"[49, 0, 205]",205,l,0.10892076062737033,colour,0.5
08,25,1,1,3,44,144,424.87207382556517,425.59947831209865,"[99, 0, 155]",155,l,0.20412742323242128,colour,0.5
08,25,1,1,3,45,145,427.6066203084047,428.46347397034697,"[22, 0, 232]",232,a,0.3335001925879624,colour,0.5
08,25,1,1,3,46,146,430.4818204804469,431.2154016476852,"[38, 0, 216]",216,a,0.21050102675508242,colour,0.5
08,25,1,1,3,47,147,433.2320479262853,433.9354404336045,"[15, 0, 239]",239,a,0.18035372061422095,colour,0.5
08,25,1,1,3,48,148,435.9509819752566,437.279391713324,"[95, 0, 159]",159,l,0.8051023486623308,colour,0.5
08,25,1,1,3,49,149,439.2949403442035,439.98342303822574,"[33, 0, 221]",221,a,0.16501264637918212,colour,0.5
08,25,1,1,3,50,150,441.99835254380014,442.7594454023638,"[26, 0, 228]",228,a,0.23794379508763086,colour,0.5
08,25,1,1,4,1,151,450.1856678794429,451.2154118876788,"[73, 0, 181]",181,l,0.5055756723158993,colour,0.5
08,25,1,1,4,2,152,453.2336036164488,453.78340736318205,"[68, 0, 186]",186,l,0.02654322495800443,colour,0.5
08,25,1,1,4,3,153,455.79614117946767,457.11942541075405,"[37, 0, 217]",217,a,0.7997933098231442,colour,0.5
08,25,1,1,4,4,154,459.14029765276064,459.88737630294054,"[71, 0, 183]",183,l,0.2237815007538302,colour,0.5
08,25,1,1,4,5,155,461.9061261109309,462.43935840974154,"[13, 0, 241]",241,a,0.010002890820032917,colour,0.5
08,25,1,1,4,6,156,464.4531965691276,465.1913691885129,"[91, 0, 163]",163,l,0.21477897778095212,colour,0.5
08,25,1,1,4,7,157,467.2035047533136,467.807385471664,"[79, 0, 175]",175,l,0.08088328542362433,colour,0.5
08,25,1,1,4,8,158,469.8285676701489,470.4876647554629,"[28, 0, 226]",226,a,0.13571644060721155,colour,0.5
08,25,1,1,4,9,159,472.50072861438093,473.16738714156963,"[59, 0, 195]",195,l,0.14331923628924415,colour,0.5
08,25,1,1,4,10,160,475.18840077414643,475.8953776703711,"[86, 0, 168]",168,l,0.18363760532520246,colour,0.5
08,25,1,1,4,11,161,477.9073856291943,478.623345356129,"[47, 0, 207]",207,a,0.19260704527550843,colour,0.5
08,25,1,1,4,12,162,480.6420199396089,481.44734796180273,"[57, 0, 197]",197,l,0.28201826970325783,colour,0.5
08,25,1,1,4,13,163,483.454598659504,484.2793763533555,"[30, 0, 224]",224,a,0.30123714783985633,colour,0.5
08,25,1,1,4,14,164,486.29865548985254,486.943336250406,"[35, 0, 219]",219,a,0.12156202319602016,colour,0.5
08,25,1,1,4,15,165,488.9551453172171,489.5513814922451,"[97, 0, 157]",157,l,0.07271689668414183,colour,0.5
08,25,1,1,4,16,166,491.56472695077537,492.23139650563826,"[81, 0, 173]",173,l,0.1434862268215511,colour,0.5
08,25,1,1,4,17,167,494.2523876890191,494.8073366348108,"[1, 0, 253]",253,a,0.03225556170218624,colour,0.5
08,25,1,1,4,18,168,496.8151083902485,497.47135679025087,"[9, 0, 245]",245,a,0.13312729957397096,colour,0.5
08,25,1,1,4,19,169,499.4872366452764,500.0313394768018,"[87, 0, 167]",167,l,0.020739909872645512,colour,0.5
08,25,1,1,4,20,170,502.0498462820542,502.77536464195873,"[3, 0, 251]",251,a,0.20215819518489297,colour,0.5
08,25,1,1,4,21,171,504.7844226971647,505.559356865866,"[32, 0, 222]",222,a,0.2517441452800995,colour,0.5
08,25,1,1,4,22,172,507.5659344814194,508.1593743526173,"[64, 0, 190]",190,l,0.07003244500083383,colour,0.5
08,25,1,1,4,23,173,510.17558109950915,511.42333873952157,"[22, 0, 232]",232,l,0.7244344967766665,colour,0.5
08,25,1,1,4,24,174,513.4415281052061,514.0153249265568,"[82, 0, 172]",172,l,0.050491007321397774,colour,0.5
08,25,1,1,4,25,175,516.0352235822065,516.6153349302476,"[85, 0, 169]",169,l,0.05661136812705081,colour,0.5
08,25,1,1,4,26,176,518.6294775322895,519.3273593518243,"[51, 0, 203]",203,l,0.1745736424345523,colour,0.5
08,25,1,1,4,27,177,521.3484923196083,522.3672988413746,"[50, 0, 204]",204,l,0.49570393207250163,colour,0.5
08,25,1,1,4,28,178,524.3802114635764,524.9353238553012,"[15, 0, 239]",239,a,0.03212204802548513,colour,0.5
08,25,1,1,4,29,179,526.9426840420783,527.559344656649,"[93, 0, 161]",161,l,0.0933567697647959,colour,0.5
08,25,1,1,4,30,180,529.5678403003258,530.3194107597083,"[63, 0, 191]",191,l,0.22830324222741183,colour,0.5
08,25,1,1,4,31,181,532.3337112938316,533.5992628785461,"[83, 0, 171]",171,l,0.742246164532844,colour,0.5
08,25,1,1,4,32,182,535.6151699089387,536.3193138736824,"[61, 0, 193]",193,l,0.18102562123385724,colour,0.5
08,25,1,1,4,33,183,538.3341303455672,539.0472823471209,"[10, 0, 244]",244,a,0.18981586142035667,colour,0.5
08,25,1,1,4,34,184,541.0687548098358,541.9272854663868,"[34, 0, 220]",220,a,0.33527171015157364,colour,0.5
08,25,1,1,4,35,185,543.9439837325917,544.591248514218,"[2, 0, 252]",252,a,0.12398732447763905,colour,0.5
08,25,1,1,4,36,186,546.6004062123538,547.1273314675491,"[12, 0, 242]",242,a,0.0035725735360756516,colour,0.5
08,25,1,1,4,37,187,549.1476676856691,550.2392777501664,"[42, 0, 212]",212,a,0.5685086563316872,colour,0.5
08,25,1,1,4,38,188,552.2571118671185,552.9992646902392,"[53, 0, 201]",201,a,0.21879147685831413,colour,0.5
08,25,1,1,4,39,189,555.0073554606206,555.5352877790428,"[99, 0, 155]",155,l,0.004613901328411885,colour,0.5
08,25,1,1,4,40,190,557.5543979557842,558.151309576031,"[67, 0, 187]",187,l,0.07359832315705717,colour,0.5
08,25,1,1,4,41,191,560.163954383228,560.7592634456814,"[20, 0, 234]",234,a,0.07201427611289546,colour,0.5
08,25,1,1,4,42,192,562.7736057274597,563.5592521029321,"[46, 0, 208]",208,a,0.2624228751810733,colour,0.5
08,25,1,1,4,43,193,565.5706255764817,566.7512687736307,"[80, 0, 174]",174,l,0.6572712170454906,colour,0.5
08,25,1,1,4,44,194,568.7584383391368,569.6152116565645,"[26, 0, 228]",228,a,0.33349428490328137,colour,0.5
08,25,1,1,4,45,195,571.633623545029,572.4392938190576,"[27, 0, 227]",227,a,0.282376669216319,colour,0.5
08,25,1,1,4,46,196,574.4463633477717,575.4312069871376,"[49, 0, 205]",205,a,0.4615752406680258,colour,0.5
08,25,1,1,4,47,197,577.4465842951613,577.9832150877482,"[98, 0, 156]",156,l,0.013314738564076833,colour,0.5
08,25,1,1,4,48,198,579.9936279718531,581.1272448215168,"[48, 0, 206]",206,a,0.6102267526730429,colour,0.5
08,25,1,1,4,49,199,583.1345033961261,583.9192191144248,"[5, 0, 249]",249,a,0.2613748520088848,colour,0.5
08,25,1,1,4,50,200,585.9316323403909,586.6632277380704,"[14, 0, 240]",240,a,0.20842664192605298,colour,0.5
08,25,1,1,5,1,201,593.8689218791405,594.4792033763515,"[61, 0, 193]",193,l,0.08609465054178145,colour,0.4
08,25,1,1,5,2,202,596.4949394777359,597.0711765665037,"[67, 0, 187]",187,l,0.052943090107874013,colour,0.4
08,25,1,1,5,3,203,599.0888405421429,600.3751745720656,"[82, 0, 172]",172,l,0.7630309728119755,colour,0.4
08,25,1,1,5,4,204,602.386021080194,603.0472346918104,"[88, 0, 166]",166,l,0.1379133114387514,colour,0.4
08,25,1,1,5,5,205,605.0581123137381,606.2872406625102,"[80, 0, 174]",174,l,0.7061710881098406,colour,0.4
08,25,1,1,5,6,206,608.3084153779346,609.0632330943772,"[2, 0, 252]",252,a,0.2315780684730271,colour,0.4
08,25,1,1,5,7,207,611.0742009069509,611.7992072675552,"[18, 0, 236]",236,a,0.2016808542975923,colour,0.4
08,25,1,1,5,8,208,613.8087942574057,614.5671494951239,"[77, 0, 177]",177,l,0.23503878984774929,colour,0.4
08,25,1,1,5,9,209,616.5745683649002,617.167168557251,"[36, 0, 218]",218,a,0.06992334975802805,colour,0.4
08,25,1,1,5,10,210,619.1842642136908,620.3911505254218,"[55, 0, 199]",199,a,0.6835895561525831,colour,0.4
08,25,1,1,5,11,211,622.4031699057814,623.2871634687617,"[46, 0, 208]",208,a,0.3606003152235644,colour,0.4
08,25,1,1,5,12,212,625.2939955085749,626.0791365801415,"[15, 0, 239]",239,a,0.26173403921711724,colour,0.4
08,25,1,1,5,13,213,628.091118151322,628.8711400176253,"[73, 0, 181]",181,l,0.25697992884670384,colour,0.4
08,25,1,1,5,14,214,630.888192744882,631.7192826023384,"[22, 0, 232]",232,a,0.30776238191174343,colour,0.4
08,25,1,1,5,15,215,633.7322184614313,634.7195480542869,"[43, 0, 211]",211,a,0.4641320863738656,colour,0.4
08,25,1,1,5,16,216,636.732339372029,637.4952202896675,"[0, 0, 254]",254,a,0.2396050358802313,colour,0.4
08,25,1,1,5,17,217,639.5139448915434,640.2951486885286,"[89, 0, 165]",165,l,0.25793027829786297,colour,0.4
08,25,1,1,5,18,218,642.3110057005106,643.2471763238864,"[41, 0, 213]",213,a,0.4127655602496816,colour,0.4
08,25,1,1,5,19,219,645.264383832473,646.1831319075573,"[16, 0, 238]",238,a,0.3955336332292063,colour,0.4
08,25,1,1,5,20,220,648.2020762752945,648.9751802434475,"[98, 0, 156]",156,l,0.24976270803017542,colour,0.4
08,25,1,1,5,21,221,650.9835644288105,651.7751716576022,"[54, 0, 200]",200,a,0.2682305225607706,colour,0.4
08,25,1,1,5,22,222,653.7963247115258,654.4471199252002,"[85, 0, 169]",169,l,0.12751972576370463,colour,0.4
08,25,1,1,5,23,223,656.4683623820747,657.1591486790712,"[68, 0, 186]",186,l,0.16728631708247121,colour,0.4
08,25,1,1,5,24,224,659.1717497694044,659.7351364635688,"[66, 0, 188]",188,l,0.039951698781806044,colour,0.4
08,25,1,1,5,25,225,661.750087630644,662.5271391133574,"[57, 0, 197]",197,a,0.2536889549228363,colour,0.4
08,25,1,1,5,26,226,664.5471716765169,665.1671106619469,"[35, 0, 219]",219,a,0.09666428521450143,colour,0.4
08,25,1,1,5,27,227,667.1880463130947,667.919079693078,"[45, 0, 209]",209,a,0.20764013224106748,colour,0.4
08,25,1,1,5,28,228,669.9382505220419,670.5510908341821,"[76, 0, 178]",178,l,0.08940177214390133,colour,0.4
08,25,1,1,5,29,229,672.563459949437,673.22309857246,"[93, 0, 161]",161,l,0.13623631681548432,colour,0.4
08,25,1,1,5,30,230,675.2355389737786,676.0151567544817,"[62, 0, 192]",192,a,0.2562761267327005,colour,0.4
08,25,1,1,5,31,231,678.0326474380709,679.0231045589171,"[58, 0, 196]",196,a,0.4670709623169387,colour,0.4
08,25,1,1,5,32,232,681.0328628716234,682.1830625907314,"[74, 0, 180]",180,l,0.6268757881916827,colour,0.4
08,25,1,1,5,33,233,684.1893050436629,684.8551392519876,"[71, 0, 183]",183,l,0.14248152666550595,colour,0.4
08,25,1,1,5,34,234,686.8615010401409,687.6550865554455,"[96, 0, 158]",158,l,0.27028442741720937,colour,0.4
08,25,1,1,5,35,235,689.674200276786,690.4630872139533,"[47, 0, 207]",207,a,0.2655122001597192,colour,0.4
08,25,1,1,5,36,236,692.4712043719919,693.1911088565539,"[21, 0, 233]",233,a,0.1964541291963542,colour,0.4
08,25,1,1,5,37,237,695.20586152545,696.9430735553906,"[91, 0, 163]",163,l,1.213981440421776,colour,0.4
08,25,1,1,5,38,238,698.9561137835699,699.7430566988041,"[25, 0, 229]",229,a,0.26359102127025835,colour,0.4
08,25,1,1,5,39,239,701.7532147648017,702.5510120650579,"[48, 0, 206]",206,a,0.2744391047745012,colour,0.4
08,25,1,1,5,40,240,704.5665831451333,705.5270520734775,"[86, 0, 168]",168,l,0.4377495504304534,colour,0.4
08,25,1,1,5,41,241,707.534967976404,708.3190822924662,"[69, 0, 185]",185,a,0.26074509289173875,colour,0.4
08,25,1,1,5,42,242,710.3320236653963,711.1830874029984,"[52, 0, 202]",202,a,0.3279363356414251,colour,0.4
08,25,1,1,5,43,243,713.1916370035178,714.0150319054228,"[20, 0, 234]",234,a,0.30001583258854225,colour,0.4
08,25,1,1,5,44,244,716.035599310926,717.0870552400011,"[87, 0, 167]",167,l,0.5280815859150607,colour,0.4
08,25,1,1,5,45,245,719.0983621536434,719.8550518182601,"[64, 0, 190]",190,a,0.23355714266654104,colour,0.4
08,25,1,1,5,46,246,721.8642272394645,722.6230487903813,"[10, 0, 244]",244,a,0.23567366898350883,colour,0.4
08,25,1,1,5,47,247,724.6299934700364,725.4150140248385,"[49, 0, 205]",205,a,0.26162612551706843,colour,0.4
08,25,1,1,5,48,248,727.4271090235561,728.1990113687498,"[72, 0, 182]",182,l,0.24851815588772297,colour,0.4
08,25,1,1,5,49,249,730.208591663235,731.015040176193,"[26, 0, 228]",228,a,0.2831553019932471,colour,0.4
08,25,1,1,5,50,250,733.021285386043,733.799054061601,"[83, 0, 171]",171,l,0.25441875083197374,colour,0.4
08,25,1,1,6,1,251,741.2868259430834,742.2230154710414,"[64, 0, 190]",190,l,0.4121279242099263,colour,0.28
08,25,1,1,6,2,252,744.2409011817654,745.0709930344456,"[4, 0, 250]",250,a,0.3067348387121456,colour,0.28
08,25,1,1,6,3,253,747.0848969660437,747.6310080163239,"[68, 0, 186]",186,l,0.022793420881498605,colour,0.28
08,25,1,1,6,4,254,749.647614122674,750.2470447794476,"[91, 0, 163]",163,l,0.076190614970983,colour,0.28
08,25,1,1,6,5,255,752.2572221438895,753.0310468495009,"[89, 0, 165]",165,l,0.25051810390141327,colour,0.28
08,25,1,1,6,6,256,755.0386319221288,755.9350123234326,"[52, 0, 202]",202,a,0.3729836089332821,colour,0.28
08,25,1,1,6,7,257,757.9451038295083,758.687023496037,"[82, 0, 172]",172,l,0.21852602492435835,colour,0.28
08,25,1,1,6,8,258,760.6953832629806,761.4389834687172,"[31, 0, 223]",223,a,0.220317234765389,colour,0.28
08,25,1,1,6,9,259,763.445528395081,764.2709657803207,"[84, 0, 170]",170,l,0.3020732820587,colour,0.28
08,25,1,1,6,10,260,766.2894891270989,766.9990496505343,"[48, 0, 206]",206,a,0.18615270339068957,colour,0.28
08,25,1,1,6,11,261,769.0085440866824,769.7589684553241,"[53, 0, 201]",201,a,0.2271689668559702,colour,0.28
08,25,1,1,6,12,262,771.774324101847,772.4629347957089,"[65, 0, 189]",189,l,0.16525131682283245,colour,0.28
08,25,1,1,6,13,263,774.4775909724267,775.2069800469908,"[58, 0, 196]",196,a,0.20592454075813293,colour,0.28
08,25,1,1,6,14,264,777.2279247565748,777.8229711240274,"[67, 0, 187]",187,l,0.07178111952089239,colour,0.28
08,25,1,1,6,15,265,779.8374618855887,780.6229463905183,"[8, 0, 246]",246,a,0.26218971857451834,colour,0.28
08,25,1,1,6,16,266,782.634570349881,783.2549370516499,"[99, 0, 155]",155,l,0.09704867852269672,colour,0.28
08,25,1,1,6,17,267,785.2753536142845,785.9749029761297,"[21, 0, 233]",233,a,0.1769315960991662,colour,0.28
08,25,1,1,6,18,268,787.9943491031736,788.519063309097,"[96, 0, 158]",158,l,0.001324502780335024,colour,0.28
08,25,1,1,6,19,269,790.541230515475,791.1989467780659,"[74, 0, 180]",180,a,0.13412136588885915,colour,0.28
08,25,1,1,6,20,270,793.2134658965078,794.366965254143,"[27, 0, 227]",227,a,0.6302246574050514,colour,0.28
08,25,1,1,6,21,271,796.3856162068987,797.1349149647867,"[78, 0, 176]",176,l,0.22592795932723675,colour,0.28
08,25,1,1,6,22,272,799.1514261543343,799.9509823691042,"[69, 0, 185]",185,l,0.2762058961816365,colour,0.28
08,25,1,1,6,23,273,801.9642155816255,802.7109519799706,"[93, 0, 161]",161,l,0.22355070721823722,colour,0.28
08,25,1,1,6,24,274,804.7300527044135,805.4389791364229,"[51, 0, 203]",203,a,0.18560880261065904,colour,0.28
08,25,1,1,6,25,275,807.4490115656663,808.1588974055776,"[20, 0, 234]",234,a,0.18676355794013944,colour,0.28
08,25,1,1,6,26,276,810.1679133193102,810.7509166756499,"[80, 0, 174]",174,l,0.05962231779994909,colour,0.28
08,25,1,1,6,27,277,812.7619022112776,813.4389039119123,"[55, 0, 199]",199,l,0.1536738312424859,colour,0.28
08,25,1,1,6,28,278,815.449588943331,816.1108868379088,"[37, 0, 217]",217,a,0.13785699151048902,colour,0.28
08,25,1,1,6,29,279,818.1216498507711,819.1269135973562,"[70, 0, 184]",184,l,0.48186656038160436,colour,0.28
08,25,1,1,6,30,280,821.1376029610838,821.9029044538329,"[59, 0, 195]",195,l,0.24200552486581728,colour,0.28
08,25,1,1,6,31,281,823.9190245546924,824.7188926951785,"[11, 0, 243]",243,a,0.2768868552375352,colour,0.28
08,25,1,1,6,32,282,826.7317300928698,827.3428717489005,"[94, 0, 160]",160,l,0.08795635875139851,colour,0.28
08,25,1,1,6,33,283,829.3569296741334,830.3188518927782,"[83, 0, 171]",171,l,0.4385443308710819,colour,0.28
08,25,1,1,6,34,284,832.3259017292148,833.006873787439,"[61, 0, 193]",193,a,0.1576863303198479,colour,0.28
08,25,1,1,6,35,285,835.0135979135666,835.5908940531663,"[9, 0, 245]",245,a,0.05399268865585327,colour,0.28
08,25,1,1,6,36,286,837.6075698701752,838.5508659483457,"[72, 0, 182]",182,l,0.4199260673049139,colour,0.28
08,25,1,1,6,37,287,840.5610047158989,841.3668415866268,"[54, 0, 200]",200,a,0.28255980742687825,colour,0.28
08,25,1,1,6,38,288,843.3736050973093,844.0148826379445,"[45, 0, 209]",209,a,0.11789728979056235,colour,0.28
08,25,1,1,6,39,289,846.0301276138489,846.6869092808047,"[46, 0, 208]",208,a,0.13348018522083294,colour,0.28
08,25,1,1,6,40,290,848.702176312072,849.9748356285272,"[5, 0, 249]",249,a,0.7492065980186453,colour,0.28
08,25,1,1,6,41,291,851.9837676531461,852.7108992046706,"[88, 0, 166]",166,l,0.20387614973878954,colour,0.28
08,25,1,1,6,42,292,854.7183164990565,855.5348545488669,"[63, 0, 191]",191,l,0.29313771284068935,colour,0.28
08,25,1,1,6,43,293,857.546601388065,858.294835187422,"[2, 0, 252]",252,a,0.22485236696957145,colour,0.28
08,25,1,1,6,44,294,860.3124412677716,861.1348460418085,"[75, 0, 179]",179,l,0.29904657854058314,colour,0.28
08,25,1,1,6,45,295,863.156447292029,864.478862699907,"[62, 0, 192]",192,l,0.7990371262567351,colour,0.28
08,25,1,1,6,46,296,866.4847821994335,867.3588067423116,"[50, 0, 204]",204,a,0.3506123905390268,colour,0.28
08,25,1,1,6,47,297,869.3756593960134,870.1188500023272,"[86, 0, 168]",168,l,0.22017545034759678,colour,0.28
08,25,1,1,6,48,298,872.1259211064171,872.8308834823547,"[92, 0, 162]",162,l,0.18165931882685982,colour,0.28
08,25,1,1,6,49,299,874.844840976948,875.5508049022756,"[73, 0, 181]",181,l,0.18257461601751857,colour,0.28
08,25,1,1,6,50,300,877.5639250811073,878.1028354520822,"[71, 0, 183]",183,l,0.015697898357757367,colour,0.28
08,25,1,1,7,1,301,885.3761276784353,885.926780556314,"[80, 0, 174]",174,l,0.026422708193422295,colour,0.14
08,25,1,1,7,2,302,887.939638827811,888.4713855409791,"[98, 0, 156]",156,l,0.008409785325056873,colour,0.14
08,25,1,1,7,3,303,890.4866651752964,891.5748412999092,"[89, 0, 165]",165,l,0.5647446738294093,colour,0.14
08,25,1,1,7,4,304,893.5963960763474,894.2788029141375,"[77, 0, 177]",177,l,0.15915340522769839,colour,0.14
08,25,1,1,7,5,305,896.2996542823239,897.3187849390233,"[55, 0, 199]",199,a,0.4957681289088214,colour,0.14
08,25,1,1,7,6,306,899.3311398758378,900.3028278902493,"[86, 0, 168]",168,l,0.44847987408866175,colour,0.14
08,25,1,1,7,7,307,902.3157436632173,903.0627632365504,"[69, 0, 185]",185,l,0.2237440854223678,colour,0.14
08,25,1,1,7,8,308,905.0816237151739,906.0307951821596,"[49, 0, 205]",205,a,0.42609959725814406,colour,0.14
08,25,1,1,7,9,309,908.0505201518972,909.030777065258,"[59, 0, 195]",195,a,0.45689793018391356,colour,0.14
08,25,1,1,7,10,310,911.0508155361022,911.8228332780564,"[79, 0, 175]",175,l,0.24870956485392526,colour,0.14
08,25,1,1,7,11,311,913.8323056588561,914.5987611192395,"[88, 0, 166]",166,l,0.24332530150422826,colour,0.14
08,25,1,1,7,12,312,916.6137032278784,917.3828616506944,"[24, 0, 230]",230,a,0.2458435503358487,colour,0.14
08,25,1,1,7,13,313,919.39519965215,920.0067737506615,"[87, 0, 167]",167,l,0.08818124460231047,colour,0.14
08,25,1,1,7,14,314,922.0204382241354,922.9107411938021,"[58, 0, 196]",196,l,0.3669778572075302,colour,0.14
08,25,1,1,7,15,315,924.9268498731399,925.734756796388,"[75, 0, 179]",179,l,0.28452903547440656,colour,0.14
08,25,1,1,7,16,316,927.7551969897613,928.5347623889975,"[82, 0, 172]",172,l,0.2560543916479219,colour,0.14
08,25,1,1,7,17,317,930.552345232456,931.3027180073259,"[57, 0, 197]",197,a,0.22700552092283033,colour,0.14
08,25,1,1,7,18,318,933.3181484845118,934.0067627229873,"[95, 0, 159]",159,l,0.1652083876542747,colour,0.14
08,25,1,1,7,19,319,936.0214523765753,936.7587242710433,"[67, 0, 187]",187,a,0.21383886830881238,colour,0.14
08,25,1,1,7,20,320,938.7716743085766,939.8147511722782,"[92, 0, 162]",162,l,0.5196087852818891,colour,0.14
08,25,1,1,7,21,321,941.8344816558529,942.4308304707229,"[76, 0, 178]",178,l,0.07375310448696837,colour,0.14
08,25,1,1,7,22,322,944.4440428094385,945.526686190904,"[63, 0, 191]",191,l,0.5593269336095545,colour,0.14
08,25,1,1,7,23,323,947.5379600215092,948.558733014419,"[68, 0, 186]",186,l,0.4973785636102548,colour,0.14
08,25,1,1,7,24,324,950.569472002695,951.1187160948175,"[19, 0, 235]",235,a,0.025801219817367382,colour,0.14
08,25,1,1,7,25,325,953.1322557192325,953.8627034507954,"[12, 0, 242]",242,a,0.20733372036193032,colour,0.14
08,25,1,1,7,26,326,955.8824189682346,956.9267364456027,"[62, 0, 192]",192,l,0.5215693487261888,colour,0.14
08,25,1,1,7,27,327,958.9451467586914,959.7106928295689,"[41, 0, 213]",213,a,0.24220244766911492,colour,0.14
08,25,1,1,7,28,328,961.7265943461098,962.4786972847505,"[51, 0, 203]",203,a,0.22873922930739354,colour,0.14
08,25,1,1,7,29,329,964.4924574627075,965.2467588475411,"[71, 0, 183]",183,l,0.2309368878195528,colour,0.14
08,25,1,1,7,30,330,967.2583682346158,967.9347106376808,"[84, 0, 170]",170,l,0.1530657336115837,colour,0.14
08,25,1,1,7,31,331,969.9459691083175,970.5426692334877,"[78, 0, 176]",176,l,0.07337580039165914,colour,0.14
08,25,1,1,7,32,332,972.5555936710589,973.2866664356116,"[91, 0, 163]",163,l,0.20777128283225466,colour,0.14
08,25,1,1,7,33,333,975.3057675538876,975.9666471844394,"[64, 0, 190]",190,a,0.13763565027329605,colour,0.14
08,25,1,1,7,34,334,977.9778828120179,978.7586659818917,"[85, 0, 169]",169,l,0.2574777496920433,colour,0.14
08,25,1,1,7,35,335,980.7749731594231,981.5666875142197,"[72, 0, 182]",182,l,0.26835694699548185,colour,0.14
08,25,1,1,7,36,336,983.5876680637593,984.2307029435178,"[81, 0, 173]",173,l,0.11965069045254495,colour,0.14
08,25,1,1,7,37,337,986.244240992557,986.9586442416185,"[38, 0, 216]",216,a,0.191147059580544,colour,0.14
08,25,1,1,7,38,338,988.9787784169457,989.7586663757393,"[97, 0, 157]",157,l,0.2564888033666648,colour,0.14
08,25,1,1,7,39,339,991.7758230782492,992.342686247619,"[70, 0, 184]",184,l,0.04379129964218009,colour,0.14
08,25,1,1,7,40,340,994.3542590070429,994.9347504160978,"[83, 0, 171]",171,l,0.05727027183456812,colour,0.14
08,25,1,1,7,41,341,996.9481588899216,997.7746356337302,"[56, 0, 198]",198,a,0.30335406798985787,colour,0.14
08,25,1,1,7,42,342,999.7921219850105,1000.518657648121,"[33, 0, 221]",221,a,0.20322275986836758,colour,0.14
08,25,1,1,7,43,343,1002.5266708309209,1003.0947084479121,"[65, 0, 189]",189,l,0.04467823995219078,colour,0.14
08,25,1,1,7,44,344,1005.1049405568774,1006.3106476948597,"[94, 0, 160]",160,l,0.6820972751447698,colour,0.14
08,25,1,1,7,45,345,1008.3239644026617,1008.9906363205955,"[60, 0, 194]",194,l,0.1432770948013058,colour,0.14
08,25,1,1,7,46,346,1011.0117389622756,1011.638616325843,"[53, 0, 201]",201,a,0.1035861218260834,colour,0.14
08,25,1,1,7,47,347,1013.6525356174243,1014.5826106922759,"[66, 0, 188]",188,a,0.40665465175698046,colour,0.14
08,25,1,1,7,48,348,1016.5902642940346,1017.3266516112635,"[52, 0, 202]",202,a,0.21299564486253075,colour,0.14
08,25,1,1,7,49,349,1019.3405177336826,1019.9985841250309,"[61, 0, 193]",193,a,0.13543484100955538,colour,0.14
08,25,1,1,7,50,350,1022.0126333856606,1023.2866211433575,"[74, 0, 180]",180,l,0.7507114820909919,colour,0.14
08,25,1,1,8,1,351,1030.6373367214546,1031.3825855649193,"[58, 0, 196]",196,l,0.22096117233741097,colour,0.06
08,25,1,1,8,2,352,1033.4047027529014,1034.1266158500803,"[60, 0, 194]",194,l,0.1991834792861482,colour,0.06
08,25,1,1,8,3,353,1036.138608448935,1037.2066015613527,"[74, 0, 180]",180,l,0.5445919877529377,colour,0.06
08,25,1,1,8,4,354,1039.2170250792988,1039.766592912507,"[86, 0, 168]",168,l,0.02613480704894755,colour,0.06
08,25,1,1,8,5,355,1041.779759565121,1042.3505978182511,"[69, 0, 185]",185,l,0.0478412140510045,colour,0.06
08,25,1,1,8,6,356,1044.3581037279073,1045.4065790333843,"[72, 0, 182]",182,l,0.5251675222243648,colour,0.06
08,25,1,1,8,7,357,1047.4209024105658,1048.1185841565311,"[93, 0, 161]",161,l,0.17443973492481746,colour,0.06
08,25,1,1,8,8,358,1050.139770687325,1050.886614211675,"[76, 0, 178]",178,l,0.22343767352867872,colour,0.06
08,25,1,1,8,9,359,1052.9057023330533,1053.7025878807326,"[95, 0, 159]",159,l,0.27372506268147845,colour,0.06
08,25,1,1,8,10,360,1055.718328314426,1056.4785653464642,"[50, 0, 204]",204,a,0.2369509102863958,colour,0.06
08,25,1,1,8,11,361,1058.4998838155443,1059.150545121709,"[59, 0, 195]",195,a,0.12737912287411746,colour,0.06
08,25,1,1,8,12,362,1061.1718624092464,1062.0225389966217,"[26, 0, 228]",228,a,0.3271998443524353,colour,0.06
08,25,1,1,8,13,363,1064.031500953497,1064.5585695684858,"[71, 0, 183]",183,l,0.0038896192418178543,colour,0.06
08,25,1,1,8,14,364,1066.5785048517864,1067.2466147000523,"[89, 0, 165]",165,l,0.14471187436720356,colour,0.06
08,25,1,1,8,15,365,1069.266262869889,1070.0145860721968,"[98, 0, 156]",156,l,0.22494255761557724,colour,0.06
08,25,1,1,8,16,366,1072.0320483988908,1072.9266072642495,"[55, 0, 199]",199,a,0.37141767879074905,colour,0.06
08,25,1,1,8,17,367,1074.9386085276928,1075.6225730248843,"[97, 0, 157]",157,l,0.16062402474926785,colour,0.06
08,25,1,1,8,18,368,1077.6419199028314,1078.3506533504842,"[70, 0, 184]",184,l,0.18535280296055134,colour,0.06
08,25,1,1,8,19,369,1080.3609291763132,1081.0945568173483,"[68, 0, 186]",186,l,0.21035254695743788,colour,0.06
08,25,1,1,8,20,370,1083.1110160192766,1083.8145199849096,"[42, 0, 212]",212,a,0.1801237147883512,colour,0.06
08,25,1,1,8,21,371,1085.8300382896705,1086.7265439338662,"[63, 0, 191]",191,l,0.3731569009978557,colour,0.06
08,25,1,1,8,22,372,1088.7365342216362,1089.366489488646,"[64, 0, 190]",190,l,0.10654784081270918,colour,0.06
08,25,1,1,8,23,373,1091.3773568705947,1092.118535319678,"[57, 0, 197]",197,a,0.21777929364179727,colour,0.06
08,25,1,1,8,24,374,1094.1275882548944,1095.1664840535814,"[85, 0, 169]",169,l,0.5159436580288457,colour,0.06
08,25,1,1,8,25,375,1097.174639020799,1098.198526544802,"[79, 0, 175]",175,l,0.5004765531921294,colour,0.06
08,25,1,1,8,26,376,1100.2061781773227,1100.9665802306845,"[61, 0, 193]",193,l,0.23714310696232133,colour,0.06
08,25,1,1,8,27,377,1102.9876675123814,1103.9585351463902,"[83, 0, 171]",171,l,0.4475519738480216,colour,0.06
08,25,1,1,8,28,378,1105.9722531828593,1106.630559820027,"[52, 0, 202]",202,a,0.13498073701339308,colour,0.06
08,25,1,1,8,29,379,1108.6442211427348,1109.5825153816404,"[94, 0, 160]",160,l,0.4148513666150393,colour,0.06
08,25,1,1,8,30,380,1111.597681194573,1112.2305359529855,"[62, 0, 192]",192,l,0.10960014430747833,colour,0.06
08,25,1,1,8,31,381,1114.2384589451394,1114.846491583914,"[66, 0, 188]",188,l,0.08457873879524413,colour,0.06
08,25,1,1,8,32,382,1116.8637369016797,1117.910477317244,"[53, 0, 201]",201,a,0.5234346015349729,colour,0.06
08,25,1,1,8,33,383,1119.9264485444583,1120.5344729124772,"[81, 0, 173]",173,l,0.08464096640818752,colour,0.06
08,25,1,1,8,34,384,1122.551731620988,1123.142461834388,"[87, 0, 167]",167,l,0.06740076863206923,colour,0.06
08,25,1,1,8,35,385,1125.161193919339,1125.8225174138788,"[91, 0, 163]",163,l,0.13794521291856654,colour,0.06
08,25,1,1,8,36,386,1127.833244980633,1128.4704820591433,"[73, 0, 181]",181,l,0.11380838465993293,colour,0.06
08,25,1,1,8,37,387,1130.4897804940847,1131.1184317382867,"[65, 0, 189]",189,l,0.10531116560741793,colour,0.06
08,25,1,1,8,38,388,1133.1306192907068,1133.734519307487,"[54, 0, 200]",200,a,0.08064737189852167,colour,0.06
08,25,1,1,8,39,389,1135.7557475859212,1136.326461777673,"[51, 0, 203]",203,a,0.04733157783630304,colour,0.06
08,25,1,1,8,40,390,1138.3341472809261,1138.8704708739388,"[92, 0, 162]",162,l,0.012989422102691606,colour,0.06
08,25,1,1,8,41,391,1140.8812027729873,1141.4064581227867,"[90, 0, 164]",164,l,0.0019420527096372098,colour,0.06
08,25,1,1,8,42,392,1143.428253538892,1144.4304417451058,"[80, 0, 174]",174,l,0.47870752472954337,colour,0.06
08,25,1,1,8,43,393,1146.4441700215684,1147.4224348638381,"[96, 0, 158]",158,l,0.45492712674604263,colour,0.06
08,25,1,1,8,44,394,1149.4287899566116,1150.2144162459736,"[75, 0, 179]",179,l,0.262248007740709,colour,0.06
08,25,1,1,8,45,395,1152.225906691674,1152.8065453989693,"[78, 0, 176]",176,l,0.05736479476036038,colour,0.06
08,25,1,1,8,46,396,1154.819792396098,1155.3504536707624,"[84, 0, 170]",170,l,0.007271177673828788,colour,0.06
08,25,1,1,8,47,397,1157.366887272714,1157.9745508781489,"[4, 0, 250]",250,a,0.08421797621122096,colour,0.06
08,25,1,1,8,48,398,1159.9920506201888,1160.5504299612512,"[99, 0, 155]",155,l,0.0350380809395574,colour,0.06
08,25,1,1,8,49,399,1162.5704258967598,1163.8064705683064,"[77, 0, 177]",177,l,0.7126522114849649,colour,0.06
08,25,1,1,8,50,400,1165.8206679148861,1166.550413813573,"[88, 0, 166]",166,l,0.20634162325586658,colour,0.06
08,25,1,1,9,1,401,1175.3518388257653,1176.318425357982,"[77, 0, 177]",177,l,0.44241386400244664,colour,0.06
08,25,1,1,9,2,402,1178.3373362488346,1178.8864539165224,"[97, 0, 157]",157,l,0.025795312147238292,colour,0.06
08,25,1,1,9,3,403,1180.9000534054649,1181.9103697973915,"[56, 0, 198]",198,a,0.48711652237398084,colour,0.06
08,25,1,1,9,4,404,1183.931625251178,1184.7984530532121,"[98, 0, 156]",156,l,0.34386423985415604,colour,0.06
08,25,1,1,9,5,405,1186.8067943094065,1187.5023662244203,"[92, 0, 162]",162,l,0.17226728252717294,colour,0.06
08,25,1,1,9,6,406,1189.510102927612,1190.2703876149753,"[62, 0, 192]",192,l,0.2371041162405163,colour,0.06
08,25,1,1,9,7,407,1192.29154893964,1193.462457060974,"[66, 0, 188]",188,l,0.647471550561022,colour,0.06
08,25,1,1,9,8,408,1195.4792845085467,1196.414328339626,"[10, 0, 244]",244,a,0.41175062010006513,colour,0.06
08,25,1,1,9,9,409,1198.4325952929066,1199.238409320591,"[60, 0, 194]",194,l,0.2824361399107147,colour,0.06
08,25,1,1,9,10,410,1201.2453425787244,1202.0703731214453,"[79, 0, 175]",175,l,0.30168573798437137,colour,0.06
08,25,1,1,9,11,411,1204.0893820798665,1204.78235264463,"[70, 0, 184]",184,l,0.1697805413423339,colour,0.06
08,25,1,1,9,12,412,1206.7926351658389,1207.5263100683514,"[82, 0, 172]",172,l,0.21040650381473824,colour,0.06
08,25,1,1,9,13,413,1209.5429094793071,1210.3903722864925,"[74, 0, 180]",180,l,0.3241038239939371,colour,0.06
08,25,1,1,9,14,414,1212.4024546821456,1213.1743247319973,"[91, 0, 163]",163,l,0.24850279590464197,colour,0.06
08,25,1,1,9,15,415,1215.183986946373,1216.0063704527565,"[55, 0, 199]",199,l,0.29905681853415444,colour,0.06
08,25,1,1,9,16,416,1218.0279149892158,1218.7423489582288,"[78, 0, 176]",176,l,0.1910773489071289,colour,0.06
08,25,1,1,9,17,417,1220.7624988873868,1221.494381004668,"[68, 0, 186]",186,l,0.20854282638174482,colour,0.06
08,25,1,1,9,18,418,1223.5127192439977,1224.174340485828,"[64, 0, 190]",190,l,0.13825044326949865,colour,0.06
08,25,1,1,9,19,419,1226.1847754252958,1226.8143577205192,"[81, 0, 173]",173,l,0.10610043221095111,colour,0.06
08,25,1,1,9,20,420,1228.8256012250204,1229.5743781374622,"[90, 0, 164]",164,l,0.22536948625929654,colour,0.06
08,25,1,1,9,21,421,1231.5915320830536,1232.310328679916,"[50, 0, 204]",204,l,0.1953962598927319,colour,0.06
08,25,1,1,9,22,422,1234.3260663566762,1235.1103334848303,"[93, 0, 161]",161,l,0.2608195297070779,colour,0.06
08,25,1,1,9,23,423,1237.1231602486805,1237.8943162564537,"[85, 0, 169]",169,l,0.2477611846261425,colour,0.06
08,25,1,1,9,24,424,1239.9046523406578,1240.990390560939,"[69, 0, 185]",185,l,0.5623544248228427,colour,0.06
08,25,1,1,9,25,425,1242.9986928264116,1243.6623470992781,"[83, 0, 171]",171,l,0.14047724635747727,colour,0.06
08,25,1,1,9,26,426,1245.6707517646282,1246.4303035053017,"[88, 0, 166]",166,l,0.23644127407169435,colour,0.06
08,25,1,1,9,27,427,1248.4365857366356,1249.0783098982065,"[96, 0, 158]",158,l,0.11832933842379134,colour,0.06
08,25,1,1,9,28,428,1251.0930779270711,1251.8143258190248,"[76, 0, 178]",178,l,0.19786764109448995,colour,0.06
08,25,1,1,9,29,429,1253.8276527668058,1254.470335154736,"[54, 0, 200]",200,l,0.11936160777986515,colour,0.06
08,25,1,1,9,30,430,1256.4840590988897,1257.16633202917,"[71, 0, 183]",183,l,0.15884069180174265,colour,0.06
08,25,1,1,9,31,431,1259.187416553963,1260.038337719452,"[87, 0, 167]",167,l,0.3275326438888442,colour,0.06
08,25,1,1,9,32,432,1262.047039344383,1262.6782990280626,"[84, 0, 170]",170,l,0.10867933326517232,colour,0.06
08,25,1,1,9,33,433,1264.6878816856188,1265.406256079994,"[52, 0, 202]",202,l,0.19506149111839477,colour,0.06
08,25,1,1,9,34,434,1267.4224947283801,1268.1502489498089,"[72, 0, 182]",182,l,0.20457483184873126,colour,0.06
08,25,1,1,9,35,435,1270.1569967066607,1271.310250698487,"[17, 0, 237]",237,l,0.6298560179275228,colour,0.06
08,25,1,1,9,36,436,1273.3291446539806,1274.0942728546652,"[65, 0, 189]",189,l,0.24177630672056694,colour,0.06
08,25,1,1,9,37,437,1276.110682432045,1277.0222373108845,"[53, 0, 201]",201,l,0.38824630789167713,colour,0.06
08,25,1,1,9,38,438,1279.0327478686959,1279.9022341286036,"[94, 0, 160]",160,l,0.34618202125420794,colour,0.06
08,25,1,1,9,39,439,1281.9235608684394,1282.8622619498638,"[5, 0, 249]",249,a,0.4153842397208791,colour,0.06
08,25,1,1,9,40,440,1284.8769535726897,1285.6222756714415,"[51, 0, 203]",203,l,0.22195169403858017,colour,0.06
08,25,1,1,9,41,441,1287.6428253538907,1288.302488395333,"[86, 0, 168]",168,l,0.13635407664696686,colour,0.06
08,25,1,1,9,42,442,1290.3148886244016,1291.0302705798094,"[80, 0, 174]",174,l,0.19228369802294765,colour,0.06
08,25,1,1,9,43,443,1293.0494181718823,1293.8542326193856,"[75, 0, 179]",179,l,0.2814243505272316,colour,0.06
08,25,1,1,9,44,444,1295.8622493467992,1296.6142786363198,"[73, 0, 181]",181,l,0.22882272458809894,colour,0.06
08,25,1,1,9,45,445,1298.6279868266429,1299.4062875876407,"[89, 0, 165]",165,l,0.2549717100773705,colour,0.06
08,25,1,1,9,46,446,1301.4251011986198,1302.2062396172405,"[67, 0, 187]",187,l,0.2577719523687847,colour,0.06
08,25,1,1,9,47,447,1304.2222167521395,1304.9822481967713,"[95, 0, 159]",159,l,0.23674807979841717,colour,0.06
08,25,1,1,9,48,448,1307.0036663087958,1307.734190446412,"[58, 0, 196]",196,l,0.20715688368363772,colour,0.06
08,25,1,1,9,49,449,1309.753930776118,1310.438246189733,"[59, 0, 195]",195,l,0.16097730424371548,colour,0.06
08,25,1,1,9,50,450,1312.4571870128566,1313.1742144552263,"[99, 0, 155]",155,l,0.1935952039057156,colour,0.06
08,25,1,1,10,1,451,1321.3321142498753,1322.238208853174,"[91, 0, 163]",163,l,0.38198179961182177,colour,0.06
08,25,1,1,10,2,452,1324.254944928558,1324.91022446836,"[4, 0, 250]",250,a,0.1318335167306941,colour,0.06
08,25,1,1,10,3,453,1326.9270853928174,1327.678203717427,"[59, 0, 195]",195,l,0.22770774764649104,colour,0.06
08,25,1,1,10,4,454,1329.692842171091,1330.4462128987507,"[55, 0, 199]",199,l,0.23027247026038822,colour,0.06
08,25,1,1,10,5,455,1332.4587505799282,1333.1501705745322,"[85, 0, 169]",169,l,0.16798578690213617,colour,0.06
08,25,1,1,10,6,456,1335.162075345812,1335.8702333850233,"[78, 0, 176]",176,l,0.18476833606837317,colour,0.06
08,25,1,1,10,7,457,1337.8810972223582,1338.6621824718168,"[54, 0, 200]",200,l,0.25790389064059127,colour,0.06
08,25,1,1,10,8,458,1340.6781651205529,1341.4941801434034,"[40, 0, 214]",214,l,0.2926158674090402,colour,0.06
08,25,1,1,10,9,459,1343.50652050793,1344.3101498739998,"[51, 0, 203]",203,l,0.2802755028824322,colour,0.06
08,25,1,1,10,10,460,1346.319234316863,1346.9661470005085,"[65, 0, 189]",189,l,0.12350171283469535,colour,0.06
08,25,1,1,10,11,461,1348.9757131165534,1349.622163425447,"[64, 0, 190]",190,l,0.1231594609998865,colour,0.06
08,25,1,1,10,12,462,1351.6321623778204,1352.4381414267991,"[92, 0, 162]",162,l,0.28283116704551503,colour,0.06
08,25,1,1,10,13,463,1354.4448927282647,1355.2381706501474,"[73, 0, 181]",181,l,0.2699721078533912,colour,0.06
08,25,1,1,10,14,464,1357.2575754233985,1357.886169166144,"[97, 0, 157]",157,l,0.10522018726624083,colour,0.06
08,25,1,1,10,15,465,1359.8984851122368,1360.5421556588117,"[57, 0, 197]",197,l,0.12435911473585293,colour,0.06
08,25,1,1,10,16,466,1362.5508998190635,1363.3261537904036,"[99, 0, 155]",155,l,0.2520009326253785,colour,0.06
08,25,1,1,10,17,467,1365.3322654865915,1366.0701517802227,"[62, 0, 192]",192,l,0.21461316877685022,colour,0.06
08,25,1,1,10,18,468,1368.0825417692977,1368.8461158551945,"[61, 0, 193]",193,l,0.24032971178530715,colour,0.06
08,25,1,1,10,19,469,1370.864029528966,1371.6221271916438,"[95, 0, 159]",159,l,0.23491000232752413,colour,0.06
08,25,1,1,10,20,470,1373.6298217533476,1374.2381608040014,"[72, 0, 182]",182,l,0.08496707056474406,colour,0.06
08,25,1,1,10,21,471,1376.2549465039483,1376.902166387168,"[84, 0, 170]",170,l,0.12360411269764882,colour,0.06
08,25,1,1,10,22,472,1378.9114564174379,1379.5581308244873,"[74, 0, 180]",180,l,0.12330715310235973,colour,0.06
08,25,1,1,10,23,473,1381.567981690896,1382.334128770177,"[67, 0, 187]",187,l,0.24280739451933187,colour,0.06
08,25,1,1,10,24,474,1384.3494399121555,1385.0301378538425,"[19, 0, 235]",235,a,0.15734329080441967,colour,0.06
08,25,1,1,10,25,475,1387.0371404288016,1387.6940914493753,"[80, 0, 174]",174,l,0.13360857890802436,colour,0.06
08,25,1,1,10,26,476,1389.7090717610263,1390.3901091976295,"[50, 0, 204]",204,l,0.15757841663435102,colour,0.06
08,25,1,1,10,27,477,1392.396949902046,1393.0460929333785,"[96, 0, 158]",158,l,0.12586714957433287,colour,0.06
08,25,1,1,10,28,478,1395.0534263386508,1395.7501415874867,"[83, 0, 171]",171,l,0.17338265330181457,colour,0.06
08,25,1,1,10,29,479,1397.7567188091925,1398.4221658672905,"[90, 0, 164]",164,l,0.142115644106525,colour,0.06
08,25,1,1,10,30,480,1400.4288234334963,1401.05405649163,"[63, 0, 191]",191,l,0.10181066580116749,colour,0.06
08,25,1,1,10,31,481,1403.0697209131176,1403.8701573728322,"[98, 0, 156]",156,l,0.27717475639656186,colour,0.06
08,25,1,1,10,32,482,1405.8823142053006,1406.7180699517048,"[94, 0, 160]",160,l,0.3125416984112235,colour,0.06
08,25,1,1,10,33,483,1408.726327712633,1409.454094930974,"[88, 0, 166]",166,l,0.20444722587126307,colour,0.06
08,25,1,1,10,34,484,1411.4608950692927,1412.2380576164578,"[69, 0, 185]",185,l,0.2544573477061931,colour,0.06
08,25,1,1,10,35,485,1414.2580177120253,1415.0780830431322,"[53, 0, 201]",201,l,0.2967878739727894,colour,0.06
08,25,1,1,10,36,486,1417.086333714833,1417.8621638823097,"[81, 0, 173]",173,l,0.25246645814331714,colour,0.06
08,25,1,1,10,37,487,1419.8834965298156,1420.454205601578,"[60, 0, 194]",194,l,0.04709487661602907,colour,0.06
08,25,1,1,10,38,488,1422.4617749203753,1423.1901238486898,"[86, 0, 168]",168,l,0.2057650332862977,colour,0.06
08,25,1,1,10,39,489,1425.196372209306,1425.9500595888385,"[52, 0, 202]",202,l,0.23032839635561686,colour,0.06
08,25,1,1,10,40,490,1427.9622412335884,1428.638035009717,"[79, 0, 175]",175,l,0.15251080515736248,colour,0.06
08,25,1,1,10,41,491,1430.6499504148378,1431.2061151620292,"[66, 0, 188]",188,l,0.0328093086136505,colour,0.06
08,25,1,1,10,42,492,1433.2126348822785,1433.9020198765938,"[68, 0, 186]",186,l,0.16601931575860362,colour,0.06
08,25,1,1,10,43,493,1435.9159387743275,1436.6139954613172,"[75, 0, 179]",179,l,0.17467013461282477,colour,0.06
08,25,1,1,10,44,494,1438.634893303286,1439.4300605025637,"[71, 0, 183]",183,l,0.27214337870827876,colour,0.06
08,25,1,1,10,45,495,1441.4476043553004,1442.2140322464984,"[70, 0, 184]",184,l,0.2431992709171027,colour,0.06
08,25,1,1,10,46,496,1444.229055093485,1444.9662210434763,"[87, 0, 167]",167,l,0.2138183883362217,colour,0.06
08,25,1,1,10,47,497,1446.9793494930782,1447.7100158089597,"[77, 0, 177]",177,l,0.20719587439089082,colour,0.06
08,25,1,1,10,48,498,1449.7295446435746,1450.3020390174934,"[82, 0, 172]",172,l,0.049180289133801125,colour,0.06
08,25,1,1,10,49,499,1452.3234894248453,1453.110048734452,"[93, 0, 161]",161,l,0.26324246790318284,colour,0.06
08,25,1,1,10,50,500,1455.1206502706045,1455.7819903066702,"[76, 0, 178]",178,l,0.13815788955253083,colour,0.06
08,25,1,1,11,1,501,1472.918004888401,1474.1020410654892,"[79, 0, 175]",175,l,0.659824911999749,colour,0.06
08,25,1,1,11,2,502,1476.1221898131043,1476.822055039127,"[86, 0, 168]",168,l,0.17658343657967634,colour,0.06
08,25,1,1,11,3,503,1478.841251468053,1479.79805684452,"[72, 0, 182]",182,l,0.4335743931005709,colour,0.06
08,25,1,1,11,4,504,1481.810143572482,1482.6060590784182,"[88, 0, 166]",166,l,0.2728582084964728,colour,0.06
08,25,1,1,11,5,505,1484.6229885320063,1485.1899501627777,"[76, 0, 178]",178,l,0.04370583513809834,colour,0.06
08,25,1,1,11,6,506,1487.2012944917515,1487.9339599679515,"[15, 0, 239]",239,a,0.20940810517640784,colour,0.06
08,25,1,1,11,7,507,1489.951420325422,1490.4939883405896,"[66, 0, 188]",188,l,0.019839972650515847,colour,0.06
08,25,1,1,11,8,508,1492.5140823436668,1493.2299684214522,"[65, 0, 189]",189,l,0.1925680545537034,colour,0.06
08,25,1,1,11,9,509,1495.2486764818168,1496.1339752491622,"[57, 0, 197]",197,l,0.362154823858873,colour,0.06
08,25,1,1,11,10,510,1498.155144056902,1498.7499300923955,"[59, 0, 195]",195,l,0.07134828317794017,colour,0.06
08,25,1,1,11,11,511,1500.764717025857,1502.07002338655,"[54, 0, 200]",200,l,0.7820753773266915,colour,0.06
08,25,1,1,11,12,512,1504.0774666747457,1505.5659293614299,"[99, 0, 155]",155,l,0.9651206388516584,colour,0.06
08,25,1,1,11,13,513,1507.5777730866394,1508.87796260514,"[85, 0, 169]",169,l,0.7771975994255627,colour,0.06
08,25,1,1,11,14,514,1510.8905782677466,1511.597997452598,"[61, 0, 193]",193,l,0.18416457074636128,colour,0.06
08,25,1,1,11,15,515,1513.6095048336574,1514.2539579514705,"[58, 0, 196]",196,l,0.12105356852407567,colour,0.06
08,25,1,1,11,16,516,1516.2659308580332,1517.0939487197174,"[89, 0, 165]",165,l,0.30460492165002506,colour,0.06
08,25,1,1,11,17,517,1519.1098462978116,1519.7978937924345,"[91, 0, 163]",163,l,0.1645979269524105,colour,0.06
08,25,1,1,11,18,518,1521.8133183619502,1522.4938957868726,"[78, 0, 176]",176,l,0.15738661382056307,colour,0.06
08,25,1,1,11,19,519,1524.5009582263738,1525.0779412587144,"[90, 0, 164]",164,l,0.053600024577463046,colour,0.06
08,25,1,1,11,20,520,1527.0949376660574,1527.830063495785,"[92, 0, 162]",162,l,0.21182749877334572,colour,0.06
08,25,1,1,11,21,521,1529.8451001273643,1537.9338981341862,"[83, 0, 171]",171,l,7.565379552950617,colour,0.06
08,25,1,1,11,22,522,1539.9553501169285,1540.757951152118,"[70, 0, 184]",184,l,0.2791802182473475,colour,0.06
08,25,1,1,11,23,523,1542.7679902767413,1543.477875722805,"[80, 0, 174]",174,l,0.18654812438762747,colour,0.06
08,25,1,1,11,24,524,1545.4871299131191,1546.397877802301,"[63, 0, 191]",191,l,0.3875330534938257,colour,0.06
08,25,1,1,11,25,525,1548.4090764084103,1549.2378843243932,"[62, 0, 192]",192,l,0.3053811913559912,colour,0.06
08,25,1,1,11,26,526,1551.2530615588475,1551.8698994039441,"[69, 0, 185]",185,l,0.09351627723663114,colour,0.06
08,25,1,1,11,27,527,1553.8783087954362,1554.6138647045736,"[82, 0, 172]",172,l,0.21220913516299333,colour,0.06
08,25,1,1,11,28,528,1556.6284165122051,1557.1818869615818,"[97, 0, 157]",157,l,0.03003860474564135,colour,0.06
08,25,1,1,11,29,529,1559.1912329179322,1559.9018674583494,"[50, 0, 204]",204,a,0.18740316321782302,colour,0.06
08,25,1,1,11,30,530,1561.9101405792462,1562.4778607566695,"[87, 0, 167]",167,l,0.044327717361738905,colour,0.06
08,25,1,1,11,31,531,1564.488361862197,1565.1418907582556,"[75, 0, 179]",179,l,0.12998716851870995,colour,0.06
08,25,1,1,11,32,532,1567.1605617971363,1567.925856200658,"[33, 0, 221]",221,a,0.24196929106255993,colour,0.06
08,25,1,1,11,33,533,1569.9420444368152,1571.1899107782083,"[52, 0, 202]",202,a,0.7245494996896014,colour,0.06
08,25,1,1,11,34,534,1573.2079118857073,1574.0138176794135,"[53, 0, 201]",201,a,0.2825735920196166,colour,0.06
08,25,1,1,11,35,535,1576.0206674422807,1577.1738473911246,"[98, 0, 156]",156,l,0.6299237593630096,colour,0.06
08,25,1,1,11,36,536,1579.1927661588852,1580.3258654954116,"[71, 0, 183]",183,l,0.6097978547913954,colour,0.06
08,25,1,1,11,37,537,1582.3335888078436,1583.1258380049985,"[56, 0, 198]",198,a,0.2688713093812112,colour,0.06
08,25,1,1,11,38,538,1585.1463128567702,1586.1498708580184,"[25, 0, 229]",229,a,0.4802226487954613,colour,0.06
08,25,1,1,11,39,539,1588.1622746316862,1588.8458488278702,"[95, 0, 159]",159,l,0.16025932370394003,colour,0.06
08,25,1,1,11,40,540,1590.8655682837707,1591.5258083090303,"[77, 0, 177]",177,l,0.13710317100048997,colour,0.06
08,25,1,1,11,41,541,1593.5376067420002,1594.2378441521432,"[60, 0, 194]",194,l,0.17693198996130377,colour,0.06
08,25,1,1,11,42,542,1596.256583326307,1596.8939113831584,"[94, 0, 160]",160,l,0.1140305135777453,colour,0.06
08,25,1,1,11,43,543,1598.9130085629877,1599.8778361807053,"[55, 0, 199]",199,l,0.4414635145367356,colour,0.06
08,25,1,1,11,44,544,1601.8976635502913,1602.5018388651515,"[93, 0, 161]",161,l,0.08097426376480144,colour,0.06
08,25,1,1,11,45,545,1604.5227879070444,1605.4617875234399,"[81, 0, 173]",173,l,0.4157245223177597,colour,0.06
08,25,1,1,11,46,546,1607.4761605251697,1608.7017990079767,"[74, 0, 180]",180,l,0.7022235735494178,colour,0.06
08,25,1,1,11,47,547,1610.7107365464326,1611.5977958036528,"[73, 0, 181]",181,l,0.3636545879562618,colour,0.06
08,25,1,1,11,48,548,1613.6173435428645,1614.541959523689,"[64, 0, 190]",190,l,0.40126802532176953,colour,0.06
08,25,1,1,11,49,549,1616.554915468907,1617.3178121403616,"[67, 0, 187]",187,l,0.23938448232365772,colour,0.06
08,25,1,1,11,50,550,1619.3365272899537,1620.125758448179,"[96, 0, 158]",158,l,0.2658642981259618,colour,0.06
08,25,1,1,12,1,551,1627.8050988040486,1628.5337943164923,"[94, 0, 160]",160,l,0.20455868418503087,colour,0.06
08,25,1,1,12,2,552,1630.5404904795723,1631.221762648158,"[66, 0, 188]",188,l,0.15794784382160287,colour,0.06
08,25,1,1,12,3,553,1633.2282528299693,1634.6138068092696,"[83, 0, 171]",171,l,0.8622883375210222,colour,0.06
08,25,1,1,12,4,554,1636.634700712777,1637.2777860047645,"[77, 0, 177]",177,l,0.11962075818155427,colour,0.06
08,25,1,1,12,5,555,1639.2911944786028,1639.9417726833344,"[68, 0, 186]",186,l,0.1276347286766395,colour,0.06
08,25,1,1,12,6,556,1641.9632695644686,1642.573803516716,"[73, 0, 181]",181,l,0.08725531355594285,colour,0.06
08,25,1,1,12,7,557,1644.5884644195903,1645.709716880141,"[88, 0, 166]",166,l,0.5977772929036291,colour,0.06
08,25,1,1,12,8,558,1647.7293366930971,1648.7178399458644,"[62, 0, 192]",192,l,0.4651549034169875,colour,0.06
08,25,1,1,12,9,559,1650.7295296774391,1651.3817699106585,"[90, 0, 164]",164,l,0.1288796746521257,colour,0.06
08,25,1,1,12,10,560,1653.4016579324816,1654.221840629587,"[91, 0, 163]",163,l,0.29684498158167116,colour,0.06
08,25,1,1,12,11,561,1656.229992052191,1657.0537544120452,"[92, 0, 162]",162,l,0.3004092843475519,colour,0.06
08,25,1,1,12,12,562,1659.0739555411274,1659.990072333676,"[86, 0, 168]",168,l,0.3927857724047499,colour,0.06
08,25,1,1,12,13,563,1661.996086750005,1662.9017130708671,"[61, 0, 193]",193,l,0.38230002686032094,colour,0.06
08,25,1,1,12,14,564,1664.9181730604905,1665.7417408606125,"[64, 0, 190]",190,l,0.3002017277176492,colour,0.06
08,25,1,1,12,15,565,1667.7621239463624,1668.5017092899507,"[95, 0, 159]",159,l,0.21625904958636966,colour,0.06
08,25,1,1,12,16,566,1670.5124281921017,1671.3497108779266,"[84, 0, 170]",170,l,0.31476968301285524,colour,0.06
08,25,1,1,12,17,567,1673.3563834102679,1674.2057122579718,"[56, 0, 198]",198,l,0.3260454828705406,colour,0.06
08,25,1,1,12,18,568,1676.2159522438596,1677.2936827951635,"[98, 0, 156]",156,l,0.5543514820019482,colour,0.06
08,25,1,1,12,19,569,1679.3098993882013,1680.2297065141174,"[53, 0, 201]",201,l,0.3964008812617976,colour,0.06
08,25,1,1,12,20,570,1682.247662329377,1683.4937638485862,"[79, 0, 175]",175,l,0.7229051942704245,colour,0.06
08,25,1,1,12,21,571,1685.5135947628005,1686.0857138018473,"[4, 0, 250]",250,a,0.04964423926139716,colour,0.06
08,25,1,1,12,22,572,1688.1075115810236,1689.5337407534826,"[99, 0, 155]",155,l,0.9029651060700417,colour,0.06
08,25,1,1,12,23,573,1691.5452721591282,1692.25374054868,"[75, 0, 179]",179,l,0.1851814801193541,colour,0.06
08,25,1,1,12,24,574,1694.2642507126584,1695.2937111520441,"[65, 0, 189]",189,l,0.5062227606540546,colour,0.06
08,25,1,1,12,25,575,1697.3113073862623,1698.0537166028662,"[97, 0, 157]",157,l,0.21902778423100244,colour,0.06
08,25,1,1,12,26,576,1700.0615580689919,1700.8136558876286,"[57, 0, 197]",197,l,0.228810909204185,colour,0.06
08,25,1,1,12,27,577,1702.8275086193025,1703.5576767204911,"[55, 0, 199]",199,a,0.20691191170772072,colour,0.06
08,25,1,1,12,28,578,1705.5775844345917,1706.2456497782987,"[70, 0, 184]",184,l,0.14474692662770394,colour,0.06
08,25,1,1,12,29,579,1708.265336151162,1709.0776403606578,"[96, 0, 158]",158,l,0.2892181613133289,colour,0.06
08,25,1,1,12,30,580,1711.0936616062681,1711.6376647948491,"[89, 0, 165]",165,l,0.02064814385084901,colour,0.06
08,25,1,1,12,31,581,1713.6563657659863,1714.4216664710548,"[29, 0, 225]",225,a,0.24196495876822155,colour,0.06
08,25,1,1,12,32,582,1716.437882670245,1717.2296596465021,"[50, 0, 204]",204,l,0.2683719131455291,colour,0.06
08,25,1,1,12,33,583,1719.2506461037265,1720.277676121841,"[85, 0, 169]",169,l,0.5037234164046822,colour,0.06
08,25,1,1,12,34,584,1722.2977799710497,1723.3336356754735,"[67, 0, 187]",187,l,0.5127090040186886,colour,0.06
08,25,1,1,12,35,585,1725.3448394015722,1726.2616450300993,"[93, 0, 161]",161,l,0.3934694883937482,colour,0.06
08,25,1,1,12,36,586,1728.2826173088833,1731.397664731834,"[78, 0, 176]",176,l,2.591868821051321,colour,0.06
08,25,1,1,12,37,587,1733.408017357564,1734.0936096186488,"[59, 0, 195]",195,l,0.16229038551682606,colour,0.06
08,25,1,1,12,38,588,1736.1112023082533,1740.7656173569267,"[76, 0, 178]",178,l,4.131305763614364,colour,0.06
08,25,1,1,12,39,589,1742.7837244088878,1745.1336270896427,"[82, 0, 172]",172,l,1.8269229708821513,colour,0.06
08,25,1,1,12,40,590,1747.143441328415,1747.893634115855,"[58, 0, 196]",196,l,0.2269677117583342,colour,0.06
08,25,1,1,12,41,591,1749.909248125099,1750.8456243358814,"[63, 0, 191]",191,l,0.4129884768772172,colour,0.06
08,25,1,1,12,42,592,1752.862616804763,1753.7415947438858,"[74, 0, 180]",180,l,0.3559773554443382,colour,0.06
08,25,1,1,12,43,593,1755.7534857305727,1757.1096040827542,"[81, 0, 173]",173,l,0.8328089935384924,colour,0.06
08,25,1,1,12,44,594,1759.128710714882,1760.0376268281252,"[87, 0, 167]",167,l,0.3855614623607835,colour,0.06
08,25,1,1,12,45,595,1762.050834834532,1762.8776502855762,"[17, 0, 237]",237,a,0.30345961861894466,colour,0.06
08,25,1,1,12,46,596,1764.8947998988588,1765.717595367736,"[71, 0, 183]",183,l,0.299433728781878,colour,0.06
08,25,1,1,12,47,597,1767.738709430938,1768.6296606705,"[69, 0, 185]",185,l,0.3676462132134475,colour,0.06
08,25,1,1,12,48,598,1770.6452100890601,1771.9496003648528,"[60, 0, 194]",194,l,0.78101908339886,colour,0.06
08,25,1,1,12,49,599,1773.9580125132634,1775.10159917071,"[52, 0, 202]",202,l,0.6202769049705239,colour,0.06
08,25,1,1,12,50,600,1777.1144720145094,1777.9335846330796,"[80, 0, 174]",174,l,0.29589699518692214,colour,0.06
08,25,1,1,13,1,601,1785.5674787500611,1786.5495709839743,"[84, 0, 170]",170,l,0.45792429184075445,colour,0.06
08,25,1,1,13,2,602,1788.5684838440502,1789.4935704703967,"[70, 0, 184]",184,l,0.4016626586235361,colour,0.06
08,25,1,1,13,3,603,1791.5062211852637,1792.5176029295835,"[73, 0, 181]",181,l,0.48800700731226243,colour,0.06
08,25,1,1,13,4,604,1794.5376685757656,1795.5815642444795,"[77, 0, 177]",177,l,0.5204413748870138,colour,0.06
08,25,1,1,13,5,605,1797.6004562307498,1798.9255887794861,"[71, 0, 183]",183,l,0.8017251225392101,colour,0.06
08,25,1,1,13,6,606,1800.944483522675,1801.8215954213083,"[88, 0, 166]",166,l,0.3537883615499595,colour,0.06
08,25,1,1,13,7,607,1803.8352275994403,1804.6215253955597,"[62, 0, 192]",192,l,0.26279702852480114,colour,0.06
08,25,1,1,13,8,608,1806.6324400389713,1807.5735321570974,"[94, 0, 160]",160,l,0.41798519613803364,colour,0.06
08,25,1,1,13,9,609,1809.585824472466,1811.4135579776193,"[46, 0, 208]",208,a,1.3043642819829984,colour,0.06
08,25,1,1,13,10,610,1813.4298852412612,1814.6615314450173,"[64, 0, 190]",190,a,0.7084191588510294,colour,0.06
08,25,1,1,13,11,611,1816.6801508901262,1817.2775638758467,"[99, 0, 155]",155,l,0.07413395319599658,colour,0.06
08,25,1,1,13,12,612,1819.289632486907,1820.6055510175793,"[82, 0, 172]",172,l,0.7925378859799821,colour,0.06
08,25,1,1,13,13,613,1822.6181217817793,1823.9175385752023,"[60, 0, 194]",194,a,0.776157847023569,colour,0.06
08,25,1,1,13,14,614,1825.9308076276793,1826.7336008595303,"[66, 0, 188]",188,l,0.27954964542004745,colour,0.06
08,25,1,1,13,15,615,1828.7435722427035,1830.845536902154,"[69, 0, 185]",185,l,1.578670266942936,colour,0.06
08,25,1,1,13,16,616,1832.8532799068635,1833.949894173682,"[56, 0, 198]",198,l,0.5733470496634254,colour,0.06
08,25,1,1,13,17,617,1835.9628686296492,1837.0455423372186,"[95, 0, 159]",159,l,0.5593556843377883,colour,0.06
08,25,1,1,13,18,618,1839.0568240447465,1839.8615179754997,"[51, 0, 203]",203,a,0.2814011136360932,colour,0.06
08,25,1,1,13,19,619,1841.8695335213852,1842.7655196832202,"[68, 0, 186]",186,l,0.37254683415812906,colour,0.06
08,25,1,1,13,20,620,1844.7759408380807,1848.2535432320292,"[53, 0, 201]",201,a,2.9545155580708524,colour,0.06
08,25,1,1,13,21,621,1850.2608337081329,1851.0694739719183,"[1, 0, 253]",253,a,0.2853840743046021,colour,0.06
08,25,1,1,13,22,622,1853.0891315940535,1854.1655372487294,"[93, 0, 161]",161,l,0.5530880252772477,colour,0.06
08,25,1,1,13,23,623,1856.1831393906177,1859.141489429574,"[89, 0, 165]",165,l,2.4350032649817877,colour,0.06
08,25,1,1,13,24,624,1861.1523591745936,1862.7974381130625,"[79, 0, 175]",175,l,1.1217660352267558,colour,0.06
08,25,1,1,13,25,625,1864.8088470327202,1865.5974440995196,"[87, 0, 167]",167,l,0.26531133889511693,colour,0.06
08,25,1,1,13,26,626,1867.605953527789,1868.4454630167165,"[76, 0, 178]",178,l,0.3162674778868677,colour,0.06
08,25,1,1,13,27,627,1870.4655014875461,1871.2535113305348,"[90, 0, 164]",164,l,0.2647926442150492,colour,0.06
08,25,1,1,13,28,628,1873.2626461856416,1873.941517077532,"[85, 0, 169]",169,l,0.15553041944804136,colour,0.06
08,25,1,1,13,29,629,1875.9503025915765,1877.4614366070018,"[72, 0, 182]",182,l,0.9877399799734121,colour,0.06
08,25,1,1,13,30,630,1879.481886252659,1880.2934189186053,"[54, 0, 200]",200,a,0.2884596146759577,colour,0.06
08,25,1,1,13,31,631,1882.3102447908022,1883.1654179135076,"[78, 0, 176]",176,l,0.3318818809639197,colour,0.06
08,25,1,1,13,32,632,1885.1854059721081,1885.9734315689275,"[98, 0, 156]",156,l,0.26465204134001397,colour,0.06
08,25,1,1,13,33,633,1887.9825337348448,1889.3254452621477,"[63, 0, 191]",191,l,0.8197640392172616,colour,0.06
08,25,1,1,13,34,634,1891.342195122139,1892.229426096048,"[67, 0, 187]",187,l,0.36388813839585055,colour,0.06
08,25,1,1,13,35,635,1894.2486579710821,1895.6613739067834,"[57, 0, 197]",197,a,0.8895534814801067,colour,0.06
08,25,1,1,13,36,636,1897.6708521952532,1898.565393731391,"[83, 0, 171]",171,l,0.3713125220092479,colour,0.06
08,25,1,1,13,37,637,1900.5773276472464,1901.341444058562,"[97, 0, 157]",157,l,0.24086652336700354,colour,0.06
08,25,1,1,13,38,638,1903.358753573164,1904.3894085462816,"[92, 0, 162]",162,l,0.5073554606206017,colour,0.06
08,25,1,1,13,39,639,1906.40588862203,1908.197389512512,"[55, 0, 199]",199,a,1.268285660946276,colour,0.06
08,25,1,1,13,40,640,1910.218622123255,1911.1333769976773,"[61, 0, 193]",193,l,0.3914537865493912,colour,0.06
08,25,1,1,13,41,641,1913.1406946491334,1913.8614065172005,"[86, 0, 168]",168,l,0.1973103495547548,colour,0.06
08,25,1,1,13,42,642,1915.8753159626358,1916.6773935770034,"[91, 0, 163]",163,l,0.2787481695995666,colour,0.06
08,25,1,1,13,43,643,1918.6879269778728,1919.5093428055843,"[75, 0, 179]",179,l,0.2979906784603372,colour,0.06
08,25,1,1,13,44,644,1921.5164099712274,1922.7573682606017,"[58, 0, 196]",196,l,0.7176910722191678,colour,0.06
08,25,1,1,13,45,645,1924.7665917309787,1925.38137133891,"[74, 0, 180]",180,l,0.09142298782535363,colour,0.06
08,25,1,1,13,46,646,1927.3918145491189,1928.2053983630176,"[96, 0, 158]",158,l,0.2902114399621496,colour,0.06
08,25,1,1,13,47,647,1930.2202203487395,1930.821333907821,"[81, 0, 173]",173,l,0.07780341275793035,colour,0.06
08,25,1,1,13,48,648,1932.8297354223905,1933.7173807218787,"[59, 0, 195]",195,a,0.36436232850246597,colour,0.06
08,25,1,1,13,49,649,1935.736189212883,1936.57335768349,"[15, 0, 239]",239,a,0.31376458902377635,colour,0.06
08,25,1,1,13,50,650,1938.5802153232653,1939.3813717327575,"[65, 0, 189]",189,l,0.27784232470730785,colour,0.06
08,25,1,1,14,1,651,1946.8300406527414,1948.1813615715364,"[54, 0, 200]",200,a,0.8272904288460268,colour,0.06
08,25,1,1,14,2,652,1950.1905645619263,1950.9173499231547,"[72, 0, 182]",182,l,0.20356146708945744,colour,0.06
08,25,1,1,14,3,653,1952.9253205706336,1954.3733286176866,"[60, 0, 194]",194,a,0.9249625649827067,colour,0.06
08,25,1,1,14,4,654,1956.3941055490432,1957.0613375154498,"[86, 0, 168]",168,l,0.14388873704592697,colour,0.06
08,25,1,1,14,5,655,1959.0817643180635,1959.8053185698955,"[73, 0, 181]",181,l,0.2004351206269348,colour,0.06
08,25,1,1,14,6,656,1961.816315527045,1963.093400092781,"[66, 0, 188]",188,l,0.7536676872405224,colour,0.06
08,25,1,1,14,7,657,1965.1135000035429,1966.3973295692122,"[99, 0, 155]",155,l,0.7605497454496799,colour,0.06
08,25,1,1,14,8,658,1968.4106769969658,1969.7573154853017,"[70, 0, 184]",184,l,0.8233578804210993,colour,0.06
08,25,1,1,14,9,659,1971.770317904302,1972.4052899766975,"[84, 0, 170]",170,l,0.1116717722179601,colour,0.06
08,25,1,1,14,10,660,1974.426662402635,1975.6773451339977,"[64, 0, 190]",190,l,0.727253249817295,colour,0.06
08,25,1,1,14,11,661,1977.6926637590368,1979.6293849785725,"[95, 0, 159]",159,l,1.4134358854789753,colour,0.06
08,25,1,1,14,12,662,1981.646098998608,1982.3572719259682,"[47, 0, 207]",207,a,0.18793603632366285,colour,0.06
08,25,1,1,14,13,663,1984.3650421060302,1985.1893436405371,"[82, 0, 172]",172,l,0.30115877256321255,colour,0.06
08,25,1,1,14,14,664,1987.2089902349835,1988.2692706688103,"[52, 0, 202]",202,a,0.5369072721950943,colour,0.06
08,25,1,1,14,15,665,1990.2873690561828,1991.2612496091024,"[65, 0, 189]",189,l,0.4505956127104582,colour,0.06
08,25,1,1,14,16,666,1993.2719082528783,1994.077287868844,"[85, 0, 169]",169,l,0.28199857742583845,colour,0.06
08,25,1,1,14,17,667,1996.0846736555832,1998.06129064782,"[50, 0, 204]",204,a,1.4531835722300457,colour,0.06
08,25,1,1,14,18,668,2000.0694015043264,2000.9492573253228,"[98, 0, 156]",156,l,0.35653779775020666,colour,0.06
08,25,1,1,14,19,669,2002.9602558578626,2004.5332712895179,"[62, 0, 192]",192,a,1.0498191067163134,colour,0.06
08,25,1,1,14,20,670,2006.5543250943447,2008.0052243620303,"[27, 0, 227]",227,a,0.9276580443402054,colour,0.06
08,25,1,1,14,21,671,2010.0231927803397,2012.157331869268,"[68, 0, 186]",186,l,1.610701336627244,colour,0.06
08,25,1,1,14,22,672,2014.164115072228,2015.3892537649663,"[96, 0, 158]",158,l,0.7019372477952857,colour,0.06
08,25,1,1,14,23,673,2017.3988072779466,2018.8292978599202,"[91, 0, 163]",163,l,0.9072631432209164,colour,0.06
08,25,1,1,14,24,674,2020.8366123606102,2021.73321607236,"[57, 0, 197]",197,a,0.37324512242048513,colour,0.06
08,25,1,1,14,25,675,2023.7430425203493,2025.0372195917735,"[69, 0, 185]",185,l,0.770773583673872,colour,0.06
08,25,1,1,14,26,676,2027.0558729076001,2027.9413162162673,"[78, 0, 176]",176,l,0.36227258369035553,colour,0.06
08,25,1,1,14,27,677,2029.9623570241965,2030.9412413856044,"[94, 0, 160]",160,l,0.4555675197043456,colour,0.06
08,25,1,1,14,28,678,2032.9625551285426,2034.021192832326,"[63, 0, 191]",191,l,0.5353551266598515,colour,0.06
08,25,1,1,14,29,679,2036.0409032297612,2036.7492743394541,"[90, 0, 164]",164,l,0.18501291419670451,colour,0.06
08,25,1,1,14,30,680,2038.7599735493277,2039.3333265066758,"[97, 0, 157]",157,l,0.049732066836440936,colour,0.06
08,25,1,1,14,31,681,2041.3538245953387,2042.1011805128364,"[80, 0, 174]",174,l,0.2250134498317493,colour,0.06
08,25,1,1,14,32,682,2044.1196676258114,2045.2132378599053,"[53, 0, 201]",201,a,0.5702722969872411,colour,0.06
08,25,1,1,14,33,683,2047.2293485084665,2048.621210319063,"[76, 0, 178]",178,l,0.8685571781097678,colour,0.06
08,25,1,1,14,34,684,2050.6358160835516,2051.885152256771,"[71, 0, 183]",183,l,0.7263233803241747,colour,0.06
08,25,1,1,14,35,685,2053.901544111097,2054.5492854459008,"[89, 0, 165]",165,l,0.12427010561805218,colour,0.06
08,25,1,1,14,36,686,2056.5580083384993,2057.5972389059607,"[56, 0, 198]",198,a,0.5158180212747538,colour,0.06
08,25,1,1,14,37,687,2059.605247362604,2060.2611901384225,"[19, 0, 235]",235,a,0.13339275150792673,colour,0.06
08,25,1,1,14,38,688,2062.2773448976805,2062.8054536589334,"[77, 0, 177]",177,l,0.0048108241317095235,colour,0.06
08,25,1,1,14,39,689,2064.824468918887,2065.813374681864,"[67, 0, 187]",187,l,0.46562121661554556,colour,0.06
08,25,1,1,14,40,690,2067.8246910478047,2068.6371957247175,"[75, 0, 179]",179,l,0.28923391514399555,colour,0.06
08,25,1,1,14,41,691,2070.6530054752366,2071.7011633411603,"[59, 0, 195]",195,a,0.5251592514687218,colour,0.06
08,25,1,1,14,42,692,2073.7157301149273,2074.3971696678927,"[81, 0, 173]",173,l,0.15814673584827688,colour,0.06
08,25,1,1,14,43,693,2076.403458988454,2077.421144625623,"[79, 0, 175]",175,l,0.49433650012360886,colour,0.06
08,25,1,1,14,44,694,2079.434954034281,2080.429144811511,"[83, 0, 171]",171,l,0.4708743293740554,colour,0.06
08,25,1,1,14,45,695,2082.450838615463,2083.469272559276,"[87, 0, 167]",167,l,0.4951352190109901,colour,0.06
08,25,1,1,14,46,696,2085.491880085043,2086.317130787458,"[92, 0, 162]",162,l,0.3019515837659128,colour,0.06
08,25,1,1,14,47,697,2088.3358400293655,2089.4612377149606,"[55, 0, 199]",199,a,0.6020016809197841,colour,0.06
08,25,1,1,14,48,698,2091.476653619873,2092.133146991837,"[74, 0, 180]",180,l,0.13317534871748649,colour,0.06
08,25,1,1,14,49,699,2094.1487480041833,2095.109174397192,"[88, 0, 166]",166,l,0.43721588961489033,colour,0.06
08,25,1,1,14,50,700,2097.1177291177155,2100.2531671094766,"[58, 0, 196]",196,a,2.612103820851189,colour,0.06
08,25,1,1,15,1,701,2108.8678825205716,2110.1091862125613,"[50, 0, 204]",204,a,0.717144020673004,colour,0.06
08,25,1,1,15,2,702,2112.1196778657904,2113.1171592231112,"[94, 0, 160]",160,l,0.47490100690629333,colour,0.06
08,25,1,1,15,3,703,2115.1347991741786,2117.3011461694987,"[87, 0, 167]",167,l,1.64307071971416,colour,0.06
08,25,1,1,15,4,704,2119.322630841416,2122.901103004013,"[71, 0, 183]",183,a,3.055247874610359,colour,0.06
08,25,1,1,15,5,705,2124.916726859403,2126.237096239318,"[54, 0, 200]",200,l,0.7970552951301215,colour,0.06
08,25,1,1,15,6,706,2128.2451129667315,2129.4850862482417,"[64, 0, 190]",190,l,0.7166072091058595,colour,0.06
08,25,1,1,15,7,707,2131.4954148494,2132.357331002815,"[65, 0, 189]",189,l,0.3385134533746168,colour,0.06
08,25,1,1,15,8,708,2134.3706150214275,2134.941106690414,"[78, 0, 176]",176,l,0.04716301191365346,colour,0.06
08,25,1,1,15,9,709,2136.948950519596,2137.781134874007,"[62, 0, 192]",192,a,0.30921133991796523,colour,0.06
08,25,1,1,15,10,710,2139.7930632760254,2140.869134161927,"[93, 0, 161]",161,l,0.5529470285546267,colour,0.06
08,25,1,1,15,11,711,2142.886983638862,2143.765215634412,"[90, 0, 164]",164,l,0.35538067936431617,colour,0.06
08,25,1,1,15,12,712,2145.777809635503,2147.8130363684904,"[58, 0, 196]",196,l,1.5121647093910724,colour,0.06
08,25,1,1,15,13,713,2149.824966739732,2150.965031629734,"[51, 0, 203]",203,a,0.6167208729457343,colour,0.06
08,25,1,1,15,14,714,2152.981504616255,2156.5410473772645,"[53, 0, 201]",201,a,3.036406694431207,colour,0.06
08,25,1,1,15,15,715,2158.560046095692,2159.22104112299,"[14, 0, 240]",240,a,0.13749189661757555,colour,0.06
08,25,1,1,15,16,716,2161.2321995568345,2161.9650288728153,"[99, 0, 155]",155,l,0.20976768623222597,colour,0.06
08,25,1,1,15,17,717,2163.9823202705156,2167.357029317078,"[77, 0, 177]",177,l,2.8514886970224325,colour,0.06
08,25,1,1,15,18,718,2169.3733238915447,2170.4450289988454,"[45, 0, 209]",209,a,0.5486659267626237,colour,0.06
08,25,1,1,15,19,719,2172.4517550941964,2173.9010864625016,"[91, 0, 163]",163,l,0.9259617512871046,colour,0.06
08,25,1,1,15,20,720,2175.920937856674,2177.0050179869286,"[70, 0, 184]",184,a,0.5609936882392503,colour,0.06
08,25,1,1,15,21,721,2179.0147916596034,2179.6770615651476,"[80, 0, 174]",174,l,0.13913186974241398,colour,0.06
08,25,1,1,15,22,722,2181.686885256233,2183.0529777485062,"[56, 0, 198]",198,a,0.842692549151252,colour,0.06
08,25,1,1,15,23,723,2185.0620767636574,2187.0929881302727,"[95, 0, 159]",159,l,1.507624851030414,colour,0.06
08,25,1,1,15,24,724,2189.1093386308203,2190.853070774843,"[57, 0, 197]",197,a,1.2204298746073619,colour,0.06
08,25,1,1,15,25,725,2192.8596109750506,2196.3013635722746,"[84, 0, 170]",170,l,2.918527127694688,colour,0.06
08,25,1,1,15,26,726,2198.3131411314243,2199.549047957,"[69, 0, 185]",185,l,0.7126171592244646,colour,0.06
08,25,1,1,15,27,727,2201.5633437649813,2202.404963084846,"[61, 0, 193]",193,a,0.31821701365697663,colour,0.06
08,25,1,1,15,28,728,2204.422874001699,2208.1089743236225,"[92, 0, 162]",162,l,3.1626298804330872,colour,0.06
08,25,1,1,15,29,729,2210.1265453517117,2210.7009569660586,"[96, 0, 158]",158,l,0.05099552354658954,colour,0.06
08,25,1,1,15,30,730,2212.720492889901,2214.7009526337642,"[59, 0, 195]",195,a,1.45716259443725,colour,0.06
08,25,1,1,15,31,731,2216.7208394740446,2217.4449620450905,"[75, 0, 179]",179,l,0.20084393236902542,colour,0.06
08,25,1,1,15,32,732,2219.455442276798,2220.260956194121,"[81, 0, 173]",173,l,0.28218841101625003,colour,0.06
08,25,1,1,15,33,733,2222.2681631749583,2223.06902183716,"[76, 0, 178]",178,l,0.27760995578137226,colour,0.06
08,25,1,1,15,34,734,2225.0808923438744,2225.7809875757375,"[52, 0, 202]",202,a,0.17690205767576117,colour,0.06
08,25,1,1,15,35,735,2227.7998724727804,2228.565000279632,"[32, 0, 222]",222,a,0.24189170349563938,colour,0.06
08,25,1,1,15,36,736,2230.5813090325246,2231.173004955359,"[74, 0, 180]",180,l,0.06851968400587793,colour,0.06
08,25,1,1,15,37,737,2233.1908406477014,2234.2209643231035,"[66, 0, 188]",188,l,0.506754846079275,colour,0.06
08,25,1,1,15,38,738,2236.2379378873884,2238.1169217342103,"[97, 0, 157]",157,l,1.3555886298418045,colour,0.06
08,25,1,1,15,39,739,2240.128872191577,2240.812945783997,"[85, 0, 169]",169,l,0.1607866829726845,colour,0.06
08,25,1,1,15,40,740,2242.8322454004665,2243.612988791938,"[73, 0, 181]",181,l,0.2576534048275789,colour,0.06
08,25,1,1,15,41,741,2245.6293952185515,2246.2209280893003,"[88, 0, 166]",166,l,0.06826053358963691,colour,0.06
08,25,1,1,15,42,742,2248.238848064604,2248.9568794194347,"[89, 0, 165]",165,l,0.19469797161582392,colour,0.06
08,25,1,1,15,43,743,2250.9734981288348,2252.1729699030984,"[63, 0, 191]",191,l,0.6761608402448473,colour,0.06
08,25,1,1,15,44,744,2254.192494405419,2254.916939142189,"[79, 0, 175]",175,l,0.20110229510464706,colour,0.06
08,25,1,1,15,45,745,2256.927035768269,2257.6928937648627,"[68, 0, 186]",186,l,0.24246199191838969,colour,0.06
08,25,1,1,15,46,746,2259.708578666323,2260.332894064195,"[98, 0, 156]",156,l,0.10102218690735754,colour,0.06
08,25,1,1,15,47,747,2262.349435185999,2263.132895718343,"[72, 0, 182]",182,l,0.26007909995678347,colour,0.06
08,25,1,1,15,48,748,2265.1465227764857,2266.932850898709,"[83, 0, 171]",171,l,1.2629321175481891,colour,0.06
08,25,1,1,15,49,749,2268.9437257637182,2269.5008755187882,"[82, 0, 172]",172,l,0.03380888878018595,colour,0.06
08,25,1,1,15,50,750,2271.522091981853,2272.556903995399,"[55, 0, 199]",199,a,0.5114616949722404,colour,0.06
08,25,1,1,16,1,751,2281.8970593911217,2283.196890510124,"[71, 0, 183]",183,l,0.7757061060983688,colour,0.06
08,25,1,1,16,2,752,2285.210608940455,2286.540901260538,"[62, 0, 192]",192,a,0.8069593307154719,colour,0.06
08,25,1,1,16,3,753,2288.5546996415214,2289.316880301645,"[89, 0, 165]",165,l,0.23886657533876132,colour,0.06
08,25,1,1,16,4,754,2291.3361106013035,2291.924892460447,"[98, 0, 156]",156,l,0.06544217439659405,colour,0.06
08,25,1,1,16,5,755,2293.9457150779053,2294.636888525143,"[81, 0, 173]",173,l,0.1679046547069447,colour,0.06
08,25,1,1,16,6,756,2296.6489803730947,2297.34086116706,"[55, 0, 199]",199,a,0.16866595827741548,colour,0.06
08,25,1,1,16,7,757,2299.352425261881,2299.9888612584327,"[95, 0, 159]",159,l,0.11309513026208151,colour,0.06
08,25,1,1,16,8,758,2302.008784332502,2302.996857112026,"[61, 0, 193]",193,l,0.4647740547225112,colour,0.06
08,25,1,1,16,9,759,2305.0090785351786,2305.548882935691,"[79, 0, 175]",175,l,0.01653245721536223,colour,0.06
08,25,1,1,16,10,760,2307.5561741994898,2308.6688691825984,"[85, 0, 169]",169,l,0.5893639629648533,colour,0.06
08,25,1,1,16,11,761,2310.6814820882864,2312.164878345022,"[63, 0, 191]",191,a,0.960312177776359,colour,0.06
08,25,1,1,16,12,762,2314.1817191833543,2315.2768679506553,"[52, 0, 202]",202,a,0.5719784361717757,colour,0.06
08,25,1,1,16,13,763,2317.291342564553,2318.2208556217083,"[77, 0, 177]",177,l,0.4061489539890317,colour,0.06
08,25,1,1,16,14,764,2320.2290098012454,2321.0368344107555,"[67, 0, 187]",187,l,0.2843525926436996,colour,0.06
08,25,1,1,16,15,765,2323.057389607042,2324.508833169355,"[38, 0, 216]",216,a,0.9281212067726301,colour,0.06
08,25,1,1,16,16,766,2326.5263726897974,2327.6208397103474,"[84, 0, 170]",170,l,0.5710993727552705,colour,0.06
08,25,1,1,16,17,767,2329.6360539663,2330.6048310678016,"[54, 0, 200]",200,l,0.44544608135765884,colour,0.06
08,25,1,1,16,18,768,2332.6206546029134,2333.148820865623,"[88, 0, 166]",166,l,0.004845876392209902,colour,0.06
08,25,1,1,16,19,769,2335.167673073476,2336.268805931002,"[90, 0, 164]",164,l,0.5777502435958013,colour,0.06
08,25,1,1,16,20,770,2338.277304331583,2339.388819747095,"[59, 0, 195]",195,a,0.5881009000877384,colour,0.06
08,25,1,1,16,21,771,2341.4025960727304,2342.3968888559757,"[92, 0, 162]",162,l,0.4710306860797573,colour,0.06
08,25,1,1,16,22,772,2344.4185263399995,2345.1889253764966,"[97, 0, 157]",157,l,0.24788051984796766,colour,0.06
08,25,1,1,16,23,773,2347.199906185968,2347.98080672184,"[51, 0, 203]",203,a,0.25760417414130643,colour,0.06
08,25,1,1,16,24,774,2349.997107203977,2350.53284002858,"[82, 0, 172]",172,l,0.012516019676695578,colour,0.06
08,25,1,1,16,25,775,2352.5440665977076,2353.212819595865,"[93, 0, 161]",161,l,0.14541370724327862,colour,0.06
08,25,1,1,16,26,776,2355.231769871287,2359.4687936430128,"[60, 0, 194]",194,a,3.713910548205604,colour,0.06
08,25,1,1,16,27,777,2361.4822978213197,2362.2847897612664,"[69, 0, 185]",185,l,0.27931845803686883,colour,0.06
08,25,1,1,16,28,778,2364.2949773656874,2365.020748574476,"[83, 0, 171]",171,l,0.20246775783016346,colour,0.06
08,25,1,1,16,29,779,2367.02955850694,2368.108798668487,"[20, 0, 234]",234,a,0.5559205629251665,colour,0.06
08,25,1,1,16,30,780,2370.1235718173557,2371.196770781069,"[57, 0, 197]",197,a,0.5498805466340855,colour,0.06
08,25,1,1,16,31,781,2373.2176260877022,2373.8527954767633,"[66, 0, 188]",188,l,0.11189153807936236,colour,0.06
08,25,1,1,16,32,782,2375.8740206044167,2376.8767653144896,"[56, 0, 198]",198,a,0.4794353514298564,colour,0.06
08,25,1,1,16,33,783,2378.889932754799,2379.628733951773,"[72, 0, 182]",182,l,0.2155087737046415,colour,0.06
08,25,1,1,16,34,784,2381.6400538623275,2382.3727205200557,"[76, 0, 178]",178,l,0.2093029483949067,colour,0.06
08,25,1,1,16,35,785,2384.3902895789215,2387.636851897507,"[91, 0, 163]",163,l,2.7230745478882454,colour,0.06
08,25,1,1,16,36,786,2389.6563606459968,2390.684755339171,"[68, 0, 186]",186,l,0.5050514638132881,colour,0.06
08,25,1,1,16,37,787,2392.7035153871548,2394.044784578262,"[87, 0, 167]",167,l,0.8180661707883701,colour,0.06
08,25,1,1,16,38,788,2396.0630838268844,2396.7487647032394,"[50, 0, 204]",204,a,0.16233882853703108,colour,0.06
08,25,1,1,16,39,789,2398.7664042604592,2401.7647048166546,"[73, 0, 181]",181,l,2.474982139101485,colour,0.06
08,25,1,1,16,40,790,2403.7825259366946,2404.70070490487,"[99, 0, 155]",155,l,0.3954981871211203,colour,0.06
08,25,1,1,16,41,791,2406.720266822522,2408.0606864886504,"[53, 0, 201]",201,a,0.8171154274896253,colour,0.06
08,25,1,1,16,42,792,2410.079812419208,2410.884683580487,"[74, 0, 180]",180,l,0.2815925226022955,colour,0.06
08,25,1,1,16,43,793,2412.8925341050635,2413.9967153276084,"[75, 0, 179]",179,l,0.5808730454446049,colour,0.06
08,25,1,1,16,44,794,2416.0177624370554,2416.8767086007138,"[78, 0, 176]",176,l,0.33556748820410576,colour,0.06
08,25,1,1,16,45,795,2418.892965759849,2420.1327102170617,"[46, 0, 208]",208,a,0.7164020155469188,colour,0.06
08,25,1,1,16,46,796,2422.143245981002,2423.1806538309756,"[86, 0, 168]",168,l,0.5140575313998852,colour,0.06
08,25,1,1,16,47,797,2425.1903916637093,2426.4207039123867,"[96, 0, 158]",158,l,0.7070493638311746,colour,0.06
08,25,1,1,16,48,798,2428.4406005987985,2429.524661036776,"[64, 0, 190]",190,a,0.5606660086923512,colour,0.06
08,25,1,1,16,49,799,2431.5353775758413,2432.420699580078,"[70, 0, 184]",184,l,0.3633851975464495,colour,0.06
08,25,1,1,16,50,800,2434.441125988844,2435.2366539507057,"[65, 0, 189]",189,l,0.27219024633814115,colour,0.06
