id,age,condition,counterbalance,block,trialinblock,trial,tstart,tend,trialstim,trialintensity,response,RT,trialtype,colourfreq
029,20,0,2,Practice,1,NA,6.695365300402045e-06,14.361928328842623,"[60, 0, 194]",194,a,13.806169899282395,colour,0.5
029,20,0,2,Practice,2,NA,16.37733830785146,17.089776607084787,"[49, 0, 205]",205,a,0.18920045103004668,colour,0.5
029,20,0,2,Practice,3,NA,19.09772440213419,23.96983146184357,"[84, 0, 170]",170,l,4.346419494700967,colour,0.5
029,20,0,2,Practice,4,NA,25.991312169935554,27.121768254422932,"[67, 0, 187]",187,a,0.6072887345653726,colour,0.5
029,20,0,2,Practice,5,NA,29.13255370373372,30.097845706433873,"[0, 0, 254]",254,a,0.44238852903072257,colour,0.5
029,20,0,2,Practice,6,NA,32.11688890690857,33.08979157320573,"[13, 0, 241]",241,a,0.44972547024372034,colour,0.5
029,20,0,2,Practice,7,NA,35.101348171316204,36.17776318799588,"[98, 0, 156]",156,l,0.5532386083214078,colour,0.5
029,20,0,2,Practice,8,NA,38.19541217666119,39.2497458714206,"[87, 0, 167]",167,l,0.5317189095803769,colour,0.5
029,20,0,2,Practice,9,NA,41.25806309320615,42.27376451762393,"[14, 0, 240]",240,a,0.49248129925399553,colour,0.5
029,20,0,2,Practice,10,NA,44.28967625534278,45.37771915610938,"[15, 0, 239]",239,a,0.565122885585879,colour,0.5
029,20,0,2,1,1,1,6.376399381028023,7.568060970384977,"[62, 0, 192]",192,a,0.6676892199466238,colour,0.5
029,20,0,2,1,2,2,9.581736849213485,10.344023340832791,"[91, 0, 163]",163,l,0.2345056396588916,colour,0.5
029,20,0,2,1,3,3,12.33993089593423,14.496043628590996,"[28, 0, 226]",226,a,1.6327189217845444,colour,0.5
029,20,0,2,1,4,4,16.504905144363875,17.38393048790749,"[31, 0, 223]",223,a,0.3637758564291289,colour,0.5
029,20,0,2,1,5,5,19.403166672505904,20.263966438098578,"[85, 0, 169]",169,l,0.3376426556351362,colour,0.5
029,20,0,2,1,6,6,22.27837053660187,23.08795822405955,"[49, 0, 205]",205,a,0.2860792676365236,colour,0.5
029,20,0,2,1,7,7,25.10677653895982,25.919961607971345,"[46, 0, 208]",208,a,0.2898857809632318,colour,0.5
029,20,0,2,1,8,8,27.935080929266405,28.82396815525135,"[22, 0, 232]",232,a,0.36562929167121183,colour,0.5
029,20,0,2,1,9,9,30.841618719307007,31.73590634993161,"[18, 0, 236]",236,a,0.3709351734869415,colour,0.5
029,20,0,2,1,10,10,33.74799936512136,34.57601546078513,"[82, 0, 172]",172,l,0.30502006837923545,colour,0.5
029,20,0,2,1,11,11,36.59194531539106,37.48799382765719,"[81, 0, 173]",173,l,0.3730958079540869,colour,0.5
029,20,0,2,1,12,12,39.500273919300525,40.311899361535325,"[0, 0, 254]",254,a,0.2885443443956319,colour,0.5
029,20,0,2,1,13,13,42.32745703248656,43.191945157857845,"[2, 0, 252]",252,a,0.3416212793090381,colour,0.5
029,20,0,2,1,14,14,45.20489675545832,46.119954597525066,"[77, 0, 177]",177,l,0.3918310215231031,colour,0.5
029,20,0,2,1,15,15,48.127085557731334,49.04792583423841,"[72, 0, 182]",182,l,0.39752602233784273,colour,0.5
029,20,0,2,1,16,16,51.065960791136604,51.9759348800726,"[37, 0, 217]",217,a,0.3866535332490457,colour,0.5
029,20,0,2,1,17,17,53.989919139654376,54.871877841840615,"[33, 0, 221]",221,a,0.3590099363209447,colour,0.5
029,20,0,2,1,18,18,56.88090083411953,57.655850234863465,"[40, 0, 214]",214,a,0.25243031993159093,colour,0.5
029,20,0,2,1,19,19,59.664211961149704,60.263871127564926,"[99, 0, 155]",155,l,0.07639611211197916,colour,0.5
029,20,0,2,1,20,20,62.26324215687055,63.015936156123644,"[19, 0, 235]",235,a,0.22921236090769526,colour,0.5
029,20,0,2,1,21,21,65.02914020848402,65.82391931845632,"[71, 0, 183]",183,l,0.271548744829488,colour,0.5
029,20,0,2,1,22,22,67.84351626521675,68.47186744432838,"[67, 0, 187]",187,l,0.105845489029889,colour,0.5
029,20,0,2,1,23,23,70.48431334477209,71.08782589208568,"[84, 0, 170]",170,l,0.08067917807784397,colour,0.5
029,20,0,2,1,24,24,73.10919789891341,73.69582433560572,"[39, 0, 215]",215,a,0.06326413342321757,colour,0.5
029,20,0,2,1,25,25,75.70543415716384,76.23177826203755,"[94, 0, 160]",160,l,0.00323977017251309,colour,0.5
029,20,0,2,1,26,26,78.25259770412231,80.2238249531656,"[98, 0, 156]",156,l,1.4478550996427657,colour,0.5
029,20,0,2,1,27,27,82.23874262574827,83.03980199040961,"[90, 0, 164]",164,l,0.2779731468472164,colour,0.5
029,20,0,2,1,28,28,85.05156811414054,85.74399041538709,"[93, 0, 161]",161,l,0.16915806541510392,colour,0.5
029,20,0,2,1,29,29,87.7554694260034,88.43189806972805,"[34, 0, 220]",220,a,0.15343143491190858,colour,0.5
029,20,0,2,1,30,30,90.44315337629814,91.07977766654221,"[69, 0, 185]",185,l,0.1131847933284007,colour,0.5
029,20,0,2,1,31,31,93.1005132196151,93.76779559752322,"[89, 0, 165]",165,l,0.14394685611478053,colour,0.5
029,20,0,2,1,32,32,95.78817708379938,96.3917546155717,"[50, 0, 204]",204,a,0.08062915974005591,colour,0.5
029,20,0,2,1,33,33,98.38530658284435,98.95977541375032,"[36, 0, 218]",218,a,0.04946576875227038,colour,0.5
029,20,0,2,1,34,34,100.98099145789456,102.40774709155085,"[13, 0, 241]",241,a,0.9034059334371705,colour,0.5
029,20,0,2,1,35,35,104.41880941399722,105.13581671076827,"[75, 0, 179]",179,l,0.19367374418652616,colour,0.5
029,20,0,2,1,36,36,107.15384339692537,107.87978467698849,"[52, 0, 202]",202,a,0.2030921570112696,colour,0.5
029,20,0,2,1,37,37,109.88794514839537,110.54380759246123,"[86, 0, 168]",168,l,0.132641925039934,colour,0.5
029,20,0,2,1,38,38,112.56006276316475,113.34377482454875,"[27, 0, 227]",227,a,0.26028083520941436,colour,0.5
029,20,0,2,1,39,39,115.3571821009973,115.88773129048059,"[96, 0, 158]",158,l,0.007321975092054345,colour,0.5
029,20,0,2,1,40,40,117.90424679282296,119.41565944052127,"[5, 0, 249]",249,a,0.9882665654149605,colour,0.5
029,20,0,2,1,41,41,121.43703853656189,122.1356894987839,"[66, 0, 188]",188,l,0.17583925445796922,colour,0.5
029,20,0,2,1,42,42,124.15549636501237,124.79166970255028,"[8, 0, 246]",246,a,0.11320763634284958,colour,0.5
029,20,0,2,1,43,43,126.7979318403668,127.38368000240007,"[47, 0, 207]",207,a,0.06239531104802154,colour,0.5
029,20,0,2,1,44,44,129.39191491054953,130.01579437188047,"[64, 0, 190]",190,l,0.10061955780838616,colour,0.5
029,20,0,2,1,45,45,132.03265842716792,132.82368931289238,"[65, 0, 189]",189,a,0.26777767756721005,colour,0.5
029,20,0,2,1,46,46,134.8298707124486,136.85568529252487,"[9, 0, 245]",245,a,1.5024432183563476,colour,0.5
029,20,0,2,1,47,47,138.86282255424885,139.85560967425408,"[41, 0, 213]",213,a,0.46934762308956124,colour,0.5
029,20,0,2,1,48,48,141.86306713208614,142.6957109082141,"[6, 0, 248]",248,a,0.3092625682911603,colour,0.5
029,20,0,2,1,49,49,144.70700087315345,145.43165939956089,"[30, 0, 224]",224,a,0.20116940500156488,colour,0.5
029,20,0,2,1,50,50,147.44168669696955,148.45560636595474,"[48, 0, 206]",206,a,0.4828710838482948,colour,0.5
029,20,0,2,2,1,51,159.43571364149102,160.56756748241605,"[60, 0, 194]",194,l,0.6077377180481562,colour,0.5
029,20,0,2,2,2,52,162.57940725517983,163.5196428297204,"[15, 0, 239]",239,a,0.4170477446750738,colour,0.5
029,20,0,2,2,3,53,165.53257946121448,166.3355962362548,"[13, 0, 241]",241,a,0.27971354854526,colour,0.5
029,20,0,2,2,4,54,168.3454380326002,168.9915658062091,"[16, 0, 238]",238,a,0.12278555643570144,colour,0.5
029,20,0,2,2,5,55,171.00175930626574,171.9835486944212,"[38, 0, 216]",216,a,0.45838061116228346,colour,0.5
029,20,0,2,2,6,56,174.00227681879187,174.8235628886032,"[78, 0, 176]",176,l,0.29904898212407716,colour,0.5
029,20,0,2,2,7,57,176.83047368937696,177.69569279134157,"[79, 0, 175]",175,l,0.341922176987282,colour,0.5
029,20,0,2,2,8,58,179.70567164578824,180.46352777337597,"[69, 0, 185]",185,l,0.23491326939256396,colour,0.5
029,20,0,2,2,9,59,182.458875674507,183.27149006190302,"[10, 0, 244]",244,a,0.28931746241869405,colour,0.5
029,20,0,2,2,10,60,185.28553261057823,186.0554762395186,"[59, 0, 195]",195,a,0.24648837822314817,colour,0.5
029,20,0,2,2,11,61,188.06698518236226,188.87156946108735,"[71, 0, 183]",183,l,0.2811396618199069,colour,0.5
029,20,0,2,2,12,62,190.8815270479099,191.67953253732412,"[43, 0, 211]",211,a,0.27454039256554097,colour,0.5
029,20,0,2,2,13,63,193.69418318288808,194.6074801433133,"[26, 0, 228]",228,a,0.3886361497134203,colour,0.5
029,20,0,2,2,14,64,196.62233283143723,197.45546576323977,"[75, 0, 179]",179,l,0.30961939199187327,colour,0.5
029,20,0,2,2,15,65,199.46614763127582,200.2635080023465,"[58, 0, 196]",196,a,0.27437379606999457,colour,0.5
029,20,0,2,2,16,66,202.2787821047823,203.05544748881948,"[45, 0, 209]",209,a,0.2532912654132815,colour,0.5
029,20,0,2,2,17,67,205.07594752249133,205.95949775291956,"[64, 0, 190]",190,l,0.36014381649147253,colour,0.5
029,20,0,2,2,18,68,207.96802607570135,208.7034988021187,"[41, 0, 213]",213,a,0.21210372778296005,colour,0.5
029,20,0,2,2,19,69,210.71718334555044,211.45544922174304,"[27, 0, 227]",227,a,0.2158192628849065,colour,0.5
029,20,0,2,2,20,70,213.46912313134817,214.19145127604133,"[84, 0, 170]",170,l,0.19894575531361625,colour,0.5
029,20,0,2,2,21,71,216.20376011836925,217.0874615853245,"[5, 0, 249]",249,a,0.3604159634851385,colour,0.5
029,20,0,2,2,22,72,219.09453149953333,219.8154378632462,"[2, 0, 252]",252,a,0.1973684054974001,colour,0.5
029,20,0,2,2,23,73,221.82924016637844,222.57542548075435,"[90, 0, 164]",164,l,0.2229549492330989,colour,0.5
029,20,0,2,2,24,74,224.59501061215997,225.30340924173652,"[76, 0, 178]",178,l,0.18573461375490297,colour,0.5
029,20,0,2,2,25,75,227.3151548855094,227.90341617340164,"[3, 0, 251]",251,a,0.06493482453515753,colour,0.5
029,20,0,2,2,26,76,229.90916513100092,230.67941438377602,"[9, 0, 245]",245,a,0.24677706671354827,colour,0.5
029,20,0,2,2,27,77,232.69057398597943,233.42337014079385,"[99, 0, 155]",155,l,0.208560696861241,colour,0.5
029,20,0,2,2,28,78,235.44237907674687,236.1673778853583,"[19, 0, 235]",235,a,0.2016995205776766,colour,0.5
029,20,0,2,2,29,79,238.17676951670728,238.97539294914168,"[87, 0, 167]",167,l,0.2752308030903805,colour,0.5
029,20,0,2,2,30,80,240.9909391985857,241.55937983568583,"[98, 0, 156]",156,l,0.04494245725800283,colour,0.5
029,20,0,2,2,31,81,243.56932875790517,244.81535239885852,"[94, 0, 160]",160,l,0.7227515282284003,colour,0.5
029,20,0,2,2,32,82,246.83535697533807,247.71138555115613,"[35, 0, 219]",219,a,0.3527351954544429,colour,0.5
029,20,0,2,2,33,83,249.7260263506032,250.45539093266416,"[36, 0, 218]",218,a,0.20597274041210767,colour,0.5
029,20,0,2,2,34,84,252.47619934708928,253.05536202443182,"[44, 0, 210]",210,a,0.05575586957274936,colour,0.5
029,20,0,2,2,35,85,255.05879005257157,255.96741010188998,"[88, 0, 166]",166,l,0.3855917267355835,colour,0.5
029,20,0,2,2,36,86,257.9808213167853,259.4873664323386,"[57, 0, 197]",197,a,0.9832064429938328,colour,0.5
029,20,0,2,2,37,87,261.4969014233211,262.103304794,"[24, 0, 230]",230,a,0.08322144848352764,colour,0.5
029,20,0,2,2,38,88,264.1219387893798,264.7272858673823,"[20, 0, 234]",234,a,0.08215570353786461,colour,0.5
029,20,0,2,2,39,89,266.7471801672218,267.8393135436636,"[25, 0, 229]",229,a,0.5688333007128676,colour,0.5
029,20,0,2,2,40,90,269.8589813825529,270.62328987514775,"[63, 0, 191]",191,a,0.24153656320413575,colour,0.5
029,20,0,2,2,41,91,272.63905077018717,273.4153412136511,"[68, 0, 186]",186,a,0.25312269969435874,colour,0.5
029,20,0,2,2,42,92,275.438285450291,276.0632787056966,"[91, 0, 163]",163,l,0.10205039721040521,colour,0.5
029,20,0,2,2,43,93,278.0804125449067,278.6633088742383,"[54, 0, 200]",200,a,0.05946510315698106,colour,0.5
029,20,0,2,2,44,94,280.6743747412984,281.5992932842637,"[1, 0, 253]",253,a,0.40143611692474224,colour,0.5
029,20,0,2,2,45,95,283.6120554423687,284.14337105450977,"[77, 0, 177]",177,l,0.007733149439445697,colour,0.5
029,20,0,2,2,46,96,286.17472230963176,287.4232850702392,"[95, 0, 159]",159,l,0.7255620071809972,colour,0.5
029,20,0,2,2,47,97,289.43496651724854,289.9992769003147,"[8, 0, 246]",246,a,0.040867735384381376,colour,0.5
029,20,0,2,2,48,98,292.0133470181463,292.6392500558286,"[46, 0, 208]",208,a,0.10375889745773748,colour,0.5
029,20,0,2,2,49,99,294.6527672150696,295.41524550928443,"[21, 0, 233]",233,a,0.23905336957250256,colour,0.5
029,20,0,2,2,50,100,297.43423829757376,298.03930259477056,"[52, 0, 202]",202,a,0.08236562299134675,colour,0.5
029,20,0,2,3,1,101,316.4904998643178,317.10326147104206,"[45, 0, 209]",209,a,0.08169766163337044,colour,0.5
029,20,0,2,3,2,102,319.1236555603682,320.1591933893942,"[42, 0, 212]",212,a,0.5124843003577553,colour,0.5
029,20,0,2,3,3,103,322.17167631127813,323.07913609279785,"[79, 0, 175]",175,l,0.3842262656107778,colour,0.5
029,20,0,2,3,4,104,325.0936477110372,325.8072088627814,"[54, 0, 200]",200,a,0.19017679315584246,colour,0.5
029,20,0,2,3,5,105,327.8284327838337,328.58315547942766,"[9, 0, 245]",245,a,0.23176880975370295,colour,0.5
029,20,0,2,3,6,106,330.59412761134445,331.2791964298667,"[36, 0, 218]",218,a,0.16158442325831857,colour,0.5
029,20,0,2,3,7,107,333.29737671563635,334.0071522278449,"[19, 0, 235]",235,a,0.18621510482626036,colour,0.5
029,20,0,2,3,8,108,336.01777974524884,336.6390992131346,"[76, 0, 178]",178,l,0.0981848071096465,colour,0.5
029,20,0,2,3,9,109,338.658688282987,339.4151045127219,"[24, 0, 230]",230,a,0.2331484493042808,colour,0.5
029,20,0,2,3,10,110,341.4245548269828,342.15913943260966,"[84, 0, 170]",170,l,0.2117843193700537,colour,0.5
029,20,0,2,3,11,111,344.17704284522915,344.983122947815,"[58, 0, 196]",196,a,0.2826094919000752,colour,0.5
029,20,0,2,3,12,112,346.9898722720827,347.64712617105397,"[40, 0, 214]",214,a,0.1339101064222632,colour,0.5
029,20,0,2,3,13,113,349.6619473515748,350.39911991363624,"[2, 0, 252]",252,a,0.21249087755859364,colour,0.5
029,20,0,2,3,14,114,352.41338577249553,353.1750897671591,"[14, 0, 240]",240,a,0.2390049266105052,colour,0.5
029,20,0,2,3,15,115,355.19484267658845,355.94318429313716,"[1, 0, 253]",253,a,0.2249903409392573,colour,0.5
029,20,0,2,3,16,116,357.9648890991084,358.7510827787628,"[87, 0, 167]",167,l,0.2625422940473072,colour,0.5
029,20,0,2,3,17,117,360.76199386468215,363.31910278924624,"[57, 0, 197]",197,a,2.033912036262336,colour,0.5
029,20,0,2,3,18,118,365.3259076456743,365.9831233416626,"[29, 0, 225]",225,a,0.13385654347075615,colour,0.5
029,20,0,2,3,19,119,367.99819264461985,368.6230799556797,"[41, 0, 213]",213,a,0.10161362294456922,colour,0.5
029,20,0,2,3,20,120,370.63898263497686,372.1351613524457,"[62, 0, 192]",192,a,0.9728451648988994,colour,0.5
029,20,0,2,3,21,121,374.15580395807046,374.8951233700209,"[93, 0, 161]",161,l,0.2158814904250903,colour,0.5
029,20,0,2,3,22,122,376.9060927450191,377.77507267428155,"[53, 0, 201]",201,a,0.3455565799959004,colour,0.5
029,20,0,2,3,23,123,379.7814025534608,380.5750269094715,"[97, 0, 157]",157,l,0.27058815651980694,colour,0.5
029,20,0,2,3,24,124,382.59402324237453,383.53509022401704,"[73, 0, 181]",181,l,0.4161403254547622,colour,0.5
029,20,0,2,3,25,125,385.54888780100737,386.43099065050774,"[89, 0, 165]",165,l,0.3587641769408947,colour,0.5
029,20,0,2,3,26,126,388.4397434650309,389.29501876475115,"[56, 0, 198]",198,a,0.3322863616485847,colour,0.5
029,20,0,2,3,27,127,391.3162765564921,392.3350243731111,"[7, 0, 247]",247,a,0.49550366689800285,colour,0.5
029,20,0,2,3,28,128,394.3477006729663,395.1189916461444,"[95, 0, 159]",159,l,0.24856000367435627,colour,0.5
029,20,0,2,3,29,129,397.1292721859936,400.0630357032496,"[64, 0, 190]",190,l,2.411571327917045,colour,0.5
029,20,0,2,3,30,130,402.0694904313423,403.1190211845387,"[90, 0, 164]",164,l,0.5270081277849386,colour,0.5
029,20,0,2,3,31,131,405.1212928833411,406.03098261606647,"[59, 0, 195]",195,a,0.38675514528586064,colour,0.5
029,20,0,2,3,32,132,408.0434714456351,408.91895218286663,"[3, 0, 251]",251,a,0.3521408831293229,colour,0.5
029,20,0,2,3,33,133,410.9342530667782,411.74304597472656,"[94, 0, 160]",160,l,0.2858579266612651,colour,0.5
029,20,0,2,3,34,134,413.76262126000074,414.69499214082316,"[46, 0, 208]",208,a,0.4090373282524524,colour,0.5
029,20,0,2,3,35,135,416.71748424324323,417.3189208327967,"[18, 0, 236]",236,a,0.07829365803627297,colour,0.5
029,20,0,2,3,36,136,419.32593757790164,420.230923224226,"[77, 0, 177]",177,l,0.38147486343223136,colour,0.5
029,20,0,2,3,37,137,422.24808896488685,423.0308979393594,"[10, 0, 244]",244,a,0.2595124433428282,colour,0.5
029,20,0,2,3,38,138,425.0451819151058,425.8389673537895,"[35, 0, 219]",219,a,0.2706700763228582,colour,0.5
029,20,0,2,3,39,139,427.85873326010187,429.1989012508129,"[48, 0, 206]",206,a,0.8167147092171945,colour,0.5
029,20,0,2,3,40,140,431.2183579886914,432.0308912439941,"[47, 0, 207]",207,a,0.2890898199257208,colour,0.5
029,20,0,2,3,41,141,434.0467344526696,434.80690205740393,"[32, 0, 222]",222,a,0.2367505569854984,colour,0.5
029,20,0,2,3,42,142,436.828188599844,437.3908897316287,"[44, 0, 210]",210,a,0.03933646544464864,colour,0.5
029,20,0,2,3,43,143,439.4065584669006,439.9909592846816,"[33, 0, 221]",221,a,0.06108813900209498,colour,0.5
029,20,0,2,3,44,144,442.0003899066942,443.20684786431957,"[31, 0, 223]",223,a,0.6829960115283029,colour,0.5
029,20,0,2,3,45,145,445.22090892370034,446.2228411279939,"[75, 0, 179]",179,l,0.4787648543715477,colour,0.5
029,20,0,2,3,46,146,448.23676276620245,448.99890392896486,"[71, 0, 183]",183,l,0.2396118419856066,colour,0.5
029,20,0,2,3,47,147,451.01946579631476,451.59885729769303,"[52, 0, 202]",202,a,0.055955155214178376,colour,0.5
029,20,0,2,3,48,148,453.6133307129494,454.18318249720323,"[80, 0, 174]",174,l,0.059491096923011355,colour,0.5
029,20,0,2,3,49,149,456.192450067334,456.79882862577506,"[26, 0, 228]",228,a,0.08278467423224356,colour,0.5
029,20,0,2,3,50,150,458.8178095987096,459.494953465226,"[85, 0, 169]",169,l,0.15372878799098544,colour,0.5
029,20,0,2,4,1,151,516.9546207684762,517.670728522935,"[71, 0, 183]",183,l,0.19213853581459261,colour,0.5
029,20,0,2,4,2,152,519.689990701314,520.6947144799924,"[88, 0, 166]",166,l,0.4812901894329116,colour,0.5
029,20,0,2,4,3,153,522.7058291838475,523.4866484526428,"[68, 0, 186]",186,l,0.2579480904241791,colour,0.5
029,20,0,2,4,4,154,525.5029311925027,526.1826468678046,"[37, 0, 217]",217,a,0.15651799930492416,colour,0.5
029,20,0,2,4,5,155,528.1905993889959,528.9427526388608,"[38, 0, 216]",216,a,0.22907884740561713,colour,0.5
029,20,0,2,4,6,156,530.9583678111958,531.5586531913868,"[21, 0, 233]",233,a,0.07691520001390018,colour,0.5
029,20,0,2,4,7,157,533.5680503365584,534.702678816524,"[44, 0, 210]",210,a,0.6112909889343427,colour,0.5
029,20,0,2,4,8,158,536.7107715465827,537.4546323869145,"[25, 0, 229]",229,a,0.22041937419271562,colour,0.5
029,20,0,2,4,9,159,539.4504154869355,540.2146633273805,"[41, 0, 213]",213,a,0.24156570773629937,colour,0.5
029,20,0,2,4,10,160,542.2316786192096,542.8706029651075,"[2, 0, 252]",252,a,0.11547815361700486,colour,0.5
029,20,0,2,4,11,161,544.8881460094271,545.5905952142348,"[58, 0, 196]",196,l,0.17971508455229923,colour,0.5
029,20,0,2,4,12,162,547.6071560087585,548.3345616050647,"[46, 0, 208]",208,a,0.2040909483039286,colour,0.5
029,20,0,2,4,13,163,550.3417866942618,551.0706286438071,"[22, 0, 232]",232,a,0.20546625554561615,colour,0.5
029,20,0,2,4,14,164,553.0919667799462,553.7665695575852,"[78, 0, 176]",176,l,0.15119675754976925,colour,0.5
029,20,0,2,4,15,165,555.7810819635051,556.4706374659436,"[62, 0, 192]",192,l,0.16682886522903573,colour,0.5
029,20,0,2,4,16,166,558.483988028689,561.5506144181127,"[54, 0, 200]",200,l,2.543461402572575,colour,0.5
029,20,0,2,4,17,167,563.563846433477,564.4785399687826,"[63, 0, 191]",191,l,0.39123828458832577,colour,0.5
029,20,0,2,4,18,168,566.4870155163226,567.3025861053757,"[70, 0, 184]",184,l,0.2927458844060311,colour,0.5
029,20,0,2,4,19,169,569.3153344789025,570.1905930874636,"[55, 0, 199]",199,a,0.3520999232423492,colour,0.5
029,20,0,2,4,20,170,572.2089498158603,572.9825814107462,"[91, 0, 163]",163,l,0.2507828656816855,colour,0.5
029,20,0,2,4,21,171,574.9903118032671,575.7904901363509,"[6, 0, 248]",248,a,0.2767825529736001,colour,0.5
029,20,0,2,4,22,172,577.8046090909629,578.6545576351054,"[39, 0, 215]",215,a,0.3272790144837927,colour,0.5
029,20,0,2,4,23,173,580.6524698619905,581.2464832582336,"[10, 0, 244]",244,a,0.0704348719882546,colour,0.5
029,20,0,2,4,24,174,583.2621342704806,583.9185256485798,"[34, 0, 220]",220,a,0.13302868099708576,colour,0.5
029,20,0,2,4,25,175,585.9342979651265,586.7105320887349,"[67, 0, 187]",187,l,0.25284149426443037,colour,0.5
029,20,0,2,4,26,176,588.731343260064,589.5345096962701,"[19, 0, 235]",235,a,0.2777226613397943,colour,0.5
029,20,0,2,4,27,177,591.5443065942673,592.3505107580713,"[1, 0, 253]",253,a,0.2828107467648806,colour,0.5
029,20,0,2,4,28,178,594.345209208579,595.1265168453538,"[72, 0, 182]",182,l,0.2585809995798627,colour,0.5
029,20,0,2,4,29,179,597.1393160248845,597.8944565901911,"[0, 0, 254]",254,a,0.2317573882464785,colour,0.5
029,20,0,2,4,30,180,599.8932262179587,600.4704755955754,"[93, 0, 161]",161,l,0.053915037351544015,colour,0.5
029,20,0,2,4,31,181,602.4870738054015,603.0304355651606,"[12, 0, 242]",242,a,0.020046324061695486,colour,0.5
029,20,0,2,4,32,182,605.0497761187289,605.7984930696985,"[30, 0, 224]",224,a,0.22598558761819731,colour,0.5
029,20,0,2,4,33,183,607.8156146997208,610.990536294994,"[66, 0, 188]",188,l,2.6514647691656137,colour,0.5
029,20,0,2,4,34,184,613.0071069356491,613.9504436468706,"[85, 0, 169]",169,l,0.4199665310443379,colour,0.5
029,20,0,2,4,35,185,615.9603945383133,616.6223966343532,"[73, 0, 181]",181,l,0.13882489998650271,colour,0.5
029,20,0,2,4,36,186,618.63273152482,619.2224264090473,"[95, 0, 159]",159,l,0.06714587118767668,colour,0.5
029,20,0,2,4,37,187,621.2421749861824,622.4623856224498,"[97, 0, 157]",157,l,0.6968030408024788,colour,0.5
029,20,0,2,4,38,188,624.4816481946764,625.7104710427375,"[5, 0, 249]",249,a,0.7058370607555844,colour,0.5
029,20,0,2,4,39,189,627.717521658531,628.4784186644829,"[49, 0, 205]",205,a,0.2377721913071582,colour,0.5
029,20,0,2,4,40,190,630.4979088792024,631.6143361996074,"[29, 0, 225]",225,a,0.5935541728103999,colour,0.5
029,20,0,2,4,41,191,633.6230590818886,634.5664769252035,"[99, 0, 155]",155,l,0.42033280702889897,colour,0.5
029,20,0,2,4,42,192,636.5764861057396,637.4944603711047,"[87, 0, 167]",167,l,0.39455209764128085,colour,0.5
029,20,0,2,4,43,193,639.515282570108,640.2624075990025,"[26, 0, 228]",228,a,0.22449409606633708,colour,0.5
029,20,0,2,4,44,194,642.2811341479828,642.8303988588013,"[53, 0, 201]",201,a,0.02595360741543118,colour,0.5
029,20,0,2,4,45,195,644.8438533966546,645.5263590709801,"[14, 0, 240]",240,a,0.158933451588382,colour,0.5
029,20,0,2,4,46,196,647.5472348329204,648.4463230420224,"[59, 0, 195]",195,l,0.3765340760728577,colour,0.5
029,20,0,2,4,47,197,650.4536922785483,652.0303319838858,"[16, 0, 238]",238,a,1.0533388419135008,colour,0.5
029,20,0,2,4,48,198,654.0478411575314,654.8543316467549,"[20, 0, 234]",234,a,0.28155595614225604,colour,0.5
029,20,0,2,4,49,199,656.8623798723129,657.9503621209151,"[89, 0, 165]",165,l,0.5644954902672907,colour,0.5
029,20,0,2,4,50,200,659.9722803909681,661.1903993156593,"[52, 0, 202]",202,l,0.6949259748362238,colour,0.5
029,20,0,2,5,1,201,668.5842617904418,669.5342749645642,"[49, 0, 205]",205,a,0.42609357996843755,colour,0.5
029,20,0,2,5,2,202,671.5540826184733,672.3583033781324,"[76, 0, 178]",178,l,0.28111484958208166,colour,0.5
029,20,0,2,5,3,203,674.366815553265,675.1663235619053,"[40, 0, 214]",214,a,0.27616185302031226,colour,0.5
029,20,0,2,5,4,204,677.1796757000266,677.9662785847904,"[81, 0, 173]",173,l,0.26339181802177336,colour,0.5
029,20,0,2,5,5,205,679.9656165311026,680.7423205119703,"[2, 0, 252]",252,a,0.25329756694554817,colour,0.5
029,20,0,2,5,6,206,682.7626803367748,683.5342540907732,"[97, 0, 157]",157,l,0.248298884354881,colour,0.5
029,20,0,2,5,7,207,685.5441829268966,686.3503035955364,"[11, 0, 243]",243,a,0.2812101601011818,colour,0.5
029,20,0,2,5,8,208,688.3583695441193,689.1342964685027,"[95, 0, 159]",159,l,0.25292223251017276,colour,0.5
029,20,0,2,5,9,209,691.1550922798924,692.150243258453,"[58, 0, 196]",196,a,0.47242473521328066,colour,0.5
029,20,0,2,5,10,210,694.156748792564,695.062236591446,"[35, 0, 219]",219,a,0.3820030097704148,colour,0.5
029,20,0,2,5,11,211,697.078891121113,697.9742622197373,"[22, 0, 232]",232,a,0.3720064322842518,colour,0.5
029,20,0,2,5,12,212,699.9853655020852,701.0061943964538,"[73, 0, 181]",181,l,0.49761310149915516,colour,0.5
029,20,0,2,5,13,213,703.0167778032046,704.2862013596314,"[50, 0, 204]",204,l,0.7466173624998191,colour,0.5
029,20,0,2,5,14,214,706.2997047342942,706.9502498750517,"[16, 0, 238]",238,a,0.12706350241205655,colour,0.5
029,20,0,2,5,15,215,708.9718337705708,709.6142605813366,"[90, 0, 164]",164,l,0.11904284601041581,colour,0.5
029,20,0,2,5,16,216,711.6301388422289,712.2701572899387,"[20, 0, 234]",234,a,0.11668883358652238,colour,0.5
029,20,0,2,5,17,217,714.284983590449,714.9981839800312,"[83, 0, 171]",171,l,0.18972072046017274,colour,0.5
029,20,0,2,5,18,218,717.0224696532532,717.590141110777,"[30, 0, 224]",224,a,0.04434341879095882,colour,0.5
029,20,0,2,5,19,219,719.5978604756383,720.8701492554974,"[52, 0, 202]",202,l,0.7489272642851574,colour,0.5
029,20,0,2,5,20,220,722.8724634895771,723.630118756133,"[23, 0, 231]",231,a,0.23479472201142926,colour,0.5
029,20,0,2,5,21,221,725.6293188566342,726.206210229022,"[25, 0, 229]",229,a,0.05356530286371708,colour,0.5
029,20,0,2,5,22,222,728.2232664807525,728.8701043571491,"[29, 0, 225]",225,a,0.12346021317353006,colour,0.5
029,20,0,2,5,23,223,730.8817999825987,731.4301647572429,"[9, 0, 245]",245,a,0.02559087603003718,colour,0.5
029,20,0,2,5,24,224,733.4444109238539,734.4861470877659,"[18, 0, 236]",236,a,0.5183742544904817,colour,0.5
029,20,0,2,5,25,225,736.5071638462832,737.2301260816457,"[69, 0, 185]",185,l,0.19888943545811344,colour,0.5
029,20,0,2,5,26,226,739.2317924404633,739.9341341255349,"[85, 0, 169]",169,l,0.1793492024007719,colour,0.5
029,20,0,2,5,27,227,741.9507673875778,742.7181592938141,"[80, 0, 174]",174,l,0.24402290760190226,colour,0.5
029,20,0,2,5,28,228,744.7334842022829,745.5420876707212,"[66, 0, 188]",188,l,0.2851273439300712,colour,0.5
029,20,0,2,5,29,229,747.5608870810538,748.4701081380626,"[94, 0, 160]",160,l,0.38566104347410146,colour,0.5
029,20,0,2,5,30,230,750.4846748946147,751.1660573225818,"[86, 0, 168]",168,l,0.15803430312371347,colour,0.5
029,20,0,2,5,31,231,753.1723119773378,753.8140802790294,"[79, 0, 175]",175,l,0.11838394308870193,colour,0.5
029,20,0,2,5,32,232,755.8315630650468,756.4220149196481,"[75, 0, 179]",179,l,0.06704504683148116,colour,0.5
029,20,0,2,5,33,233,758.4410018002673,759.0221191310702,"[92, 0, 162]",162,l,0.057633723234175704,colour,0.5
029,20,0,2,5,34,234,761.0228209631168,762.2220648592047,"[63, 0, 191]",191,l,0.6759879310120596,colour,0.5
029,20,0,2,5,35,235,764.2432935063989,765.1580138231802,"[8, 0, 246]",246,a,0.39586832812346984,colour,0.5
029,20,0,2,5,36,236,767.16515266028,768.0941451374529,"[98, 0, 156]",156,l,0.40571563829144,colour,0.5
029,20,0,2,5,37,237,770.1051566538808,771.0060510368203,"[19, 0, 235]",235,a,0.37742495379643515,colour,0.5
029,20,0,2,5,38,238,773.027174921197,773.8460325418564,"[32, 0, 222]",222,a,0.29552012962813023,colour,0.5
029,20,0,2,5,39,239,775.855601403513,776.7740045662358,"[42, 0, 212]",212,a,0.39501841028686613,colour,0.5
029,20,0,2,5,40,240,778.7932462646713,779.6460218292632,"[31, 0, 223]",223,a,0.32934709533583373,colour,0.5
029,20,0,2,5,41,241,781.6540637532889,782.4859623743978,"[67, 0, 187]",187,a,0.30857176390418317,colour,0.5
029,20,0,2,5,42,242,784.4981306140107,785.6299541288608,"[56, 0, 198]",198,a,0.6083544795401394,colour,0.5
029,20,0,2,5,43,243,787.6390082349099,788.6380350435502,"[36, 0, 218]",218,a,0.4758429172215983,colour,0.5
029,20,0,2,5,44,244,790.6552047226724,791.4699785630073,"[12, 0, 242]",242,a,0.2913670325651765,colour,0.5
029,20,0,2,5,45,245,793.48367807256,794.3020362975512,"[38, 0, 216]",216,a,0.29574540903558955,colour,0.5
029,20,0,2,5,46,246,796.3120376011793,797.1499793822004,"[13, 0, 241]",241,a,0.3146535206324188,colour,0.5
029,20,0,2,5,47,247,799.1559496807749,800.0059651785705,"[0, 0, 254]",254,a,0.3266528006934095,colour,0.5
029,20,0,2,5,48,248,802.0170720055321,802.7179316513211,"[28, 0, 226]",226,a,0.1775729607907124,colour,0.5
029,20,0,2,5,49,249,804.7359343129356,805.5659208158613,"[61, 0, 193]",193,l,0.30648005234252196,colour,0.5
029,20,0,2,5,50,250,807.5799125585036,808.4459807905951,"[84, 0, 170]",170,l,0.3432939396298025,colour,0.5
029,20,0,2,6,1,251,815.783847544124,816.3658833218069,"[42, 0, 212]",212,a,0.05800984535017051,colour,0.5
029,20,0,2,6,2,252,818.3785202371364,819.181952912666,"[67, 0, 187]",187,l,0.2801318120909855,colour,0.5
029,20,0,2,6,3,253,821.1788092407078,821.7979361726611,"[16, 0, 238]",238,a,0.09572327493515331,colour,0.5
029,20,0,2,6,4,254,823.8041305691149,824.6058929473802,"[76, 0, 178]",178,l,0.2786828558018897,colour,0.5
029,20,0,2,6,5,255,826.6138529516174,827.4458925692888,"[61, 0, 193]",193,l,0.30335410342377145,colour,0.5
029,20,0,2,6,6,256,829.450574206523,830.7259802707267,"[25, 0, 229]",229,a,0.7520878715877188,colour,0.5
029,20,0,2,6,7,257,832.7322254731989,833.3418552233052,"[47, 0, 207]",207,a,0.08551638414792251,colour,0.5
029,20,0,2,6,8,258,835.3587937153352,835.8942494276416,"[31, 0, 223]",223,a,0.012217864103149623,colour,0.5
029,20,0,2,6,9,259,837.9056764506968,838.5418777512532,"[90, 0, 164]",164,l,0.11286380952515174,colour,0.5
029,20,0,2,6,10,260,840.5645466901478,841.1740496221319,"[46, 0, 208]",208,a,0.08578222963842563,colour,0.5
029,20,0,2,6,11,261,843.1897545911488,843.9579412768944,"[5, 0, 249]",249,a,0.24486219161190093,colour,0.5
029,20,0,2,6,12,262,845.9724292644241,846.5258982721571,"[19, 0, 235]",235,a,0.03025557791988831,colour,0.5
029,20,0,2,6,13,263,848.5351674176636,849.1177927815297,"[71, 0, 183]",183,l,0.059335528101655655,colour,0.5
029,20,0,2,6,14,264,851.1167644518573,851.6620489636116,"[82, 0, 172]",172,l,0.021949777656118385,colour,0.5
029,20,0,2,6,15,265,853.6792666918482,854.2058868821623,"[28, 0, 226]",226,a,0.001873521352536045,colour,0.5
029,20,0,2,6,16,266,856.2243188349676,858.1258366747788,"[0, 0, 254]",254,a,1.3780700721399626,colour,0.5
029,20,0,2,6,17,267,860.1370013969718,860.661971769965,"[73, 0, 181]",181,l,0.0018321676179766655,colour,0.5
029,20,0,2,6,18,268,862.6840408826974,863.78974616286,"[13, 0, 241]",241,a,0.5815655265760142,colour,0.5
029,20,0,2,6,19,269,865.8106656416203,866.5177385884308,"[69, 0, 185]",185,l,0.184141510137124,colour,0.5
029,20,0,2,6,20,270,868.5295145582932,869.3178027064278,"[81, 0, 173]",173,l,0.26333549816627055,colour,0.5
029,20,0,2,6,21,271,871.3282151843887,872.0938064306247,"[35, 0, 219]",219,a,0.24321788812812883,colour,0.5
029,20,0,2,6,22,272,874.1087292231969,874.8058445831848,"[74, 0, 180]",180,l,0.1747640572139062,colour,0.5
029,20,0,2,6,23,273,876.814482394926,877.3737862184935,"[70, 0, 184]",184,l,0.03598563095147256,colour,0.5
029,20,0,2,6,24,274,879.3926959054661,880.3897400976566,"[89, 0, 165]",165,l,0.4735385292879073,colour,0.5
029,20,0,2,6,25,275,882.4086623876647,883.1258567608893,"[30, 0, 224]",224,a,0.19379544234834611,colour,0.5
029,20,0,2,6,26,276,885.1430646429799,886.0697420983779,"[51, 0, 203]",203,l,0.4031513125373749,colour,0.5
029,20,0,2,6,27,277,888.0822864601214,888.8777410145267,"[92, 0, 162]",162,l,0.27201545133721083,colour,0.5
029,20,0,2,6,28,278,890.8948059308314,891.7176827411895,"[63, 0, 191]",191,l,0.30013796394632664,colour,0.5
029,20,0,2,6,29,279,893.7388838192273,894.5816718647693,"[33, 0, 221]",221,a,0.3195501973386854,colour,0.5
029,20,0,2,6,30,280,896.5991152662609,897.5977312944306,"[60, 0, 194]",194,l,0.47534549082047306,colour,0.5
029,20,0,2,6,31,281,899.6150726900232,900.2857133854995,"[11, 0, 243]",243,a,0.14736149352393113,colour,0.5
029,20,0,2,6,32,282,902.3026857482037,903.0696727816394,"[23, 0, 231]",231,a,0.24370743765030056,colour,0.5
029,20,0,2,6,33,283,905.0841060246894,905.8376818432298,"[34, 0, 220]",220,a,0.2302765304921195,colour,0.5
029,20,0,2,6,34,284,907.849969024086,908.5417655053898,"[24, 0, 230]",230,a,0.16897689664619975,colour,0.5
029,20,0,2,6,35,285,910.5533756664372,911.3096540503611,"[7, 0, 247]",247,a,0.23777691744908225,colour,0.5
029,20,0,2,6,36,286,913.3298898139474,914.1336387471092,"[64, 0, 190]",190,l,0.27807554657920264,colour,0.5
029,20,0,2,6,37,287,916.1449574627622,917.005678853151,"[14, 0, 240]",240,a,0.33780098137503956,colour,0.5
029,20,0,2,6,38,288,919.0202168590185,919.7256584992429,"[79, 0, 175]",175,l,0.18225184113543946,colour,0.5
029,20,0,2,6,39,289,921.7391268216888,922.5256883527036,"[62, 0, 192]",192,l,0.26322797844477464,colour,0.5
029,20,0,2,6,40,290,924.5362705779116,925.1336178733181,"[80, 0, 174]",174,l,0.07411338564998005,colour,0.5
029,20,0,2,6,41,291,927.1457152208168,927.9256447934313,"[78, 0, 176]",176,l,0.25651725100760814,colour,0.5
029,20,0,2,6,42,292,929.9428932415758,930.5976281069889,"[50, 0, 204]",204,a,0.13135129450529348,colour,0.5
029,20,0,2,6,43,293,932.6150683577289,933.2376162286237,"[21, 0, 233]",233,a,0.0999350549391238,colour,0.5
029,20,0,2,6,44,294,935.2558059666771,936.2855826289015,"[93, 0, 161]",161,l,0.5063178668933688,colour,0.5
029,20,0,2,6,45,295,938.3029208737571,938.8615744589915,"[88, 0, 166]",166,l,0.035548462852602825,colour,0.5
029,20,0,2,6,46,296,940.8832402742846,941.6055790527898,"[38, 0, 216]",216,a,0.19919505929283332,colour,0.5
029,20,0,2,6,47,297,943.6211319975992,944.3737023294816,"[52, 0, 202]",202,a,0.22944551723776385,colour,0.5
029,20,0,2,6,48,298,946.3872730516596,947.0215413602418,"[10, 0, 244]",244,a,0.11127346284047235,colour,0.5
029,20,0,2,6,49,299,949.0279401623266,950.4775939527462,"[44, 0, 210]",210,a,0.9267345629486954,colour,0.5
029,20,0,2,6,50,300,952.4969975215354,953.3896223379561,"[45, 0, 209]",209,a,0.3691908333421452,colour,0.5
029,20,0,2,7,1,301,960.7169159246987,961.4534985067294,"[53, 0, 201]",201,a,0.2123321579565527,colour,0.5
029,20,0,2,7,2,302,963.4684346900322,964.0775402322615,"[95, 0, 159]",159,l,0.08568691910477355,colour,0.5
029,20,0,2,7,3,303,966.093713089329,966.8695584877714,"[82, 0, 172]",172,l,0.2523700616147835,colour,0.5
029,20,0,2,7,4,304,968.8930686798994,969.6455492150853,"[44, 0, 210]",210,a,0.22912138268293347,colour,0.5
029,20,0,2,7,5,305,971.6588883563236,972.4215556962008,"[21, 0, 233]",233,a,0.239700850986992,colour,0.5
029,20,0,2,7,6,306,974.4403495927108,975.0935803635075,"[83, 0, 171]",171,l,0.12978457851568237,colour,0.5
029,20,0,2,7,7,307,977.1126231701492,979.6614900973509,"[65, 0, 189]",189,l,2.0256932757620234,colour,0.5
029,20,0,2,7,8,308,981.6755543074978,982.4855263878271,"[74, 0, 180]",180,l,0.28687129022728186,colour,0.5
029,20,0,2,7,9,309,984.5037429073418,985.1334520645178,"[51, 0, 203]",203,a,0.10678480971546378,colour,0.5
029,20,0,2,7,10,310,987.1446782265411,987.9574414874078,"[66, 0, 188]",188,l,0.2896569569420535,colour,0.5
029,20,0,2,7,11,311,989.9739703804808,990.7654947541741,"[94, 0, 160]",160,l,0.2680600645253435,colour,0.5
029,20,0,2,7,12,312,992.7865914632421,993.4457047051546,"[32, 0, 222]",222,a,0.13579071700223722,colour,0.5
029,20,0,2,7,13,313,995.4588248684886,996.229459301816,"[55, 0, 199]",199,a,0.24729064077837393,colour,0.5
029,20,0,2,7,14,314,998.240230572701,999.3574648818176,"[77, 0, 177]",177,l,0.5939102088304935,colour,0.5
029,20,0,2,7,15,315,1001.3668470608682,1002.429454260593,"[91, 0, 163]",163,l,0.5394024345150683,colour,0.5
029,20,0,2,7,16,316,1004.4452446940268,1005.1974771067617,"[99, 0, 155]",155,l,0.2396016020065872,colour,0.5
029,20,0,2,7,17,317,1007.2160228808207,1007.8694403342379,"[93, 0, 161]",161,l,0.13010871308506466,colour,0.5
029,20,0,2,7,18,318,1009.8880471542943,1011.3174447011843,"[67, 0, 187]",187,l,0.9060620250966167,colour,0.5
029,20,0,2,7,19,319,1013.3257965813391,1014.2534137512557,"[62, 0, 192]",192,l,0.40434742024808656,colour,0.5
029,20,0,2,7,20,320,1016.2635777129326,1017.2293919543008,"[75, 0, 179]",179,l,0.44242909508466255,colour,0.5
029,20,0,2,7,21,321,1019.2481381955295,1019.9973876251461,"[24, 0, 230]",230,a,0.2260698704922106,colour,0.5
029,20,0,2,7,22,322,1022.014110683871,1022.7973639156698,"[69, 0, 185]",185,l,0.26028004752879497,colour,0.5
029,20,0,2,7,23,323,1024.8134631236899,1025.541349604915,"[0, 0, 254]",254,a,0.2046057038969593,colour,0.5
029,20,0,2,7,24,324,1027.547967778737,1028.869338328339,"[57, 0, 197]",197,a,0.7980188801448094,colour,0.5
029,20,0,2,7,25,325,1030.8764783469815,1031.7095329035947,"[96, 0, 158]",158,l,0.3101936182065401,colour,0.5
029,20,0,2,7,26,326,1033.7204558048688,1034.54130667579,"[86, 0, 168]",168,l,0.29799623404687736,colour,0.5
029,20,0,2,7,27,327,1036.5499224321975,1037.2934185719205,"[41, 0, 213]",213,a,0.21997629839461297,colour,0.5
029,20,0,2,7,28,328,1039.3001659269648,1040.389358855551,"[42, 0, 212]",212,a,0.5663910669682082,colour,0.5
029,20,0,2,7,29,329,1042.4098360462085,1043.4533547532628,"[45, 0, 209]",209,a,0.5200091057049576,colour,0.5
029,20,0,2,7,30,330,1045.4726393808087,1046.5333285546803,"[39, 0, 215]",215,a,0.5380645425611874,colour,0.5
029,20,0,2,7,31,331,1048.5508676605532,1049.1973120856564,"[26, 0, 228]",228,a,0.123019894308527,colour,0.5
029,20,0,2,7,32,332,1051.2072913339507,1051.8052865046193,"[40, 0, 214]",214,a,0.07531776410178281,colour,0.5
029,20,0,2,7,33,333,1053.8194802898215,1056.8053002891975,"[3, 0, 251]",251,a,2.4627515045867767,colour,0.5
029,20,0,2,7,34,334,1058.819768978312,1059.6612915994046,"[46, 0, 208]",208,a,0.31822372689202894,colour,0.5
029,20,0,2,7,35,335,1061.6813619480236,1062.5092815516255,"[60, 0, 194]",194,a,0.30262194528768305,colour,0.5
029,20,0,2,7,36,336,1064.5275492710061,1065.125267174706,"[12, 0, 242]",242,a,0.07433118202607147,colour,0.5
029,20,0,2,7,37,337,1067.1371573596407,1067.7972378852282,"[37, 0, 217]",217,a,0.13690884335665032,colour,0.5
029,20,0,2,7,38,338,1069.8094486601185,1070.4132778589264,"[16, 0, 238]",238,a,0.08060789210139774,colour,0.5
029,20,0,2,7,39,339,1072.4345372260432,1074.8292700986058,"[9, 0, 245]",245,a,1.871477695167414,colour,0.5
029,20,0,2,7,40,340,1076.8410771822237,1077.6612207072758,"[47, 0, 207]",207,a,0.2966260467946995,colour,0.5
029,20,0,2,7,41,341,1079.6695190244936,1080.3013009886636,"[13, 0, 241]",241,a,0.108513789891731,colour,0.5
029,20,0,2,7,42,342,1082.3103539131844,1082.9251965976437,"[38, 0, 216]",216,a,0.09140200600086246,colour,0.5
029,20,0,2,7,43,343,1084.935529518887,1085.4932307865529,"[27, 0, 227]",227,a,0.034756834094878286,colour,0.5
029,20,0,2,7,44,344,1087.5138328261237,1088.7571940738853,"[59, 0, 195]",195,a,0.7192163741856348,colour,0.5
029,20,0,2,7,45,345,1090.7654467050743,1091.3492272167496,"[22, 0, 232]",232,a,0.0612452832137933,colour,0.5
029,20,0,2,7,46,346,1093.3587255801249,1094.1091719051328,"[63, 0, 191]",191,a,0.2386398321541492,colour,0.5
029,20,0,2,7,47,347,1096.1287735780352,1096.9971966102603,"[20, 0, 234]",234,a,0.3452375654305797,colour,0.5
029,20,0,2,7,48,348,1099.0038076948695,1099.8932167656749,"[19, 0, 235]",235,a,0.3661885517940391,colour,0.5
029,20,0,2,7,49,349,1101.9102899527352,1102.4531601937633,"[34, 0, 220]",220,a,0.019744638688280247,colour,0.5
029,20,0,2,7,50,350,1104.4745570128289,1105.573202224914,"[98, 0, 156]",156,l,0.5760532699205214,colour,0.5
029,20,0,2,8,1,351,1112.9123403105623,1114.053141919343,"[22, 0, 232]",232,a,0.6170442788279615,colour,0.5
029,20,0,2,8,2,352,1116.0696180371597,1116.9731137672934,"[44, 0, 210]",210,a,0.3802196789474692,colour,0.5
029,20,0,2,8,3,353,1118.9916756890016,1119.7251449251635,"[24, 0, 230]",230,a,0.21023572025296744,colour,0.5
029,20,0,2,8,4,354,1121.7464641567494,1122.6211217576201,"[0, 0, 254]",254,a,0.3512567007855978,colour,0.5
029,20,0,2,8,5,355,1124.6373052484996,1125.341093526804,"[42, 0, 212]",212,a,0.18073120502231177,colour,0.5
029,20,0,2,8,6,356,1127.3562916171213,1128.4531188400142,"[50, 0, 204]",204,l,0.5734810672729509,colour,0.5
029,20,0,2,8,7,357,1130.4659310164425,1131.2611752575467,"[54, 0, 200]",200,l,0.2721706263255328,colour,0.5
029,20,0,2,8,8,358,1133.2787127880292,1134.0211656319734,"[61, 0, 193]",193,l,0.21905115614936221,colour,0.5
029,20,0,2,8,9,359,1136.0289161105902,1136.8933975405962,"[92, 0, 162]",162,l,0.3411565420246916,colour,0.5
029,20,0,2,8,10,360,1138.9039285659383,1139.8611282324418,"[7, 0, 247]",247,a,0.43391573840926867,colour,0.5
029,20,0,2,8,11,361,1141.873138540148,1142.64524280357,"[14, 0, 240]",240,a,0.2492598665121477,colour,0.5
029,20,0,2,8,12,362,1144.6545647243183,1145.3810707783123,"[35, 0, 219]",219,a,0.20245530940883327,colour,0.5
029,20,0,2,8,13,363,1147.3903698560316,1148.293055446702,"[58, 0, 196]",196,l,0.38003851017856505,colour,0.5
029,20,0,2,8,14,364,1150.311818229442,1151.07708927957,"[17, 0, 237]",237,a,0.24277166157844476,colour,0.5
029,20,0,2,8,15,365,1153.0932018783205,1153.8850452665938,"[23, 0, 231]",231,a,0.2682081503153313,colour,0.5
029,20,0,2,8,16,366,1155.9060293359507,1156.7250574915524,"[97, 0, 157]",157,l,0.29614791879430413,colour,0.5
029,20,0,2,8,17,367,1158.734196668156,1159.5655383922276,"[57, 0, 197]",197,l,0.30779273821099196,colour,0.5
029,20,0,2,8,18,368,1161.5783726239752,1162.3091920700099,"[73, 0, 181]",181,l,0.20852249387826305,colour,0.5
029,20,0,2,8,19,369,1164.3285373497201,1164.8690295537526,"[82, 0, 172]",172,l,0.017125962316640653,colour,0.5
029,20,0,2,8,20,370,1166.8755890446482,1167.6450210687472,"[70, 0, 184]",184,l,0.2462997263937723,colour,0.5
029,20,0,2,8,21,371,1169.6589990268112,1170.693116256385,"[5, 0, 249]",249,a,0.5108029754192103,colour,0.5
029,20,0,2,8,22,372,1172.7059422174061,1173.4609524199623,"[32, 0, 222]",222,a,0.23154983184940647,colour,0.5
029,20,0,2,8,23,373,1175.4717977337423,1176.069012697175,"[72, 0, 182]",182,a,0.07367464216076769,colour,0.5
029,20,0,2,8,24,374,1178.0830517012364,1179.1730047509482,"[36, 0, 218]",218,a,0.567202781807282,colour,0.5
029,20,0,2,8,25,375,1181.1839989381988,1181.9089914452925,"[90, 0, 164]",164,l,0.20161681309400592,colour,0.5
029,20,0,2,8,26,376,1183.918567396162,1185.2929924314813,"[87, 0, 167]",167,l,0.8512269654747797,colour,0.5
029,20,0,2,8,27,377,1187.29684069239,1187.9492479330074,"[76, 0, 178]",178,l,0.12945689936168492,colour,0.5
029,20,0,2,8,28,378,1189.960090883702,1190.5809657004138,"[10, 0, 244]",244,a,0.09729392938606907,colour,0.5
029,20,0,2,8,29,379,1192.6008666956332,1193.4129671151168,"[29, 0, 225]",225,a,0.28905831232259516,colour,0.5
029,20,0,2,8,30,380,1195.4235343742184,1196.1169468021544,"[8, 0, 246]",246,a,0.179560303397011,colour,0.5
029,20,0,2,8,31,381,1198.1207564662473,1199.156901998329,"[18, 0, 236]",236,a,0.5132140953937778,colour,0.5
029,20,0,2,8,32,382,1201.1592016601353,1202.1729673356604,"[1, 0, 253]",253,a,0.49027379720064346,colour,0.5
029,20,0,2,8,33,383,1204.184386875655,1205.6289025623119,"[55, 0, 199]",199,a,0.9302055202133488,colour,0.5
029,20,0,2,8,34,384,1207.644409033397,1208.6289305253158,"[15, 0, 239]",239,a,0.46114501023839694,colour,0.5
029,20,0,2,8,35,385,1210.6473183674825,1211.596893979644,"[96, 0, 158]",158,l,0.4261199675966054,colour,0.5
029,20,0,2,8,36,386,1213.6166232583637,1214.3249076728534,"[75, 0, 179]",179,l,0.18560858329874463,colour,0.5
029,20,0,2,8,37,387,1216.3333107528742,1217.1169046607247,"[12, 0, 242]",242,a,0.2715956124011427,colour,0.5
029,20,0,2,8,38,388,1219.1219765985152,1219.8128664482938,"[89, 0, 165]",165,l,0.16744483904039953,colour,0.5
029,20,0,2,8,39,389,1221.8197126584564,1222.5888469356287,"[63, 0, 191]",191,l,0.24577551850234158,colour,0.5
029,20,0,2,8,40,390,1224.6073391467507,1225.716856454077,"[38, 0, 216]",216,a,0.586034881285741,colour,0.5
029,20,0,2,8,41,391,1227.732640192131,1228.4768897576287,"[78, 0, 176]",176,l,0.22157294662611093,colour,0.5
029,20,0,2,8,42,392,1230.4986020466604,1231.1168908761465,"[6, 0, 248]",248,a,0.0950352274812758,colour,0.5
029,20,0,2,8,43,393,1233.1253262514656,1234.0528611077461,"[99, 0, 155]",155,l,0.4040280118351802,colour,0.5
029,20,0,2,8,44,394,1236.0622889728547,1236.82891248721,"[20, 0, 234]",234,a,0.2432265527168056,colour,0.5
029,20,0,2,8,45,395,1238.8438557597256,1239.7568486716918,"[64, 0, 190]",190,l,0.38962036871816963,colour,0.5
029,20,0,2,8,46,396,1241.7658830854925,1242.4928511198377,"[95, 0, 159]",159,l,0.20358958342694677,colour,0.5
029,20,0,2,8,47,397,1244.5005622139433,1245.1809170999331,"[13, 0, 241]",241,a,0.15708592401642818,colour,0.5
029,20,0,2,8,48,398,1247.188156761389,1247.8127841346577,"[79, 0, 175]",175,l,0.1015860537881963,colour,0.5
029,20,0,2,8,49,399,1249.8291554896714,1250.3568130680942,"[45, 0, 209]",209,a,0.00507745161303319,colour,0.5
029,20,0,2,8,50,400,1252.3760811541579,1252.9168522005493,"[85, 0, 169]",169,l,0.017296103411354125,colour,0.5
029,20,0,2,9,1,401,1260.2526587501197,1261.2208226716175,"[98, 0, 156]",156,l,0.4442242412478663,colour,0.5
029,20,0,2,9,2,402,1263.2382058148069,1263.7647464484035,"[52, 0, 202]",202,a,0.0033138130529550835,colour,0.5
029,20,0,2,9,3,403,1265.7851641684392,1267.0527539818722,"[14, 0, 240]",240,a,0.7441810364398407,colour,0.5
029,20,0,2,9,4,404,1269.0685849813453,1269.7327335334267,"[8, 0, 246]",246,a,0.14079845801461488,colour,0.5
029,20,0,2,9,5,405,1271.7416316768067,1272.9807598769403,"[41, 0, 213]",213,a,0.7158399397449102,colour,0.5
029,20,0,2,9,6,406,1274.9920758356748,1275.764751568393,"[60, 0, 194]",194,a,0.24938392773037776,colour,0.5
029,20,0,2,9,7,407,1277.77345751533,1278.5647325850587,"[11, 0, 243]",243,a,0.2639983395492891,colour,0.5
029,20,0,2,9,8,408,1280.57449679391,1281.2607270617737,"[83, 0, 171]",171,l,0.16283921391004696,colour,0.5
029,20,0,2,9,9,409,1283.2778242733912,1283.9007013988157,"[48, 0, 206]",206,a,0.09946598536043894,colour,0.5
029,20,0,2,9,10,410,1285.9186867312383,1286.692718866645,"[94, 0, 160]",160,l,0.2506718013610225,colour,0.5
029,20,0,2,9,11,411,1288.7001176415506,1289.4367096758651,"[42, 0, 212]",212,a,0.21094976150197908,colour,0.5
029,20,0,2,9,12,412,1291.4526808842202,1292.1966886287846,"[19, 0, 235]",235,a,0.2225485010421835,colour,0.5
029,20,0,2,9,13,413,1294.2165376364283,1294.9807492431282,"[81, 0, 173]",173,l,0.24084142652282026,colour,0.5
029,20,0,2,9,14,414,1297.0008688223897,1297.588700425229,"[37, 0, 217]",217,a,0.06445866574358661,colour,0.5
029,20,0,2,9,15,415,1299.6105257478193,1300.3166794600693,"[73, 0, 181]",181,l,0.18292571017809678,colour,0.5
029,20,0,2,9,16,416,1302.3294514642912,1302.9566246525792,"[7, 0, 247]",247,a,0.10383924187044613,colour,0.5
029,20,0,2,9,17,417,1304.972377276863,1305.9486874913564,"[80, 0, 174]",174,l,0.4529215235961601,colour,0.5
029,20,0,2,9,18,418,1307.9568723811826,1308.5888012495852,"[32, 0, 222]",222,a,0.10855868824000936,colour,0.5
029,20,0,2,9,19,419,1310.5977813127538,1311.7806700014917,"[57, 0, 197]",197,l,0.6594862132624257,colour,0.5
029,20,0,2,9,20,420,1313.8011913028022,1314.596674607892,"[38, 0, 216]",216,a,0.2721773216762813,colour,0.5
029,20,0,2,9,21,421,1316.6152132927527,1317.3646600387729,"[12, 0, 242]",242,a,0.22618802402575966,colour,0.5
029,20,0,2,9,22,422,1319.381002643102,1319.9246018914855,"[39, 0, 215]",215,a,0.020376366301206872,colour,0.5
029,20,0,2,9,23,423,1321.94376639626,1322.828646247901,"[87, 0, 167]",167,l,0.3619247842434561,colour,0.5
029,20,0,2,9,24,424,1324.8519047729642,1325.8045941248565,"[85, 0, 169]",169,l,0.42929042101604864,colour,0.5
029,20,0,2,9,25,425,1327.8241024564486,1328.7406616362132,"[43, 0, 211]",211,a,0.3934828080673469,colour,0.5
029,20,0,2,9,26,426,1330.7619095818227,1331.6046306736825,"[63, 0, 191]",191,l,0.31938990236085374,colour,0.5
029,20,0,2,9,27,427,1333.6215266304353,1334.500649647569,"[82, 0, 172]",172,l,0.35614313749829307,colour,0.5
029,20,0,2,9,28,428,1336.5122830454784,1337.3086442314088,"[36, 0, 218]",218,a,0.27352466592856217,colour,0.5
029,20,0,2,9,29,429,1339.3250711185829,1340.164587098654,"[96, 0, 158]",158,l,0.31620723973901477,colour,0.5
029,20,0,2,9,30,430,1342.1846649303334,1343.0285569238185,"[4, 0, 250]",250,a,0.32055017015954945,colour,0.5
029,20,0,2,9,31,431,1345.0442559851654,1345.908891408617,"[6, 0, 248]",248,a,0.3421427302673692,colour,0.5
029,20,0,2,9,32,432,1347.919544919816,1348.7325444877642,"[95, 0, 159]",159,l,0.290631329829921,colour,0.5
029,20,0,2,9,33,433,1350.7493522231962,1351.5086565193778,"[2, 0, 252]",252,a,0.23598137742374092,colour,0.5
029,20,0,2,9,34,434,1353.5148540665832,1354.3005786766735,"[29, 0, 225]",225,a,0.2635454176343046,colour,0.5
029,20,0,2,9,35,435,1356.3136141633004,1356.996535344253,"[69, 0, 185]",185,l,0.15964906821318436,colour,0.5
029,20,0,2,9,36,436,1359.0170318333257,1359.6925443932414,"[75, 0, 179]",179,l,0.15198917398811318,colour,0.5
029,20,0,2,9,37,437,1361.7047264174325,1362.3805052166717,"[77, 0, 177]",177,l,0.15246493891754653,colour,0.5
029,20,0,2,9,38,438,1364.3925269458996,1365.1565223316138,"[25, 0, 229]",229,a,0.240730756035191,colour,0.5
029,20,0,2,9,39,439,1367.1739267424418,1367.7805254603154,"[15, 0, 239]",239,l,0.08319624239811674,colour,0.5
029,20,0,2,9,40,440,1369.7847663848515,1370.8045338665543,"[21, 0, 233]",233,a,0.49688133722520433,colour,0.5
029,20,0,2,9,41,441,1372.8163590670447,1373.7164614273934,"[66, 0, 188]",188,l,0.3767109125328716,colour,0.5
029,20,0,2,9,42,442,1375.7228558971838,1376.4524902631674,"[31, 0, 223]",223,a,0.2037569676176645,colour,0.5
029,20,0,2,9,43,443,1378.4597795491136,1379.252470492138,"[74, 0, 180]",180,l,0.26922584616113454,colour,0.5
029,20,0,2,9,44,444,1381.2725735299027,1382.3884896393138,"[54, 0, 200]",200,l,0.5932304321031552,colour,0.5
029,20,0,2,9,45,445,1384.3978324338532,1385.1724159524601,"[92, 0, 162]",162,l,0.2517001310334308,colour,0.5
029,20,0,2,9,46,446,1387.17927358413,1387.9084861419688,"[9, 0, 245]",245,a,0.2057435225287918,colour,0.5
029,20,0,2,9,47,447,1389.9035331454215,1390.7964935179043,"[90, 0, 164]",164,l,0.36990408689598553,colour,0.5
029,20,0,2,9,48,448,1392.8099953171768,1393.500394042072,"[28, 0, 226]",226,a,0.1668938496732153,colour,0.5
029,20,0,2,9,49,449,1395.513368876549,1396.2844708040648,"[58, 0, 196]",196,a,0.24768763668544125,colour,0.5
029,20,0,2,9,50,450,1398.29469817481,1399.16444885901,"[76, 0, 178]",178,l,0.3472426310618175,colour,0.5
029,20,0,2,10,1,451,1406.5301088706183,1408.1404337574058,"[33, 0, 221]",221,a,1.0868897221662337,colour,0.5
029,20,0,2,10,2,452,1410.1560501112835,1411.204428867437,"[26, 0, 228]",228,a,0.52490853931522,colour,0.5
029,20,0,2,10,3,453,1413.2189026765263,1414.100437995192,"[86, 0, 168]",168,l,0.35822775986162014,colour,0.5
029,20,0,2,10,4,454,1416.1116948771378,1416.6764530621294,"[98, 0, 156]",156,l,0.04152703215368092,colour,0.5
029,20,0,2,10,5,455,1418.69004190118,1419.3804890690226,"[59, 0, 195]",195,a,0.1671707228088053,colour,0.5
029,20,0,2,10,6,456,1421.3933520514838,1422.116363517489,"[55, 0, 199]",199,a,0.19957669523137156,colour,0.5
029,20,0,2,10,7,457,1424.1292253184074,1424.892352669427,"[89, 0, 165]",165,l,0.23975717084249482,colour,0.5
029,20,0,2,10,8,458,1426.9094278257107,1429.1803696551797,"[29, 0, 225]",225,a,1.7482108599651838,colour,0.5
029,20,0,2,10,9,459,1431.1911472275824,1431.9563714101532,"[41, 0, 213]",213,a,0.24174215037783142,colour,0.5
029,20,0,2,10,10,460,1433.9645496045996,1434.6846493734483,"[94, 0, 160]",160,l,0.19668390264268965,colour,0.5
029,20,0,2,10,11,461,1436.6848384191253,1437.300335280379,"[15, 0, 239]",239,a,0.09260047679708805,colour,0.5
029,20,0,2,10,12,462,1439.3100081171433,1440.0683384342847,"[67, 0, 187]",187,l,0.23489475867245346,colour,0.5
029,20,0,2,10,13,463,1442.0759101072035,1443.0522963338153,"[40, 0, 214]",214,a,0.45315861837298144,colour,0.5
029,20,0,2,10,14,464,1445.0605879556679,1446.1885183112463,"[87, 0, 167]",167,l,0.6046164952713298,colour,0.5
029,20,0,2,10,15,465,1448.201335607664,1449.292276814842,"[20, 0, 234]",234,a,0.5679656598513247,colour,0.5
029,20,0,2,10,16,466,1451.3130966507742,1452.452268134497,"[19, 0, 235]",235,a,0.6158859802526422,colour,0.5
029,20,0,2,10,17,467,1454.4695098872908,1455.3482721422624,"[17, 0, 237]",237,a,0.35581427680153865,colour,0.5
029,20,0,2,10,18,468,1457.360382092811,1458.0443134865636,"[36, 0, 218]",218,a,0.16064116415509488,colour,0.5
029,20,0,2,10,19,469,1460.0638025197404,1460.9002681691636,"[37, 0, 217]",217,a,0.31325221961014904,colour,0.5
029,20,0,2,10,20,470,1462.9077161747118,1463.8923105279973,"[48, 0, 206]",206,a,0.4611276810610434,colour,0.5
029,20,0,2,10,21,471,1465.9079434233572,1466.716210941886,"[38, 0, 216]",216,a,0.2849666551046539,colour,0.5
029,20,0,2,10,22,472,1468.7363628164458,1469.516219527708,"[90, 0, 164]",164,l,0.2550887746619992,colour,0.5
029,20,0,2,10,23,473,1471.5349405628658,1472.444209275127,"[58, 0, 196]",196,l,0.3860789131722413,colour,0.5
029,20,0,2,10,24,474,1474.4569800978206,1475.26024026917,"[14, 0, 240]",240,a,0.27992583108425606,colour,0.5
029,20,0,2,10,25,475,1477.2696767988527,1477.8682883371803,"[9, 0, 245]",245,a,0.0757159415516071,colour,0.5
029,20,0,2,10,26,476,1479.8802368112083,1480.4362224894285,"[76, 0, 178]",178,l,0.0329880755598424,colour,0.5
029,20,0,2,10,27,477,1482.4430273458565,1483.0601771751826,"[50, 0, 204]",204,l,0.09372963082569186,colour,0.5
029,20,0,2,10,28,478,1485.0703285338095,1486.8282043536456,"[60, 0, 194]",194,l,1.2346883838181384,colour,0.5
029,20,0,2,10,29,479,1488.8247475748067,1489.5722132797528,"[25, 0, 229]",229,a,0.22409276786493137,colour,0.5
029,20,0,2,10,30,480,1491.5906251464621,1492.8201620357722,"[30, 0, 224]",224,a,0.7065503143094247,colour,0.5
029,20,0,2,10,31,481,1494.8407845552865,1495.620161563158,"[63, 0, 191]",191,l,0.25637074062251486,colour,0.5
029,20,0,2,10,32,482,1497.637891290069,1498.252132573005,"[68, 0, 186]",186,l,0.091517008797382,colour,0.5
029,20,0,2,10,33,483,1500.2631606309296,1501.180167218772,"[52, 0, 202]",202,l,0.3938337240979308,colour,0.5
029,20,0,2,10,34,484,1503.2008129751484,1503.9321546598367,"[72, 0, 182]",182,l,0.20798725832719356,colour,0.5
029,20,0,2,10,35,485,1505.953427417684,1506.604157271824,"[18, 0, 236]",236,a,0.12731792638078332,colour,0.5
029,20,0,2,10,36,486,1508.623685295679,1509.3001942838164,"[27, 0, 227]",227,a,0.15312620492477436,colour,0.5
029,20,0,2,10,37,487,1511.2989398870268,1511.9721988650126,"[92, 0, 162]",162,l,0.15034447665675543,colour,0.5
029,20,0,2,10,38,488,1513.9866124158143,1514.756156291929,"[34, 0, 220]",220,a,0.24677549132320564,colour,0.5
029,20,0,2,10,39,489,1516.7680476584064,1517.404109143943,"[32, 0, 222]",222,a,0.11268776074575726,colour,0.5
029,20,0,2,10,40,490,1519.4245607346675,1520.1560820127343,"[0, 0, 254]",254,a,0.20745359815191478,colour,0.5
029,20,0,2,10,41,491,1522.175549778287,1522.7481009771727,"[39, 0, 215]",215,a,0.04948743023851421,colour,0.5
029,20,0,2,10,42,492,1524.7695742022042,1525.5161446971324,"[99, 0, 155]",155,l,0.22342559418757446,colour,0.5
029,20,0,2,10,43,493,1527.5353694602236,1528.4601091975055,"[81, 0, 173]",173,l,0.4015625412284862,colour,0.5
029,20,0,2,10,44,494,1530.4744569761533,1531.0680603796063,"[97, 0, 157]",157,l,0.07031435536919162,colour,0.5
029,20,0,2,10,45,495,1533.0838937421504,1533.8360895273072,"[84, 0, 170]",170,l,0.22870311913720798,colour,0.5
029,20,0,2,10,46,496,1535.8498492951621,1536.5960865970992,"[54, 0, 200]",200,a,0.22294116465491243,colour,0.5
029,20,0,2,10,47,497,1538.6156402208871,1539.2920822553424,"[65, 0, 189]",189,l,0.15302695594436955,colour,0.5
029,20,0,2,10,48,498,1541.3033399249834,1541.8360540812428,"[4, 0, 250]",250,a,0.009662596799898893,colour,0.5
029,20,0,2,10,49,499,1543.850406192185,1544.4120400036336,"[96, 0, 158]",158,l,0.03829632041743025,colour,0.5
029,20,0,2,10,50,500,1546.42884773908,1547.3162671042082,"[31, 0, 223]",223,a,0.3622000820032554,colour,0.5
029,20,0,2,11,1,501,1554.5422625379579,1555.1640120847442,"[84, 0, 170]",170,l,0.0976117624231847,colour,0.5
029,20,0,2,11,2,502,1557.1838039848517,1557.988005839943,"[69, 0, 185]",185,l,0.28073124440561514,colour,0.5
029,20,0,2,11,3,503,1559.9966893377132,1560.5640004269226,"[86, 0, 168]",168,l,0.04395075517822988,colour,0.5
029,20,0,2,11,4,504,1562.57507771549,1563.300018235037,"[59, 0, 195]",195,a,0.20166368066566065,colour,0.5
029,20,0,2,11,5,505,1565.3111262435123,1566.0760042361944,"[15, 0, 239]",239,a,0.24188984229112975,colour,0.5
029,20,0,2,11,6,506,1568.0920908411645,1568.6839818059234,"[47, 0, 207]",207,a,0.06848888311651535,colour,0.5
029,20,0,2,11,7,507,1570.7017950280133,1572.5799389461317,"[96, 0, 158]",158,l,1.353825752667035,colour,0.5
029,20,0,2,11,8,508,1574.5939062703692,1575.443970998822,"[14, 0, 240]",240,a,0.3268008864688454,colour,0.5
029,20,0,2,11,9,509,1577.4535879095783,1578.2599196792144,"[72, 0, 182]",182,l,0.2832652440702077,colour,0.5
029,20,0,2,11,10,510,1580.266236167663,1580.9319400142267,"[46, 0, 208]",208,a,0.14240574004361406,colour,0.5
029,20,0,2,11,11,511,1582.9391631342005,1583.6679991760757,"[50, 0, 204]",204,a,0.20546980014478322,colour,0.5
029,20,0,2,11,12,512,1585.6893829982582,1586.3320189407968,"[92, 0, 162]",162,l,0.11989827766956296,colour,0.5
029,20,0,2,11,13,513,1588.3457779209566,1588.988036559851,"[19, 0, 235]",235,a,0.11891248327447101,colour,0.5
029,20,0,2,11,14,514,1591.0021496068075,1591.6359468765877,"[39, 0, 215]",215,a,0.11043102806434035,colour,0.5
029,20,0,2,11,15,515,1593.6453574125044,1594.1958954246657,"[83, 0, 171]",171,l,0.0272753517201636,colour,0.5
029,20,0,2,11,16,516,1596.2067643691407,1596.8039167112001,"[2, 0, 252]",252,a,0.07395348451973405,colour,0.5
029,20,0,2,11,17,517,1598.8192305919947,1599.5318996844871,"[73, 0, 181]",181,l,0.189394616681966,colour,0.5
029,20,0,2,11,18,518,1601.5355518105207,1602.347932253906,"[77, 0, 177]",177,l,0.2891473213239806,colour,0.5
029,20,0,2,11,19,519,1604.3647242355364,1604.907906401917,"[81, 0, 173]",173,l,0.019562288391171023,colour,0.5
029,20,0,2,11,20,520,1606.9275435208692,1607.763871718329,"[30, 0, 224]",224,a,0.3130773523589596,colour,0.5
029,20,0,2,11,21,521,1609.7714500866277,1610.5798853831802,"[65, 0, 189]",189,l,0.2834791019849945,colour,0.5
029,20,0,2,11,22,522,1612.6013704235666,1613.2038668504101,"[78, 0, 176]",176,l,0.07927275706606451,colour,0.5
029,20,0,2,11,23,523,1615.2004663914267,1615.9318116207141,"[64, 0, 190]",190,l,0.20799907366745174,colour,0.5
029,20,0,2,11,24,524,1617.9507008277433,1618.5318536046107,"[0, 0, 254]",254,a,0.057945254739024676,colour,0.5
029,20,0,2,11,25,525,1620.5446492395422,1621.0918466571748,"[21, 0, 233]",233,a,0.024007224696106277,colour,0.5
029,20,0,2,11,26,526,1623.107383848168,1624.2679285202612,"[31, 0, 223]",223,a,0.6372075749095529,colour,0.5
029,20,0,2,11,27,527,1626.2794414015516,1626.8838349804573,"[51, 0, 203]",203,a,0.08142669616790954,colour,0.5
029,20,0,2,11,28,528,1628.9046760840283,1629.4678514053812,"[79, 0, 175]",175,l,0.03996583000116516,colour,0.5
029,20,0,2,11,29,529,1631.4841443852056,1632.0998326551926,"[66, 0, 188]",188,l,0.09230469907924999,colour,0.5
029,20,0,2,11,30,530,1634.1092995109648,1636.0037805195461,"[49, 0, 205]",205,a,1.3710446624318138,colour,0.5
029,20,0,2,11,31,531,1638.0158467532747,1638.683803394073,"[61, 0, 193]",193,l,0.14497715501056518,colour,0.5
029,20,0,2,11,32,532,1640.7050489766116,1641.4198149006552,"[20, 0, 234]",234,a,0.18289144564187154,colour,0.5
029,20,0,2,11,33,533,1643.4326463754987,1644.0197466079117,"[56, 0, 198]",198,l,0.06377022444212344,colour,0.5
029,20,0,2,11,34,534,1646.0281103034213,1646.9077874606737,"[5, 0, 249]",249,a,0.3566606500244234,colour,0.5
029,20,0,2,11,35,535,1648.9191412285436,1649.4597598568653,"[85, 0, 169]",169,l,0.017365420164423995,colour,0.5
029,20,0,2,11,36,536,1651.4660684684059,1652.0598164130206,"[23, 0, 231]",231,a,0.07023046635731589,colour,0.5
029,20,0,2,11,37,537,1654.0756789201114,1654.6677742905013,"[88, 0, 166]",166,l,0.06861018744530156,colour,0.5
029,20,0,2,11,38,538,1656.6865961500007,1657.5157591227326,"[76, 0, 178]",178,l,0.30627879746316466,colour,0.5
029,20,0,2,11,39,539,1659.5304038606264,1660.1317569550156,"[1, 0, 253]",253,a,0.07829602110723499,colour,0.5
029,20,0,2,11,40,540,1662.1413659888785,1663.563738519908,"[32, 0, 222]",222,a,0.8988995572872227,colour,0.5
029,20,0,2,11,41,541,1665.5791815819102,1666.6597390618408,"[48, 0, 206]",206,a,0.5572203827468911,colour,0.5
029,20,0,2,11,42,542,1668.6747217188677,1669.2917096778401,"[67, 0, 187]",187,l,0.09406361151195597,colour,0.5
029,20,0,2,11,43,543,1671.2998784200026,1671.9557062056992,"[12, 0, 242]",242,a,0.13290146899817046,colour,0.5
029,20,0,2,11,44,544,1673.9720318746695,1674.883732974573,"[6, 0, 248]",248,a,0.38899612418026663,colour,0.5
029,20,0,2,11,45,545,1676.8940525050712,1677.6117439108639,"[4, 0, 250]",250,a,0.19498249162279535,colour,0.5
029,20,0,2,11,46,546,1679.630880846482,1680.363691179722,"[33, 0, 221]",221,a,0.21179810394824017,colour,0.5
029,20,0,2,11,47,547,1682.3789841867256,1682.9317170978757,"[9, 0, 245]",245,a,0.029636453356943093,colour,0.5
029,20,0,2,11,48,548,1684.9419003579678,1685.5163502842915,"[22, 0, 232]",232,a,0.05035822185163852,colour,0.5
029,20,0,2,11,49,549,1687.5362331626238,1688.0998688889522,"[41, 0, 213]",213,a,0.040493582491762936,colour,0.5
029,20,0,2,11,50,550,1690.1162233086216,1690.8198969779914,"[71, 0, 183]",183,l,0.18034602447005454,colour,0.5
029,20,0,2,12,1,551,1698.194165262932,1698.9558381438255,"[7, 0, 247]",247,a,0.2378529295529006,colour,0.5
029,20,0,2,12,2,552,1700.9763787435513,1702.2036529924953,"[78, 0, 176]",176,l,0.7038784688338637,colour,0.5
029,20,0,2,12,3,553,1704.1989776567643,1704.9236491800693,"[28, 0, 226]",226,a,0.20207406730332877,colour,0.5
029,20,0,2,12,4,554,1706.9337347665569,1707.5556406698743,"[68, 0, 186]",186,l,0.09924661362310871,colour,0.5
029,20,0,2,12,5,555,1709.5743404373789,1710.6275883010676,"[39, 0, 215]",215,a,0.5301777935092105,colour,0.5
029,20,0,2,12,6,556,1712.6370634275809,1713.283591741696,"[41, 0, 213]",213,l,0.1230821218341589,colour,0.5
029,20,0,2,12,7,557,1715.2935973776184,1715.9796185137093,"[76, 0, 178]",178,l,0.1628100693487795,colour,0.5
029,20,0,2,12,8,558,1717.9969118602166,1719.043603777609,"[4, 0, 250]",250,a,0.5240208123577759,colour,0.5
029,20,0,2,12,9,559,1721.059609250471,1721.595584050694,"[24, 0, 230]",230,a,0.01254869403783232,colour,0.5
029,20,0,2,12,10,560,1723.606802729657,1724.339568952244,"[26, 0, 228]",228,a,0.2080987164954422,colour,0.5
029,20,0,2,12,11,561,1726.3584357100917,1726.8835486550379,"[97, 0, 157]",157,l,0.002439870673697442,colour,0.5
029,20,0,2,12,12,562,1728.90482732057,1729.939652289875,"[59, 0, 195]",195,l,0.5118100374529604,colour,0.5
029,20,0,2,12,13,563,1731.9531596029847,1732.5315956360428,"[91, 0, 163]",163,l,0.05520803098625038,colour,0.5
029,20,0,2,12,14,564,1734.5471718176996,1735.2675669704186,"[62, 0, 192]",192,l,0.19797571472008713,colour,0.5
029,20,0,2,12,15,565,1737.281613063693,1737.8355527163658,"[67, 0, 187]",187,l,0.030430445171077736,colour,0.5
029,20,0,2,12,16,566,1739.8445508964069,1740.395643836382,"[36, 0, 218]",218,a,0.026568793517071754,colour,0.5
029,20,0,2,12,17,567,1742.4085710155923,1743.5315727930138,"[52, 0, 202]",202,l,0.5997213939408539,colour,0.5
029,20,0,2,12,18,568,1745.549339147532,1746.299555073143,"[35, 0, 219]",219,a,0.22760350348835345,colour,0.5
029,20,0,2,12,19,569,1748.315295882072,1749.4275508070132,"[37, 0, 217]",217,a,0.5891297164489515,colour,0.5
029,20,0,2,12,20,570,1751.4403385650367,1751.9875344072934,"[20, 0, 234]",234,a,0.024247076391475275,colour,0.5
029,20,0,2,12,21,571,1754.0031259489188,1755.2517296694132,"[9, 0, 245]",245,a,0.7256770099484129,colour,0.5
029,20,0,2,12,22,572,1757.2689804806432,1757.9075172829034,"[23, 0, 231]",231,a,0.11588854024012107,colour,0.5
029,20,0,2,12,23,573,1759.9254423570237,1760.6994906400796,"[70, 0, 184]",184,l,0.25140986716724,colour,0.5
029,20,0,2,12,24,574,1762.706927224106,1763.691572777272,"[53, 0, 201]",201,l,0.4604526304756291,colour,0.5
029,20,0,2,12,25,575,1765.707740908183,1766.6515392059082,"[80, 0, 174]",174,l,0.4209082147863228,colour,0.5
029,20,0,2,12,26,576,1768.6519180849427,1769.403499865497,"[95, 0, 159]",159,l,0.2415790984814521,colour,0.5
029,20,0,2,12,27,577,1771.4178287395916,1772.2835165172728,"[48, 0, 206]",206,a,0.34246371405606624,colour,0.5
029,20,0,2,12,28,578,1774.2929991268466,1775.0034079420439,"[34, 0, 220]",220,a,0.19953494764922652,colour,0.5
029,20,0,2,12,29,579,1777.0150444907194,1777.971463162292,"[61, 0, 193]",193,l,0.4331631003442453,colour,0.5
029,20,0,2,12,30,580,1779.9747328646772,1782.81945193297,"[56, 0, 198]",198,a,2.3273353343247436,colour,0.5
029,20,0,2,12,31,581,1784.8170120622963,1785.9155213978083,"[63, 0, 191]",191,l,0.5784687222039793,colour,0.5
029,20,0,2,12,32,582,1787.911740090567,1789.04371641732,"[94, 0, 160]",160,l,0.60862111269671,colour,0.5
029,20,0,2,12,33,583,1791.1270028502622,1791.851406558868,"[40, 0, 214]",214,a,0.1988098787405761,colour,0.5
029,20,0,2,12,34,584,1793.8555710774235,1794.5234402846108,"[99, 0, 155]",155,l,0.14478495858202223,colour,0.5
029,20,0,2,12,35,585,1796.5434740056226,1797.811411190487,"[3, 0, 251]",251,a,0.7445933923154371,colour,0.5
029,20,0,2,12,36,586,1799.8160664401075,1800.8993674453086,"[16, 0, 238]",238,a,0.5607484475622186,colour,0.5
029,20,0,2,12,37,587,1802.8979184890195,1803.5553933351184,"[93, 0, 161]",161,l,0.1344268312532222,colour,0.5
029,20,0,2,12,38,588,1805.5684808093065,1806.3233732521621,"[43, 0, 211]",211,a,0.23082358139799908,colour,0.5
029,20,0,2,12,39,589,1808.3244791693287,1809.4353619377798,"[96, 0, 158]",158,l,0.5879017072729766,colour,0.5
029,20,0,2,12,40,590,1811.4506387971342,1812.2273620764172,"[71, 0, 183]",183,l,0.25333380070514977,colour,0.5
029,20,0,2,12,41,591,1814.2349715584714,1814.971369033301,"[1, 0, 253]",253,a,0.2131316636223346,colour,0.5
029,20,0,2,12,42,592,1816.9741704538174,1817.7233820742986,"[60, 0, 194]",194,l,0.22600291682465468,colour,0.5
029,20,0,2,12,43,593,1819.7403292309173,1820.4033698966086,"[8, 0, 246]",246,a,0.13963819021591917,colour,0.5
029,20,0,2,12,44,594,1822.4124452702963,1823.0593938171805,"[81, 0, 173]",173,l,0.12356182522489689,colour,0.5
029,20,0,2,12,45,595,1825.069851981185,1825.6755673043954,"[18, 0, 236]",236,a,0.08260429314395878,colour,0.5
029,20,0,2,12,46,596,1827.693369104978,1831.0993320780108,"[42, 0, 212]",212,a,2.882711734098848,colour,0.5
029,20,0,2,12,47,597,1833.0964471623302,1833.6914093315281,"[72, 0, 182]",182,l,0.07222095972974785,colour,0.5
029,20,0,2,12,48,598,1835.700134970728,1836.7713146039023,"[64, 0, 190]",190,l,0.5485928109992528,colour,0.5
029,20,0,2,12,49,599,1838.7808157241816,1839.9554458740604,"[30, 0, 224]",224,l,0.6511796252889326,colour,0.5
029,20,0,2,12,50,600,1841.9568869534414,1842.6992822959874,"[14, 0, 240]",240,a,0.21913662055158056,colour,0.5
029,20,0,2,13,1,601,1850.2159019703686,1850.9952462890942,"[97, 0, 157]",157,l,0.25542984456114937,colour,0.5
029,20,0,2,13,2,602,1853.0136873003503,1853.7952855948388,"[0, 0, 254]",254,a,0.2582982187595917,colour,0.5
029,20,0,2,13,3,603,1855.811856235494,1856.5712554483616,"[63, 0, 191]",191,l,0.24412412582023535,colour,0.5
029,20,0,2,13,4,604,1858.5816080618533,1859.2832880870847,"[74, 0, 180]",180,l,0.17637094540987164,colour,0.5
029,20,0,2,13,5,605,1861.2971660084877,1861.8752515193628,"[9, 0, 245]",245,a,0.06666656164452434,colour,0.5
029,20,0,2,13,6,606,1863.8858687967877,1864.5712964082486,"[58, 0, 196]",196,l,0.16227562149288133,colour,0.5
029,20,0,2,13,7,607,1866.5789350348496,1867.251237362987,"[35, 0, 219]",219,a,0.14967021376651246,colour,0.5
029,20,0,2,13,8,608,1869.2565511216962,1869.9312255791447,"[81, 0, 173]",173,l,0.15136335405986756,colour,0.5
029,20,0,2,13,9,609,1871.9392588385817,1872.7632557445322,"[70, 0, 184]",184,l,0.3008334944897797,colour,0.5
029,20,0,2,13,10,610,1874.784730938787,1875.4112247441808,"[3, 0, 251]",251,a,0.10381521729868837,colour,0.5
029,20,0,2,13,11,611,1877.4248903830448,1878.1151863143605,"[18, 0, 236]",236,a,0.16585094774200115,colour,0.5
029,20,0,2,13,12,612,1880.1209470873,1880.739173295413,"[34, 0, 220]",220,a,0.09487611404620111,colour,0.5
029,20,0,2,13,13,613,1882.7402547941747,1883.5872022382973,"[54, 0, 200]",200,l,0.3207801757234847,colour,0.5
029,20,0,2,13,14,614,1885.6058720735891,1886.5711916454457,"[23, 0, 231]",231,a,0.4427540173201123,colour,0.5
029,20,0,2,13,15,615,1888.5916708053264,1889.1954291120055,"[13, 0, 241]",241,a,0.08029557290137745,colour,0.5
029,20,0,2,13,16,616,1891.2012438417441,1891.7634369133011,"[22, 0, 232]",232,a,0.051312508643604815,colour,0.5
029,20,0,2,13,17,617,1893.7817388972035,1894.4831648923282,"[92, 0, 162]",162,l,0.17879781920055393,colour,0.5
029,20,0,2,13,18,618,1896.5021616190788,1897.0271658627607,"[43, 0, 211]",211,a,0.0020984069269616157,colour,0.5
029,20,0,2,13,19,619,1899.0491640833643,1899.7311502759549,"[17, 0, 237]",237,a,0.15856481254741084,colour,0.5
029,20,0,2,13,20,620,1901.7400354224374,1902.4111979627196,"[68, 0, 186]",186,l,0.14824567588220816,colour,0.5
029,20,0,2,13,21,621,1904.4154896932741,1905.067119877407,"[8, 0, 246]",246,a,0.13166361371986568,colour,0.5
029,20,0,2,13,22,622,1907.0699016056606,1907.8111544034473,"[82, 0, 172]",172,l,0.21840446243004408,colour,0.5
029,20,0,2,13,23,623,1909.8200734206184,1910.499117196101,"[86, 0, 168]",168,l,0.15877748890488874,colour,0.5
029,20,0,2,13,24,624,1912.520738506908,1913.1230573095818,"[76, 0, 178]",178,l,0.09156545174482744,colour,0.5
029,20,0,2,13,25,625,1915.1315068633412,1915.7071796788514,"[79, 0, 175]",175,l,0.05271065891429316,colour,0.5
029,20,0,2,13,26,626,1917.7151026616484,1918.3231207974313,"[78, 0, 176]",176,l,0.0938891381083522,colour,0.5
029,20,0,2,13,27,627,1920.3277315425512,1922.93106134572,"[93, 0, 161]",161,l,2.0807260456494987,colour,0.5
029,20,0,2,13,28,628,1924.9332877523266,1925.5151809580566,"[20, 0, 234]",234,a,0.05459481407888234,colour,0.5
029,20,0,2,13,29,629,1927.5317098511296,1928.483074307951,"[73, 0, 181]",181,l,0.43291300866985694,colour,0.5
029,20,0,2,13,30,630,1930.4961810805398,1931.107072316663,"[80, 0, 174]",174,l,0.08825282022007741,colour,0.5
029,20,0,2,13,31,631,1933.1213708646683,1933.77110625981,"[31, 0, 223]",223,a,0.126991428740439,colour,0.5
029,20,0,2,13,32,632,1935.7676018257043,1936.4270596821152,"[2, 0, 252]",252,a,0.13639133084507193,colour,0.5
029,20,0,2,13,33,633,1938.436670291354,1939.3790306604496,"[53, 0, 201]",201,l,0.43112219478643965,colour,0.5
029,20,0,2,13,34,634,1941.39446308864,1942.019032172815,"[84, 0, 170]",170,l,0.10191845908411779,colour,0.5
029,20,0,2,13,35,635,1944.035258986667,1944.6110598018422,"[28, 0, 226]",226,a,0.05238731204008218,colour,0.5
029,20,0,2,13,36,636,1946.6291298109718,1947.6830188545428,"[48, 0, 206]",206,a,0.5315747622371418,colour,0.5
029,20,0,2,13,37,637,1949.6793671223568,1950.3790665003617,"[5, 0, 249]",249,a,0.1770243345090421,colour,0.5
029,20,0,2,13,38,638,1952.3983215895278,1953.058997215121,"[26, 0, 228]",228,a,0.13735191915475298,colour,0.5
029,20,0,2,13,39,639,1955.0588609447004,1955.77100858622,"[56, 0, 198]",198,l,0.1896159576572245,colour,0.5
029,20,0,2,13,40,640,1957.7781509679335,1958.3711935359024,"[98, 0, 156]",156,l,0.07011073744797613,colour,0.5
029,20,0,2,13,41,641,1960.3877220351278,1961.1950971005572,"[94, 0, 160]",160,l,0.2845688715024153,colour,0.5
029,20,0,2,13,42,642,1963.2159543517773,1963.8830019979796,"[47, 0, 207]",207,a,0.14361011850996874,colour,0.5
029,20,0,2,13,43,643,1965.890002989283,1966.4349637603445,"[7, 0, 247]",247,a,0.022833960014395416,colour,0.5
029,20,0,2,13,44,644,1968.452311851317,1969.219033826972,"[65, 0, 189]",189,l,0.24410285818157718,colour,0.5
029,20,0,2,13,45,645,1971.2338939981564,1971.96298288861,"[12, 0, 242]",242,a,0.20608419858035631,colour,0.5
029,20,0,2,13,46,646,1973.9685148375283,1974.6590045406338,"[95, 0, 159]",159,l,0.1672420087706996,colour,0.5
029,20,0,2,13,47,647,1976.662800813996,1977.4188996045414,"[44, 0, 210]",210,a,0.23288811765087303,colour,0.5
029,20,0,2,13,48,648,1979.4299445978104,1980.1869094538124,"[10, 0, 244]",244,a,0.24641354763298295,colour,0.5
029,20,0,2,13,49,649,1982.1924339196703,1983.2669777780684,"[37, 0, 217]",217,a,0.5519550669851014,colour,0.5
029,20,0,2,13,50,650,1985.2839800730144,1985.9469644188503,"[52, 0, 202]",202,a,0.14015727811784018,colour,0.5
029,20,0,2,14,1,651,1993.7179773373646,1994.4588807944965,"[77, 0, 177]",177,l,0.20829051909095142,colour,0.5
029,20,0,2,14,2,652,1996.468943144122,1997.0269197095477,"[33, 0, 221]",221,a,0.034897042976808734,colour,0.5
029,20,0,2,14,3,653,1999.0367469336197,1999.5949023047433,"[98, 0, 156]",156,l,0.03416409716010094,colour,0.5
029,20,0,2,14,4,654,2001.6075856938114,2002.67491745991,"[56, 0, 198]",198,l,0.5445432952110423,colour,0.5
029,20,0,2,14,5,655,2004.6830980174273,2005.314850837065,"[35, 0, 219]",219,a,0.12140237228595652,colour,0.5
029,20,0,2,14,6,656,2007.3183442434965,2008.7548648736993,"[53, 0, 201]",201,a,0.9137951745360624,colour,0.5
029,20,0,2,14,7,657,2010.7711172874842,2011.5069606221805,"[59, 0, 195]",195,a,0.21290795957611408,colour,0.5
029,20,0,2,14,8,658,2013.511984117009,2014.386824462039,"[11, 0, 243]",243,a,0.3484434649144532,colour,0.5
029,20,0,2,14,9,659,2016.4077998668072,2017.4108553174447,"[70, 0, 184]",184,l,0.480224050625111,colour,0.5
029,20,0,2,14,10,660,2019.4234823866573,2020.2588082482253,"[90, 0, 164]",164,l,0.312055324218818,colour,0.5
029,20,0,2,14,11,661,2022.2615876134078,2023.2668458399567,"[23, 0, 231]",231,a,0.4819431846990483,colour,0.5
029,20,0,2,14,12,662,2025.2771874257887,2026.5308024319093,"[51, 0, 203]",203,l,0.7303259580512531,colour,0.5
029,20,0,2,14,13,663,2028.5445952827577,2029.0752200905117,"[88, 0, 166]",166,l,0.007744177099084482,colour,0.5
029,20,0,2,14,14,664,2031.0982466408022,2031.6348409594211,"[0, 0, 254]",254,a,0.013924788960139267,colour,0.5
029,20,0,2,14,15,665,2033.6330087918031,2034.70685751352,"[32, 0, 222]",222,a,0.5467326803627657,colour,0.5
029,20,0,2,14,16,666,2036.7168840232334,2037.3229408101906,"[2, 0, 252]",252,a,0.09253470464318525,colour,0.5
029,20,0,2,14,17,667,2039.3261514358164,2040.2108123095531,"[34, 0, 220]",220,a,0.36104138958035037,colour,0.5
029,20,0,2,14,18,668,2042.2084000080358,2043.122810762521,"[69, 0, 185]",185,l,0.3918924613681156,colour,0.5
029,20,0,2,14,19,669,2045.1304048846214,2045.738779844105,"[82, 0, 172]",172,l,0.09189667551254388,colour,0.5
029,20,0,2,14,20,670,2047.7494002723106,2048.330750759429,"[10, 0, 244]",244,a,0.05237589053285774,colour,0.5
029,20,0,2,14,21,671,2050.349813258319,2052.1387807893334,"[71, 0, 183]",183,l,1.265658396834624,colour,0.5
029,20,0,2,14,22,672,2054.1521096905926,2054.834809136737,"[76, 0, 178]",178,l,0.1595269762328826,colour,0.5
029,20,0,2,14,23,673,2056.8557817845867,2059.266814332339,"[52, 0, 202]",202,l,1.88749222648039,colour,0.5
029,20,0,2,14,24,674,2061.277939670006,2062.186721195845,"[64, 0, 190]",190,l,0.38582094460434746,colour,0.5
029,20,0,2,14,25,675,2064.20017455217,2064.890711122862,"[67, 0, 187]",187,l,0.17957960182684474,colour,0.5
029,20,0,2,14,26,676,2066.9062845476,2068.650675503508,"[42, 0, 212]",212,a,1.218660067926976,colour,0.5
029,20,0,2,14,27,677,2070.6471561032813,2071.2666662465635,"[45, 0, 209]",209,a,0.09705762230441906,colour,0.5
029,20,0,2,14,28,678,2073.2778100949654,2074.010702741827,"[20, 0, 234]",234,a,0.2094401530630421,colour,0.5
029,20,0,2,14,29,679,2076.0252643784042,2076.674735503446,"[93, 0, 161]",161,l,0.12628526439948473,colour,0.5
029,20,0,2,14,30,680,2078.6765282865526,2079.2986976722605,"[73, 0, 181]",181,l,0.09678271839220542,colour,0.5
029,20,0,2,14,31,681,2081.3143258414784,2082.1706861845887,"[55, 0, 199]",199,a,0.3328901262721047,colour,0.5
029,20,0,2,14,32,682,2084.181293615882,2084.7866410877323,"[19, 0, 235]",235,a,0.08182329821283929,colour,0.5
029,20,0,2,14,33,683,2086.7927535643976,2087.346687703248,"[30, 0, 224]",224,a,0.03131187061080709,colour,0.5
029,20,0,2,14,34,684,2089.3430619648425,2090.1308105451317,"[63, 0, 191]",191,l,0.26716327914618887,colour,0.5
029,20,0,2,14,35,685,2092.1313170299836,2092.834698860097,"[5, 0, 249]",249,a,0.18006639441591688,colour,0.5
029,20,0,2,14,36,686,2094.850102537588,2095.914689596859,"[61, 0, 193]",193,l,0.5415201398718636,colour,0.5
029,20,0,2,14,37,687,2097.928474570799,2098.8586635495158,"[40, 0, 214]",214,a,0.406682134285802,colour,0.5
029,20,0,2,14,38,688,2100.8662946930563,2101.6827372552652,"[17, 0, 237]",237,a,0.2937517649115762,colour,0.5
029,20,0,2,14,39,689,2103.6946030218096,2107.730737132384,"[6, 0, 248]",248,a,3.5133956580102677,colour,0.5
029,20,0,2,14,40,690,2109.7470273553045,2110.442690214404,"[84, 0, 170]",170,l,0.17222218064125627,colour,0.5
029,20,0,2,14,41,691,2112.441740653754,2113.0185709801444,"[13, 0, 241]",241,a,0.053311272742575966,colour,0.5
029,20,0,2,14,42,692,2115.0150563060743,2116.1865943777084,"[95, 0, 159]",159,l,0.6485503151052399,colour,0.5
029,20,0,2,14,43,693,2118.1906257766095,2118.898565576601,"[26, 0, 228]",228,a,0.18513911990157794,colour,0.5
029,20,0,2,14,44,694,2120.9091521341034,2121.7145780599094,"[46, 0, 208]",208,a,0.28196122279041447,colour,0.5
029,20,0,2,14,45,695,2123.710665602237,2124.3785864031233,"[91, 0, 163]",163,l,0.14506222556519788,colour,0.5
029,20,0,2,14,46,696,2126.3944406394585,2127.026605814972,"[78, 0, 176]",176,l,0.1095665379834827,colour,0.5
029,20,0,2,14,47,697,2129.0360222585587,2129.8826258758636,"[38, 0, 216]",216,a,0.3233815229177708,colour,0.5
029,20,0,2,14,48,698,2131.8967353782064,2132.4346140258567,"[41, 0, 213]",213,a,0.014912946440745145,colour,0.5
029,20,0,2,14,49,699,2134.4437878608296,2135.33051996617,"[9, 0, 245]",245,a,0.37057716824347153,colour,0.5
029,20,0,2,14,50,700,2137.3478141003725,2138.0747175441065,"[16, 0, 238]",238,a,0.21221045982383657,colour,0.5
029,20,0,2,15,1,701,2146.0923342374736,2146.69850484567,"[2, 0, 252]",252,a,0.08238413371145725,colour,0.5
029,20,0,2,15,2,702,2148.69952766152,2150.5224911178084,"[10, 0, 244]",244,a,1.3128851559449686,colour,0.5
029,20,0,2,15,3,703,2152.531017077519,2153.6665072906617,"[89, 0, 165]",165,l,0.6123744569340488,colour,0.5
029,20,0,2,15,4,704,2155.6891451157862,2156.3945450084284,"[96, 0, 158]",158,l,0.1823424255126156,colour,0.5
029,20,0,2,15,5,705,2158.40813778594,2159.0184894542035,"[25, 0, 229]",229,a,0.08639899113040883,colour,0.5
029,20,0,2,15,6,706,2161.0281713494187,2161.6105257478193,"[68, 0, 186]",186,l,0.059028722724178806,colour,0.5
029,20,0,2,15,7,707,2163.622072105951,2164.1704825666384,"[26, 0, 228]",228,a,0.025177338626235723,colour,0.5
029,20,0,2,15,8,708,2166.1857885705394,2166.946581601369,"[79, 0, 175]",175,l,0.23783087423362304,colour,0.5
029,20,0,2,15,9,709,2168.960305529312,2170.034431518012,"[18, 0, 236]",236,a,0.5510196847753832,colour,0.5
029,20,0,2,15,10,710,2172.0305391464353,2172.5944619858637,"[69, 0, 185]",185,l,0.041202897584298626,colour,0.5
029,20,0,2,15,11,711,2174.6089428841806,2175.274449414326,"[94, 0, 160]",160,l,0.14182757538219448,colour,0.5
029,20,0,2,15,12,712,2177.28106049895,2178.4264945143223,"[55, 0, 199]",199,l,0.6220858905289788,colour,0.5
029,20,0,2,15,13,713,2180.4404874385073,2181.0744891139184,"[99, 0, 155]",155,l,0.11118405997694936,colour,0.5
029,20,0,2,15,14,714,2183.08291976311,2183.7065192005393,"[3, 0, 251]",251,a,0.10043090596445836,colour,0.5
029,20,0,2,15,15,715,2185.7198457387276,2186.346445882329,"[22, 0, 232]",232,a,0.10330558169516735,colour,0.5
029,20,0,2,15,16,716,2188.362868437209,2188.994446783443,"[62, 0, 192]",192,l,0.12125586188631132,colour,0.5
029,20,0,2,15,17,717,2191.0017285863432,2191.642374035524,"[16, 0, 238]",238,a,0.12537784519372508,colour,0.5
029,20,0,2,15,18,718,2193.654483986058,2194.274445082032,"[81, 0, 173]",173,l,0.09406124842644203,colour,0.5
029,20,0,2,15,19,719,2196.2844700163696,2196.9223601249105,"[80, 0, 174]",174,l,0.11520876352733467,colour,0.5
029,20,0,2,15,20,720,2198.9435021261743,2199.5224572471197,"[13, 0, 241]",241,a,0.05560699610214215,colour,0.5
029,20,0,2,15,21,721,2201.534350582835,2202.3543661082076,"[4, 0, 250]",250,a,0.29774811161041725,colour,0.5
029,20,0,2,15,22,722,2204.352555602076,2205.634330536108,"[84, 0, 170]",170,l,0.7648819311289117,colour,0.5
029,20,0,2,15,23,723,2207.634079656753,2208.1783555310976,"[78, 0, 176]",176,l,0.019243667658884078,colour,0.5
029,20,0,2,15,24,724,2210.195760729621,2210.746364907769,"[14, 0, 240]",240,a,0.031951475131791085,colour,0.5
029,20,0,2,15,25,725,2212.7541843092913,2213.8903401207353,"[33, 0, 221]",221,a,0.6253000607830472,colour,0.5
029,20,0,2,15,26,726,2215.895089499347,2216.658350363854,"[36, 0, 218]",218,a,0.24094815856369678,colour,0.5
029,20,0,2,15,27,727,2218.677594819208,2219.2983168240025,"[34, 0, 220]",220,a,0.09789493707648944,colour,0.5
029,20,0,2,15,28,728,2221.3185647967766,2221.9623168964754,"[88, 0, 166]",166,l,0.12044808550854214,colour,0.5
029,20,0,2,15,29,729,2223.9707483333477,2224.570326367655,"[5, 0, 249]",249,a,0.07667534831853118,colour,0.5
029,20,0,2,15,30,730,2226.5745637475775,2227.1144561254478,"[24, 0, 230]",230,a,0.01747451526171062,colour,0.5
029,20,0,2,15,31,731,2229.111033611145,2229.6426843855006,"[23, 0, 231]",231,a,0.008228606631746516,colour,0.5
029,20,0,2,15,32,732,2231.6751360439666,2232.842368994301,"[58, 0, 196]",196,l,0.6438155087525956,colour,0.5
029,20,0,2,15,33,733,2234.8504447890155,2235.8182983605366,"[59, 0, 195]",195,l,0.447367913191556,colour,0.5
029,20,0,2,15,34,734,2237.8238807216403,2238.802252715468,"[52, 0, 202]",202,l,0.4678821253037313,colour,0.5
029,20,0,2,15,35,735,2240.8007927315048,2241.8662517639314,"[75, 0, 179]",179,l,0.5423708453745348,colour,0.5
029,20,0,2,15,36,736,2243.880868932669,2244.8422925883497,"[72, 0, 182]",182,l,0.43877815057931,colour,0.5
029,20,0,2,15,37,737,2246.842569855333,2247.7222316526313,"[50, 0, 204]",204,a,0.3563247001293348,colour,0.5
029,20,0,2,15,38,738,2249.7299317190627,2250.8662572777685,"[35, 0, 219]",219,a,0.6131991686706897,colour,0.5
029,20,0,2,15,39,739,2252.8882803106244,2253.8183117512817,"[49, 0, 205]",205,a,0.40699327194306534,colour,0.5
029,20,0,2,15,40,740,2255.826048839168,2256.962246398194,"[77, 0, 177]",177,l,0.6133456790703349,colour,0.5
029,20,0,2,15,41,741,2258.982826776264,2259.786292928635,"[38, 0, 216]",216,a,0.28027005174953956,colour,0.5
029,20,0,2,15,42,742,2261.785401263216,2262.5382189298543,"[91, 0, 163]",163,l,0.23996236415405292,colour,0.5
029,20,0,2,15,43,743,2264.558392072053,2267.250257476262,"[43, 0, 211]",211,a,2.1691312839393504,colour,0.5
029,20,0,2,15,44,744,2269.264949475575,2270.0341877278697,"[93, 0, 161]",161,l,0.2584884459647583,colour,0.5
029,20,0,2,15,45,745,2272.0529016738,2273.2102471417747,"[63, 0, 191]",191,l,0.6352777337015141,colour,0.5
029,20,0,2,15,46,746,2275.215141849243,2275.9702115224063,"[73, 0, 181]",181,l,0.24438288206874859,colour,0.5
029,20,0,2,15,47,747,2277.985249711608,2278.562193859252,"[20, 0, 234]",234,a,0.05377325312292669,colour,0.5
029,20,0,2,15,48,748,2280.5676505837328,2281.3541711548605,"[31, 0, 223]",223,a,0.26345247017161455,colour,0.5
029,20,0,2,15,49,749,2283.364949908806,2284.0501250655216,"[47, 0, 207]",207,a,0.16177661968686152,colour,0.5
029,20,0,2,15,50,750,2286.05877429877,2286.6341383396793,"[30, 0, 224]",224,a,0.052449145732680336,colour,0.5
029,20,0,2,16,1,751,2293.7786326405476,2294.578155221461,"[63, 0, 191]",191,l,0.2754655348107917,colour,0.5
029,20,0,2,16,2,752,2296.5935892250272,2297.1621153265296,"[97, 0, 157]",157,a,0.04611257118813228,colour,0.5
029,20,0,2,16,3,753,2299.1715735176986,2303.0341518879577,"[56, 0, 198]",198,l,3.3395516230521025,colour,0.5
029,20,0,2,16,4,754,2305.0439972289023,2305.914164601272,"[65, 0, 189]",189,l,0.35960936862102244,colour,0.5
029,20,0,2,16,5,755,2307.910312008069,2308.9941100458527,"[60, 0, 194]",194,l,0.5603313655592501,colour,0.5
029,20,0,2,16,6,756,2310.9976010892133,2311.698103911316,"[75, 0, 179]",179,l,0.17652651424577925,colour,0.5
029,20,0,2,16,7,757,2313.716633537726,2314.370092344878,"[87, 0, 167]",167,l,0.13073295763751958,colour,0.5
029,20,0,2,16,8,758,2316.3887594232365,2316.9541580004297,"[33, 0, 221]",221,a,0.041995707870228216,colour,0.5
029,20,0,2,16,9,759,2318.968689704765,2319.6580825491546,"[39, 0, 215]",215,a,0.16617744535324164,colour,0.5
029,20,0,2,16,10,760,2321.6736331308784,2322.386052131711,"[7, 0, 247]",247,a,0.18906693752796855,colour,0.5
029,20,0,2,16,11,761,2324.392716779257,2326.9940462429367,"[24, 0, 230]",230,a,2.078588254196802,colour,0.5
029,20,0,2,16,12,762,2329.0024780736567,2329.602095492475,"[43, 0, 211]",211,a,0.07649378570204135,colour,0.5
029,20,0,2,16,13,763,2331.6120424454857,2332.570010897689,"[5, 0, 249]",249,a,0.4344513677933719,colour,0.5
029,20,0,2,16,14,764,2334.5684938061895,2335.722054422309,"[15, 0, 239]",239,a,0.6304550998756895,colour,0.5
029,20,0,2,16,15,765,2337.740041723955,2338.530074606082,"[17, 0, 237]",237,a,0.26715658376633655,colour,0.5
029,20,0,2,16,16,766,2340.5372142308915,2341.1700166478404,"[95, 0, 159]",159,l,0.11037076976208482,colour,0.5
029,20,0,2,16,17,767,2343.1787304716854,2343.962025057219,"[14, 0, 240]",240,a,0.25995039915142115,colour,0.5
029,20,0,2,16,18,768,2345.975845083376,2346.842064552009,"[6, 0, 248]",248,a,0.343040303356247,colour,0.5
029,20,0,2,16,19,769,2348.844331918517,2349.81801321666,"[53, 0, 201]",201,l,0.4506974800606258,colour,0.5
029,20,0,2,16,20,770,2351.82378147266,2353.9059911329678,"[44, 0, 210]",210,a,1.5587055727810366,colour,0.5
029,20,0,2,16,21,771,2355.910641262599,2356.77002948719,"[1, 0, 253]",253,a,0.3364114957075799,colour,0.5
029,20,0,2,16,22,772,2358.777778390431,2359.497966380586,"[73, 0, 181]",181,l,0.21004549304780085,colour,0.5
029,20,0,2,16,23,773,2361.5083654678165,2362.305962145969,"[3, 0, 251]",251,a,0.2865790571231628,colour,0.5
029,20,0,2,16,24,774,2364.3252038444043,2365.4019504786993,"[11, 0, 243]",243,a,0.5534260786080267,colour,0.5
029,20,0,2,16,25,775,2367.402151733564,2368.1459082049405,"[98, 0, 156]",156,l,0.22069664117589127,colour,0.5
029,20,0,2,16,26,776,2370.152323942355,2370.9459006431134,"[2, 0, 252]",252,a,0.27832288134959526,colour,0.5
029,20,0,2,16,27,777,2372.950387720848,2373.617980448733,"[83, 0, 171]",171,l,0.14456598067772575,colour,0.5
029,20,0,2,16,28,778,2375.6288411224814,2376.345943335924,"[81, 0, 173]",173,l,0.2072279248823179,colour,0.5
029,20,0,2,16,29,779,2378.358829555247,2379.409917965997,"[52, 0, 202]",202,l,0.5274571112531703,colour,0.5
029,20,0,2,16,30,780,2381.416614121161,2382.1698658051464,"[92, 0, 162]",162,l,0.22877243589027785,colour,0.5
029,20,0,2,16,31,781,2384.1785957766406,2384.929886505648,"[4, 0, 250]",250,a,0.22611831345420796,colour,0.5
029,20,0,2,16,32,782,2386.936493257963,2387.777910328543,"[74, 0, 180]",180,l,0.31811148101405706,colour,0.5
029,20,0,2,16,33,783,2389.794182828424,2390.329913444657,"[21, 0, 233]",233,a,0.025406950342585333,colour,0.5
029,20,0,2,16,34,784,2392.3355568517436,2393.345856296146,"[19, 0, 235]",235,a,0.4871257929626154,colour,0.5
029,20,0,2,16,35,785,2395.3427193195675,2396.081905218016,"[62, 0, 192]",192,l,0.22268162071122788,colour,0.5
029,20,0,2,16,36,786,2398.09007277865,2398.6978782380465,"[80, 0, 174]",174,l,0.08461920490663033,colour,0.5
029,20,0,2,16,37,787,2400.715261381236,2401.393858142488,"[42, 0, 212]",212,a,0.15527344864676706,colour,0.5
029,20,0,2,16,38,788,2403.3913765242323,2404.057898781015,"[93, 0, 161]",161,l,0.14431943361705635,colour,0.5
029,20,0,2,16,39,789,2406.075786439833,2406.7938835061213,"[48, 0, 206]",206,a,0.19513136507885065,colour,0.5
029,20,0,2,16,40,790,2408.8042554180283,2409.449850319157,"[72, 0, 182]",182,a,0.12187616800656542,colour,0.5
029,20,0,2,16,41,791,2411.4507825506153,2412.0741031456855,"[45, 0, 209]",209,a,0.10077512662974186,colour,0.5
029,20,0,2,16,42,792,2414.0915729348053,2417.561813404842,"[31, 0, 223]",223,a,2.947259408872924,colour,0.5
029,20,0,2,16,43,793,2419.5776987549325,2420.8258117443766,"[86, 0, 168]",168,l,0.7254052568023326,colour,0.5
029,20,0,2,16,44,794,2422.8433236749406,2424.073982235219,"[0, 0, 254]",254,a,0.7075266564206686,colour,0.5
029,20,0,2,16,45,795,2426.091371286093,2426.617801249202,"[82, 0, 172]",172,l,0.003171634962200187,colour,0.5
029,20,0,2,16,46,796,2428.638576974481,2429.4177672997466,"[64, 0, 190]",190,l,0.25663146609440446,colour,0.5
029,20,0,2,16,47,797,2431.438183838254,2432.097773238929,"[29, 0, 225]",225,a,0.13901118874491658,colour,0.5
029,20,0,2,16,48,798,2434.098274603806,2434.7778236826125,"[90, 0, 164]",164,l,0.16437836072873324,colour,0.5
029,20,0,2,16,49,799,2436.7866292723775,2437.337802162918,"[10, 0, 244]",244,a,0.027909836237085983,colour,0.5
029,20,0,2,16,50,800,2439.342348317441,2440.0497650910693,"[78, 0, 176]",176,l,0.1846042781835422,colour,0.5
