id,age,condition,counterbalance,block,trialinblock,trial,tstart,tend,trialstim,trialintensity,response,RT,trialtype,colourfreq
26,20,0,2,Practice,1,NA,5.5138953030109406e-06,1.842653704341501,"[85, 0, 169]",169,l,1.3037078259512782,colour,0.5
26,20,0,2,Practice,2,NA,3.860581978689879,7.442662684246898,"[66, 0, 188]",188,l,3.0600308305583894,colour,0.5
26,20,0,2,Practice,3,NA,9.45467066206038,10.418639245443046,"[79, 0, 175]",175,l,0.44197148364037275,colour,0.5
26,20,0,2,Practice,4,NA,12.423639911226928,13.322644740343094,"[11, 0, 243]",243,a,0.3774413540959358,colour,0.5
26,20,0,2,Practice,5,NA,15.330526784993708,16.17865140736103,"[6, 0, 248]",248,a,0.32635201467201114,colour,0.5
26,20,0,2,Practice,6,NA,18.189734634477645,19.146645887289196,"[77, 0, 177]",177,l,0.4346423991955817,colour,0.5
26,20,0,2,Practice,7,NA,21.15874996362254,22.018664767034352,"[14, 0, 240]",240,a,0.33772983914241195,colour,0.5
26,20,0,2,Practice,8,NA,24.03410629602149,25.04266654374078,"[45, 0, 209]",209,a,0.4864784711971879,colour,0.5
26,20,0,2,Practice,9,NA,27.04992867447436,28.27467308798805,"[50, 0, 204]",204,a,0.7025551167316735,colour,0.5
26,20,0,2,Practice,10,NA,30.28455547755584,31.074646858032793,"[29, 0, 225]",225,a,0.26785364048555493,colour,0.5
26,20,0,2,1,1,1,5.923611160367727,6.8640545210801065,"[63, 0, 191]",191,l,0.4174057194031775,colour,0.5
26,20,0,2,1,2,2,8.877767065074295,9.823974759317935,"[51, 0, 203]",203,l,0.4239762560464442,colour,0.5
26,20,0,2,1,3,3,11.8311573327519,12.728008217178285,"[60, 0, 194]",194,l,0.37465883092954755,colour,0.5
26,20,0,2,1,4,4,14.737603886984289,15.631983779836446,"[89, 0, 165]",165,l,0.37233474431559443,colour,0.5
26,20,0,2,1,5,5,17.64411700051278,18.664014506153762,"[66, 0, 188]",188,l,0.49775113817304373,colour,0.5
26,20,0,2,1,6,6,20.675564046949148,21.52796544553712,"[71, 0, 183]",183,l,0.33012978825718164,colour,0.5
26,20,0,2,1,7,7,23.53519134223461,24.28001797525212,"[67, 0, 187]",187,l,0.22259480087086558,colour,0.5
26,20,0,2,1,8,8,26.285472351592034,27.199994328431785,"[18, 0, 236]",236,a,0.3923795479349792,colour,0.5
26,20,0,2,1,9,9,29.20747622521594,30.112011049874127,"[52, 0, 202]",202,l,0.38224430941045284,colour,0.5
26,20,0,2,1,10,10,32.12967584095895,32.93616658449173,"[16, 0, 238]",238,a,0.28442038828507066,colour,0.5
26,20,0,2,1,11,11,34.94231767486781,35.85600903024897,"[75, 0, 179]",179,l,0.39142368361353874,colour,0.5
26,20,0,2,1,12,12,37.86448499467224,38.887998008634895,"[48, 0, 206]",206,l,0.5013154465705156,colour,0.5
26,20,0,2,1,13,13,40.89598954236135,41.74397631874308,"[23, 0, 231]",231,a,0.32672577491030097,colour,0.5
26,20,0,2,1,14,14,43.755494351964444,44.511990648694336,"[38, 0, 216]",216,a,0.23428100626915693,colour,0.5
26,20,0,2,1,15,15,46.52137639792636,47.2800034028478,"[40, 0, 214]",214,a,0.2365661021322012,colour,0.5
26,20,0,2,1,16,16,49.28720291191712,50.040021078661084,"[97, 0, 157]",157,l,0.2306651039980352,colour,0.5
26,20,0,2,1,17,17,52.05307117337361,52.63997452612966,"[91, 0, 163]",163,l,0.06470578536391258,colour,0.5
26,20,0,2,1,18,18,54.647032644134015,55.20001795934513,"[77, 0, 177]",177,l,0.0307113416492939,colour,0.5
26,20,0,2,1,19,19,57.209684521425515,57.87202124251053,"[19, 0, 235]",235,a,0.13996901223435998,colour,0.5
26,20,0,2,1,20,20,59.88182604452595,60.7280574478209,"[36, 0, 218]",218,a,0.3239625496789813,colour,0.5
26,20,0,2,1,21,21,62.74146476155147,63.359990815632045,"[7, 0, 247]",247,a,0.09630840085446835,colour,0.5
26,20,0,2,1,22,22,65.36658222600818,65.89602026250213,"[6, 0, 248]",248,a,0.007123890332877636,colour,0.5
26,20,0,2,1,23,23,67.91373034613207,68.49600561149418,"[78, 0, 176]",176,l,0.06003949511796236,colour,0.5
26,20,0,2,1,24,24,70.50774341076612,71.12800868973136,"[26, 0, 228]",228,a,0.09801296703517437,colour,0.5
26,20,0,2,1,25,25,73.14856785675511,73.84002241771668,"[43, 0, 211]",211,a,0.1693235533311963,colour,0.5
26,20,0,2,1,26,26,75.85183780454099,76.71203145105392,"[56, 0, 198]",198,l,0.3380063190124929,colour,0.5
26,20,0,2,1,27,27,78.72701454302296,79.31200380297378,"[13, 0, 241]",241,a,0.062740886118263,colour,0.5
26,20,0,2,1,28,28,81.32108786609024,81.87998638860881,"[96, 0, 158]",158,l,0.036880155093967915,colour,0.5
26,20,0,2,1,29,29,83.89941954938695,88.80804052809253,"[10, 0, 244]",244,a,4.3863954483531415,colour,0.5
26,20,0,2,1,30,30,90.82178694335744,91.3600014494732,"[87, 0, 167]",167,l,0.016176446340978146,colour,0.5
26,20,0,2,1,31,31,93.36874444177374,94.14403271768242,"[46, 0, 208]",208,l,0.2529422282241285,colour,0.5
26,20,0,2,1,32,32,96.15029329713434,96.72001274488866,"[20, 0, 234]",234,a,0.047450200188905,colour,0.5
26,20,0,2,1,33,33,98.72868484491482,99.31999651854858,"[2, 0, 252]",252,a,0.06902903551235795,colour,0.5
26,20,0,2,1,34,34,101.33827177109197,101.94399939803407,"[47, 0, 207]",207,l,0.08374037314206362,colour,0.5
26,20,0,2,1,35,35,103.96340656513348,104.61602906882763,"[59, 0, 195]",195,l,0.13041115179657936,colour,0.5
26,20,0,2,1,36,36,106.63555123889819,107.25599335506558,"[5, 0, 249]",249,a,0.09826896712183952,colour,0.5
26,20,0,2,1,37,37,109.27627958683297,109.88002695469186,"[55, 0, 199]",199,l,0.08137847762554884,colour,0.5
26,20,0,2,1,38,38,111.88596300501376,112.8080212296918,"[92, 0, 162]",162,l,0.3998677460476756,colour,0.5
26,20,0,2,1,39,39,114.82370142964646,119.58404836105183,"[15, 0, 239]",239,a,4.238143456168473,colour,0.5
26,20,0,2,1,40,40,121.58995369169861,122.18402701476589,"[54, 0, 200]",200,l,0.0719305002130568,colour,0.5
26,20,0,2,1,41,41,124.19943191623315,124.72804523864761,"[70, 0, 184]",184,l,0.0064362348057329655,colour,0.5
26,20,0,2,1,42,42,126.74652489786968,127.39199003390968,"[50, 0, 204]",204,l,0.12330301478505135,colour,0.5
26,20,0,2,1,43,43,129.40297440532595,133.328001442831,"[81, 0, 173]",173,l,3.4028160790912807,colour,0.5
26,20,0,2,1,44,44,135.3409995501861,135.95200983667746,"[49, 0, 205]",205,l,0.08884580200538039,colour,0.5
26,20,0,2,1,45,45,137.96611622720957,140.60003733681515,"[93, 0, 161]",161,l,2.111700305249542,colour,0.5
26,20,0,2,1,46,46,142.6071817073971,143.58400346245617,"[1, 0, 253]",253,a,0.45451076002791524,colour,0.5
26,20,0,2,1,47,47,145.59182052267715,146.71202751249075,"[34, 0, 220]",220,l,0.5982630592770875,colour,0.5
26,20,0,2,1,48,48,148.73266859957948,149.72003795113415,"[37, 0, 217]",217,l,0.4651225530542433,colour,0.5
26,20,0,2,1,49,49,151.73287024907768,152.4320311988704,"[57, 0, 197]",197,l,0.1768842195160687,colour,0.5
26,20,0,2,1,50,50,154.4517947966233,155.41601504804567,"[24, 0, 230]",230,a,0.4418714470230043,colour,0.5
26,20,0,2,2,1,51,163.6236314829439,164.55202117934823,"[15, 0, 239]",239,a,0.4056230215355754,colour,0.5
26,20,0,2,2,2,52,166.56215799367055,167.28003530437127,"[55, 0, 199]",199,l,0.19567226013168693,colour,0.5
26,20,0,2,2,3,53,169.29677376896143,170.23201048281044,"[8, 0, 246]",246,a,0.4130501737818122,colour,0.5
26,20,0,2,2,4,54,172.25016758171842,173.12804649909958,"[35, 0, 219]",219,a,0.35566008230671287,colour,0.5
26,20,0,2,2,5,55,175.14095362788066,176.04802088346332,"[76, 0, 178]",178,l,0.384850783739239,colour,0.5
26,20,0,2,2,6,56,178.06305517535657,178.608017842751,"[66, 0, 188]",188,l,0.022777703125029802,colour,0.5
26,20,0,2,2,7,57,180.6258240249008,181.21598606090993,"[79, 0, 175]",175,l,0.06800188403576612,colour,0.5
26,20,0,2,2,8,58,183.23537077847868,183.8400074513629,"[83, 0, 171]",171,l,0.08234852086752653,colour,0.5
26,20,0,2,2,9,59,185.86066704941913,186.5120012825355,"[9, 0, 245]",245,a,0.12918274570256472,colour,0.5
26,20,0,2,2,10,60,188.51707520335913,189.13601006986573,"[31, 0, 223]",223,a,0.0966967330314219,colour,0.5
26,20,0,2,2,11,61,191.1422793143429,191.73602928966284,"[58, 0, 196]",196,l,0.07151932502165437,colour,0.5
26,20,0,2,2,12,62,193.75181307131425,196.02406715555117,"[25, 0, 229]",229,a,1.7500395816750824,colour,0.5
26,20,0,2,2,13,63,198.0335194650106,198.58401921670884,"[86, 0, 168]",168,l,0.028382135089486837,colour,0.5
26,20,0,2,2,14,64,200.59615361876786,201.8800635826774,"[87, 0, 167]",167,l,0.7616958548314869,colour,0.5
26,20,0,2,2,15,65,203.89334486518055,204.54400562075898,"[13, 0, 241]",241,a,0.1283544865436852,colour,0.5
26,20,0,2,2,16,66,206.54989519761875,207.09606460947543,"[22, 0, 232]",232,a,0.023972632363438606,colour,0.5
26,20,0,2,2,17,67,209.11260103154927,209.7200560681522,"[74, 0, 180]",180,l,0.08535159844905138,colour,0.5
26,20,0,2,2,18,68,211.73776930198073,212.264028606005,"[2, 0, 252]",252,a,0.004229908809065819,colour,0.5
26,20,0,2,2,19,69,214.28477760683745,217.03204608615488,"[1, 0, 253]",253,a,2.2249247948639095,colour,0.5
26,20,0,2,2,20,70,219.05083924671635,220.06401773588732,"[98, 0, 156]",156,l,0.49158547539263964,colour,0.5
26,20,0,2,2,21,71,222.08230165299028,222.96005375217646,"[26, 0, 228]",228,a,0.3554832455702126,colour,0.5
26,20,0,2,2,22,72,224.97318497952074,225.7440531188622,"[91, 0, 163]",163,l,0.2485886518843472,colour,0.5
26,20,0,2,2,23,73,227.7546460069716,228.60805919673294,"[28, 0, 226]",226,a,0.33132235473021865,colour,0.5
26,20,0,2,2,24,74,230.61431071767583,232.44002627721056,"[96, 0, 158]",158,l,1.3034829394891858,colour,0.5
26,20,0,2,2,25,75,234.4582979856059,235.6080458057113,"[41, 0, 213]",213,a,0.6275222897529602,colour,0.5
26,20,0,2,2,26,76,237.61486485973,238.56004067650065,"[77, 0, 177]",177,l,0.4229699787683785,colour,0.5
26,20,0,2,2,27,77,240.56821574270725,241.5280308239162,"[6, 0, 248]",248,a,0.43759979074820876,colour,0.5
26,20,0,2,2,28,78,243.5371739640832,244.45604045921937,"[90, 0, 164]",164,l,0.39675636123865843,colour,0.5
26,20,0,2,2,29,79,246.47491160128266,247.51205011922866,"[99, 0, 155]",155,l,0.5148227969184518,colour,0.5
26,20,0,2,2,30,80,249.52208453370258,250.28801699215546,"[61, 0, 193]",193,l,0.24394441721960902,colour,0.5
26,20,0,2,2,31,81,252.30349869374186,253.2480376609601,"[3, 0, 251]",251,a,0.42244695080444217,colour,0.5
26,20,0,2,2,32,82,255.25679561961442,256.36802842933685,"[11, 0, 243]",243,a,0.5888879434205592,colour,0.5
26,20,0,2,2,33,83,258.38211630890146,259.73602377576753,"[50, 0, 204]",204,l,0.8316370379179716,colour,0.5
26,20,0,2,2,34,84,261.7417176105082,262.63200504751876,"[27, 0, 227]",227,a,0.3678744356147945,colour,0.5
26,20,0,2,2,35,85,264.6483098878525,265.5680369362235,"[40, 0, 214]",214,a,0.39761415822431445,colour,0.5
26,20,0,2,2,36,86,267.5860049892217,268.63206648733467,"[97, 0, 157]",157,l,0.5239135553129017,colour,0.5
26,20,0,2,2,37,87,270.64872815227136,271.59209779044613,"[7, 0, 247]",247,a,0.42117640282958746,colour,0.5
26,20,0,2,2,38,88,273.6020888816565,274.33607765380293,"[72, 0, 182]",182,l,0.21220159251242876,colour,0.5
26,20,0,2,2,39,89,276.3523529553786,277.28002900257707,"[62, 0, 192]",192,l,0.40551156271249056,colour,0.5
26,20,0,2,2,40,90,279.2901091030799,280.30407055839896,"[47, 0, 207]",207,l,0.49172765389084816,colour,0.5
26,20,0,2,2,41,91,282.32151991548017,283.42402469879016,"[71, 0, 183]",183,l,0.580700668040663,colour,0.5
26,20,0,2,2,42,92,285.43115843553096,286.4320591618307,"[19, 0, 235]",235,a,0.4786933124996722,colour,0.5
26,20,0,2,2,43,93,288.44700208166614,289.4720696066506,"[68, 0, 186]",186,l,0.502933366689831,colour,0.5
26,20,0,2,2,44,94,291.4784644879401,292.35203906008974,"[14, 0, 240]",240,a,0.35129232751205564,colour,0.5
26,20,0,2,2,45,95,294.3692859802395,295.4640631065704,"[85, 0, 169]",169,l,0.5725126047618687,colour,0.5
26,20,0,2,2,46,96,297.4789567957632,298.36006446462125,"[45, 0, 209]",209,l,0.35884472308680415,colour,0.5
26,20,0,2,2,47,97,300.36978852795437,301.2640679902397,"[5, 0, 249]",249,a,0.37201139610260725,colour,0.5
26,20,0,2,2,48,98,303.27623744495213,304.18405261449516,"[30, 0, 224]",224,a,0.38546518329530954,colour,0.5
26,20,0,2,2,49,99,306.1984634483233,307.0720833125524,"[88, 0, 166]",166,l,0.35142978001385927,colour,0.5
26,20,0,2,2,50,100,309.0892983311787,309.95207206439227,"[60, 0, 194]",194,l,0.34072779631242156,colour,0.5
26,20,0,2,3,1,101,317.88606067886576,318.9040413349867,"[29, 0, 225]",225,l,0.4950517159886658,colour,0.5
26,20,0,2,3,2,102,320.91835488844663,321.9840523782186,"[65, 0, 189]",189,l,0.5434731408022344,colour,0.5
26,20,0,2,3,3,103,323.9967881841585,324.6080379290506,"[19, 0, 235]",235,a,0.08915890986099839,colour,0.5
26,20,0,2,3,4,104,326.62191352574155,327.5280410638079,"[78, 0, 176]",176,l,0.38407805701717734,colour,0.5
26,20,0,2,3,5,105,329.54402610100806,331.4240400586277,"[73, 0, 181]",181,l,1.3578305686824024,colour,0.5
26,20,0,2,3,6,106,333.43496023351327,334.40817829594016,"[64, 0, 190]",190,l,0.45104097528383136,colour,0.5
26,20,0,2,3,7,107,336.4195974734612,337.3040768597275,"[6, 0, 248]",248,a,0.36225543124601245,colour,0.5
26,20,0,2,3,8,108,339.3103957287967,340.0880376296118,"[86, 0, 168]",168,l,0.2558803213760257,colour,0.5
26,20,0,2,3,9,109,342.10751450713724,343.0880636232905,"[33, 0, 221]",221,a,0.45897146267816424,colour,0.5
26,20,0,2,3,10,110,345.1077602673322,345.9680322888307,"[38, 0, 216]",216,a,0.3387601403519511,colour,0.5
26,20,0,2,3,11,111,347.98296339344233,348.7360686743632,"[88, 0, 166]",166,l,0.2308458792977035,colour,0.5
26,20,0,2,3,12,112,350.74878006149083,351.56807474559173,"[37, 0, 217]",217,a,0.2970029874704778,colour,0.5
26,20,0,2,3,13,113,353.57722143037245,354.5360357486643,"[62, 0, 192]",192,l,0.4364225845783949,colour,0.5
26,20,0,2,3,14,114,356.54631513543427,357.3280778490007,"[42, 0, 212]",212,a,0.2595584508962929,colour,0.5
26,20,0,2,3,15,115,359.3433397845365,359.92808446567506,"[2, 0, 252]",252,a,0.062480160035192966,colour,0.5
26,20,0,2,3,16,116,361.93766083708033,362.49605956859887,"[7, 0, 247]",247,a,0.03659697948023677,colour,0.5
26,20,0,2,3,17,117,364.51569437840953,365.39205068629235,"[55, 0, 199]",199,l,0.3540082909166813,colour,0.5
26,20,0,2,3,18,118,367.40669349534437,368.32808178756386,"[71, 0, 183]",183,l,0.3992954879067838,colour,0.5
26,20,0,2,3,19,119,370.3443405479193,371.0240399800241,"[98, 0, 156]",156,l,0.1575317969545722,colour,0.5
26,20,0,2,3,20,120,373.03206853568554,373.936056307517,"[11, 0, 243]",243,a,0.3817980815656483,colour,0.5
26,20,0,2,3,21,121,375.9541677203961,376.8720791377127,"[91, 0, 163]",163,l,0.39583239797502756,colour,0.5
26,20,0,2,3,22,122,378.89189748000354,379.84006849769503,"[92, 0, 162]",162,l,0.4260313455015421,colour,0.5
26,20,0,2,3,23,123,381.84522433858365,382.6961145494133,"[31, 0, 223]",223,a,0.3287146985530853,colour,0.5
26,20,0,2,3,24,124,384.7047764095478,385.632081059739,"[47, 0, 207]",207,a,0.4052488673478365,colour,0.5
26,20,0,2,3,25,125,387.6425593388267,388.5040849731304,"[41, 0, 213]",213,a,0.3393776915036142,colour,0.5
26,20,0,2,3,26,126,390.5177033878863,391.4320587683469,"[0, 0, 254]",254,a,0.39203532645478845,colour,0.5
26,20,0,2,3,27,127,393.440024307929,394.44807019270957,"[20, 0, 234]",234,a,0.4858920341357589,colour,0.5
26,20,0,2,3,28,128,396.4557714620605,397.0720455031842,"[4, 0, 250]",250,a,0.09431514469906688,colour,0.5
26,20,0,2,3,29,129,399.08095824345946,399.64007771387696,"[93, 0, 161]",161,l,0.036876216530799866,colour,0.5
26,20,0,2,3,30,130,401.65929110813886,402.47206094209105,"[44, 0, 210]",210,a,0.29048877116292715,colour,0.5
26,20,0,2,3,31,131,404.4876249576919,405.0480732647702,"[83, 0, 171]",171,l,0.03838189039379358,colour,0.5
26,20,0,2,3,32,132,407.065968062263,409.83209783770144,"[72, 0, 182]",182,l,2.243878250941634,colour,0.5
26,20,0,2,3,33,133,411.847605926916,412.6800661031157,"[52, 0, 202]",202,l,0.3101980178616941,colour,0.5
26,20,0,2,3,34,134,414.69155341619626,415.4320441959426,"[35, 0, 219]",219,a,0.21822940930724144,colour,0.5
26,20,0,2,3,35,135,417.4417859823443,418.33604535833,"[54, 0, 200]",200,l,0.37196059012785554,colour,0.5
26,20,0,2,3,36,136,420.3482388379052,420.91207382874563,"[82, 0, 172]",172,l,0.04156022984534502,colour,0.5
26,20,0,2,3,37,137,422.92662447784096,423.77605666965246,"[77, 0, 177]",177,l,0.3272046921774745,colour,0.5
26,20,0,2,3,38,138,425.786215539556,426.3201359398663,"[70, 0, 184]",184,l,0.01167793432250619,colour,0.5
26,20,0,2,3,39,139,428.3332762257196,428.8960679178126,"[5, 0, 249]",249,a,0.040522444527596235,colour,0.5
26,20,0,2,3,40,140,430.9116453239694,431.7840899513103,"[36, 0, 218]",218,a,0.3502064934000373,colour,0.5
26,20,0,2,3,41,141,433.80246957344934,435.4400896867737,"[45, 0, 209]",209,l,1.1154623245820403,colour,0.5
26,20,0,2,3,42,142,437.45908331498504,438.40006112493575,"[56, 0, 198]",198,l,0.4187727593816817,colour,0.5
26,20,0,2,3,43,143,440.41234597656876,441.19207723159343,"[32, 0, 222]",222,a,0.258129577152431,colour,0.5
26,20,0,2,3,44,144,443.209461604245,444.81608877610415,"[97, 0, 157]",157,l,1.0843445337377489,colour,0.5
26,20,0,2,3,45,145,446.8347464534454,447.44808988505974,"[74, 0, 180]",180,l,0.0911190826445818,colour,0.5
26,20,0,2,3,46,146,449.4599355980754,450.02407857682556,"[60, 0, 194]",194,l,0.041868217289447784,colour,0.5
26,20,0,2,3,47,147,452.0382842165418,452.6800909154117,"[75, 0, 179]",179,l,0.1198678882792592,colour,0.5
26,20,0,2,3,48,148,454.69469630904496,455.36806623870507,"[30, 0, 224]",224,a,0.1514248177409172,colour,0.5
26,20,0,2,3,49,149,457.38244792772457,458.28804416768253,"[43, 0, 211]",211,a,0.38335653115063906,colour,0.5
26,20,0,2,3,50,150,460.3045510505326,461.04809256317094,"[21, 0, 233]",233,a,0.22143334802240133,colour,0.5
26,20,0,2,4,1,151,470.0388048812747,470.88827055040747,"[9, 0, 245]",245,a,0.3269364829175174,colour,0.5
26,20,0,2,4,2,152,472.8994290018454,473.5040640993975,"[31, 0, 223]",223,a,0.08250448387116194,colour,0.5
26,20,0,2,4,3,153,475.5088824140839,476.0321650276892,"[77, 0, 177]",177,l,0.0010255752131342888,colour,0.5
26,20,0,2,4,4,154,478.05610575852916,479.86410729633644,"[11, 0, 243]",243,a,1.2859170041047037,colour,0.5
26,20,0,2,4,5,155,481.88444354664534,482.78410255443305,"[32, 0, 222]",222,a,0.3774756188504398,colour,0.5
26,20,0,2,4,6,156,484.79097123257816,485.6560950460844,"[23, 0, 231]",231,a,0.3430085596628487,colour,0.5
26,20,0,2,4,7,157,487.6661853864789,488.4720983575098,"[26, 0, 228]",228,a,0.28368113888427615,colour,0.5
26,20,0,2,4,8,158,490.47886542370543,491.34407942788675,"[95, 0, 159]",159,l,0.34300816617906094,colour,0.5
26,20,0,2,4,9,159,493.3540378296748,494.192076837644,"[86, 0, 168]",168,l,0.3165503637865186,colour,0.5
26,20,0,2,4,10,160,496.19806408835575,497.00010003708303,"[19, 0, 235]",235,a,0.2798604369163513,colour,0.5
26,20,0,2,4,11,161,499.01077366340905,499.92005827324465,"[71, 0, 183]",183,l,0.38703426672145724,colour,0.5
26,20,0,2,4,12,162,501.93291302071884,502.76011180505157,"[84, 0, 170]",170,l,0.30505162943154573,colour,0.5
26,20,0,2,4,13,163,504.7768518454395,505.6080800704658,"[66, 0, 188]",188,l,0.30889832554385066,colour,0.5
26,20,0,2,4,14,164,507.62079421430826,508.44008141569793,"[24, 0, 230]",230,a,0.29710105527192354,colour,0.5
26,20,0,2,4,15,165,510.4493222301826,511.3121298337355,"[56, 0, 198]",198,l,0.3406840795651078,colour,0.5
26,20,0,2,4,16,166,513.3243544269353,514.1601276374422,"[99, 0, 155]",155,l,0.31346576008945704,colour,0.5
26,20,0,2,4,17,167,516.1683416948654,517.0000815261155,"[58, 0, 196]",196,l,0.3094792487099767,colour,0.5
26,20,0,2,4,18,168,519.0123998546042,519.8081259927712,"[30, 0, 224]",224,a,0.2734852475114167,colour,0.5
26,20,0,2,4,19,169,521.8251547226682,522.384120198898,"[33, 0, 221]",221,a,0.03676712140440941,colour,0.5
26,20,0,2,4,20,170,524.4034072426148,525.3121006889269,"[38, 0, 216]",216,a,0.3864659466780722,colour,0.5
26,20,0,2,4,21,171,527.3256107964553,528.1121000591666,"[5, 0, 249]",249,a,0.2643279293552041,colour,0.5
26,20,0,2,4,22,172,530.1226433226839,530.9760935339145,"[51, 0, 203]",203,l,0.3314775303006172,colour,0.5
26,20,0,2,4,23,173,532.9822339904495,533.8241051221266,"[17, 0, 237]",237,a,0.3204072997905314,colour,0.5
26,20,0,2,4,24,174,535.8418175689876,536.704103326425,"[49, 0, 205]",205,l,0.340008239261806,colour,0.5
26,20,0,2,4,25,175,538.7171451505274,539.5600859685801,"[94, 0, 160]",160,l,0.3208039030432701,colour,0.5
26,20,0,2,4,26,176,541.5766743780114,542.3040823736228,"[16, 0, 238]",238,a,0.20514662470668554,colour,0.5
26,20,0,2,4,27,177,544.3112582522444,545.0961158098653,"[22, 0, 232]",232,a,0.2632527290843427,colour,0.5
26,20,0,2,4,28,178,547.1083624581806,548.1520750573836,"[39, 0, 215]",215,a,0.5214307485148311,colour,0.5
26,20,0,2,4,29,179,550.1711301258765,550.712078712415,"[21, 0, 233]",233,a,0.018890440464019775,colour,0.5
26,20,0,2,4,30,180,552.7182203507982,554.2080697515048,"[0, 0, 254]",254,a,0.9677030332386494,colour,0.5
26,20,0,2,4,31,181,556.2184196365997,556.7681309082545,"[85, 0, 169]",169,l,0.027451082598417997,colour,0.5
26,20,0,2,4,32,182,558.7811439814977,559.4080814095214,"[87, 0, 167]",167,l,0.10467054368928075,colour,0.5
26,20,0,2,4,33,183,561.4219700032845,562.3040874935687,"[8, 0, 246]",246,a,0.3600593446753919,colour,0.5
26,20,0,2,4,34,184,564.3129124063998,565.1842479621992,"[53, 0, 201]",201,l,0.34972875798121095,colour,0.5
26,20,0,2,4,35,185,567.2037587109953,567.800115160644,"[93, 0, 161]",161,l,0.07426994713023305,colour,0.5
26,20,0,2,4,36,186,569.8133015264757,570.8321025636978,"[60, 0, 194]",194,l,0.4966144976206124,colour,0.5
26,20,0,2,4,37,187,572.8448076494969,573.4961190391332,"[90, 0, 164]",164,l,0.1291602961719036,colour,0.5
26,20,0,2,4,38,188,575.5012910277583,576.3600810063072,"[65, 0, 189]",189,l,0.33662116155028343,colour,0.5
26,20,0,2,4,39,189,578.3765744986013,580.6241001598537,"[25, 0, 229]",229,a,1.7253737798891962,colour,0.5
26,20,0,2,4,40,190,582.6425321632996,583.5441158977337,"[59, 0, 195]",195,l,0.37936056684702635,colour,0.5
26,20,0,2,4,41,191,585.5646018097177,586.6961220325902,"[67, 0, 187]",187,l,0.6093502249568701,colour,0.5
26,20,0,2,4,42,192,588.705465640407,589.2401000843383,"[69, 0, 185]",185,l,0.012775978073477745,colour,0.5
26,20,0,2,4,43,193,591.2525125420652,592.7361112097278,"[73, 0, 181]",181,l,0.9613550202921033,colour,0.5
26,20,0,2,4,44,194,594.7527968990617,595.6241025230847,"[44, 0, 210]",210,a,0.34914429066702724,colour,0.5
26,20,0,2,4,45,195,597.6436384776607,598.2480983133428,"[75, 0, 179]",179,l,0.08217956079170108,colour,0.5
26,20,0,2,4,46,196,600.2532250098884,601.3601164524443,"[43, 0, 211]",211,a,0.5846919058822095,colour,0.5
26,20,0,2,4,47,197,603.3784515699372,604.2401111116633,"[74, 0, 180]",180,l,0.3394418880343437,colour,0.5
26,20,0,2,4,48,198,606.2536799022928,607.5761166918091,"[78, 0, 176]",176,l,0.800208501983434,colour,0.5
26,20,0,2,4,49,199,609.5820858255029,610.42410937557,"[46, 0, 208]",208,a,0.3197661181911826,colour,0.5
26,20,0,2,4,50,200,612.4417312378064,613.1041471222416,"[12, 0, 242]",242,a,0.14026203379034996,colour,0.5
26,20,0,2,5,1,201,622.9574078931473,623.6001003519632,"[9, 0, 245]",245,a,0.11972649721428752,colour,0.5
26,20,0,2,5,2,202,625.6146399732679,626.5761545011774,"[48, 0, 206]",206,a,0.43925394490361214,colour,0.5
26,20,0,2,5,3,203,628.5836151302792,630.2161384792998,"[72, 0, 182]",182,l,1.1102911229245365,colour,0.5
26,20,0,2,5,4,204,632.2245002286509,633.184085697867,"[93, 0, 161]",161,l,0.43730913242325187,colour,0.5
26,20,0,2,5,5,205,635.1935068932362,635.9042071443982,"[53, 0, 201]",201,a,0.18591826455667615,colour,0.5
26,20,0,2,5,6,206,637.9124404997565,638.8240968515165,"[33, 0, 221]",221,a,0.38940364588052034,colour,0.5
26,20,0,2,5,7,207,640.8345672534779,641.576185614802,"[44, 0, 210]",210,a,0.21933847991749644,colour,0.5
26,20,0,2,5,8,208,643.5847568903118,644.1761686010286,"[31, 0, 223]",223,a,0.06915861088782549,colour,0.5
26,20,0,2,5,9,209,646.1943044322543,647.032131944783,"[18, 0, 236]",236,a,0.31556732347235084,colour,0.5
26,20,0,2,5,10,210,649.0383736197837,649.9040945041925,"[75, 0, 179]",179,l,0.34366352623328567,colour,0.5
26,20,0,2,5,11,211,651.9135633553378,652.8321112282574,"[70, 0, 184]",184,l,0.3963396716862917,colour,0.5
26,20,0,2,5,12,212,654.8512962660752,655.9681279938668,"[83, 0, 171]",171,l,0.5945175816304982,colour,0.5
26,20,0,2,5,13,213,657.9765303093009,658.8401094577275,"[1, 0, 253]",253,a,0.34127721190452576,colour,0.5
26,20,0,2,5,14,214,660.8517330414616,661.712147241924,"[41, 0, 213]",213,a,0.33810990070924163,colour,0.5
26,20,0,2,5,15,215,663.7269865800627,665.0641232864,"[96, 0, 158]",158,l,0.814915114082396,colour,0.5
26,20,0,2,5,16,216,667.0711365062743,667.8880913504399,"[79, 0, 175]",175,l,0.29495538119226694,colour,0.5
26,20,0,2,5,17,217,669.899441998452,670.4561479790136,"[67, 0, 187]",187,l,0.03458127425983548,colour,0.5
26,20,0,2,5,18,218,672.4621501956135,673.0161453322507,"[59, 0, 195]",195,l,0.03176409238949418,colour,0.5
26,20,0,2,5,19,219,675.0247693834826,675.8401011871174,"[58, 0, 196]",196,l,0.29305349802598357,colour,0.5
26,20,0,2,5,20,220,677.8531465558335,678.6401041015051,"[37, 0, 217]",217,a,0.26473674131557345,colour,0.5
26,20,0,2,5,21,221,680.6502980235964,681.344130627811,"[14, 0, 240]",240,a,0.1716354307718575,colour,0.5
26,20,0,2,5,22,222,683.3536491035484,686.1521183806472,"[40, 0, 214]",214,a,2.27642137138173,colour,0.5
26,20,0,2,5,23,223,688.1664658049121,688.8001139792614,"[8, 0, 246]",246,a,0.11147935735061765,colour,0.5
26,20,0,2,5,24,224,690.8072957652621,691.4561444343999,"[2, 0, 252]",252,a,0.1266270773485303,colour,0.5
26,20,0,2,5,25,225,693.4638374326751,696.0402069739066,"[34, 0, 220]",220,a,2.054199542850256,colour,0.5
26,20,0,2,5,26,226,698.057910756208,700.976220746059,"[77, 0, 177]",177,l,2.3961116350255907,colour,0.5
26,20,0,2,5,27,227,702.9957279497758,704.1121457451954,"[21, 0, 233]",233,a,0.594869286287576,colour,0.5
26,20,0,2,5,28,228,706.1210576975718,707.112142988015,"[7, 0, 247]",247,a,0.4689720058813691,colour,0.5
26,20,0,2,5,29,229,709.1212368975393,709.6641046968289,"[94, 0, 160]",160,l,0.020738760940730572,colour,0.5
26,20,0,2,5,30,230,711.6839332794771,712.5441151103005,"[69, 0, 185]",185,l,0.3379405466839671,colour,0.5
26,20,0,2,5,31,231,714.5592139931396,715.1281437790021,"[32, 0, 222]",222,a,0.046679049264639616,colour,0.5
26,20,0,2,5,32,232,717.1374932946637,717.6961366045289,"[12, 0, 242]",242,a,0.03643471468240023,colour,0.5
26,20,0,2,5,33,233,719.7158702700399,720.5601084181108,"[62, 0, 192]",192,l,0.3220145865343511,colour,0.5
26,20,0,2,5,34,234,722.575438094791,723.3761570216157,"[24, 0, 230]",230,a,0.278441802598536,colour,0.5
26,20,0,2,5,35,235,725.3882260457613,726.2081178007647,"[61, 0, 193]",193,l,0.2978737815283239,colour,0.5
26,20,0,2,5,36,236,728.2165468977764,729.0721207279712,"[3, 0, 251]",251,a,0.334065493196249,colour,0.5
26,20,0,2,5,37,237,731.0917842886411,731.9121411764063,"[27, 0, 227]",227,a,0.2981943725608289,colour,0.5
26,20,0,2,5,38,238,733.9201949383132,734.7361860400997,"[99, 0, 155]",155,l,0.2938234666362405,colour,0.5
26,20,0,2,5,39,239,736.7484362334944,737.5841113766655,"[13, 0, 241]",241,a,0.31343504041433334,colour,0.5
26,20,0,2,5,40,240,739.5923990826122,740.4161028759554,"[22, 0, 232]",232,a,0.3013916164636612,colour,0.5
26,20,0,2,5,41,241,742.4364615753293,743.320146179758,"[87, 0, 167]",167,l,0.3615551725961268,colour,0.5
26,20,0,2,5,42,242,745.3272212338634,746.1601264560595,"[63, 0, 191]",191,l,0.31060761818662286,colour,0.5
26,20,0,2,5,43,243,748.1712151966058,749.0161413936876,"[98, 0, 156]",156,l,0.32334342366084456,colour,0.5
26,20,0,2,5,44,244,751.0308767566457,751.6001342227682,"[80, 0, 174]",174,l,0.04711267398670316,colour,0.5
26,20,0,2,5,45,245,753.6092068646103,754.4641395127401,"[60, 0, 194]",194,l,0.3327654069289565,colour,0.5
26,20,0,2,5,46,246,756.4843572154641,757.2881178166717,"[71, 0, 183]",183,l,0.28146772319450974,colour,0.5
26,20,0,2,5,47,247,759.2970975106582,760.2001723470166,"[6, 0, 248]",248,a,0.38082567509263754,colour,0.5
26,20,0,2,5,48,248,762.2192475018091,763.2801408553496,"[51, 0, 203]",203,l,0.5393641432747245,colour,0.5
26,20,0,2,5,49,249,765.2976225079037,766.3281637076288,"[17, 0, 237]",237,a,0.5083408756181598,colour,0.5
26,20,0,2,5,50,250,768.3447718094103,769.1681357128546,"[56, 0, 198]",198,l,0.3011789391748607,colour,0.5
26,20,0,2,6,1,251,784.2201856435277,785.1121559850872,"[44, 0, 210]",210,l,0.3696573772467673,colour,0.5
26,20,0,2,6,2,252,787.1275128372945,787.9521579230204,"[50, 0, 204]",204,l,0.30243570264428854,colour,0.5
26,20,0,2,6,3,253,789.971475686878,790.7841336680576,"[52, 0, 202]",202,l,0.29061086336150765,colour,0.5
26,20,0,2,6,4,254,792.7997421883047,793.6321263522841,"[9, 0, 245]",245,a,0.3101763566955924,colour,0.5
26,20,0,2,6,5,255,795.643786563538,796.2001597438939,"[18, 0, 236]",236,a,0.034094874281436205,colour,0.5
26,20,0,2,6,6,256,798.2064187484793,800.6641413248144,"[5, 0, 249]",249,a,1.9356856984086335,colour,0.5
26,20,0,2,6,7,257,802.6755687729456,803.6401415169239,"[36, 0, 218]",218,a,0.44230152713134885,colour,0.5
26,20,0,2,6,8,258,805.6602540621534,806.2001806176268,"[22, 0, 232]",232,a,0.017786883283406496,colour,0.5
26,20,0,2,6,9,259,808.2072505513206,809.0881219129078,"[71, 0, 183]",183,l,0.3586544953286648,colour,0.5
26,20,0,2,6,10,260,811.0981094595045,811.9601892353967,"[60, 0, 194]",194,l,0.3398873284459114,colour,0.5
26,20,0,2,6,11,261,813.9733669362031,814.7921445006505,"[13, 0, 241]",241,a,0.2966378922574222,colour,0.5
26,20,0,2,6,12,262,816.8016125638969,817.6161417090334,"[58, 0, 196]",196,l,0.29221854358911514,colour,0.5
26,20,0,2,6,13,263,819.6300129732117,820.4801580267958,"[35, 0, 219]",219,a,0.3279246431775391,colour,0.5
26,20,0,2,6,14,264,822.4896737458184,823.4001422571018,"[15, 0, 239]",239,a,0.38847338082268834,colour,0.5
26,20,0,2,6,15,265,825.411751662381,826.3441333845258,"[69, 0, 185]",185,l,0.4102908866479993,colour,0.5
26,20,0,2,6,16,266,828.3494554287754,829.2641672398895,"[83, 0, 171]",171,l,0.39249415742233396,colour,0.5
26,20,0,2,6,17,267,831.2716282624751,832.0481358864345,"[76, 0, 178]",178,l,0.2544498718343675,colour,0.5
26,20,0,2,6,18,268,834.0686989920214,834.8641746439971,"[27, 0, 227]",227,a,0.2732824170961976,colour,0.5
26,20,0,2,6,19,269,836.8814034475945,837.6561742089689,"[0, 0, 254]",254,a,0.25256492337211967,colour,0.5
26,20,0,2,6,20,270,839.6628625057638,840.4641619622707,"[54, 0, 200]",200,l,0.27965878741815686,colour,0.5
26,20,0,2,6,21,271,842.4756004381925,843.2161530517042,"[1, 0, 253]",253,a,0.2183125107549131,colour,0.5
26,20,0,2,6,22,272,845.2257979521528,846.0401664078236,"[10, 0, 244]",244,a,0.2928026174195111,colour,0.5
26,20,0,2,6,23,273,848.05418300163,848.8961336901411,"[90, 0, 164]",164,l,0.31975548435002565,colour,0.5
26,20,0,2,6,24,274,850.9137504324317,851.8001628159545,"[96, 0, 158]",158,l,0.3641210808418691,colour,0.5
26,20,0,2,6,25,275,853.8202729984187,854.5762143656611,"[23, 0, 231]",231,a,0.23374183056876063,colour,0.5
26,20,0,2,6,26,276,856.5860573709942,857.448154869955,"[40, 0, 214]",214,a,0.3398782704025507,colour,0.5
26,20,0,2,6,27,277,859.4613506877795,860.016201258637,"[98, 0, 156]",156,l,0.032600621692836285,colour,0.5
26,20,0,2,6,28,278,862.0241219000891,862.6001306781545,"[66, 0, 188]",188,l,0.053758041467517614,colour,0.5
26,20,0,2,6,29,279,864.6179967247881,865.3201800505631,"[57, 0, 197]",197,l,0.1799093522131443,colour,0.5
26,20,0,2,6,30,280,867.3369858632796,868.2161703808233,"[45, 0, 209]",209,a,0.35701136849820614,colour,0.5
26,20,0,2,6,31,281,870.2277640323155,870.84818527475,"[74, 0, 180]",180,l,0.09809055458754301,colour,0.5
26,20,0,2,6,32,282,872.8687019064091,873.6321578598581,"[30, 0, 224]",224,a,0.24131431197747588,colour,0.5
26,20,0,2,6,33,283,875.6501121278852,876.4641485712491,"[91, 0, 163]",163,l,0.2917837374843657,colour,0.5
26,20,0,2,6,34,284,878.4785936698318,879.3521544570103,"[4, 0, 250]",250,a,0.35150815546512604,colour,0.5
26,20,0,2,6,35,285,881.3693883805536,882.2241851519793,"[63, 0, 191]",191,l,0.3326681270264089,colour,0.5
26,20,0,2,6,36,286,884.2445355802774,885.0561801954173,"[33, 0, 221]",221,a,0.2892832076177001,colour,0.5
26,20,0,2,6,37,287,887.0729804942384,887.872128368821,"[99, 0, 155]",155,l,0.2771803131327033,colour,0.5
26,20,0,2,6,38,288,889.885585306678,890.7281559095718,"[21, 0, 233]",233,a,0.3202954479493201,colour,0.5
26,20,0,2,6,39,289,892.7452043313533,893.560200184118,"[56, 0, 198]",198,l,0.2927695345133543,colour,0.5
26,20,0,2,6,40,290,895.5735488142818,896.5201645330526,"[48, 0, 206]",206,l,0.42437679739668965,colour,0.5
26,20,0,2,6,41,291,898.52689378988,899.080192212481,"[46, 0, 208]",208,l,0.03104532277211547,colour,0.5
26,20,0,2,6,42,292,901.0897394390777,901.6161582507193,"[88, 0, 166]",166,l,0.004481182433664799,colour,0.5
26,20,0,2,6,43,293,903.6367252944037,904.2561520752497,"[24, 0, 230]",230,a,0.09722251771017909,colour,0.5
26,20,0,2,6,44,294,906.2620050236583,906.8401689287275,"[73, 0, 181]",181,l,0.05607188818976283,colour,0.5
26,20,0,2,6,45,295,908.8558377069421,911.3521863585338,"[89, 0, 165]",165,l,1.974375182762742,colour,0.5
26,20,0,2,6,46,296,913.3719105715863,914.1841707685962,"[97, 0, 157]",157,l,0.29014651849865913,colour,0.5
26,20,0,2,6,47,297,916.2002885318361,916.840125605464,"[25, 0, 229]",229,a,0.11777459550648928,colour,0.5
26,20,0,2,6,48,298,918.8566868393682,919.8561953194439,"[42, 0, 212]",212,a,0.47732587857171893,colour,0.5
26,20,0,2,6,49,299,921.8725785347633,922.4481871649623,"[72, 0, 182]",182,l,0.05361980106681585,colour,0.5
26,20,0,2,6,50,300,924.4664943194948,925.3282145136036,"[82, 0, 172]",172,l,0.33944858331233263,colour,0.5
26,20,0,2,7,1,301,933.3258152026683,934.1361601250246,"[85, 0, 169]",169,l,0.2873612376861274,colour,0.5
26,20,0,2,7,2,302,936.1549717965536,936.7041742186993,"[28, 0, 226]",226,a,0.027130885515362024,colour,0.5
26,20,0,2,7,3,303,938.71758980304,939.320183201693,"[2, 0, 252]",252,a,0.08034069277346134,colour,0.5
26,20,0,2,7,4,304,941.3271783045493,942.2082005087286,"[86, 0, 168]",168,l,0.3588057323358953,colour,0.5
26,20,0,2,7,5,305,944.2180683258921,945.1921560009941,"[67, 0, 187]",187,l,0.4518408766016364,colour,0.5
26,20,0,2,7,6,306,947.2028367170133,947.9842083416879,"[16, 0, 238]",238,a,0.25916224205866456,colour,0.5
26,20,0,2,7,7,307,949.9998964183033,950.5441733994521,"[73, 0, 181]",181,l,0.022017973475158215,colour,0.5
26,20,0,2,7,8,308,952.5626089475118,953.392181837,"[53, 0, 201]",201,l,0.3072744971141219,colour,0.5
26,20,0,2,7,9,309,955.4065930647776,956.2801684243605,"[19, 0, 235]",235,a,0.3516983832232654,colour,0.5
26,20,0,2,7,10,310,958.2974594556727,959.0801780340262,"[76, 0, 178]",178,l,0.26122323889285326,colour,0.5
26,20,0,2,7,11,311,961.094527034089,961.9761931770481,"[68, 0, 186]",186,l,0.35935357259586453,colour,0.5
26,20,0,2,7,12,312,963.9853741261177,964.8721752362326,"[17, 0, 237]",237,a,0.3645239854231477,colour,0.5
26,20,0,2,7,13,313,966.8918608524837,967.7761901835911,"[79, 0, 175]",175,l,0.3620443297550082,colour,0.5
26,20,0,2,7,14,314,969.7827351200394,970.6721813017502,"[21, 0, 233]",233,a,0.36720095854252577,colour,0.5
26,20,0,2,7,15,315,972.6891694650985,973.5202023424208,"[75, 0, 179]",179,l,0.30900111934170127,colour,0.5
26,20,0,2,7,16,316,975.5331827267073,976.3442208184861,"[33, 0, 221]",221,a,0.28880310896784067,colour,0.5
26,20,0,2,7,17,317,978.3615260282531,979.200189282652,"[32, 0, 222]",222,a,0.31628845632076263,colour,0.5
26,20,0,2,7,18,318,981.2055377140641,982.07221446326,"[38, 0, 216]",216,a,0.34459733543917537,colour,0.5
26,20,0,2,7,19,319,984.0806471048854,985.8081858577207,"[95, 0, 159]",159,l,1.2051927051506937,colour,0.5
26,20,0,2,7,20,320,987.8154109665193,988.6561982338317,"[72, 0, 182]",182,l,0.318536136765033,colour,0.5
26,20,0,2,7,21,321,990.6749945450574,991.5602021533996,"[9, 0, 245]",245,a,0.36289976397529244,colour,0.5
26,20,0,2,7,22,322,993.5658774776384,994.4481725930236,"[64, 0, 190]",190,l,0.3601010926067829,colour,0.5
26,20,0,2,7,23,323,996.456798219122,997.2642003227957,"[77, 0, 177]",177,l,0.2854250902310014,colour,0.5
26,20,0,2,7,24,324,999.2694601393305,999.8082244545221,"[18, 0, 236]",236,a,0.016528150998055935,colour,0.5
26,20,0,2,7,25,325,1001.816500345245,1002.8161935391836,"[37, 0, 217]",217,a,0.47741606924682856,colour,0.5
26,20,0,2,7,26,326,1004.8324684468098,1005.5521873827092,"[25, 0, 229]",229,a,0.19754499895498157,colour,0.5
26,20,0,2,7,27,327,1007.5670976131223,1008.3681942387484,"[82, 0, 172]",172,l,0.27897625183686614,colour,0.5
26,20,0,2,7,28,328,1010.3797492934391,1013.4241972034797,"[15, 0, 239]",239,a,2.5222771242260933,colour,0.5
26,20,0,2,7,29,329,1015.4426079392433,1016.5682043209672,"[5, 0, 249]",249,a,0.6031948016025126,colour,0.5
26,20,0,2,7,30,330,1018.5835087918676,1019.4961820547469,"[34, 0, 220]",220,l,0.3904733322560787,colour,0.5
26,20,0,2,7,31,331,1021.50558158895,1022.3281806432642,"[81, 0, 173]",173,l,0.3004715917631984,colour,0.5
26,20,0,2,7,32,332,1024.3339619119652,1025.1922532808967,"[26, 0, 228]",228,a,0.33613239834085107,colour,0.5
26,20,0,2,7,33,333,1027.2092237211764,1028.0482048094273,"[57, 0, 197]",197,l,0.31677997624501586,colour,0.5
26,20,0,2,7,34,334,1030.068767127581,1030.8882032027468,"[92, 0, 162]",162,l,0.29716170812025666,colour,0.5
26,20,0,2,7,35,335,1032.8970635612495,1033.6961858356372,"[49, 0, 205]",205,l,0.27688374696299434,colour,0.5
26,20,0,2,7,36,336,1035.709911770653,1036.5362228257582,"[51, 0, 203]",203,l,0.304070558398962,colour,0.5
26,20,0,2,7,37,337,1038.553930546157,1039.3922003479674,"[58, 0, 196]",196,l,0.31615809304639697,colour,0.5
26,20,0,2,7,38,338,1041.3977472782135,1042.3521930538118,"[83, 0, 171]",171,l,0.43215210968628526,colour,0.5
26,20,0,2,7,39,339,1044.3668697336689,1045.2962113567628,"[43, 0, 211]",211,l,0.40717792650684714,colour,0.5
26,20,0,2,7,40,340,1047.3044868540019,1048.0482075666077,"[54, 0, 200]",200,l,0.22214621026068926,colour,0.5
26,20,0,2,7,41,341,1050.0547087863088,1050.8881846917793,"[14, 0, 240]",240,a,0.31126455357298255,colour,0.5
26,20,0,2,7,42,342,1052.898750798311,1053.7522033727728,"[40, 0, 214]",214,a,0.33124870527535677,colour,0.5
26,20,0,2,7,43,343,1055.75831704773,1056.6162177212536,"[10, 0, 244]",244,a,0.3356231553480029,colour,0.5
26,20,0,2,7,44,344,1058.6335280509666,1059.5921974335797,"[55, 0, 199]",199,l,0.4364202213473618,colour,0.5
26,20,0,2,7,45,345,1061.6025299895555,1062.3122275075875,"[61, 0, 193]",193,l,0.18744323682039976,colour,0.5
26,20,0,2,7,46,346,1064.3214817126282,1065.1122020650655,"[41, 0, 213]",213,l,0.26854641595855355,colour,0.5
26,20,0,2,7,47,347,1067.1186000970192,1067.8642033948563,"[44, 0, 210]",210,l,0.2234006100334227,colour,0.5
26,20,0,2,7,48,348,1069.8844238542952,1070.7921960945241,"[71, 0, 183]",183,l,0.38552583614364266,colour,0.5
26,20,0,2,7,49,349,1072.8066100790165,1073.6882242341526,"[56, 0, 198]",198,l,0.35967888962477446,colour,0.5
26,20,0,2,7,50,350,1075.697404395789,1076.360200341791,"[1, 0, 253]",253,a,0.14063776331022382,colour,0.5
26,20,0,2,8,1,351,1084.0409147157334,1085.1443730005994,"[11, 0, 243]",243,a,0.5811019972898066,colour,0.5
26,20,0,2,8,2,352,1087.15153509425,1087.9443577984348,"[32, 0, 222]",222,a,0.27113083517178893,colour,0.5
26,20,0,2,8,3,353,1089.9640292357653,1090.816275853198,"[8, 0, 246]",246,a,0.330642182379961,colour,0.5
26,20,0,2,8,4,354,1092.8237045807764,1093.68822817225,"[68, 0, 186]",186,l,0.3421803009696305,colour,0.5
26,20,0,2,8,5,355,1095.6992586236447,1096.5681968377903,"[27, 0, 227]",227,a,0.3469509603455663,colour,0.5
26,20,0,2,8,6,356,1098.5742459222674,1099.3922121631913,"[45, 0, 209]",209,l,0.2957300767302513,colour,0.5
26,20,0,2,8,7,357,1101.4025541716255,1102.3441971875727,"[66, 0, 188]",188,l,0.4193469868041575,colour,0.5
26,20,0,2,8,8,358,1104.3560086362995,1105.1602367330343,"[55, 0, 199]",199,l,0.28233576007187366,colour,0.5
26,20,0,2,8,9,359,1107.1686607101,1108.2322192210704,"[42, 0, 212]",212,a,0.5413530664518476,colour,0.5
26,20,0,2,8,10,360,1110.2470101164654,1111.0802375050262,"[96, 0, 158]",158,l,0.31098295375704765,colour,0.5
26,20,0,2,8,11,361,1113.0910265287384,1113.888204778079,"[86, 0, 168]",168,l,0.2749783187173307,colour,0.5
26,20,0,2,8,12,362,1115.9037053841166,1116.8001832962036,"[65, 0, 189]",189,l,0.37418148946017027,colour,0.5
26,20,0,2,8,13,363,1118.8102220427245,1119.5922234272584,"[56, 0, 198]",198,l,0.2597427712753415,colour,0.5
26,20,0,2,8,14,364,1121.6072648088448,1122.4402011451311,"[23, 0, 231]",231,a,0.31069111358374357,colour,0.5
26,20,0,2,8,15,365,1124.4512804336846,1125.3042265214026,"[89, 0, 165]",165,l,0.3306457265280187,colour,0.5
26,20,0,2,8,16,366,1127.3109486890025,1128.1601882898249,"[94, 0, 160]",160,l,0.3275520643219352,colour,0.5
26,20,0,2,8,17,367,1130.1704932767898,1131.0242164232768,"[80, 0, 174]",174,l,0.3315377882681787,colour,0.5
26,20,0,2,8,18,368,1133.0302178519778,1133.8482250529341,"[98, 0, 156]",156,l,0.29662292590364814,colour,0.5
26,20,0,2,8,19,369,1135.858470568899,1136.6482330877334,"[12, 0, 242]",242,a,0.2675488037057221,colour,0.5
26,20,0,2,8,20,370,1138.6554845846258,1139.4642249774188,"[49, 0, 205]",205,l,0.2865396747365594,colour,0.5
26,20,0,2,8,21,371,1141.4838826307096,1142.288187133614,"[48, 0, 206]",206,a,0.28204667707905173,colour,0.5
26,20,0,2,8,22,372,1144.2966162306257,1145.112213880755,"[20, 0, 234]",234,a,0.29336699936538935,colour,0.5
26,20,0,2,8,23,373,1147.1250178213231,1148.1362310177647,"[85, 0, 169]",169,l,0.4890262624248862,colour,0.5
26,20,0,2,8,24,374,1150.1564164245501,1150.7122299494222,"[72, 0, 182]",182,l,0.03381603118032217,colour,0.5
26,20,0,2,8,25,375,1152.7192026032135,1153.5202417271212,"[67, 0, 187]",187,l,0.2789408056996763,colour,0.5
26,20,0,2,8,26,376,1155.5319460495375,1156.3682355922647,"[3, 0, 251]",251,a,0.31404550140723586,colour,0.5
26,20,0,2,8,27,377,1158.3758210707456,1159.2162125227042,"[60, 0, 194]",194,l,0.31809030286967754,colour,0.5
26,20,0,2,8,28,378,1161.235440095421,1162.0562302139588,"[6, 0, 248]",248,a,0.29849251406267285,colour,0.5
26,20,0,2,8,29,379,1164.063794030808,1164.9202429875731,"[93, 0, 161]",161,l,0.3341513522900641,colour,0.5
26,20,0,2,8,30,380,1166.9391058585607,1167.8001840836369,"[41, 0, 213]",213,a,0.3390263803303242,colour,0.5
26,20,0,2,8,31,381,1169.814235729631,1170.4882326624356,"[29, 0, 225]",225,a,0.15167845459654927,colour,0.5
26,20,0,2,8,32,382,1172.502739594318,1173.3122405046597,"[61, 0, 193]",193,l,0.28805401362478733,colour,0.5
26,20,0,2,8,33,383,1175.3303180467337,1176.112215849571,"[71, 0, 183]",183,l,0.25958995847031474,colour,0.5
26,20,0,2,8,34,384,1178.1276278402656,1178.9042213228531,"[74, 0, 180]",180,l,0.25483741657808423,colour,0.5
26,20,0,2,8,35,385,1180.924559541978,1181.5922446949407,"[64, 0, 190]",190,l,0.14545332081615925,colour,0.5
26,20,0,2,8,36,386,1183.6122816218995,1184.3282251479104,"[33, 0, 221]",221,a,0.19378652470186353,colour,0.5
26,20,0,2,8,37,387,1186.3468682528473,1187.2002290608361,"[22, 0, 232]",232,a,0.33183553582057357,colour,0.5
26,20,0,2,8,38,388,1189.2063710927032,1190.0002099201083,"[43, 0, 211]",211,a,0.2717712288722396,colour,0.5
26,20,0,2,8,39,389,1192.0191507730633,1192.720202184748,"[34, 0, 220]",220,a,0.17879516119137406,colour,0.5
26,20,0,2,8,40,390,1194.738086742349,1195.552246459294,"[79, 0, 175]",175,l,0.29189637722447515,colour,0.5
26,20,0,2,8,41,391,1197.5664895144291,1198.3602661141194,"[21, 0, 233]",233,a,0.2715085335075855,colour,0.5
26,20,0,2,8,42,392,1200.3791758529842,1201.5603057350963,"[18, 0, 236]",236,a,0.6589165604673326,colour,0.5
26,20,0,2,8,43,393,1203.5669388929382,1204.3922184649855,"[9, 0, 245]",245,a,0.30299063213169575,colour,0.5
26,20,0,2,8,44,394,1206.410974998027,1207.3122598030604,"[83, 0, 171]",171,l,0.3790852683596313,colour,0.5
26,20,0,2,8,45,395,1209.3174270656891,1210.1282134898938,"[40, 0, 214]",214,a,0.2889972752891481,colour,0.5
26,20,0,2,8,46,396,1212.1458353516646,1212.9922120845877,"[69, 0, 185]",185,l,0.3242256394587457,colour,0.5
26,20,0,2,8,47,397,1215.0053803334013,1215.808236269746,"[30, 0, 224]",224,a,0.280728867277503,colour,0.5
26,20,0,2,8,48,398,1217.8180847889744,1218.6242309166119,"[28, 0, 226]",226,a,0.2838741233572364,colour,0.5
26,20,0,2,8,49,399,1220.6308869179338,1221.4882417209446,"[62, 0, 192]",192,l,0.3351903185248375,colour,0.5
26,20,0,2,8,50,400,1223.5060498719104,1224.33621746907,"[78, 0, 176]",176,l,0.30818073730915785,colour,0.5
26,20,0,2,9,1,401,1236.131260678172,1236.960255401209,"[92, 0, 162]",162,l,0.3059405400417745,colour,0.5
26,20,0,2,9,2,402,1238.9758907030337,1239.9522662307136,"[10, 0, 244]",244,a,0.4539424404501915,colour,0.5
26,20,0,2,9,3,403,1241.9606468845159,1242.9122337303124,"[46, 0, 208]",208,l,0.42938730912283063,colour,0.5
26,20,0,2,9,4,404,1244.929603137076,1245.760354808066,"[16, 0, 238]",238,a,0.3084851806052029,colour,0.5
26,20,0,2,9,5,405,1247.7736896537244,1248.6642196998,"[9, 0, 245]",245,a,0.36860305070877075,colour,0.5
26,20,0,2,9,6,406,1250.6800590138882,1251.544258076232,"[26, 0, 228]",228,a,0.3419266641139984,colour,0.5
26,20,0,2,9,7,407,1253.555286558345,1254.4322249712422,"[86, 0, 168]",168,l,0.3548176451586187,colour,0.5
26,20,0,2,9,8,408,1256.4461210477166,1256.9842252768576,"[83, 0, 171]",171,l,0.016016150824725628,colour,0.5
26,20,0,2,9,9,409,1258.9932203311473,1259.5602876180783,"[22, 0, 232]",232,a,0.044823245611041784,colour,0.5
26,20,0,2,9,10,410,1261.5715835215524,1262.376251150854,"[28, 0, 226]",226,a,0.2824810892343521,colour,0.5
26,20,0,2,9,11,411,1264.3843714725226,1265.3282294799574,"[90, 0, 164]",164,l,0.42177544301375747,colour,0.5
26,20,0,2,9,12,412,1267.3376644602977,1268.0802579848096,"[72, 0, 182]",182,l,0.2203868986107409,colour,0.5
26,20,0,2,9,13,413,1270.08785212785,1270.8722173781134,"[71, 0, 183]",183,l,0.26209363946691155,colour,0.5
26,20,0,2,9,14,414,1272.884894106537,1273.448266722262,"[61, 0, 193]",193,l,0.041073829866945744,colour,0.5
26,20,0,2,9,15,415,1275.4633396114223,1276.0482623111457,"[76, 0, 178]",178,l,0.06270740926265717,colour,0.5
26,20,0,2,9,16,416,1278.0572278266773,1278.9042547997087,"[2, 0, 252]",252,a,0.3248227103613317,colour,0.5
26,20,0,2,9,17,417,1280.9169157743454,1281.7282279832289,"[91, 0, 163]",163,l,0.28913787845522165,colour,0.5
26,20,0,2,9,18,418,1283.7451972421259,1284.5922454828396,"[0, 0, 254]",254,a,0.32475221157073975,colour,0.5
26,20,0,2,9,19,419,1286.604839503765,1287.6082734488882,"[55, 0, 199]",199,l,0.4812544947490096,colour,0.5
26,20,0,2,9,20,420,1289.620646128431,1290.456252742093,"[56, 0, 198]",198,l,0.3132747448980808,colour,0.5
26,20,0,2,9,21,421,1292.4646861716174,1293.3522221986204,"[63, 0, 191]",191,l,0.36535303201526403,colour,0.5
26,20,0,2,9,22,422,1295.37113784533,1296.576219485607,"[85, 0, 169]",169,l,0.6835725158452988,colour,0.5
26,20,0,2,9,23,423,1298.5901443129405,1299.4242645511404,"[24, 0, 230]",230,a,0.31212707655504346,colour,0.5
26,20,0,2,9,24,424,1301.4340677778237,1301.9762971522287,"[6, 0, 248]",248,a,0.01989829307422042,colour,0.5
26,20,0,2,9,25,425,1303.9967743991874,1304.9682685965672,"[95, 0, 159]",159,l,0.4491686299443245,colour,0.5
26,20,0,2,9,26,426,1306.9813915533014,1307.7522423635237,"[23, 0, 231]",231,a,0.24861425207927823,colour,0.5
26,20,0,2,9,27,427,1309.7629092950374,1310.552230705507,"[40, 0, 214]",214,a,0.26716165244579315,colour,0.5
26,20,0,2,9,28,428,1312.5600233473815,1313.3762397295795,"[19, 0, 235]",235,a,0.29397194739431143,colour,0.5
26,20,0,2,9,29,429,1315.3883599531837,1316.7522695390508,"[96, 0, 158]",158,l,0.8417344675399363,colour,0.5
26,20,0,2,9,30,430,1318.7635863167234,1319.7762272050604,"[60, 0, 194]",194,l,0.49036218877881765,colour,0.5
26,20,0,2,9,31,431,1321.7950412398204,1322.7122437339276,"[88, 0, 166]",166,l,0.39489661902189255,colour,0.5
26,20,0,2,9,32,432,1324.7171979257837,1325.4962801225483,"[11, 0, 243]",243,a,0.2568231890909374,colour,0.5
26,20,0,2,9,33,433,1327.5143269444816,1328.2482865718193,"[54, 0, 200]",200,l,0.2117612725123763,colour,0.5
26,20,0,2,9,34,434,1330.2645421815105,1331.0882447925396,"[67, 0, 187]",187,l,0.3015014990232885,colour,0.5
26,20,0,2,9,35,435,1333.1084821876138,1333.9122577551752,"[48, 0, 206]",206,l,0.28155240043997765,colour,0.5
26,20,0,2,9,36,436,1335.921305978205,1336.8082772297785,"[87, 0, 167]",167,l,0.3647634438239038,colour,0.5
26,20,0,2,9,37,437,1338.8277635597624,1339.4882543236017,"[53, 0, 201]",201,l,0.1382628702558577,colour,0.5
26,20,0,2,9,38,438,1341.4998144982383,1342.6162834935822,"[30, 0, 224]",224,a,0.5944474767893553,colour,0.5
26,20,0,2,9,39,439,1344.6250312123448,1345.6162767983042,"[41, 0, 213]",213,l,0.4689019015058875,colour,0.5
26,20,0,2,9,40,440,1347.62525688624,1348.8802317548543,"[66, 0, 188]",188,l,0.7326374859549105,colour,0.5
26,20,0,2,9,41,441,1350.8911968278699,1352.128251299262,"[39, 0, 215]",215,l,0.7148482394404709,colour,0.5
26,20,0,2,9,42,442,1354.1415097387508,1354.8642809824087,"[47, 0, 207]",207,l,0.20061896881088614,colour,0.5
26,20,0,2,9,43,443,1356.8759817602113,1357.9042796120048,"[75, 0, 179]",179,l,0.5060337241739035,colour,0.5
26,20,0,2,9,44,444,1359.9231712338515,1360.8002695483156,"[17, 0, 237]",237,a,0.3551114546135068,colour,0.5
26,20,0,2,9,45,445,1362.8139872127213,1363.6642299401574,"[18, 0, 236]",236,a,0.32798096304759383,colour,0.5
26,20,0,2,9,46,446,1365.6735916649923,1366.4802446728572,"[7, 0, 247]",247,a,0.28473388962447643,colour,0.5
26,20,0,2,9,47,447,1368.4863020279445,1369.4642336419784,"[98, 0, 156]",156,l,0.4556938740424812,colour,0.5
26,20,0,2,9,48,448,1371.470871526748,1372.6082616336644,"[68, 0, 186]",186,l,0.6149585950188339,colour,0.5
26,20,0,2,9,49,449,1374.6274407636374,1375.8643302130513,"[21, 0, 233]",233,a,0.7146442267112434,colour,0.5
26,20,0,2,9,50,450,1377.8776808129624,1378.7682758434676,"[3, 0, 251]",251,a,0.36830687848851085,colour,0.5
26,20,0,2,10,1,451,1396.722180868499,1398.4162667156197,"[54, 0, 200]",200,l,1.1713140518404543,colour,0.5
26,20,0,2,10,2,452,1400.4263739916496,1401.2162743564695,"[94, 0, 160]",160,l,0.26761615136638284,colour,0.5
26,20,0,2,10,3,453,1403.2234447207302,1404.0643091816455,"[95, 0, 159]",159,l,0.3188776010647416,colour,0.5
26,20,0,2,10,4,454,1406.083014514763,1407.344293680042,"[9, 0, 245]",245,a,0.7390512716956437,colour,0.5
26,20,0,2,10,5,455,1409.3646027548239,1410.4322403310798,"[92, 0, 162]",162,l,0.5454368581995368,colour,0.5
26,20,0,2,10,6,456,1412.4429281363264,1413.336349801626,"[41, 0, 213]",213,l,0.37116699013859034,colour,0.5
26,20,0,2,10,7,457,1415.3493699640967,1416.2242800686508,"[56, 0, 198]",198,l,0.35256602615118027,colour,0.5
26,20,0,2,10,8,458,1418.240289918147,1419.0882818144746,"[84, 0, 170]",170,l,0.3259975537657738,colour,0.5
26,20,0,2,10,9,459,1421.099868770223,1421.9042981225066,"[75, 0, 179]",179,l,0.2821975201368332,colour,0.5
26,20,0,2,10,10,460,1423.9126555398107,1424.7522833235562,"[36, 0, 218]",218,a,0.31750110862776637,colour,0.5
26,20,0,2,10,11,461,1426.7722572349012,1427.7522880495526,"[13, 0, 241]",241,a,0.4579569147899747,colour,0.5
26,20,0,2,10,12,462,1429.7724592783488,1430.7682821452618,"[57, 0, 197]",197,l,0.47387972427532077,colour,0.5
26,20,0,2,10,13,463,1432.7883143457584,1433.944283361081,"[10, 0, 244]",244,a,0.6337537243962288,colour,0.5
26,20,0,2,10,14,464,1435.9603798566386,1437.0322855450213,"[21, 0, 233]",233,a,0.5495785451494157,colour,0.5
26,20,0,2,10,15,465,1439.0388568690978,1440.3842962477356,"[38, 0, 216]",216,l,0.8233469682745636,colour,0.5
26,20,0,2,10,16,466,1442.3984526568092,1443.6163031859323,"[90, 0, 164]",164,l,0.695670684799552,colour,0.5
26,20,0,2,10,17,467,1445.6331566539593,1446.2402702257968,"[81, 0, 173]",173,l,0.08494475530460477,colour,0.5
26,20,0,2,10,18,468,1448.2582938107662,1449.136300334707,"[11, 0, 243]",243,a,0.35576327005401254,colour,0.5
26,20,0,2,10,19,469,1451.1491393279284,1452.2642542799003,"[93, 0, 161]",161,l,0.5927976556122303,colour,0.5
26,20,0,2,10,20,470,1454.2743930630386,1455.1363235712051,"[91, 0, 163]",163,l,0.33970418991521,colour,0.5
26,20,0,2,10,21,471,1457.1496458142065,1458.128296985291,"[82, 0, 172]",172,l,0.4564382438547909,colour,0.5
26,20,0,2,10,22,472,1460.134289355483,1461.0163016892038,"[76, 0, 178]",178,l,0.3597907414659858,colour,0.5
26,20,0,2,10,23,473,1463.02513762936,1463.8642967361957,"[7, 0, 247]",247,a,0.3169410591945052,colour,0.5
26,20,0,2,10,24,474,1465.8847889495082,1466.6642917739227,"[28, 0, 226]",226,a,0.25734700448811054,colour,0.5
26,20,0,2,10,25,475,1468.6818443187512,1469.4402755820192,"[39, 0, 215]",215,a,0.23626520344987512,colour,0.5
26,20,0,2,10,26,476,1471.4476562603377,1472.1283158897422,"[27, 0, 227]",227,a,0.15851444331929088,colour,0.5
26,20,0,2,10,27,477,1474.1354535650462,1474.9682945907116,"[66, 0, 188]",188,l,0.3106080121360719,colour,0.5
26,20,0,2,10,28,478,1476.979427835904,1477.8482561670244,"[67, 0, 187]",187,l,0.34675876377150416,colour,0.5
26,20,0,2,10,29,479,1479.8547928328626,1480.7842852990143,"[49, 0, 205]",205,l,0.4074930031783879,colour,0.5
26,20,0,2,10,30,480,1482.792301251553,1483.6082848706283,"[69, 0, 185]",185,l,0.29372736858204007,colour,0.5
26,20,0,2,10,31,481,1485.6207146574743,1486.6002779765986,"[26, 0, 228]",228,a,0.4573811115697026,colour,0.5
26,20,0,2,10,32,482,1488.6208643191494,1489.3122499566525,"[53, 0, 201]",201,l,0.1691077253781259,colour,0.5
26,20,0,2,10,33,483,1491.3241492328234,1492.1042778789997,"[80, 0, 174]",174,l,0.25767468474805355,colour,0.5
26,20,0,2,10,34,484,1494.1213495377451,1494.8962979242206,"[3, 0, 251]",251,a,0.2527846898883581,colour,0.5
26,20,0,2,10,35,485,1496.9027507007122,1497.7363038002513,"[19, 0, 235]",235,a,0.3113366272300482,colour,0.5
26,20,0,2,10,36,486,1499.7467576609924,1500.5282966699451,"[44, 0, 210]",210,l,0.25932096177712083,colour,0.5
26,20,0,2,10,37,487,1502.5438917991705,1503.208284791559,"[31, 0, 223]",223,a,0.1421257141046226,colour,0.5
26,20,0,2,10,38,488,1505.215987636242,1506.0003048367798,"[30, 0, 224]",224,a,0.26208339910954237,colour,0.5
26,20,0,2,10,39,489,1508.0130890854634,1509.016292237211,"[71, 0, 183]",183,l,0.4810658427886665,colour,0.5
26,20,0,2,10,40,490,1511.0289020119235,1512.0882936296985,"[2, 0, 252]",252,a,0.5370881059207022,colour,0.5
26,20,0,2,10,41,491,1514.1072537810542,1514.872305599507,"[37, 0, 217]",217,a,0.24306653393432498,colour,0.5
26,20,0,2,10,42,492,1516.888817996718,1517.816320751328,"[58, 0, 196]",196,l,0.40540207363665104,colour,0.5
26,20,0,2,10,43,493,1519.8264981317334,1520.7442461033352,"[97, 0, 157]",157,l,0.3955039302818477,colour,0.5
26,20,0,2,10,44,494,1522.76420347346,1523.3362899371423,"[96, 0, 158]",158,l,0.04983139457181096,colour,0.5
26,20,0,2,10,45,495,1525.3425469719805,1525.9123034412041,"[78, 0, 176]",176,l,0.04751479113474488,colour,0.5
26,20,0,2,10,46,496,1527.9208684153855,1528.8563118977472,"[34, 0, 220]",220,a,0.4132447335869074,colour,0.5
26,20,0,2,10,47,497,1530.8742177230306,1531.456277554389,"[51, 0, 203]",203,l,0.06013716850429773,colour,0.5
26,20,0,2,10,48,498,1533.4681894336827,1534.0162859354168,"[16, 0, 238]",238,a,0.025871758814901114,colour,0.5
26,20,0,2,10,49,499,1536.030935046263,1536.888293393422,"[43, 0, 211]",211,l,0.3351651122793555,colour,0.5
26,20,0,2,10,50,500,1538.9061519568786,1539.5602994333021,"[14, 0, 240]",240,a,0.13198614260181785,colour,0.5
26,20,0,2,11,1,501,1546.9372402089648,1548.0882845711894,"[71, 0, 183]",183,l,0.6279984498396516,colour,0.5
26,20,0,2,11,2,502,1550.0945660248399,1550.8643054007553,"[0, 0, 254]",254,a,0.24753708252683282,colour,0.5
26,20,0,2,11,3,503,1552.8759833355434,1553.512317147106,"[8, 0, 246]",246,a,0.1140279364772141,colour,0.5
26,20,0,2,11,4,504,1555.532413544599,1556.5602899808437,"[56, 0, 198]",198,l,0.5056969854049385,colour,0.5
26,20,0,2,11,5,505,1558.5795652093366,1559.4723181235604,"[65, 0, 189]",189,l,0.3704856359399855,colour,0.5
26,20,0,2,11,6,506,1561.4860302740708,1562.672316391021,"[25, 0, 229]",229,a,0.6639967830851674,colour,0.5
26,20,0,2,11,7,507,1564.6894502774812,1565.5123167531565,"[29, 0, 225]",225,a,0.3009753208607435,colour,0.5
26,20,0,2,11,8,508,1567.5177923971787,1568.3123224247247,"[23, 0, 231]",231,a,0.2722143060527742,colour,0.5
26,20,0,2,11,9,509,1570.330491732806,1571.2083178749308,"[45, 0, 209]",209,l,0.3555647716857493,colour,0.5
26,20,0,2,11,10,510,1573.2214227141812,1574.0242904662155,"[52, 0, 202]",202,l,0.2806418272666633,colour,0.5
26,20,0,2,11,11,511,1576.0341480434872,1576.6883093048818,"[58, 0, 196]",196,l,0.13196881394833326,colour,0.5
26,20,0,2,11,12,512,1578.7061233636923,1579.728297300171,"[35, 0, 219]",219,l,0.5000492306426167,colour,0.5
26,20,0,2,11,13,513,1581.7376925023273,1582.6002929429524,"[41, 0, 213]",213,a,0.34034812869504094,colour,0.5
26,20,0,2,11,14,514,1584.6127932281233,1585.5762738366611,"[47, 0, 207]",207,l,0.4411723702214658,colour,0.5
26,20,0,2,11,15,515,1587.5819042623043,1588.7123162019998,"[67, 0, 187]",187,l,0.6081785322166979,colour,0.5
26,20,0,2,11,16,516,1590.722818899434,1591.95231900597,"[79, 0, 175]",175,l,0.7074703178368509,colour,0.5
26,20,0,2,11,17,517,1593.9573472407646,1594.8322742809542,"[94, 0, 160]",160,l,0.3529386050067842,colour,0.5
26,20,0,2,11,18,518,1596.848240019288,1598.136301910039,"[43, 0, 211]",211,l,0.7657871292904019,colour,0.5
26,20,0,2,11,19,519,1600.1453182315454,1601.3283153385855,"[38, 0, 216]",216,l,0.6610472686588764,colour,0.5
26,20,0,2,11,20,520,1603.3487236625515,1604.6002905797213,"[31, 0, 223]",223,a,0.7292972761206329,colour,0.5
26,20,0,2,11,21,521,1606.6146273701452,1607.600296487566,"[90, 0, 164]",164,l,0.4633876606822014,colour,0.5
26,20,0,2,11,22,522,1609.6148471366614,1610.744303999003,"[6, 0, 248]",248,a,0.6071190857328475,colour,0.5
26,20,0,2,11,23,523,1612.755779496394,1614.5042830775492,"[18, 0, 236]",236,a,1.2263769060373306,colour,0.5
26,20,0,2,11,24,524,1616.5216914750636,1617.3843277557753,"[87, 0, 167]",167,l,0.34041153779253364,colour,0.5
26,20,0,2,11,25,525,1619.3969048410654,1620.4243224468082,"[86, 0, 168]",168,l,0.5051578106358647,colour,0.5
26,20,0,2,11,26,526,1622.4441400012001,1623.3122854027897,"[13, 0, 241]",241,a,0.34669692954048514,colour,0.5
26,20,0,2,11,27,527,1625.319281293545,1626.3363123862073,"[50, 0, 204]",204,l,0.4953368604183197,colour,0.5
26,20,0,2,11,28,528,1628.3507968690246,1629.4882972529158,"[40, 0, 214]",214,l,0.6153087238781154,colour,0.5
26,20,0,2,11,29,529,1631.5072822165675,1632.4403169360012,"[57, 0, 197]",197,l,0.41103486251085997,colour,0.5
26,20,0,2,11,30,530,1634.4605968659744,1635.3682919126004,"[26, 0, 228]",228,a,0.3854384021833539,colour,0.5
26,20,0,2,11,31,531,1637.3827452813275,1638.2483279258013,"[93, 0, 161]",161,l,0.34341697860509157,colour,0.5
26,20,0,2,11,32,532,1640.2579141431488,1640.960323930718,"[99, 0, 155]",155,l,0.18018701393157244,colour,0.5
26,20,0,2,11,33,533,1642.9769080076367,1644.008309761528,"[83, 0, 171]",171,l,0.5091080879792571,colour,0.5
26,20,0,2,11,34,534,1646.0240124110132,1647.0163190187886,"[81, 0, 173]",173,l,0.47035519452765584,colour,0.5
26,20,0,2,11,35,535,1649.0242755003273,1649.9043288426474,"[1, 0, 253]",253,a,0.3580877506174147,colour,0.5
26,20,0,2,11,36,536,1651.9150863587856,1652.6803039861843,"[24, 0, 230]",230,a,0.24297043541446328,colour,0.5
26,20,0,2,11,37,537,1654.6965773184784,1655.6803063494153,"[55, 0, 199]",199,l,0.46154524805024266,colour,0.5
26,20,0,2,11,38,538,1657.6968451342545,1658.5362878101878,"[84, 0, 170]",170,l,0.3172600748948753,colour,0.5
26,20,0,2,11,39,539,1660.5564224109985,1661.3923378004692,"[42, 0, 212]",212,l,0.3141183634288609,colour,0.5
26,20,0,2,11,40,540,1663.4004037710838,1664.272331672255,"[11, 0, 243]",243,a,0.34994576778262854,colour,0.5
26,20,0,2,11,41,541,1666.2913028514013,1666.8723477409221,"[3, 0, 251]",251,a,0.05891270097345114,colour,0.5
26,20,0,2,11,42,542,1668.8852383280173,1669.704312064685,"[88, 0, 166]",166,l,0.29681591084226966,colour,0.5
26,20,0,2,11,43,543,1671.713618651498,1672.824301651679,"[97, 0, 157]",157,l,0.5884196604602039,colour,0.5
26,20,0,2,11,44,544,1674.8388621467166,1675.6163335121237,"[54, 0, 200]",200,l,0.2553068809211254,colour,0.5
26,20,0,2,11,45,545,1677.6358942789957,1678.520342945587,"[74, 0, 180]",180,l,0.3622278622351587,colour,0.5
26,20,0,2,11,46,546,1680.5267783929594,1681.5683248378336,"[17, 0, 237]",237,a,0.5192673513665795,colour,0.5
26,20,0,2,11,47,547,1683.5739513253793,1684.8883308088407,"[49, 0, 205]",205,l,0.7924556392244995,colour,0.5
26,20,0,2,11,48,548,1686.902274934575,1687.7363156159408,"[72, 0, 182]",182,l,0.3118301169015467,colour,0.5
26,20,0,2,11,49,549,1689.7462720484473,1690.568316173274,"[19, 0, 235]",235,a,0.2998201698064804,colour,0.5
26,20,0,2,11,50,550,1692.574637799058,1693.5763077074662,"[59, 0, 195]",195,l,0.47958183009177446,colour,0.5
26,20,0,2,12,1,551,1701.0901722763665,1702.3444102583453,"[22, 0, 232]",232,a,0.7315225070342422,colour,0.5
26,20,0,2,12,2,552,1704.3568298057653,1705.3763586711138,"[95, 0, 159]",159,l,0.4975605164654553,colour,0.5
26,20,0,2,12,3,553,1707.3883615289815,1708.2963176951744,"[34, 0, 220]",220,l,0.38581334380432963,colour,0.5
26,20,0,2,12,4,554,1710.3104114825837,1711.1843495746143,"[6, 0, 248]",248,a,0.35219659842550755,colour,0.5
26,20,0,2,12,5,555,1713.2013121382333,1714.176327320747,"[65, 0, 189]",189,l,0.4528290368616581,colour,0.5
26,20,0,2,12,6,556,1716.1858190149069,1716.7843601298518,"[17, 0, 237]",237,a,0.07629943639039993,colour,0.5
26,20,0,2,12,7,557,1718.7954110610299,1719.8882965440862,"[68, 0, 186]",186,l,0.5705863032490015,colour,0.5
26,20,0,2,12,8,558,1721.9050724245608,1722.936340270564,"[78, 0, 176]",176,l,0.5089379465207458,colour,0.5
26,20,0,2,12,9,559,1724.9522658367641,1725.8163471394219,"[39, 0, 215]",215,l,0.3419085475616157,colour,0.5
26,20,0,2,12,10,560,1727.8273504152894,1728.8003357145935,"[12, 0, 242]",242,a,0.45071211364120245,colour,0.5
26,20,0,2,12,11,561,1730.8119486644864,1731.5843260227703,"[0, 0, 254]",254,a,0.24996514478698373,colour,0.5
26,20,0,2,12,12,562,1733.5934707382694,1734.4323293403722,"[85, 0, 169]",169,l,0.31652909610420465,colour,0.5
26,20,0,2,12,13,563,1736.4374422524124,1737.2643354120664,"[49, 0, 205]",205,l,0.30466802325099707,colour,0.5
26,20,0,2,12,14,564,1739.2814637846313,1740.0243499372154,"[9, 0, 245]",245,a,0.22062832675874233,colour,0.5
26,20,0,2,12,15,565,1742.0316707510501,1742.800357769709,"[71, 0, 183]",183,l,0.24646424548700452,colour,0.5
26,20,0,2,12,16,566,1744.8131144493818,1745.568367373664,"[69, 0, 185]",185,l,0.2330738678574562,colour,0.5
26,20,0,2,12,17,567,1747.5789031540044,1748.3843285432085,"[40, 0, 214]",214,l,0.2830624063499272,colour,0.5
26,20,0,2,12,18,568,1750.3916718061082,1751.288361607585,"[3, 0, 251]",251,a,0.3744264612905681,colour,0.5
26,20,0,2,12,19,569,1753.298141203355,1754.0323170525953,"[21, 0, 233]",233,a,0.21189951244741678,colour,0.5
26,20,0,2,12,20,570,1756.0484064589255,1756.9283455857076,"[55, 0, 199]",199,l,0.3577214735560119,colour,0.5
26,20,0,2,12,21,571,1758.9392807264812,1759.720333729405,"[45, 0, 209]",209,l,0.25893656769767404,colour,0.5
26,20,0,2,12,22,572,1761.736501117237,1762.5203212839551,"[87, 0, 167]",167,l,0.26171633461490273,colour,0.5
26,20,0,2,12,23,573,1764.5334722036496,1765.3363281399943,"[93, 0, 161]",161,l,0.28064143378287554,colour,0.5
26,20,0,2,12,24,574,1767.346193200443,1767.9523308211938,"[19, 0, 235]",235,a,0.08390775788575411,colour,0.5
26,20,0,2,12,25,575,1769.9713768311776,1770.7843298036605,"[81, 0, 173]",173,l,0.2907179896719754,colour,0.5
26,20,0,2,12,26,576,1772.7998012653552,1773.568359890487,"[63, 0, 191]",191,l,0.2463378207758069,colour,0.5
26,20,0,2,12,27,577,1775.5812221206725,1776.3843253925443,"[94, 0, 160]",160,l,0.28084820276126266,colour,0.5
26,20,0,2,12,28,578,1778.3939415421337,1779.1683814730495,"[70, 0, 184]",184,l,0.252186831086874,colour,0.5
26,20,0,2,12,29,579,1781.1754293516278,1781.7363853263669,"[80, 0, 174]",174,l,0.038816696498543024,colour,0.5
26,20,0,2,12,30,580,1783.753683840856,1784.4563208776526,"[44, 0, 210]",210,a,0.18034022022038698,colour,0.5
26,20,0,2,12,31,581,1786.4727147268131,1787.6243321350776,"[51, 0, 203]",203,l,0.6294639515690506,colour,0.5
26,20,0,2,12,32,582,1789.6448448286392,1790.312354719732,"[26, 0, 228]",228,a,0.1452516713179648,colour,0.5
26,20,0,2,12,33,583,1792.3325034994632,1793.2003145255148,"[91, 0, 163]",163,l,0.34549609245732427,colour,0.5
26,20,0,2,12,34,584,1795.2077397084795,1795.9843446123414,"[11, 0, 243]",243,a,0.25463813031092286,colour,0.5
26,20,0,2,12,35,585,1798.0048513980582,1798.6723415968008,"[20, 0, 234]",234,a,0.14525679126381874,colour,0.5
26,20,0,2,12,36,586,1800.6925144009292,1801.2243367824703,"[67, 0, 187]",187,l,0.009544075466692448,colour,0.5
26,20,0,2,12,37,587,1803.2396621271037,1803.8883221442811,"[53, 0, 201]",201,l,0.12659478187561035,colour,0.5
26,20,0,2,12,38,588,1805.8960950933397,1806.592343550641,"[57, 0, 197]",197,l,0.17380946222692728,colour,0.5
26,20,0,2,12,39,589,1808.5995150962844,1809.432328552939,"[77, 0, 177]",177,l,0.31067220913246274,colour,0.5
26,20,0,2,12,40,590,1811.4434551028535,1811.9683709968813,"[61, 0, 193]",193,l,0.002684455830603838,colour,0.5
26,20,0,2,12,41,591,1813.990531542804,1814.6803937833756,"[1, 0, 253]",253,a,0.1678619901649654,colour,0.5
26,20,0,2,12,42,592,1816.6938566290773,1817.2883438845165,"[30, 0, 224]",224,a,0.07217114046216011,colour,0.5
26,20,0,2,12,43,593,1819.3034549765289,1819.99234914314,"[29, 0, 225]",225,a,0.16666430374607444,colour,0.5
26,20,0,2,12,44,594,1822.0067816381343,1822.632333515212,"[13, 0, 241]",241,a,0.10346458666026592,colour,0.5
26,20,0,2,12,45,595,1824.6475749704987,1825.2883312813938,"[79, 0, 175]",175,l,0.11850360501557589,colour,0.5
26,20,0,2,12,46,596,1827.304060711991,1828.072346795816,"[58, 0, 196]",196,l,0.24606291623786092,colour,0.5
26,20,0,2,12,47,597,1830.085590268951,1830.7923682052642,"[38, 0, 216]",216,l,0.18454019632190466,colour,0.5
26,20,0,2,12,48,598,1832.8045478998683,1833.4084083018824,"[25, 0, 229]",229,a,0.08164511155337095,colour,0.5
26,20,0,2,12,49,599,1835.4140820507891,1836.024339696858,"[76, 0, 178]",178,l,0.08802699577063322,colour,0.5
26,20,0,2,12,50,600,1838.0393298785202,1840.8963798442855,"[32, 0, 222]",222,l,2.334949678275734,colour,0.5
26,20,0,2,13,1,601,1848.4299477525055,1849.1603344068862,"[7, 0, 247]",247,a,0.20738012716174126,colour,0.5
26,20,0,2,13,2,602,1851.1809892784804,1852.1523290886544,"[50, 0, 204]",204,l,0.44906623009592295,colour,0.5
26,20,0,2,13,3,603,1854.1656296695583,1854.7603524453007,"[63, 0, 191]",191,l,0.0725023653358221,colour,0.5
26,20,0,2,13,4,604,1856.7751240418293,1857.7443315680139,"[56, 0, 198]",198,l,0.44698711577802896,colour,0.5
26,20,0,2,13,5,605,1859.7597459219396,1860.3683809218928,"[4, 0, 250]",250,a,0.08633306343108416,colour,0.5
26,20,0,2,13,6,606,1862.3850323464721,1863.1843826579861,"[79, 0, 175]",175,l,0.27718779630959034,colour,0.5
26,20,0,2,13,7,607,1865.1977903652005,1865.848387317732,"[1, 0, 253]",253,a,0.128422228153795,colour,0.5
26,20,0,2,13,8,608,1867.8541488945484,1868.6483559678309,"[43, 0, 211]",211,a,0.27198508754372597,colour,0.5
26,20,0,2,13,9,609,1870.6669837129302,1871.5763486674987,"[15, 0, 239]",239,a,0.3871803842484951,colour,0.5
26,20,0,2,13,10,610,1873.5890029468574,1874.2403631736524,"[30, 0, 224]",224,a,0.12914060428738594,colour,0.5
26,20,0,2,13,11,611,1876.2453937712125,1876.904348141048,"[77, 0, 177]",177,l,0.13664691895246506,colour,0.5
26,20,0,2,13,12,612,1878.9175565619953,1879.7523644557223,"[53, 0, 201]",201,l,0.312587876804173,colour,0.5
26,20,0,2,13,13,613,1881.7616174793802,1882.5843398072757,"[16, 0, 238]",238,a,0.3005188531242311,colour,0.5
26,20,0,2,13,14,614,1884.5898776790127,1885.4483683342114,"[69, 0, 185]",185,l,0.33639036770910025,colour,0.5
26,20,0,2,13,15,615,1887.4651619377546,1888.2723773582838,"[3, 0, 251]",251,a,0.2850379394367337,colour,0.5
26,20,0,2,13,16,616,1890.2779455562122,1891.096389139071,"[40, 0, 214]",214,l,0.2963109998963773,colour,0.5
26,20,0,2,13,17,617,1893.1062266300432,1893.9123786659911,"[85, 0, 169]",169,l,0.28401708975434303,colour,0.5
26,20,0,2,13,18,618,1895.9189102118835,1896.6883817724884,"[34, 0, 220]",220,a,0.24725942080840468,colour,0.5
26,20,0,2,13,19,619,1898.701041171793,1899.4083413481712,"[0, 0, 254]",254,a,0.18575127376243472,colour,0.5
26,20,0,2,13,20,620,1901.419307996519,1902.1203830391169,"[45, 0, 209]",209,l,0.17914332170039415,colour,0.5
26,20,0,2,13,21,621,1904.1383755104616,1904.8963676351123,"[94, 0, 160]",160,l,0.23586663138121367,colour,0.5
26,20,0,2,13,22,622,1906.9041913901456,1907.7763536297716,"[68, 0, 186]",186,l,0.34990953374654055,colour,0.5
26,20,0,2,13,23,623,1909.7950365133584,1910.3603968708776,"[90, 0, 164]",164,l,0.04366218717768788,colour,0.5
26,20,0,2,13,24,624,1912.373295335099,1913.0883704298176,"[70, 0, 184]",184,l,0.19317054888233542,colour,0.5
26,20,0,2,13,25,625,1915.1078898427077,1915.8483668379486,"[73, 0, 181]",181,l,0.21851376630365849,colour,0.5
26,20,0,2,13,26,626,1917.8581862119026,1918.6483638444915,"[36, 0, 218]",218,l,0.26819707406684756,colour,0.5
26,20,0,2,13,27,627,1920.6552671813406,1921.7603441742249,"[87, 0, 167]",167,l,0.5828357087448239,colour,0.5
26,20,0,2,13,28,628,1923.7804921660572,1924.4243515911512,"[48, 0, 206]",206,a,0.12168903322890401,colour,0.5
26,20,0,2,13,29,629,1926.437030682806,1927.0803666864522,"[99, 0, 155]",155,l,0.1211636420339346,colour,0.5
26,20,0,2,13,30,630,1929.0934100858867,1929.664408352226,"[31, 0, 223]",223,a,0.04880778817459941,colour,0.5
26,20,0,2,13,31,631,1931.6716763908044,1932.4643655805849,"[81, 0, 173]",173,l,0.27039119182154536,colour,0.5
26,20,0,2,13,32,632,1934.4845730429515,1935.2644007904455,"[12, 0, 242]",242,a,0.2577002844773233,colour,0.5
26,20,0,2,13,33,633,1937.2815523999743,1938.464358097408,"[60, 0, 194]",194,l,0.6605132129043341,colour,0.5
26,20,0,2,13,34,634,1940.4693938153796,1941.3603822984733,"[41, 0, 213]",213,l,0.3688117894344032,colour,0.5
26,20,0,2,13,35,635,1943.375819101464,1944.2484007873572,"[72, 0, 182]",182,l,0.3503049551509321,colour,0.5
26,20,0,2,13,36,636,1946.2666799784638,1946.840375697706,"[19, 0, 235]",235,a,0.051507997792214155,colour,0.5
26,20,0,2,13,37,637,1948.8605693755671,1950.0563775124028,"[11, 0, 243]",243,a,0.6734605138190091,colour,0.5
26,20,0,2,13,38,638,1952.0639952863567,1952.7843687944114,"[84, 0, 170]",170,l,0.19814128195866942,colour,0.5
26,20,0,2,13,39,639,1954.7985535603948,1955.5443892274052,"[49, 0, 205]",205,l,0.22358335508033633,colour,0.5
26,20,0,2,13,40,640,1957.5644218218513,1958.128384812735,"[61, 0, 193]",193,l,0.04169216798618436,colour,0.5
26,20,0,2,13,41,641,1960.142773590982,1960.704389652703,"[23, 0, 231]",231,a,0.03935547871515155,colour,0.5
26,20,0,2,13,42,642,1962.7211025175638,1964.7204054095782,"[26, 0, 228]",228,a,1.477056487929076,colour,0.5
26,20,0,2,13,43,643,1966.7370426557027,1967.376359458547,"[55, 0, 199]",199,l,0.11700147530063987,colour,0.5
26,20,0,2,13,44,644,1969.3934771972708,1970.2323688827455,"[64, 0, 190]",190,l,0.316494831815362,colour,0.5
26,20,0,2,13,45,645,1972.2375262989663,1972.944390881341,"[10, 0, 244]",244,a,0.18470403645187616,colour,0.5
26,20,0,2,13,46,646,1974.9564606929198,1975.7203892618418,"[88, 0, 166]",166,l,0.24181016441434622,colour,0.5
26,20,0,2,13,47,647,1977.7379126623273,1978.4003667496145,"[24, 0, 230]",230,a,0.14017814444378018,colour,0.5
26,20,0,2,13,48,648,1980.4101455574855,1981.1843991992064,"[91, 0, 163]",163,l,0.25215020356699824,colour,0.5
26,20,0,2,13,49,649,1983.1915108808316,1983.992412946187,"[46, 0, 208]",208,l,0.2788147749379277,colour,0.5
26,20,0,2,13,50,650,1986.0042295148596,1986.7283729189076,"[62, 0, 192]",192,l,0.20190684590488672,colour,0.5
26,20,0,2,14,1,651,2005.7081335550174,2006.5203685453162,"[51, 0, 203]",203,l,0.28920483216643333,colour,0.5
26,20,0,2,14,2,652,2008.5372771518305,2009.3524340880103,"[27, 0, 227]",227,a,0.2929786671884358,colour,0.5
26,20,0,2,14,3,653,2011.3655731920153,2012.160413176287,"[95, 0, 159]",159,l,0.2726010628975928,colour,0.5
26,20,0,2,14,4,654,2014.1784060411155,2014.8803920503706,"[10, 0, 244]",244,a,0.1798380664549768,colour,0.5
26,20,0,2,14,5,655,2016.897240397986,2017.8164121238515,"[34, 0, 220]",220,a,0.39694934571161866,colour,0.5
26,20,0,2,14,6,656,2019.834986699745,2020.5683811581694,"[32, 0, 222]",222,a,0.21109252190217376,colour,0.5
26,20,0,2,14,7,657,2022.5852247797884,2023.3444063202478,"[15, 0, 239]",239,a,0.2368713328614831,colour,0.5
26,20,0,2,14,8,658,2025.3510910719633,2026.1923840376548,"[46, 0, 208]",208,l,0.3189567639492452,colour,0.5
26,20,0,2,14,9,659,2028.2106537767686,2029.0243775062263,"[70, 0, 184]",184,l,0.29141824785619974,colour,0.5
26,20,0,2,14,10,660,2031.0390281924047,2031.8403658517636,"[94, 0, 160]",160,l,0.2791802645660937,colour,0.5
26,20,0,2,14,11,661,2033.8518015709706,2034.5683902166784,"[12, 0, 242]",242,a,0.1944088013842702,colour,0.5
26,20,0,2,14,12,662,2036.5863728416152,2037.3523817062378,"[81, 0, 173]",173,l,0.2438203557394445,colour,0.5
26,20,0,2,14,13,663,2039.3677673093043,2039.9284070259891,"[96, 0, 158]",158,l,0.038309029303491116,colour,0.5
26,20,0,2,14,14,664,2041.9460596079007,2042.8004113328643,"[63, 0, 191]",191,l,0.3319946499541402,colour,0.5
26,20,0,2,14,15,665,2044.8057369217277,2045.60042409366,"[72, 0, 182]",182,l,0.2724797581322491,colour,0.5
26,20,0,2,14,16,666,2047.6184500418603,2048.2883970537223,"[49, 0, 205]",205,l,0.1476840660907328,colour,0.5
26,20,0,2,14,17,667,2050.306172121782,2051.2324236272834,"[35, 0, 219]",219,l,0.40440485486760736,colour,0.5
26,20,0,2,14,18,668,2053.2438203557394,2054.248372824397,"[84, 0, 170]",170,l,0.48222375055775046,colour,0.5
26,20,0,2,14,19,669,2056.259818389546,2057.0164269325323,"[0, 0, 254]",254,a,0.2343538678251207,colour,0.5
26,20,0,2,14,20,670,2059.025659475941,2059.8484018901363,"[87, 0, 167]",167,l,0.30049246549606323,colour,0.5
26,20,0,2,14,21,671,2061.8539917496964,2062.6004071580246,"[42, 0, 212]",212,a,0.22417766880244017,colour,0.5
26,20,0,2,14,22,672,2064.619845045265,2065.192386400886,"[31, 0, 223]",223,a,0.05034181894734502,colour,0.5
26,20,0,2,14,23,673,2067.1992200268432,2067.992391284555,"[91, 0, 163]",163,l,0.2708961023017764,colour,0.5
26,20,0,2,14,24,674,2070.0119634731673,2070.7923878976144,"[48, 0, 206]",206,a,0.25818786630406976,colour,0.5
26,20,0,2,14,25,675,2072.8090731929988,2073.608423898462,"[79, 0, 175]",175,l,0.27712635649368167,colour,0.5
26,20,0,2,14,26,676,2075.621776467189,2076.4003939251415,"[38, 0, 216]",216,a,0.25644706608727574,colour,0.5
26,20,0,2,14,27,677,2078.418909817934,2079.400407709647,"[45, 0, 209]",209,l,0.45940902596339583,colour,0.5
26,20,0,2,14,28,678,2081.4190882300027,2082.232405904215,"[41, 0, 213]",213,l,0.29126858664676547,colour,0.5
26,20,0,2,14,29,679,2084.247398842592,2085.0403912942857,"[77, 0, 177]",177,l,0.27074644109234214,colour,0.5
26,20,0,2,14,30,680,2087.060163556598,2087.9684115629643,"[66, 0, 188]",188,l,0.3860039650462568,colour,0.5
26,20,0,2,14,31,681,2089.982276525814,2090.7523872987367,"[36, 0, 218]",218,a,0.24787224549800158,colour,0.5
26,20,0,2,14,32,682,2092.7637403104454,2093.584395733662,"[59, 0, 195]",195,l,0.2984294989146292,colour,0.5
26,20,0,2,14,33,683,2095.592066282872,2096.232390937861,"[62, 0, 192]",192,l,0.11816017096862197,colour,0.5
26,20,0,2,14,34,684,2098.248547298368,2099.024409801699,"[71, 0, 183]",183,l,0.25423680106177926,colour,0.5
26,20,0,2,14,35,685,2101.0299988733605,2101.832409370225,"[83, 0, 171]",171,l,0.2801093477755785,colour,0.5
26,20,0,2,14,36,686,2103.8427643752657,2104.672399886418,"[54, 0, 200]",200,a,0.30741391936317086,colour,0.5
26,20,0,2,14,37,687,2106.686717771925,2107.280392916873,"[90, 0, 164]",164,l,0.07139644492417574,colour,0.5
26,20,0,2,14,38,688,2109.2962290798314,2109.976432635449,"[76, 0, 178]",178,l,0.15789413591846824,colour,0.5
26,20,0,2,14,39,689,2111.9839952704497,2112.6724006738514,"[68, 0, 186]",186,l,0.16613064194098115,colour,0.5
26,20,0,2,14,40,690,2114.687421181705,2115.720424707979,"[11, 0, 243]",243,a,0.5108098974451423,colour,0.5
26,20,0,2,14,41,691,2117.734506286215,2118.5844276351854,"[55, 0, 199]",199,l,0.32774898782372475,colour,0.5
26,20,0,2,14,42,692,2120.594136338681,2121.368383284658,"[50, 0, 204]",204,l,0.25200763111934066,colour,0.5
26,20,0,2,14,43,693,2123.375508750789,2124.096407649573,"[75, 0, 179]",179,l,0.19865997740998864,colour,0.5
26,20,0,2,14,44,694,2126.1101926616393,2126.8004022743553,"[6, 0, 248]",248,a,0.16800968209281564,colour,0.5
26,20,0,2,14,45,695,2128.8134641847573,2129.6163984965533,"[23, 0, 231]",231,a,0.28072492871433496,colour,0.5
26,20,0,2,14,46,696,2131.6261993600056,2132.4644112666138,"[25, 0, 229]",229,a,0.3159237541258335,colour,0.5
26,20,0,2,14,47,697,2134.4701968678273,2135.232405904215,"[17, 0, 237]",237,a,0.23998429346829653,colour,0.5
26,20,0,2,14,48,698,2137.251647655852,2137.9683839939535,"[14, 0, 240]",240,a,0.1945690969005227,colour,0.5
26,20,0,2,14,49,699,2139.986203960143,2140.74443239253,"[1, 0, 253]",253,a,0.23595997225493193,colour,0.5
26,20,0,2,14,50,700,2142.7521100309677,2143.768445197493,"[43, 0, 211]",211,l,0.49445110047236085,colour,0.5
26,20,0,2,15,1,701,2151.3770262403414,2152.1844106209464,"[54, 0, 200]",200,l,0.28437548968940973,colour,0.5
26,20,0,2,15,2,702,2154.1905632866547,2154.904382799752,"[25, 0, 229]",229,a,0.19171883165836334,colour,0.5
26,20,0,2,15,3,703,2156.909506739117,2157.7044124957174,"[63, 0, 191]",191,l,0.2726967674680054,colour,0.5
26,20,0,2,15,4,704,2159.7222375823185,2160.424473289866,"[43, 0, 211]",211,l,0.18005586322396994,colour,0.5
26,20,0,2,15,5,705,2162.441159766633,2163.0644048866816,"[76, 0, 178]",178,l,0.10126653080806136,colour,0.5
26,20,0,2,15,6,706,2165.0820019361563,2165.88840760896,"[83, 0, 171]",171,l,0.28415572363883257,colour,0.5
26,20,0,2,15,7,707,2167.8946575545706,2168.5604124674574,"[42, 0, 212]",212,l,0.1434336774982512,colour,0.5
26,20,0,2,15,8,708,2170.5667935637757,2171.248451199848,"[29, 0, 225]",225,a,0.16018750239163637,colour,0.5
26,20,0,2,15,9,709,2173.2544916193,2174.280424424447,"[79, 0, 175]",175,l,0.5038864747621119,colour,0.5
26,20,0,2,15,10,710,2176.2860548500903,2177.1204188792035,"[38, 0, 216]",216,a,0.3121692184358835,colour,0.5
26,20,0,2,15,11,711,2179.1299731950276,2179.816434966866,"[12, 0, 242]",242,a,0.16422206303104758,colour,0.5
26,20,0,2,15,12,712,2181.8332931608893,2182.68845148338,"[91, 0, 163]",163,l,0.3328934074379504,colour,0.5
26,20,0,2,15,13,713,2184.7086656410247,2185.256481330376,"[80, 0, 174]",174,l,0.026436534244567156,colour,0.5
26,20,0,2,15,14,714,2187.271299401298,2188.1924001853913,"[48, 0, 206]",206,l,0.3989555984735489,colour,0.5
26,20,0,2,15,15,715,2190.2090555489995,2190.872435568832,"[61, 0, 193]",193,l,0.14124980010092258,colour,0.5
26,20,0,2,15,16,716,2192.8811108195223,2193.8725694762543,"[59, 0, 195]",195,l,0.4692603014409542,colour,0.5
26,20,0,2,15,17,717,2195.8812943520024,2196.7124375062995,"[1, 0, 253]",253,a,0.3089069901034236,colour,0.5
26,20,0,2,15,18,718,2198.7252883152105,2199.5683945487253,"[64, 0, 190]",190,l,0.32100594602525234,colour,0.5
26,20,0,2,15,19,719,2201.5849451487884,2202.4164266171865,"[75, 0, 179]",179,l,0.30936857778578997,colour,0.5
26,20,0,2,15,20,720,2204.428885548841,2205.1204354204237,"[4, 0, 250]",250,a,0.16934166988357902,colour,0.5
26,20,0,2,15,21,721,2207.1322445059195,2207.8964188350365,"[36, 0, 218]",218,a,0.24196258326992393,colour,0.5
26,20,0,2,15,22,722,2209.9136996259913,2210.7364038373344,"[72, 0, 182]",182,l,0.30055548064410686,colour,0.5
26,20,0,2,15,23,723,2212.7420252044685,2213.288428167347,"[13, 0, 241]",241,a,0.024535044562071562,colour,0.5
26,20,0,2,15,24,724,2215.3047487614676,2216.144414748531,"[58, 0, 196]",196,l,0.3175286781042814,colour,0.5
26,20,0,2,15,25,725,2218.1643563648686,2218.9124278966337,"[50, 0, 204]",204,l,0.22584560746327043,colour,0.5
26,20,0,2,15,26,726,2220.9301852416247,2223.640479043126,"[9, 0, 245]",245,a,2.1881001726724207,colour,0.5
26,20,0,2,15,27,727,2225.64935003547,2226.6804111124948,"[11, 0, 243]",243,a,0.5089852078817785,colour,0.5
26,20,0,2,15,28,728,2228.69910029741,2229.464416780509,"[46, 0, 208]",208,l,0.24300391227006912,colour,0.5
26,20,0,2,15,29,729,2231.4805739284493,2232.176430902444,"[24, 0, 230]",230,a,0.17364719742909074,colour,0.5
26,20,0,2,15,30,730,2234.1839809347875,2234.880434585735,"[86, 0, 168]",168,l,0.1743293390609324,colour,0.5
26,20,0,2,15,31,731,2236.887291842606,2237.7044231295586,"[84, 0, 170]",170,l,0.29490772588178515,colour,0.5
26,20,0,2,15,32,732,2239.715637506917,2240.4724437608384,"[28, 0, 226]",226,a,0.23457678500562906,colour,0.5
26,20,0,2,15,33,733,2242.481473079417,2243.144458465278,"[65, 0, 189]",189,l,0.14084413833916187,colour,0.5
26,20,0,2,15,34,734,2245.153521261178,2245.8964105639607,"[52, 0, 202]",202,l,0.22069291723892093,colour,0.5
26,20,0,2,15,35,735,2247.9037526454777,2248.472435883712,"[27, 0, 227]",227,a,0.046388390474021435,colour,0.5
26,20,0,2,15,36,736,2250.482812156435,2251.040435798932,"[74, 0, 180]",180,l,0.03609049366787076,colour,0.5
26,20,0,2,15,37,737,2253.0604672119953,2253.912458222825,"[55, 0, 199]",199,l,0.3297528773546219,colour,0.5
26,20,0,2,15,38,738,2255.920061030425,2256.7124272664078,"[32, 0, 222]",222,a,0.27014503767713904,colour,0.5
26,20,0,2,15,39,739,2258.732754852157,2259.4004136174917,"[82, 0, 172]",172,l,0.1454513520002365,colour,0.5
26,20,0,2,15,40,740,2261.420455270447,2262.2004232271574,"[57, 0, 197]",197,l,0.25772667210549116,colour,0.5
26,20,0,2,15,41,741,2264.2175492364913,2265.000475372188,"[45, 0, 209]",209,l,0.2605785126797855,colour,0.5
26,20,0,2,15,42,742,2267.0146435964853,2267.680459949188,"[23, 0, 231]",231,a,0.14355104370042682,colour,0.5
26,20,0,2,15,43,743,2269.6866055261344,2270.4644262329675,"[41, 0, 213]",213,l,0.255753502715379,colour,0.5
26,20,0,2,15,44,744,2272.4853867292404,2273.168423220981,"[33, 0, 221]",221,a,0.16081135487183928,colour,0.5
26,20,0,2,15,45,745,2275.1887567141093,2275.9924613893963,"[99, 0, 155]",155,l,0.2814996247179806,colour,0.5
26,20,0,2,15,46,746,2278.001585625112,2278.7524278652854,"[15, 0, 239]",239,a,0.22879275912418962,colour,0.5
26,20,0,2,15,47,747,2280.7580350539647,2281.464466405101,"[16, 0, 238]",238,a,0.1844346453435719,colour,0.5
26,20,0,2,15,48,748,2283.477019465994,2286.4804305685684,"[0, 0, 254]",254,a,2.481200144160539,colour,0.5
26,20,0,2,15,49,749,2288.4930269522592,2289.128442708403,"[51, 0, 203]",203,l,0.11314099468290806,colour,0.5
26,20,0,2,15,50,750,2291.133900235407,2291.696464284789,"[78, 0, 176]",176,l,0.040366481989622116,colour,0.5
26,20,0,2,16,1,751,2303.305949205067,2304.1124990251847,"[53, 0, 201]",201,l,0.2839686465449631,colour,0.5
26,20,0,2,16,2,752,2306.1194397774525,2307.224449422676,"[96, 0, 158]",158,l,0.5827431548386812,colour,0.5
26,20,0,2,16,3,753,2309.24546033144,2310.5285121039487,"[93, 0, 161]",161,l,0.7608258482068777,colour,0.5
26,20,0,2,16,4,754,2312.5427315281704,2313.0804426986724,"[64, 0, 190]",190,l,0.015519904438406229,colour,0.5
26,20,0,2,16,5,755,2315.089852473233,2317.6404317812994,"[67, 0, 187]",187,l,2.0284443623386323,colour,0.5
26,20,0,2,16,6,756,2319.652666220907,2320.6884766896255,"[38, 0, 216]",216,l,0.5135979354381561,colour,0.5
26,20,0,2,16,7,757,2322.6998072518036,2323.76045405725,"[49, 0, 205]",205,l,0.5392180262133479,colour,0.5
26,20,0,2,16,8,758,2325.778158626985,2327.064429305028,"[62, 0, 192]",192,l,0.7641006796620786,colour,0.5
26,20,0,2,16,9,759,2329.075244322419,2329.7844357481226,"[19, 0, 235]",235,a,0.1870675073005259,colour,0.5
26,20,0,2,16,10,760,2331.794266937766,2332.7044644835405,"[73, 0, 181]",181,l,0.3879901319742203,colour,0.5
26,20,0,2,16,11,761,2334.7163373716176,2335.3524711094797,"[17, 0, 237]",237,a,0.11387236695736647,colour,0.5
26,20,0,2,16,12,762,2337.3728522579186,2338.008461786434,"[94, 0, 160]",160,l,0.11363881640136242,colour,0.5
26,20,0,2,16,13,763,2340.001288664993,2340.6644749124534,"[6, 0, 248]",248,a,0.1409386615268886,colour,0.5
26,20,0,2,16,14,764,2342.6733305449598,2343.5924408305436,"[26, 0, 228]",228,a,0.3968674261122942,colour,0.5
26,20,0,2,16,15,765,2345.611146557145,2346.384451423306,"[70, 0, 184]",184,l,0.2510427078232169,colour,0.5
26,20,0,2,16,16,766,2348.392659178935,2348.9604550814256,"[28, 0, 226]",226,a,0.04568143654614687,colour,0.5
26,20,0,2,16,17,767,2350.970912880264,2351.9284468041733,"[61, 0, 193]",193,l,0.4352749162353575,colour,0.5
26,20,0,2,16,18,768,2353.9398785852827,2354.5604569721036,"[54, 0, 200]",200,l,0.09837373020127416,colour,0.5
26,20,0,2,16,19,769,2356.5807353267446,2357.2644602614455,"[41, 0, 213]",213,a,0.1615596627816558,colour,0.5
26,20,0,2,16,20,770,2359.2840856187977,2360.0804852345027,"[37, 0, 217]",217,a,0.2741933832876384,colour,0.5
26,20,0,2,16,21,771,2362.096675465349,2363.880514930468,"[10, 0, 244]",244,a,1.2614426114596426,colour,0.5
26,20,0,2,16,22,772,2365.894022280816,2366.7764780852012,"[78, 0, 176]",176,l,0.36023657536134124,colour,0.5
26,20,0,2,16,23,773,2368.7848650407977,2369.3204616508447,"[97, 0, 157]",157,l,0.013390378095209599,colour,0.5
26,20,0,2,16,24,774,2371.3318942193873,2372.1364704761654,"[88, 0, 166]",166,l,0.2823337912559509,colour,0.5
26,20,0,2,16,25,775,2374.1446841391735,2375.0884775556624,"[44, 0, 210]",210,l,0.42150802118703723,colour,0.5
26,20,0,2,16,26,776,2377.0980657422915,2377.7764572114684,"[9, 0, 245]",245,a,0.15619626455008984,colour,0.5
26,20,0,2,16,27,777,2379.785783490166,2380.4884705455042,"[46, 0, 208]",208,l,0.18052729731425643,colour,0.5
26,20,0,2,16,28,778,2382.504658807069,2383.232485461049,"[82, 0, 172]",172,l,0.20565508026629686,colour,0.5
26,20,0,2,16,29,779,2385.231659171637,2386.032457261812,"[91, 0, 163]",163,l,0.2786785042844713,colour,0.5
26,20,0,2,16,30,780,2388.044319122564,2388.848454271443,"[63, 0, 191]",191,l,0.28182375989854336,colour,0.5
26,20,0,2,16,31,781,2390.857080685906,2391.6084412275814,"[74, 0, 180]",180,l,0.22925395285710692,colour,0.5
26,20,0,2,16,32,782,2393.622985968832,2394.56844023522,"[33, 0, 221]",221,a,0.4233023850247264,colour,0.5
26,20,0,2,16,33,783,2396.576277381275,2397.368458509445,"[71, 0, 183]",183,l,0.269893370103091,colour,0.5
26,20,0,2,16,34,784,2399.3734016735107,2400.120486226864,"[72, 0, 182]",182,l,0.2249062843620777,colour,0.5
26,20,0,2,16,35,785,2402.1392191289924,2402.8084343746305,"[8, 0, 246]",246,a,0.14697159826755524,colour,0.5
26,20,0,2,16,36,786,2404.827619018499,2405.576451855246,"[2, 0, 252]",252,a,0.2265671342611313,colour,0.5
26,20,0,2,16,37,787,2407.59352981532,2408.4324392233975,"[89, 0, 165]",165,l,0.3167740684002638,colour,0.5
26,20,0,2,16,38,788,2410.453022415284,2411.1684980518185,"[14, 0, 240]",240,a,0.1927806413732469,colour,0.5
26,20,0,2,16,39,789,2413.188079298474,2413.944451927673,"[29, 0, 225]",225,a,0.23407581262290478,colour,0.5
26,20,0,2,16,40,790,2415.9539333814755,2416.6884703878313,"[39, 0, 215]",215,l,0.21232604794204235,colour,0.5
26,20,0,2,16,41,791,2418.704111597035,2419.456471326761,"[52, 0, 202]",202,l,0.230088512878865,colour,0.5
26,20,0,2,16,42,792,2421.4700160925277,2422.1524476362392,"[99, 0, 155]",155,l,0.16021585930138826,colour,0.5
26,20,0,2,16,43,793,2424.1484697894193,2424.9444791027345,"[42, 0, 212]",212,l,0.2737991428002715,colour,0.5
26,20,0,2,16,44,794,2426.9612018140033,2427.6244652550668,"[85, 0, 169]",169,l,0.14096662448719144,colour,0.5
26,20,0,2,16,45,795,2429.633306709118,2430.280471685808,"[25, 0, 229]",229,a,0.12494889833033085,colour,0.5
26,20,0,2,16,46,796,2432.2773599070497,2432.920477719512,"[11, 0, 243]",243,a,0.12065833760425448,colour,0.5
26,20,0,2,16,47,797,2434.933998066932,2435.6324595459737,"[57, 0, 197]",197,l,0.1762241329997778,colour,0.5
26,20,0,2,16,48,798,2437.655663390644,2438.70446172636,"[3, 0, 251]",251,a,0.526533420663327,colour,0.5
26,20,0,2,16,49,799,2440.7184602031484,2441.392456348054,"[30, 0, 224]",224,a,0.15179621474817395,colour,0.5
26,20,0,2,16,50,800,2443.4061310831457,2444.1844641841017,"[43, 0, 211]",211,l,0.2560906349681318,colour,0.5
