id,age,condition,counterbalance,block,trialinblock,trial,tstart,tend,trialstim,trialintensity,response,RT,trialtype,colourfreq
11,22,1,2,Practice,1,NA,6.301503162831068e-06,0.7697113820468076,"[14, 0, 240]",240,a,0.24523427116218954,colour,0.5
11,22,1,2,Practice,2,NA,2.7823644599993713,5.257668764796108,"[24, 0, 230]",230,a,1.9521548475022428,colour,0.5
11,22,1,2,Practice,3,NA,7.267015902674757,7.97767643694533,"[94, 0, 160]",160,l,0.18757566763088107,colour,0.5
11,22,1,2,Practice,4,NA,9.985964917810634,10.52969871595269,"[92, 0, 162]",162,l,0.020407898002304137,colour,0.5
11,22,1,2,Practice,5,NA,12.548987304791808,13.72165670368122,"[53, 0, 201]",201,a,0.649733405909501,colour,0.5
11,22,1,2,Practice,6,NA,15.773939314705785,16.297686235804576,"[96, 0, 158]",158,l,0.006813529063947499,colour,0.5
11,22,1,2,Practice,7,NA,18.314708243124187,19.15369470504811,"[98, 0, 156]",156,l,0.31560148496646434,colour,0.5
11,22,1,2,Practice,8,NA,21.17432394431671,21.945626068802085,"[38, 0, 216]",216,a,0.2487375279306434,colour,0.5
11,22,1,2,Practice,9,NA,23.955790436302777,24.86566556361504,"[5, 0, 249]",249,a,0.386475971841719,colour,0.5
11,22,1,2,Practice,10,NA,26.877760168514214,27.76170843921136,"[9, 0, 245]",245,a,0.3604616815573536,colour,0.5
11,22,1,2,1,1,1,5.752179738483392,6.591934593219776,"[56, 0, 198]",198,a,0.31566371250664815,colour,0.5
11,22,1,2,1,2,2,8.6125106633408,9.45594167301897,"[46, 0, 208]",208,a,0.3200739957392216,colour,0.5
11,22,1,2,1,3,3,11.47216377989389,12.271897225175053,"[49, 0, 205]",205,a,0.2764607142889872,colour,0.5
11,22,1,2,1,4,4,14.28478700434789,15.143976170744281,"[5, 0, 249]",249,a,0.33578449714696035,colour,0.5
11,22,1,2,1,5,5,17.16007264086511,17.991894657316152,"[75, 0, 179]",179,l,0.30844412866281345,colour,0.5
11,22,1,2,1,6,6,20.003988868324086,20.935936285182834,"[78, 0, 176]",176,l,0.4085561383399181,colour,0.5
11,22,1,2,1,7,7,22.957370544900186,23.799913826573174,"[72, 0, 182]",182,l,0.3191547601018101,colour,0.5
11,22,1,2,1,8,8,25.817036658350844,26.711931473982986,"[69, 0, 185]",185,l,0.3715728539391421,colour,0.5
11,22,1,2,1,9,9,28.723512504191604,29.45588929153746,"[4, 0, 250]",250,a,0.20904379797866568,colour,0.5
11,22,1,2,1,10,10,31.473637550137937,32.271956695884,"[45, 0, 209]",209,a,0.2749321995070204,colour,0.5
11,22,1,2,1,11,11,34.28644903283566,35.11191516875988,"[52, 0, 202]",202,a,0.3021851342055015,colour,0.5
11,22,1,2,1,12,12,37.13045466324547,37.959878159919754,"[94, 0, 160]",160,l,0.3063307531410828,colour,0.5
11,22,1,2,1,13,13,39.97438664449146,40.77597667800728,"[41, 0, 213]",213,a,0.2782826441107318,colour,0.5
11,22,1,2,1,14,14,42.786881475301925,43.607905820477754,"[17, 0, 237]",237,a,0.29799146618461236,colour,0.5
11,22,1,2,1,15,15,45.61542393930722,46.43989403976593,"[31, 0, 223]",223,a,0.30111899418989196,colour,0.5
11,22,1,2,1,16,16,48.45947683119448,49.28789287083782,"[79, 0, 175]",175,l,0.30518781318096444,colour,0.5
11,22,1,2,1,17,17,51.30339542176807,52.12789663596777,"[1, 0, 253]",253,a,0.30118319095345214,colour,0.5
11,22,1,2,1,18,18,54.14734315685928,54.98385193606373,"[97, 0, 157]",157,l,0.3134085525525734,colour,0.5
11,22,1,2,1,19,19,56.99132948886836,57.79187858838122,"[26, 0, 228]",228,a,0.27724604244576767,colour,0.5
11,22,1,2,1,20,20,59.80409961770056,60.66388073406415,"[85, 0, 169]",169,l,0.3364686069544405,colour,0.5
11,22,1,2,1,21,21,62.67933681124123,63.48788924742257,"[96, 0, 158]",158,l,0.2853379943408072,colour,0.5
11,22,1,2,1,22,22,65.50757325725863,66.27992182952585,"[36, 0, 218]",218,a,0.24899904138874263,colour,0.5
11,22,1,2,1,23,23,68.28909685683902,69.1918575570453,"[48, 0, 206]",206,a,0.37941038160352036,colour,0.5
11,22,1,2,1,24,24,71.21117962274002,72.16785542399157,"[77, 0, 177]",177,l,0.4334018887602724,colour,0.5
11,22,1,2,1,25,25,74.18015010241652,74.97588010708569,"[99, 0, 155]",155,l,0.27246948290849105,colour,0.5
11,22,1,2,1,26,26,76.9929111727979,77.83188778866315,"[82, 0, 172]",172,l,0.3156530787819065,colour,0.5
11,22,1,2,1,27,27,79.85248118796153,80.65585691743763,"[38, 0, 216]",216,a,0.2800447093322873,colour,0.5
11,22,1,2,1,28,28,82.66521902143722,83.51984076033114,"[87, 0, 167]",167,l,0.3313364048372023,colour,0.5
11,22,1,2,1,29,29,85.5404562149779,86.34381540294271,"[39, 0, 215]",215,a,0.2800959092564881,colour,0.5
11,22,1,2,1,30,30,88.35310228244634,89.28783891396597,"[22, 0, 232]",232,a,0.4113351129926741,colour,0.5
11,22,1,2,1,31,31,91.3064634790644,92.15188143984415,"[83, 0, 171]",171,l,0.3220609468407929,colour,0.5
11,22,1,2,1,32,32,94.16608154337155,94.92783054866595,"[53, 0, 201]",201,a,0.23840538208605722,colour,0.5
11,22,1,2,1,33,33,96.94759765989147,97.7358654717682,"[0, 0, 254]",254,a,0.2652833758620545,colour,0.5
11,22,1,2,1,34,34,99.7446379889152,100.53582577215275,"[98, 0, 156]",156,l,0.2681489965179935,colour,0.5
11,22,1,2,1,35,35,102.55738409317564,103.56000001571374,"[66, 0, 188]",188,l,0.47995010763406754,colour,0.5
11,22,1,2,1,36,36,105.5731993575464,106.36781753605464,"[35, 0, 219]",219,a,0.2712544691748917,colour,0.5
11,22,1,2,1,37,37,108.3859060772229,109.3357982817106,"[65, 0, 189]",189,l,0.4264690244453959,colour,0.5
11,22,1,2,1,38,38,111.35489703691565,112.15177037537796,"[25, 0, 229]",229,a,0.27354231831850484,colour,0.5
11,22,1,2,1,39,39,114.16757933818735,115.07982265920145,"[59, 0, 195]",195,l,0.3888020240701735,colour,0.5
11,22,1,2,1,40,40,117.08973654091824,117.64779017161345,"[42, 0, 212]",212,a,0.0346619583433494,colour,0.5
11,22,1,2,1,41,41,119.66810118366266,120.23175844975049,"[29, 0, 225]",225,a,0.040387292043305933,colour,0.5
11,22,1,2,1,42,42,122.24639335880056,123.03179003618425,"[95, 0, 159]",159,l,0.2624665920739062,colour,0.5
11,22,1,2,1,43,43,125.04350339848315,125.86375541239977,"[6, 0, 248]",248,a,0.296917449159082,colour,0.5
11,22,1,2,1,44,44,127.87191983190132,128.78375985496677,"[74, 0, 180]",180,l,0.38857635052409023,colour,0.5
11,22,1,2,1,45,45,130.793921071745,131.64776575320866,"[73, 0, 181]",181,l,0.3305235074367374,colour,0.5
11,22,1,2,1,46,46,133.66923309594858,134.45577231940115,"[81, 0, 173]",173,l,0.2633618031395599,colour,0.5
11,22,1,2,1,47,47,136.46627184952376,137.2477836338221,"[24, 0, 230]",230,a,0.2581921856617555,colour,0.5
11,22,1,2,1,48,48,139.26332163083134,140.07174134108936,"[47, 0, 207]",207,a,0.2851784868980758,colour,0.5
11,22,1,2,1,49,49,142.09172191662947,142.9037201080937,"[7, 0, 247]",247,a,0.2886659897631034,colour,0.5
11,22,1,2,1,50,50,144.9200056240661,145.71972764784005,"[11, 0, 243]",243,a,0.27631853602360934,colour,0.5
11,22,1,2,2,1,51,155.65445325168548,156.4637106715236,"[86, 0, 168]",168,l,0.2851221669698134,colour,0.5
11,22,1,2,2,2,52,158.48365973943146,159.33577110635815,"[85, 0, 169]",169,l,0.32883075904101133,colour,0.5
11,22,1,2,2,3,53,161.34318800689653,162.18373646057444,"[1, 0, 253]",253,a,0.3172501227236353,colour,0.5
11,22,1,2,2,4,54,164.20272493897937,165.00769810628844,"[93, 0, 161]",161,l,0.28192020213464275,colour,0.5
11,22,1,2,2,5,55,167.01547498174477,167.90367599739693,"[20, 0, 234]",234,a,0.3647723218309693,colour,0.5
11,22,1,2,2,6,56,169.92204219975974,170.83168220124207,"[21, 0, 233]",233,a,0.38634915358852595,colour,0.5
11,22,1,2,2,7,57,172.8440635256702,173.64780789468205,"[34, 0, 220]",220,a,0.28039995807921514,colour,0.5
11,22,1,2,2,8,58,175.6567533100606,176.43973098765127,"[18, 0, 236]",236,a,0.2595844298484735,colour,0.5
11,22,1,2,2,9,59,178.45386728818994,179.30374436895363,"[59, 0, 195]",195,a,0.3264960422529839,colour,0.5
11,22,1,2,2,10,60,181.31348062632605,182.10369167244062,"[63, 0, 191]",191,a,0.2670009365538135,colour,0.5
11,22,1,2,2,11,61,184.11059617984574,184.87975932878908,"[0, 0, 254]",254,a,0.24583961185999215,colour,0.5
11,22,1,2,2,12,62,186.8921315948246,187.66365781746572,"[66, 0, 188]",188,l,0.24822080245940015,colour,0.5
11,22,1,2,2,13,63,189.67353113309946,190.49564327980625,"[68, 0, 186]",186,l,0.29879136657109484,colour,0.5
11,22,1,2,2,14,64,192.5018727358547,193.24767650780268,"[27, 0, 227]",227,a,0.22238098579691723,colour,0.5
11,22,1,2,2,15,65,195.26773230783874,196.03970396984369,"[70, 0, 184]",184,l,0.24868238950148225,colour,0.5
11,22,1,2,2,16,66,198.0492019506055,198.87970025197137,"[60, 0, 194]",194,l,0.30719445657450706,colour,0.5
11,22,1,2,2,17,67,200.89317725494038,201.70370167610236,"[91, 0, 163]",163,l,0.2871835549012758,colour,0.5
11,22,1,2,2,18,68,203.7214995592367,204.5357005292317,"[90, 0, 164]",164,l,0.2911826632334851,colour,0.5
11,22,1,2,2,19,69,206.54980807902757,207.37564206676325,"[50, 0, 204]",204,a,0.30247736762976274,colour,0.5
11,22,1,2,2,20,70,209.3938093770994,210.14361540816026,"[11, 0, 243]",243,a,0.22643562633311376,colour,0.5
11,22,1,2,2,21,71,212.15969494293677,213.00763902947074,"[42, 0, 212]",212,a,0.3246969555038959,colour,0.5
11,22,1,2,2,22,72,215.01927322876872,215.85564061743207,"[55, 0, 199]",199,a,0.3130863868864253,colour,0.5
11,22,1,2,2,23,73,217.86325247155037,218.6157118404517,"[48, 0, 206]",206,a,0.22934693307615817,colour,0.5
11,22,1,2,2,24,74,220.62909904663684,221.44763113680528,"[13, 0, 241]",241,a,0.29525266378186643,colour,0.5
11,22,1,2,2,25,75,223.4573662126204,224.29565123550128,"[44, 0, 210]",210,a,0.31492722127586603,colour,0.5
11,22,1,2,2,26,76,226.317063045979,227.19167008652585,"[33, 0, 221]",221,a,0.35130516497883946,colour,0.5
11,22,1,2,2,27,77,229.20782051351853,230.06363560457248,"[78, 0, 176]",176,l,0.33251242781989276,colour,0.5
11,22,1,2,2,28,78,232.0829931163462,232.86363489564974,"[76, 0, 178]",178,l,0.2572390792774968,colour,0.5
11,22,1,2,2,29,79,234.88017168513034,235.65560643165372,"[19, 0, 235]",235,a,0.2521974616101943,colour,0.5
11,22,1,2,2,30,80,237.67726282024523,238.52759321732447,"[40, 0, 214]",214,a,0.32696078007575125,colour,0.5
11,22,1,2,2,31,81,240.53685055841925,241.3916207770817,"[65, 0, 189]",189,l,0.33131789410253987,colour,0.5
11,22,1,2,2,32,82,243.41210271808086,244.07160664588446,"[35, 0, 219]",219,a,0.13609571394044906,colour,0.5
11,22,1,2,2,33,83,246.08417780394666,247.03163879946806,"[84, 0, 170]",170,l,0.42413155076792464,colour,0.5
11,22,1,2,2,34,84,249.05306990834652,249.87962108897045,"[67, 0, 187]",187,l,0.30311972985509783,colour,0.5
11,22,1,2,2,35,85,251.89705939113628,252.7516066931421,"[14, 0, 240]",240,a,0.3313805155339651,colour,0.5
11,22,1,2,2,36,86,254.77237377833808,255.551564236579,"[6, 0, 248]",248,a,0.2558464411413297,colour,0.5
11,22,1,2,2,37,87,257.5694727903465,258.3275743915001,"[3, 0, 251]",251,a,0.23547950311331078,colour,0.5
11,22,1,2,2,38,88,260.3352787993499,261.1035892725922,"[24, 0, 230]",230,a,0.24488611170090735,colour,0.5
11,22,1,2,2,39,89,263.1167870389763,263.9435898869415,"[71, 0, 183]",183,l,0.30351908929878846,colour,0.5
11,22,1,2,2,40,90,265.9606839680346,266.6795947800856,"[41, 0, 213]",213,a,0.19551953353220597,colour,0.5
11,22,1,2,2,41,91,268.6953214291716,269.4315917742788,"[61, 0, 193]",193,a,0.21292947878828272,colour,0.5
11,22,1,2,2,42,92,271.44562016107375,272.2156025089207,"[89, 0, 165]",165,l,0.24661233695223927,colour,0.5
11,22,1,2,2,43,93,274.22710831463337,274.99960654822644,"[51, 0, 203]",203,a,0.24918690574122593,colour,0.5
11,22,1,2,2,44,94,277.00852715130895,277.7675751634524,"[28, 0, 226]",226,a,0.2356110475375317,colour,0.5
11,22,1,2,2,45,95,279.77437412022846,280.43957935710205,"[54, 0, 200]",200,a,0.14182774297660217,colour,0.5
11,22,1,2,2,46,96,282.4473597771721,283.2235680363956,"[37, 0, 217]",217,a,0.2538508254219778,colour,0.5
11,22,1,2,2,47,97,285.2436419533333,285.9995435329038,"[15, 0, 239]",239,a,0.23263869469519705,colour,0.5
11,22,1,2,2,48,98,288.00946529157227,288.85557681444334,"[53, 0, 201]",201,a,0.32283406576607376,colour,0.5
11,22,1,2,2,49,99,290.8690132513293,291.6635042176931,"[23, 0, 231]",231,a,0.2710504571441561,colour,0.5
11,22,1,2,2,50,100,293.68174045102205,294.4955428491812,"[64, 0, 190]",190,l,0.29001176019664854,colour,0.5
11,22,1,2,3,1,101,304.1974009340047,305.28755810204893,"[73, 0, 181]",181,l,0.5666756988503039,colour,0.5
11,22,1,2,3,2,102,307.30781791411573,308.3355391313089,"[35, 0, 219]",219,a,0.5043145786621608,colour,0.5
11,22,1,2,3,3,103,310.35495493223425,311.2394986975123,"[57, 0, 197]",197,l,0.3613056926988065,colour,0.5
11,22,1,2,3,4,104,313.2458073165035,314.01546828635037,"[80, 0, 174]",174,l,0.246399266528897,colour,0.5
11,22,1,2,3,5,105,316.0272576608695,316.97547011380084,"[22, 0, 232]",232,a,0.42483535286737606,colour,0.5
11,22,1,2,3,6,106,318.9962561036227,319.71949606662383,"[66, 0, 188]",188,l,0.20002552116056904,colour,0.5
11,22,1,2,3,7,107,321.73087702324847,322.60753403021954,"[52, 0, 202]",202,a,0.3537186508765444,colour,0.5
11,22,1,2,3,8,108,324.6216715122573,325.42354196385713,"[17, 0, 237]",237,a,0.2785540037439205,colour,0.5
11,22,1,2,3,9,109,327.4343904411653,328.23950696829706,"[30, 0, 224]",224,a,0.28173588239587843,colour,0.5
11,22,1,2,3,10,110,330.2470861332258,331.295538989536,"[10, 0, 244]",244,a,0.5253002482349984,colour,0.5
11,22,1,2,3,11,111,333.30981864983914,334.2314725178294,"[14, 0, 240]",240,a,0.3982346264529042,colour,0.5
11,22,1,2,3,12,112,336.24753944954136,337.07947449968196,"[48, 0, 206]",206,a,0.30886908812681213,colour,0.5
11,22,1,2,3,13,113,339.09155059378827,339.9594547758461,"[81, 0, 173]",173,l,0.3444904543575831,colour,0.5
11,22,1,2,3,14,114,341.96673776890384,342.951478220697,"[65, 0, 189]",189,l,0.4612680410500616,colour,0.5
11,22,1,2,3,15,115,344.966988648579,345.8074792068801,"[47, 0, 207]",207,l,0.3170181476161815,colour,0.5
11,22,1,2,3,16,116,347.8265043129795,348.6314577879966,"[18, 0, 236]",236,a,0.2814810642739758,colour,0.5
11,22,1,2,3,17,117,350.639315007953,351.43948837876087,"[87, 0, 167]",167,l,0.2768423506640829,colour,0.5
11,22,1,2,3,18,118,353.4520800167811,354.23946325143334,"[76, 0, 178]",178,l,0.2639655684470199,colour,0.5
11,22,1,2,3,19,119,356.24912270886125,357.0234676845721,"[92, 0, 162]",162,l,0.2509351863991469,colour,0.5
11,22,1,2,3,20,120,359.030576991674,359.8634753881488,"[88, 0, 166]",166,l,0.309721763827838,colour,0.5
11,22,1,2,3,21,121,361.8745609605685,362.6394323739223,"[77, 0, 177]",177,l,0.24153330398257822,colour,0.5
11,22,1,2,3,22,122,364.6560766833136,365.44747044774704,"[31, 0, 223]",223,a,0.2681265472783707,colour,0.5
11,22,1,2,3,23,123,367.468742049241,368.2874840590521,"[46, 0, 208]",208,a,0.2955937340739183,colour,0.5
11,22,1,2,3,24,124,370.29702260595514,371.1514037051238,"[58, 0, 196]",196,a,0.3311457835370675,colour,0.5
11,22,1,2,3,25,125,373.172246408707,374.19941348506836,"[69, 0, 185]",185,l,0.5037832809030078,colour,0.5
11,22,1,2,3,26,126,376.2193720052601,376.9753929200233,"[96, 0, 158]",158,l,0.23254574713064358,colour,0.5
11,22,1,2,3,27,127,378.9852170049562,379.9114367251168,"[72, 0, 182]",182,l,0.4027307679061778,colour,0.5
11,22,1,2,3,28,128,381.92297797690844,383.0394259148743,"[64, 0, 190]",190,l,0.5930621732841246,colour,0.5
11,22,1,2,3,29,129,385.0482449057745,385.7914209397859,"[11, 0, 243]",243,a,0.21977569704176858,colour,0.5
11,22,1,2,3,30,130,387.79852591460804,388.6234296390903,"[39, 0, 215]",215,a,0.30164911039173603,colour,0.5
11,22,1,2,3,31,131,390.64248270820826,391.52743292215746,"[19, 0, 235]",235,a,0.3616566091659479,colour,0.5
11,22,1,2,3,32,132,393.5488868741086,394.3914250357775,"[26, 0, 228]",228,a,0.31914097542176023,colour,0.5
11,22,1,2,3,33,133,396.40857110446086,397.0794016382424,"[94, 0, 160]",160,l,0.14756686124019325,colour,0.5
11,22,1,2,3,34,134,399.0962243596441,399.7193944544997,"[91, 0, 163]",163,l,0.0998831854085438,colour,0.5
11,22,1,2,3,35,135,401.7370485839783,402.4714150793734,"[24, 0, 230]",230,a,0.21090550621738657,colour,0.5
11,22,1,2,3,36,136,404.4871850514901,406.0713845169521,"[45, 0, 209]",209,a,1.060699485533405,colour,0.5
11,22,1,2,3,37,137,408.08128146332456,408.83139823854435,"[54, 0, 200]",200,a,0.22674361360259354,colour,0.5
11,22,1,2,3,38,138,410.84711622301256,411.48735361738363,"[53, 0, 201]",201,a,0.1171348046627827,colour,0.5
11,22,1,2,3,39,139,413.503567453532,414.4234324747813,"[32, 0, 222]",222,a,0.39642923820065334,colour,0.5
11,22,1,2,3,40,140,416.44126856094226,417.27132969367085,"[75, 0, 179]",179,l,0.30660526355495676,colour,0.5
11,22,1,2,3,41,141,419.285309243598,420.09538153005997,"[16, 0, 238]",238,a,0.286669586377684,colour,0.5
11,22,1,2,3,42,142,422.113719375513,422.75935836246936,"[6, 0, 248]",248,a,0.1225773572223261,colour,0.5
11,22,1,2,3,43,143,424.77043960255105,425.51134432893014,"[37, 0, 217]",217,a,0.21787854272406548,colour,0.5
11,22,1,2,3,44,144,427.52021609520307,428.1593172450084,"[44, 0, 210]",210,a,0.11560195760102943,colour,0.5
11,22,1,2,3,45,145,430.17686346080154,430.95136400550837,"[49, 0, 205]",205,a,0.251232145994436,colour,0.5
11,22,1,2,3,46,146,432.95817674684804,433.71932474378264,"[85, 0, 169]",169,l,0.23767755541484803,colour,0.5
11,22,1,2,3,47,147,435.7396889249794,436.4553225476993,"[0, 0, 254]",254,a,0.19222343963338062,colour,0.5
11,22,1,2,3,48,148,438.4743567122496,439.07935634598834,"[41, 0, 213]",213,a,0.08172532735625282,colour,0.5
11,22,1,2,3,49,149,441.09957401658176,442.02331566013163,"[63, 0, 191]",191,a,0.4004031403455883,colour,0.5
11,22,1,2,3,50,150,444.03714318567654,444.88738181674853,"[62, 0, 192]",192,a,0.32673471269663423,colour,0.5
11,22,1,2,4,1,151,452.0995369950542,453.2473697020905,"[72, 0, 182]",182,a,0.6236572818597779,colour,0.5
11,22,1,2,4,2,152,455.25688579969574,455.95931614219444,"[47, 0, 207]",207,a,0.17912964842980728,colour,0.5
11,22,1,2,4,3,153,457.975841510226,458.9754043415887,"[73, 0, 181]",181,l,0.47609002684475854,colour,0.5
11,22,1,2,4,4,154,460.9917205775273,461.5196414744132,"[94, 0, 160]",160,l,0.004606418253388256,colour,0.5
11,22,1,2,4,5,155,463.5544613649254,464.8312985955854,"[90, 0, 164]",164,l,0.7535893119638786,colour,0.5
11,22,1,2,4,6,156,466.85150760161923,467.72729263437213,"[62, 0, 192]",192,a,0.3523965111817233,colour,0.5
11,22,1,2,4,7,157,469.7423005151795,470.30328632652527,"[91, 0, 163]",163,l,0.037634705018717796,colour,0.5
11,22,1,2,4,8,158,472.3206269549555,472.88735188450664,"[83, 0, 171]",171,l,0.04324897425249219,colour,0.5
11,22,1,2,4,9,159,474.8990455545136,475.45532924309373,"[6, 0, 248]",248,a,0.03316613275092095,colour,0.5
11,22,1,2,4,10,160,477.46165637281956,478.1992933622096,"[58, 0, 196]",196,a,0.21426619082922116,colour,0.5
11,22,1,2,4,11,161,480.21189760329435,480.97525428637164,"[89, 0, 165]",165,l,0.23997918918030336,colour,0.5
11,22,1,2,4,12,162,482.99340347986436,483.56728812877554,"[10, 0, 244]",244,a,0.05052881652954966,colour,0.5
11,22,1,2,4,13,163,485.5872915473301,486.30324064043816,"[80, 0, 174]",174,l,0.19242548244073987,colour,0.5
11,22,1,2,4,14,164,488.3219345223624,488.8552459841012,"[7, 0, 247]",247,a,0.009972958534490317,colour,0.5
11,22,1,2,4,15,165,490.86910501733655,491.6153227210161,"[92, 0, 162]",162,l,0.222894954320509,colour,0.5
11,22,1,2,4,16,166,493.6348090203246,494.4072655062773,"[1, 0, 253]",253,a,0.24896241375245154,colour,0.5
11,22,1,2,4,17,167,496.4162625154131,497.10323481151136,"[50, 0, 204]",204,a,0.16361882677301764,colour,0.5
11,22,1,2,4,18,168,499.11978932406055,499.919247865153,"[61, 0, 193]",193,a,0.27625118842115626,colour,0.5
11,22,1,2,4,19,169,501.9323542593629,502.67131141922437,"[57, 0, 197]",197,a,0.2155938443611376,colour,0.5
11,22,1,2,4,20,170,504.6825564990868,505.4152432429837,"[76, 0, 178]",178,l,0.2093502099160105,colour,0.5
11,22,1,2,4,21,171,507.4328304186929,508.1032545038033,"[3, 0, 251]",251,a,0.1471462341141887,colour,0.5
11,22,1,2,4,22,172,510.12043011089554,510.8952268274734,"[32, 0, 222]",222,a,0.25131170282838866,colour,0.5
11,22,1,2,4,23,173,512.9019560735906,513.8312371557113,"[66, 0, 188]",188,l,0.4058968928293325,colour,0.5
11,22,1,2,4,24,174,515.8397548547364,516.6473002277198,"[60, 0, 194]",194,a,0.2842635835404508,colour,0.5
11,22,1,2,4,25,175,518.6680102053215,519.1992370422813,"[27, 0, 227]",227,a,0.007840678445063531,colour,0.5
11,22,1,2,4,26,176,521.2151539187762,522.3112620940083,"[16, 0, 238]",238,a,0.5729016102850437,colour,0.5
11,22,1,2,4,27,177,524.3247170415707,524.9832332046353,"[51, 0, 203]",203,a,0.13515363523038104,colour,0.5
11,22,1,2,4,28,178,526.9968500227551,527.6311564961215,"[49, 0, 205]",205,a,0.11119718826375902,colour,0.5
11,22,1,2,4,29,179,529.6377029978321,530.2072037512553,"[25, 0, 229]",229,a,0.04690267995465547,colour,0.5
11,22,1,2,4,30,180,532.215919554641,532.9512186764623,"[44, 0, 210]",210,a,0.21199921547668055,colour,0.5
11,22,1,2,4,31,181,534.9661533019971,535.5113199105253,"[38, 0, 216]",216,a,0.021675293217413127,colour,0.5
11,22,1,2,4,32,182,537.5288393448573,538.1112271205056,"[12, 0, 242]",242,a,0.058960263326298445,colour,0.5
11,22,1,2,4,33,183,540.1228467475739,540.7672195208725,"[41, 0, 213]",213,a,0.1209180856239982,colour,0.5
11,22,1,2,4,34,184,542.7792495350586,543.9991705611465,"[53, 0, 201]",201,a,0.6965632244828157,colour,0.5
11,22,1,2,4,35,185,546.0138917223667,546.9511883503292,"[36, 0, 218]",218,a,0.4144472809857689,colour,0.5
11,22,1,2,4,36,186,548.9672414974193,549.5912217326695,"[11, 0, 243]",243,a,0.10057477827649564,colour,0.5
11,22,1,2,4,37,187,551.6081413401407,552.3192945752526,"[33, 0, 221]",221,a,0.18781236885115504,colour,0.5
11,22,1,2,4,38,188,554.3270793275442,555.0631763805868,"[75, 0, 179]",179,l,0.2127487036632374,colour,0.5
11,22,1,2,4,39,189,557.0773020472843,557.8871695339913,"[87, 0, 167]",167,l,0.2864947189227678,colour,0.5
11,22,1,2,4,40,190,559.905590874725,560.5031684879214,"[95, 0, 159]",159,l,0.07414498087018728,colour,0.5
11,22,1,2,4,41,191,562.515181172872,563.2791546182707,"[30, 0, 224]",224,a,0.2405581422499381,colour,0.5
11,22,1,2,4,42,192,565.2966582987574,565.9991804072633,"[15, 0, 239]",239,a,0.17927458364283666,colour,0.5
11,22,1,2,4,43,193,568.0156711168238,569.0311275878339,"[34, 0, 220]",220,a,0.49252756719943136,colour,0.5
11,22,1,2,4,44,194,571.0471224457724,571.9751692157588,"[59, 0, 195]",195,a,0.40493472799425945,colour,0.5
11,22,1,2,4,45,195,573.9848680577707,574.7991103815148,"[13, 0, 241]",241,a,0.2908148114220239,colour,0.5
11,22,1,2,4,46,196,576.8131990266847,577.5591497030691,"[4, 0, 250]",250,a,0.22272323758807033,colour,0.5
11,22,1,2,4,47,197,579.5790247279801,580.2311755582341,"[40, 0, 214]",214,a,0.12884107779245824,colour,0.5
11,22,1,2,4,48,198,582.2511837029597,582.8633336037747,"[43, 0, 211]",211,a,0.08887323137605563,colour,0.5
11,22,1,2,4,49,199,584.8763368104701,585.6391933096456,"[85, 0, 169]",169,l,0.2394766422221437,colour,0.5
11,22,1,2,4,50,200,587.6578257516376,588.6791509161121,"[70, 0, 184]",184,l,0.4980047781718895,colour,0.5
11,22,1,2,5,1,201,596.4545608502813,597.511117473885,"[69, 0, 185]",185,l,0.5324012845521793,colour,0.4
11,22,1,2,5,2,202,599.5180743627716,600.5511294310563,"[73, 0, 181]",181,l,0.5099583863047883,colour,0.4
11,22,1,2,5,3,203,602.5651326117222,603.2391040642397,"[63, 0, 191]",191,l,0.1505644201533869,colour,0.4
11,22,1,2,5,4,204,605.2530150850653,606.2631176188006,"[46, 0, 208]",208,a,0.4868786396109499,colour,0.4
11,22,1,2,5,5,205,608.2844049740816,608.887073041813,"[93, 0, 161]",161,l,0.0793208999093622,colour,0.4
11,22,1,2,5,6,206,610.8939909399487,611.5911240589921,"[94, 0, 160]",160,l,0.17379107122542337,colour,0.4
11,22,1,2,5,7,207,613.6005901382305,614.5991222756566,"[96, 0, 158]",158,l,0.4751475542434491,colour,0.4
11,22,1,2,5,8,208,616.6164219441125,617.3670696232002,"[23, 0, 231]",231,a,0.22721425909548998,colour,0.4
11,22,1,2,5,9,209,619.3822799407062,620.0311268001678,"[95, 0, 159]",159,l,0.12547212245408446,colour,0.4
11,22,1,2,5,10,210,622.0386906050844,622.7911716355593,"[92, 0, 162]",162,l,0.22897947515593842,colour,0.4
11,22,1,2,5,11,211,624.8045462386217,625.5110906923655,"[54, 0, 200]",200,a,0.1831244244822301,colour,0.4
11,22,1,2,5,12,212,627.5235350321745,628.3830944134388,"[97, 0, 157]",157,l,0.3362334811245091,colour,0.4
11,22,1,2,5,13,213,630.3986871550442,631.3990770621458,"[39, 0, 215]",215,a,0.47691946564009413,colour,0.4
11,22,1,2,5,14,214,633.4146442037891,634.2790821506642,"[76, 0, 178]",178,l,0.3412258680909872,colour,0.4
11,22,1,2,5,15,215,636.2898699757643,637.0870335784857,"[56, 0, 198]",198,a,0.2738140717847273,colour,0.4
11,22,1,2,5,16,216,639.1026310462039,639.8630811487092,"[24, 0, 230]",230,a,0.23706433782353997,colour,0.4
11,22,1,2,5,17,217,641.8839904121705,642.5030790849705,"[38, 0, 216]",216,a,0.09564107429469004,colour,0.4
11,22,1,2,5,18,218,644.5092467072536,645.3270391552942,"[1, 0, 253]",253,a,0.2944744247943163,colour,0.4
11,22,1,2,5,19,219,647.337518205517,648.1510701178922,"[74, 0, 180]",180,l,0.29019135382259265,colour,0.4
11,22,1,2,5,20,220,650.1658767436165,650.9510528674582,"[26, 0, 228]",228,a,0.26170056231785566,colour,0.4
11,22,1,2,5,21,221,652.9630021433113,653.8310295990668,"[65, 0, 189]",189,l,0.34474842326017097,colour,0.4
11,22,1,2,5,22,222,655.8382968382793,656.7191581471125,"[81, 0, 173]",173,l,0.3581068787025288,colour,0.4
11,22,1,2,5,23,223,658.7291023549624,659.3910682116984,"[55, 0, 199]",199,l,0.1385852120583877,colour,0.4
11,22,1,2,5,24,224,661.4012002838426,662.199070839386,"[70, 0, 184]",184,l,0.274448950891383,colour,0.4
11,22,1,2,5,25,225,664.2138384744176,665.1670421328163,"[40, 0, 214]",214,a,0.4299896103912033,colour,0.4
11,22,1,2,5,26,226,667.1828845724813,667.8790047205985,"[68, 0, 186]",186,l,0.17267885117325932,colour,0.4
11,22,1,2,5,27,227,669.8862900767126,670.9190529115731,"[75, 0, 179]",179,l,0.5094424485578202,colour,0.4
11,22,1,2,5,28,228,672.9333298149286,673.7430452772533,"[67, 0, 187]",187,l,0.2863375745364465,colour,0.4
11,22,1,2,5,29,229,675.7616631469573,676.3589938189834,"[31, 0, 223]",223,a,0.07408117788145319,colour,0.4
11,22,1,2,5,30,230,678.3712085467414,679.1030036241282,"[79, 0, 175]",175,l,0.2083573250565678,colour,0.4
11,22,1,2,5,31,231,681.1215226385975,681.9109999503708,"[72, 0, 182]",182,l,0.26621166995028034,colour,0.4
11,22,1,2,5,32,232,683.9186236198293,684.5750319211511,"[43, 0, 211]",211,a,0.13297763821901754,colour,0.4
11,22,1,2,5,33,233,686.5907069764799,687.3830361242872,"[3, 0, 251]",251,a,0.2689323554513976,colour,0.4
11,22,1,2,5,34,234,689.4034188161604,690.1270065449062,"[78, 0, 176]",176,l,0.20025631471071392,colour,0.4
11,22,1,2,5,35,235,692.1379345790483,692.8470248508384,"[25, 0, 229]",229,a,0.18576358392601833,colour,0.4
11,22,1,2,5,36,236,694.8568772926228,695.6230094057973,"[41, 0, 213]",213,a,0.24270145007176325,colour,0.4
11,22,1,2,5,37,237,697.6383323631599,698.4630088386475,"[48, 0, 206]",206,a,0.3012371478253044,colour,0.4
11,22,1,2,5,38,238,700.4822974274284,701.2390351412469,"[66, 0, 188]",188,l,0.23331453377613798,colour,0.4
11,22,1,2,5,39,239,703.2481270671706,704.5030184327625,"[9, 0, 245]",245,a,0.7313941426109523,colour,0.4
11,22,1,2,5,40,240,706.51404847292,707.2629699266981,"[91, 0, 163]",163,l,0.22575191035866737,colour,0.4
11,22,1,2,5,41,241,709.2799620017759,709.9509918213589,"[89, 0, 165]",165,l,0.14784964232239872,colour,0.4
11,22,1,2,5,42,242,711.967600684613,712.9190099823754,"[77, 0, 177]",177,l,0.4279561854782514,colour,0.4
11,22,1,2,5,43,243,714.9365349305444,716.0229513529339,"[42, 0, 212]",212,a,0.5629377101431601,colour,0.4
11,22,1,2,5,44,244,718.0306856930838,718.7429995911662,"[50, 0, 204]",204,a,0.1891423854394816,colour,0.4
11,22,1,2,5,45,245,720.7495610590558,721.3349586028489,"[99, 0, 155]",155,l,0.06208345899358392,colour,0.4
11,22,1,2,5,46,246,723.3435011141701,724.4629375525983,"[52, 0, 202]",202,a,0.5960723352618515,colour,0.4
11,22,1,2,5,47,247,726.4844423106406,727.2549579254701,"[2, 0, 252]",252,a,0.24722949304850772,colour,0.4
11,22,1,2,5,48,248,729.2658134920057,729.8549088523141,"[15, 0, 239]",239,a,0.06566627259599045,colour,0.4
11,22,1,2,5,49,249,731.8754230886116,732.4469178823638,"[8, 0, 246]",246,a,0.0480377430212684,colour,0.4
11,22,1,2,5,50,250,734.4537058114656,735.3749398400541,"[49, 0, 205]",205,a,0.3978013962623663,colour,0.4
11,22,1,2,6,1,251,744.594360288349,745.5029164267471,"[59, 0, 195]",195,a,0.3843905593967065,colour,0.28
11,22,1,2,6,2,252,747.5172756438842,748.2548870332539,"[84, 0, 170]",170,l,0.2142248370219022,colour,0.28
11,22,1,2,6,3,253,750.2675152989104,750.9909139817464,"[90, 0, 164]",164,l,0.20007120730588213,colour,0.28
11,22,1,2,6,4,254,753.0021795415669,753.7110016045044,"[78, 0, 176]",176,l,0.18555130116874352,colour,0.28
11,22,1,2,6,5,255,755.7211474612704,756.4709038677975,"[70, 0, 184]",184,l,0.22655417385976762,colour,0.28
11,22,1,2,6,6,256,758.4868329535238,759.0549489457626,"[93, 0, 161]",161,l,0.04467627074336633,colour,0.28
11,22,1,2,6,7,257,761.0652121685562,761.7749400763423,"[76, 0, 178]",178,l,0.1863756199600175,colour,0.28
11,22,1,2,6,8,258,763.7841875713202,764.4948855208931,"[81, 0, 173]",173,l,0.18733345257351175,colour,0.28
11,22,1,2,6,9,259,766.5030570296221,767.2389095044928,"[11, 0, 243]",243,a,0.21240960259456187,colour,0.28
11,22,1,2,6,10,260,769.2532679339056,770.270940180344,"[65, 0, 189]",189,l,0.49418290035100654,colour,0.28
11,22,1,2,6,11,261,772.2848185119801,772.9428632418276,"[61, 0, 193]",193,a,0.13457783294143155,colour,0.28
11,22,1,2,6,12,262,774.9568920224556,775.6068865480484,"[95, 0, 159]",159,l,0.12704750488046557,colour,0.28
11,22,1,2,6,13,263,777.6134259605315,778.3748433478759,"[37, 0, 217]",217,a,0.2382911668973975,colour,0.28
11,22,1,2,6,14,264,780.394824711082,781.0628423995222,"[80, 0, 174]",174,l,0.1446878497954458,colour,0.28
11,22,1,2,6,15,265,783.0825839107274,783.8548485938809,"[82, 0, 172]",172,l,0.2489813183201477,colour,0.28
11,22,1,2,6,16,266,785.8640393750975,786.5188636293751,"[13, 0, 241]",241,a,0.13180555368307978,colour,0.28
11,22,1,2,6,17,267,788.5361038271221,789.2228524189559,"[79, 0, 175]",175,l,0.16338921478018165,colour,0.28
11,22,1,2,6,18,268,791.2394372576382,791.8068533862242,"[16, 0, 238]",238,a,0.04414772993186489,colour,0.28
11,22,1,2,6,19,269,793.8177629096317,794.5588688911521,"[87, 0, 167]",167,l,0.21775684447493404,colour,0.28
11,22,1,2,6,20,270,796.567976964754,797.2948395197163,"[62, 0, 192]",192,l,0.2034267719136551,colour,0.28
11,22,1,2,6,21,271,799.3025750413653,800.2788226063713,"[5, 0, 249]",249,a,0.45278657582821324,colour,0.28
11,22,1,2,6,22,272,802.2870594934793,803.1108183087781,"[24, 0, 230]",230,a,0.30010444787330925,colour,0.28
11,22,1,2,6,23,273,805.1311328653828,805.7828162008664,"[51, 0, 203]",203,a,0.12841493682935834,colour,0.28
11,22,1,2,6,24,274,807.8031961358502,808.3828423522646,"[31, 0, 223]",223,a,0.056259664008393884,colour,0.28
11,22,1,2,6,25,275,810.397203538625,811.062791199598,"[36, 0, 218]",218,a,0.14251539739780128,colour,0.28
11,22,1,2,6,26,276,813.0693081628997,813.6467945299228,"[77, 0, 177]",177,l,0.05418921762611717,colour,0.28
11,22,1,2,6,27,277,815.6632655472495,816.3988442994305,"[40, 0, 214]",214,a,0.21246237790910527,colour,0.28
11,22,1,2,6,28,278,818.4134161931579,819.2307714726194,"[54, 0, 200]",200,a,0.2940856991917826,colour,0.28
11,22,1,2,6,29,279,821.2417952112737,821.9107919998933,"[39, 0, 215]",215,a,0.14564765157410875,colour,0.28
11,22,1,2,6,30,280,823.9295095125563,824.5268252184032,"[63, 0, 191]",191,l,0.07407408865401521,colour,0.28
11,22,1,2,6,31,281,826.5390962660895,827.1188314915635,"[58, 0, 196]",196,a,0.05634040234144777,colour,0.28
11,22,1,2,6,32,282,829.1330170227448,830.102777162916,"[98, 0, 156]",156,l,0.44642518152249977,colour,0.28
11,22,1,2,6,33,283,832.1176680716453,832.7508123065345,"[60, 0, 194]",194,a,0.10978013172280043,colour,0.28
11,22,1,2,6,34,284,834.758440308331,835.7188359813881,"[21, 0, 233]",233,a,0.4369941545301117,colour,0.28
11,22,1,2,6,35,285,837.7274615940987,838.7107814447954,"[75, 0, 179]",179,l,0.45995732286246493,colour,0.28
11,22,1,2,6,36,286,840.7283855559072,841.5027888207696,"[91, 0, 163]",163,l,0.25175241607939824,colour,0.28
11,22,1,2,6,37,287,843.5090942889801,844.64676577918,"[74, 0, 180]",180,l,0.6141628457116894,colour,0.28
11,22,1,2,6,38,288,846.6656156239915,847.6147874848102,"[64, 0, 190]",190,a,0.42578176385723054,colour,0.28
11,22,1,2,6,39,289,849.6345656237099,850.4147903205012,"[66, 0, 188]",188,a,0.2568030921393074,colour,0.28
11,22,1,2,6,40,290,852.4317245002603,853.3907633751514,"[56, 0, 198]",198,a,0.43571376241743565,colour,0.28
11,22,1,2,6,41,291,855.4007201860659,856.4547652562032,"[85, 0, 169]",169,l,0.5307770653162152,colour,0.28
11,22,1,2,6,42,292,858.4634144996526,859.4947843025438,"[73, 0, 181]",181,a,0.5081057365168817,colour,0.28
11,22,1,2,6,43,293,861.5105727853952,862.2067760349601,"[57, 0, 197]",197,a,0.1728178787161596,colour,0.28
11,22,1,2,6,44,294,864.21390582202,864.9747304717312,"[32, 0, 222]",222,a,0.23807730874978006,colour,0.28
11,22,1,2,6,45,295,866.9952994526247,867.6228558060247,"[27, 0, 227]",227,a,0.10410757345380262,colour,0.28
11,22,1,2,6,46,296,869.6363170551485,870.4867376429029,"[67, 0, 187]",187,a,0.32720496435649693,colour,0.28
11,22,1,2,6,47,297,872.495787033462,873.2627379516489,"[94, 0, 160]",160,l,0.24362935032695532,colour,0.28
11,22,1,2,6,48,298,875.2772121716989,875.9987790785963,"[96, 0, 158]",158,l,0.19821619446156546,colour,0.28
11,22,1,2,6,49,299,878.0118256082642,878.7507685896708,"[52, 0, 202]",202,a,0.21557493973523378,colour,0.28
11,22,1,2,6,50,300,880.7620680202381,881.7427026315709,"[9, 0, 245]",245,a,0.45734218804864213,colour,0.28
11,22,1,2,7,1,301,890.2463362512062,891.1027452614508,"[90, 0, 164]",164,l,0.3325470862328075,colour,0.14
11,22,1,2,7,2,302,893.1224588096375,893.8387225853512,"[61, 0, 193]",193,a,0.1929524478618987,colour,0.14
11,22,1,2,7,3,303,895.8569304618286,897.0067619352485,"[88, 0, 166]",166,l,0.626426016446203,colour,0.14
11,22,1,2,7,4,304,899.0134384060511,899.6946967900731,"[96, 0, 158]",158,l,0.15803409600630403,colour,0.14
11,22,1,2,7,5,305,901.7011133227497,902.6627228279831,"[11, 0, 243]",243,a,0.43901497637853026,colour,0.14
11,22,1,2,7,6,306,904.6700838024262,905.558698355977,"[77, 0, 177]",177,l,0.36511733051156625,colour,0.14
11,22,1,2,7,7,307,907.5765943066799,908.2946934030042,"[87, 0, 167]",167,l,0.19477516534971073,colour,0.14
11,22,1,2,7,8,308,910.3112077433034,911.0546819184674,"[50, 0, 204]",204,a,0.22018057038076222,colour,0.14
11,22,1,2,7,9,309,913.0613780815038,913.8307070395094,"[89, 0, 165]",165,l,0.24586915032705292,colour,0.14
11,22,1,2,7,10,310,915.8429056195891,916.7906773592695,"[78, 0, 176]",176,l,0.42444702103966847,colour,0.14
11,22,1,2,7,11,311,918.811877280823,919.4226778665907,"[37, 0, 217]",217,a,0.08744987333193421,colour,0.14
11,22,1,2,7,12,312,921.4370197544922,922.2227149668033,"[76, 0, 178]",178,l,0.2623397737625055,colour,0.14
11,22,1,2,7,13,313,924.2341305818409,925.0706889856374,"[20, 0, 234]",234,a,0.31312970991712064,colour,0.14
11,22,1,2,7,14,314,927.0781740214443,927.9187299581827,"[86, 0, 168]",168,l,0.31715126743074507,colour,0.14
11,22,1,2,7,15,315,929.9377637288417,930.6386312919785,"[97, 0, 157]",157,l,0.1775830167462118,colour,0.14
11,22,1,2,7,16,316,932.6566320055863,933.5906924041919,"[53, 0, 201]",201,a,0.4106124062673189,colour,0.14
11,22,1,2,7,17,317,935.6100144698867,936.3426476507448,"[99, 0, 155]",155,l,0.20923560083610937,colour,0.14
11,22,1,2,7,18,318,938.360184020421,939.1506624876638,"[55, 0, 199]",199,a,0.26733806839911267,colour,0.14
11,22,1,2,7,19,319,941.1573712538229,942.0946470079944,"[66, 0, 188]",188,a,0.413912832562346,colour,0.14
11,22,1,2,7,20,320,944.1107072443119,944.9826420423924,"[62, 0, 192]",192,a,0.34853249188745394,colour,0.14
11,22,1,2,7,21,321,947.0015682931989,947.806676943379,"[72, 0, 182]",182,l,0.2817055562627502,colour,0.14
11,22,1,2,7,22,322,949.814307308232,950.6546233929694,"[64, 0, 190]",190,a,0.3171331505291164,colour,0.14
11,22,1,2,7,23,323,952.6739222217584,953.4866372122196,"[59, 0, 195]",195,a,0.2893201673286967,colour,0.14
11,22,1,2,7,24,324,955.5021653631702,956.3186151915579,"[57, 0, 197]",197,a,0.29296402691397816,colour,0.14
11,22,1,2,7,25,325,958.3305093289819,959.0306195269804,"[22, 0, 232]",232,a,0.1769000884378329,colour,0.14
11,22,1,2,7,26,326,961.049535144004,961.8225867307046,"[58, 0, 196]",196,a,0.24966739740921184,colour,0.14
11,22,1,2,7,27,327,963.8309492545668,964.4305977079784,"[60, 0, 194]",194,a,0.07637414702912793,colour,0.14
11,22,1,2,7,28,328,966.4405403403798,967.5426818365231,"[73, 0, 181]",181,a,0.5787947221542709,colour,0.14
11,22,1,2,7,29,329,969.550231463043,970.3346179263899,"[98, 0, 156]",156,l,0.2610834062215872,colour,0.14
11,22,1,2,7,30,330,972.3472796689603,973.1185959719005,"[93, 0, 161]",161,l,0.24828342394903302,colour,0.14
11,22,1,2,7,31,331,975.1287934224238,976.0066004585824,"[79, 0, 175]",175,l,0.3544697144534439,colour,0.14
11,22,1,2,7,32,332,978.0196832220536,978.8146263231756,"[84, 0, 170]",170,l,0.2716530408943072,colour,0.14
11,22,1,2,7,33,333,980.8322832096019,981.6065978591796,"[71, 0, 183]",183,l,0.25092297716764733,colour,0.14
11,22,1,2,7,34,334,983.613804052351,984.286581758759,"[94, 0, 160]",160,l,0.1496286429464817,colour,0.14
11,22,1,2,7,35,335,986.3015872765682,987.3345722403028,"[63, 0, 191]",191,a,0.5096110144513659,colour,0.14
11,22,1,2,7,36,336,989.3485750271939,990.0386555528385,"[42, 0, 212]",212,a,0.16661993029993027,colour,0.14
11,22,1,2,7,37,337,992.0519238176057,992.8385993117117,"[81, 0, 173]",173,l,0.2632353787194006,colour,0.14
11,22,1,2,7,38,338,994.8490303126746,995.8386331824004,"[74, 0, 180]",180,l,0.4662734249141067,colour,0.14
11,22,1,2,7,39,339,997.8492532293312,998.9185609983979,"[65, 0, 189]",189,l,0.5458700167946517,colour,0.14
11,22,1,2,7,40,340,1000.9276986104087,1001.9265533073922,"[51, 0, 203]",203,a,0.4755866921041161,colour,0.14
11,22,1,2,7,41,341,1003.9434965455439,1004.5265507079894,"[95, 0, 159]",159,l,0.05958962859585881,colour,0.14
11,22,1,2,7,42,342,1006.5374480222235,1007.2145245535066,"[85, 0, 169]",169,l,0.15370967122726142,colour,0.14
11,22,1,2,7,43,343,1009.2251961941947,1009.9905996929156,"[46, 0, 208]",208,a,0.24206066323677078,colour,0.14
11,22,1,2,7,44,344,1012.0066823784728,1012.8225745214731,"[69, 0, 185]",185,l,0.2926477689179592,colour,0.14
11,22,1,2,7,45,345,1014.834988928982,1015.5906309642596,"[56, 0, 198]",198,a,0.2322562705958262,colour,0.14
11,22,1,2,7,46,346,1017.6008721317048,1018.2386972217355,"[44, 0, 210]",210,a,0.11424634099239483,colour,0.14
11,22,1,2,7,47,347,1020.257267042296,1021.0546137831407,"[52, 0, 202]",202,a,0.2739467977662571,colour,0.14
11,22,1,2,7,48,348,1023.0699769127532,1023.8385095148697,"[83, 0, 171]",171,l,0.24570727971149608,colour,0.14
11,22,1,2,7,49,349,1025.8514426170732,1026.5345414415933,"[92, 0, 162]",162,l,0.15982018585782498,colour,0.14
11,22,1,2,7,50,350,1028.5547839244828,1029.094510737399,"[91, 0, 163]",163,l,0.016435571189504117,colour,0.14
11,22,1,2,8,1,351,1037.070301047701,1037.7345200951677,"[57, 0, 197]",197,a,0.14004874235251918,colour,0.06
11,22,1,2,8,2,352,1039.74316973245,1040.71047857753,"[53, 0, 201]",201,a,0.4439526188070886,colour,0.06
11,22,1,2,8,3,353,1042.7278014828917,1043.3905306124361,"[75, 0, 179]",179,l,0.1394229216966778,colour,0.06
11,22,1,2,8,4,354,1045.3998426980688,1046.1345022145542,"[55, 0, 199]",199,a,0.21122845960780978,colour,0.06
11,22,1,2,8,5,355,1048.1501753006596,1048.7505224361666,"[33, 0, 221]",221,a,0.07704959221882746,colour,0.06
11,22,1,2,8,6,356,1050.7596655620146,1051.5664968929486,"[56, 0, 198]",198,a,0.2835593876079656,colour,0.06
11,22,1,2,8,7,357,1053.5881438292563,1054.2144883197034,"[93, 0, 161]",161,l,0.10316195013001561,colour,0.06
11,22,1,2,8,8,358,1056.228900312155,1057.2627009301796,"[50, 0, 204]",204,a,0.5104936224524863,colour,0.06
11,22,1,2,8,9,359,1059.2759632872767,1060.1425394219696,"[64, 0, 190]",190,a,0.3432151823071763,colour,0.06
11,22,1,2,8,10,360,1062.151198905427,1062.894503333082,"[81, 0, 173]",173,l,0.21987730922410265,colour,0.06
11,22,1,2,8,11,361,1064.9014354096726,1065.6544839716516,"[66, 0, 188]",188,l,0.22965373884653673,colour,0.06
11,22,1,2,8,12,362,1067.6672721386421,1068.4144728809479,"[52, 0, 202]",202,a,0.22379882994573563,colour,0.06
11,22,1,2,8,13,363,1070.4330600306857,1071.7264557124581,"[68, 0, 186]",186,a,0.7700225200969726,colour,0.06
11,22,1,2,8,14,364,1073.7459557963302,1074.494424327684,"[63, 0, 191]",191,a,0.2253080463851802,colour,0.06
11,22,1,2,8,15,365,1076.5116633438738,1077.1264984840527,"[79, 0, 175]",175,l,0.09149151697056368,colour,0.06
11,22,1,2,8,16,366,1079.136865682085,1079.7664278911543,"[90, 0, 164]",164,l,0.10616541671333835,colour,0.06
11,22,1,2,8,17,367,1081.7778899800032,1082.5104975608992,"[95, 0, 159]",159,l,0.2093356376281008,colour,0.06
11,22,1,2,8,18,368,1084.5279587060795,1085.3264397223247,"[85, 0, 169]",169,l,0.27513148536672816,colour,0.06
11,22,1,2,8,19,369,1087.3406729088165,1088.3104405320482,"[96, 0, 158]",158,l,0.44643739075399935,colour,0.06
11,22,1,2,8,20,370,1090.3252727577346,1090.9664841323392,"[27, 0, 227]",227,a,0.11787168984301388,colour,0.06
11,22,1,2,8,21,371,1092.9817629789468,1093.7504409101675,"[83, 0, 171]",171,l,0.2453287941752933,colour,0.06
11,22,1,2,8,22,372,1095.7631566095515,1096.4784294696874,"[89, 0, 165]",165,l,0.19200800609542057,colour,0.06
11,22,1,2,8,23,373,1098.4977074246854,1099.246416201815,"[51, 0, 203]",203,a,0.22555104905040935,colour,0.06
11,22,1,2,8,24,374,1101.263605987362,1102.0064444956952,"[97, 0, 157]",157,l,0.2196914140949957,colour,0.06
11,22,1,2,8,25,375,1104.0137964117457,1104.9664096955094,"[74, 0, 180]",180,l,0.42947524797637016,colour,0.06
11,22,1,2,8,26,376,1106.9827188422787,1107.7344003660837,"[99, 0, 155]",155,l,0.22823904536198825,colour,0.06
11,22,1,2,8,27,377,1109.7486276449636,1110.622391068202,"[84, 0, 170]",170,l,0.3503343355259858,colour,0.06
11,22,1,2,8,28,378,1112.6394414323731,1113.398396496952,"[59, 0, 195]",195,a,0.23557560140034184,colour,0.06
11,22,1,2,8,29,379,1115.405320302816,1116.1104217062239,"[98, 0, 156]",156,l,0.18169043259695172,colour,0.06
11,22,1,2,8,30,380,1118.1242716810084,1118.766410561977,"[44, 0, 210]",210,a,0.11871609481750056,colour,0.06
11,22,1,2,8,31,381,1120.7807721421705,1121.6943888028036,"[58, 0, 196]",196,a,0.39054360933369026,colour,0.06
11,22,1,2,8,32,382,1123.7028864157037,1124.4063903813367,"[94, 0, 160]",160,l,0.1802320223650895,colour,0.06
11,22,1,2,8,33,383,1126.4218448831234,1127.1504104264895,"[62, 0, 192]",192,a,0.20519907714333385,colour,0.06
11,22,1,2,8,34,384,1129.1721652764827,1130.0384054608876,"[77, 0, 177]",177,l,0.34302928717806935,colour,0.06
11,22,1,2,8,35,385,1132.0472642302047,1132.69439116586,"[82, 0, 172]",172,l,0.12399717059452087,colour,0.06
11,22,1,2,8,36,386,1134.7035657993983,1135.3343863451737,"[87, 0, 167]",167,l,0.10736034432193264,colour,0.06
11,22,1,2,8,37,387,1137.344498331251,1138.1824304684997,"[78, 0, 176]",176,l,0.3145377079490572,colour,0.06
11,22,1,2,8,38,388,1140.204221946129,1140.8623608050984,"[76, 0, 178]",178,l,0.13584640965564176,colour,0.06
11,22,1,2,8,39,389,1142.876247407461,1143.4223781500477,"[86, 0, 168]",168,l,0.022772547090426087,colour,0.06
11,22,1,2,8,40,390,1145.438907456526,1146.2303957439144,"[65, 0, 189]",189,a,0.26807101507438347,colour,0.06
11,22,1,2,8,41,391,1148.2516504100058,1148.8383622166584,"[91, 0, 163]",163,l,0.06324372824747115,colour,0.06
11,22,1,2,8,42,392,1150.8455542313168,1151.6864118537633,"[71, 0, 183]",183,l,0.3174600423662923,colour,0.06
11,22,1,2,8,43,393,1153.7052947815973,1154.2943535142113,"[69, 0, 185]",185,l,0.06579348468221724,colour,0.06
11,22,1,2,8,44,394,1156.3148795659072,1157.638408375322,"[60, 0, 194]",194,a,0.8002501706941985,colour,0.06
11,22,1,2,8,45,395,1159.658754439617,1160.8783399091917,"[73, 0, 181]",181,l,0.6961800126009621,colour,0.06
11,22,1,2,8,46,396,1162.893436799175,1163.582320034213,"[67, 0, 187]",187,l,0.16554827644722536,colour,0.06
11,22,1,2,8,47,397,1165.5967418727814,1166.174360571953,"[80, 0, 174]",174,l,0.0543172174366191,colour,0.06
11,22,1,2,8,48,398,1168.190742973995,1169.0383369317278,"[70, 0, 184]",184,a,0.325299539254047,colour,0.06
11,22,1,2,8,49,399,1171.0502649398986,1171.8702881295467,"[72, 0, 182]",182,a,0.29654211428714916,colour,0.06
11,22,1,2,8,50,400,1173.8786242657225,1174.4543414782966,"[54, 0, 200]",200,a,0.052870228653773665,colour,0.06
11,22,1,2,9,1,401,1187.6601447145804,1188.2862930699484,"[68, 0, 186]",186,a,0.10192921332782134,colour,0.06
11,22,1,2,9,2,402,1190.3018330362393,1190.9903566901921,"[96, 0, 158]",158,l,0.16512134775985032,colour,0.06
11,22,1,2,9,3,403,1193.0051830082084,1195.1823257055948,"[69, 0, 185]",185,l,1.6537561449804343,colour,0.06
11,22,1,2,9,4,404,1197.1929941955023,1197.9742917277035,"[92, 0, 162]",162,l,0.25880855397554114,colour,0.06
11,22,1,2,9,5,405,1199.9900435829186,1201.150337171217,"[62, 0, 192]",192,a,0.6368727713124827,colour,0.06
11,22,1,2,9,6,406,1203.1621324534062,1203.7585092313238,"[93, 0, 161]",161,l,0.07293272408423945,colour,0.06
11,22,1,2,9,7,407,1205.7717723761452,1206.662291173183,"[66, 0, 188]",188,a,0.3671932907309383,colour,0.06
11,22,1,2,9,8,408,1208.678249403485,1209.2542620002641,"[89, 0, 165]",165,l,0.052710721211042255,colour,0.06
11,22,1,2,9,9,409,1211.272257593926,1211.8702818280435,"[80, 0, 174]",174,l,0.07473062933422625,colour,0.06
11,22,1,2,9,10,410,1213.8817498245044,1214.8382665121462,"[70, 0, 184]",184,l,0.4331793659366667,colour,0.06
11,22,1,2,9,11,411,1216.8507801687228,1217.4462893047603,"[98, 0, 156]",156,l,0.07217929739272222,colour,0.06
11,22,1,2,9,12,412,1219.4603172977804,1220.48624297278,"[94, 0, 160]",160,l,0.5024993442348205,colour,0.06
11,22,1,2,9,13,413,1222.5074232020415,1223.0942535562208,"[50, 0, 204]",204,a,0.06338433112250641,colour,0.06
11,22,1,2,9,14,414,1225.1013801925583,1225.7662801990518,"[99, 0, 155]",155,l,0.14148627879330888,colour,0.06
11,22,1,2,9,15,415,1227.773489543004,1228.3822563099675,"[58, 0, 196]",196,a,0.08541447919560596,colour,0.06
11,22,1,2,9,16,416,1230.398656435078,1231.5902595678926,"[73, 0, 181]",181,l,0.6681992512312718,colour,0.06
11,22,1,2,9,17,417,1233.601995773206,1234.1582609510515,"[91, 0, 163]",163,l,0.03279788710642606,colour,0.06
11,22,1,2,9,18,418,1236.1647278959863,1237.0782248275355,"[84, 0, 170]",170,l,0.3900272777536884,colour,0.06
11,22,1,2,9,19,419,1239.0868921878864,1239.702291708847,"[87, 0, 167]",167,l,0.0920271470095031,colour,0.06
11,22,1,2,9,20,420,1241.7121681752033,1242.5022401938331,"[71, 0, 183]",183,a,0.26672878925455734,colour,0.06
11,22,1,2,9,21,421,1244.5091608489165,1245.1582058126805,"[85, 0, 169]",169,l,0.12555364851141348,colour,0.06
11,22,1,2,9,22,422,1247.165718417673,1247.7661967038293,"[57, 0, 197]",197,a,0.07721933972788975,colour,0.06
11,22,1,2,9,23,423,1249.7752102544764,1250.510245893558,"[78, 0, 176]",176,l,0.21170304354745895,colour,0.06
11,22,1,2,9,24,424,1252.52549717098,1253.382227953116,"[47, 0, 207]",207,a,0.3333863712614402,colour,0.06
11,22,1,2,9,25,425,1255.4006729245884,1256.3903281757957,"[59, 0, 195]",195,a,0.46647546777967364,colour,0.06
11,22,1,2,9,26,426,1258.4008895396837,1259.1582251110813,"[77, 0, 177]",177,l,0.23385528376093134,colour,0.06
11,22,1,2,9,27,427,1261.1665395858,1261.75020893506,"[52, 0, 202]",202,a,0.060068544873502105,colour,0.06
11,22,1,2,9,28,428,1263.7605847977102,1264.622256372997,"[22, 0, 232]",232,a,0.338465798064135,colour,0.06
11,22,1,2,9,29,429,1266.6359212403186,1267.2462259744061,"[81, 0, 173]",173,l,0.08763458690373227,colour,0.06
11,22,1,2,9,30,430,1269.260989277158,1270.1901986793382,"[67, 0, 187]",187,l,0.4063127937843092,colour,0.06
11,22,1,2,9,31,431,1272.1987337075407,1272.9982887408114,"[61, 0, 193]",193,l,0.2764406281639822,colour,0.06
11,22,1,2,9,32,432,1275.005221605068,1275.6462049430702,"[60, 0, 194]",194,a,0.11823127086972818,colour,0.06
11,22,1,2,9,33,433,1277.6617697215988,1278.3741659334628,"[54, 0, 200]",200,a,0.18907425017096102,colour,0.06
11,22,1,2,9,34,434,1280.3806246076128,1281.1262082198518,"[64, 0, 190]",190,a,0.2227441114373505,colour,0.06
11,22,1,2,9,35,435,1283.1463924135896,1283.79823013657,"[53, 0, 201]",201,a,0.12903996981913224,colour,0.06
11,22,1,2,9,36,436,1285.8184671056224,1286.5103727118112,"[75, 0, 179]",179,l,0.16909800691064447,colour,0.06
11,22,1,2,9,37,437,1288.5222010770813,1289.118493571994,"[25, 0, 229]",229,a,0.07330766506493092,colour,0.06
11,22,1,2,9,38,438,1291.1314160403563,1291.862213900662,"[65, 0, 189]",189,l,0.20733884035144,colour,0.06
11,22,1,2,9,39,439,1293.8816517569358,1294.7342038371135,"[74, 0, 180]",180,l,0.3294368874048814,colour,0.06
11,22,1,2,9,40,440,1296.7415494516026,1297.3023670908879,"[82, 0, 172]",172,l,0.03824122733203694,colour,0.06
11,22,1,2,9,41,441,1299.3196289501502,1300.3982200541068,"[83, 0, 171]",171,l,0.5555523172370158,colour,0.06
11,22,1,2,9,42,442,1302.4137103958637,1302.990171188896,"[95, 0, 159]",159,l,0.05367958138231188,colour,0.06
11,22,1,2,9,43,443,1305.0076197310118,1305.8383712751092,"[56, 0, 198]",198,a,0.3073504194035195,colour,0.06
11,22,1,2,9,44,444,1307.8515603768756,1308.5261694654473,"[88, 0, 166]",166,l,0.1512130838818848,colour,0.06
11,22,1,2,9,45,445,1310.539319182688,1311.1901289686793,"[55, 0, 199]",199,a,0.12748979352181777,colour,0.06
11,22,1,2,9,46,446,1313.2113962378353,1313.9421318705427,"[51, 0, 203]",203,a,0.20732741884421557,colour,0.06
11,22,1,2,9,47,447,1315.9615547606372,1316.5581497290405,"[79, 0, 175]",175,l,0.07318872370524332,colour,0.06
11,22,1,2,9,48,448,1318.5712009848794,1319.2461298760609,"[97, 0, 157]",157,l,0.1516632493585348,colour,0.06
11,22,1,2,9,49,449,1321.2588719631312,1321.8941374504939,"[86, 0, 168]",168,l,0.11224718060111627,colour,0.06
11,22,1,2,9,50,450,1323.91535430745,1324.7181172131677,"[72, 0, 182]",182,l,0.2794370055780746,colour,0.06
11,22,1,2,10,1,451,1332.4151908615022,1333.1101286850753,"[94, 0, 160]",160,l,0.1707549153943546,colour,0.06
11,22,1,2,10,2,452,1335.119379724667,1335.7820801034686,"[74, 0, 180]",180,l,0.13945403549587354,colour,0.06
11,22,1,2,10,3,453,1337.7914327551844,1338.350093302026,"[83, 0, 171]",171,l,0.0352543022017926,colour,0.06
11,22,1,2,10,4,454,1340.369763921015,1341.2461117591592,"[64, 0, 190]",190,l,0.35295262112049386,colour,0.06
11,22,1,2,10,5,455,1343.2605832223198,1343.8860754308407,"[70, 0, 184]",184,l,0.10211825923761353,colour,0.06
11,22,1,2,10,6,456,1345.901497243438,1346.702196792001,"[73, 0, 181]",181,l,0.2773504115175456,colour,0.06
11,22,1,2,10,7,457,1348.7141787570436,1349.3181354876142,"[52, 0, 202]",202,a,0.08080018404871225,colour,0.06
11,22,1,2,10,8,458,1351.339367310633,1352.0141366943135,"[60, 0, 194]",194,l,0.15146120655117556,colour,0.06
11,22,1,2,10,9,459,1354.0270528611727,1355.302202857274,"[96, 0, 158]",158,l,0.7518363051931374,colour,0.06
11,22,1,2,10,10,460,1357.3085922145983,1357.878046100377,"[82, 0, 172]",172,l,0.04692670452641323,colour,0.06
11,22,1,2,10,11,461,1359.8868320082547,1361.0060738869943,"[90, 0, 164]",164,l,0.5958060956327245,colour,0.06
11,22,1,2,10,12,462,1363.0121233555838,1363.62205590558,"[58, 0, 196]",196,a,0.0865432407008484,colour,0.06
11,22,1,2,10,13,463,1365.6373981613433,1366.2460763130803,"[65, 0, 189]",189,a,0.08534043619874865,colour,0.06
11,22,1,2,10,14,464,1368.2625571765238,1368.9100822900655,"[53, 0, 201]",201,a,0.12448041915195063,colour,0.06
11,22,1,2,10,15,465,1370.919128136069,1371.574074088654,"[77, 0, 177]",177,l,0.1316488031297922,colour,0.06
11,22,1,2,10,16,466,1373.5911409943365,1374.2380367426085,"[37, 0, 217]",217,a,0.12357181735569611,colour,0.06
11,22,1,2,10,17,467,1376.2475154249114,1376.9020868303487,"[62, 0, 192]",192,a,0.13139674195554107,colour,0.06
11,22,1,2,10,18,468,1378.9197157536983,1379.6620276905014,"[66, 0, 188]",188,a,0.2190332980826497,colour,0.06
11,22,1,2,10,19,469,1381.6698478889302,1382.1980366008356,"[80, 0, 174]",174,l,0.004802947223652154,colour,0.06
11,22,1,2,10,20,470,1384.2169238609495,1384.822042829881,"[28, 0, 226]",226,a,0.08176274265861139,colour,0.06
11,22,1,2,10,21,471,1386.8421604636824,1387.5180692427675,"[91, 0, 163]",163,l,0.15259193733800203,colour,0.06
11,22,1,2,10,22,472,1389.529841288051,1390.3180984660867,"[95, 0, 159]",159,l,0.2650112285045907,colour,0.06
11,22,1,2,10,23,473,1392.3268737401813,1392.9100283332518,"[84, 0, 170]",170,l,0.05971447768388316,colour,0.06
11,22,1,2,10,24,474,1394.9209480966674,1395.5660305797355,"[97, 0, 157]",157,l,0.1218526812735945,colour,0.06
11,22,1,2,10,25,475,1397.5772776288213,1398.6859904389712,"[79, 0, 175]",175,l,0.5854322022059932,colour,0.06
11,22,1,2,10,26,476,1400.7026410498656,1401.5580130646122,"[76, 0, 178]",178,l,0.3321221267688088,colour,0.06
11,22,1,2,10,27,477,1403.5778506742208,1404.302027595928,"[55, 0, 199]",199,a,0.20082305854884908,colour,0.06
11,22,1,2,10,28,478,1406.3124117293046,1406.9659949760535,"[88, 0, 166]",166,l,0.13025183271383867,colour,0.06
11,22,1,2,10,29,479,1408.9845108398004,1409.7659891471849,"[54, 0, 200]",200,a,0.25814492418430746,colour,0.06
11,22,1,2,10,30,480,1411.7814755504369,1412.4059559695888,"[63, 0, 191]",191,a,0.10174253047443926,colour,0.06
11,22,1,2,10,31,481,1414.422439983813,1415.165988595807,"[72, 0, 182]",182,l,0.2201762380427681,colour,0.06
11,22,1,2,10,32,482,1417.172627257416,1417.989965601475,"[69, 0, 185]",185,l,0.2939588809385896,colour,0.06
11,22,1,2,10,33,483,1420.0009653155576,1420.8619665656588,"[68, 0, 186]",186,a,0.3376505376654677,colour,0.06
11,22,1,2,10,34,484,1422.8761749399127,1423.4859980008332,"[75, 0, 179]",179,a,0.08645856392104179,colour,0.06
11,22,1,2,10,35,485,1425.5014241457102,1428.5339825746487,"[98, 0, 156]",156,l,2.5092175626778044,colour,0.06
11,22,1,2,10,36,486,1430.5486170898657,1431.2859516058234,"[81, 0, 173]",173,l,0.21393299743067473,colour,0.06
11,22,1,2,10,37,487,1433.2989229109953,1433.9499272566754,"[67, 0, 187]",187,a,0.12774224852910265,colour,0.06
11,22,1,2,10,38,488,1435.9709901199676,1436.9979705135338,"[87, 0, 167]",167,l,0.5037072687409818,colour,0.06
11,22,1,2,10,39,489,1439.018042067415,1439.6779508684995,"[99, 0, 155]",155,l,0.13650688872439787,colour,0.06
11,22,1,2,10,40,490,1441.6901770178229,1442.3899622932076,"[93, 0, 161]",161,l,0.1764436213998124,colour,0.06
11,22,1,2,10,41,491,1444.4091244575684,1445.077961738687,"[92, 0, 162]",162,l,0.14548578101675957,colour,0.06
11,22,1,2,10,42,492,1447.0967926788726,1447.853942355141,"[50, 0, 204]",204,a,0.23386394837871194,colour,0.06
11,22,1,2,10,43,493,1449.8626853338792,1450.485947194742,"[56, 0, 198]",198,a,0.10005647747311741,colour,0.06
11,22,1,2,10,44,494,1452.5034894720884,1453.3499278868549,"[78, 0, 176]",176,l,0.3230743116000667,colour,0.06
11,22,1,2,10,45,495,1455.363095720997,1455.9899415769032,"[71, 0, 183]",183,l,0.1036574078607373,colour,0.06
11,22,1,2,10,46,496,1458.0038900130894,1458.6699195688125,"[57, 0, 197]",197,a,0.14249097893480211,colour,0.06
11,22,1,2,10,47,497,1460.6760757695884,1461.3660349908168,"[27, 0, 227]",227,a,0.16668058256618679,colour,0.06
11,22,1,2,10,48,498,1463.3793516986188,1464.0619385238388,"[85, 0, 169]",169,l,0.15947360172867775,colour,0.06
11,22,1,2,10,49,499,1466.082667406008,1467.6059846415883,"[89, 0, 165]",165,l,0.9999393477919511,colour,0.06
11,22,1,2,10,50,500,1469.6141860825592,1470.2219099464128,"[86, 0, 168]",168,l,0.08454250503564253,colour,0.06
11,22,1,2,11,1,501,1478.457830556552,1479.021949803573,"[98, 0, 156]",156,l,0.039987932599615306,colour,0.06
11,22,1,2,11,2,502,1481.0369206629111,1481.6778693425003,"[93, 0, 161]",161,l,0.11751486570574343,colour,0.06
11,22,1,2,11,3,503,1483.6933821333805,1484.3659089602297,"[66, 0, 188]",188,a,0.14908552990527824,colour,0.06
11,22,1,2,11,4,504,1486.3810897392686,1487.1019374840544,"[61, 0, 193]",193,a,0.19738006021361798,colour,0.06
11,22,1,2,11,5,505,1489.1157468927559,1489.845911055454,"[76, 0, 178]",178,l,0.20689103787299246,colour,0.06
11,22,1,2,11,6,506,1491.8658337356756,1492.4139317370718,"[57, 0, 197]",197,a,0.02465631061932072,colour,0.06
11,22,1,2,11,7,507,1494.4286040614825,1495.0778601265047,"[86, 0, 168]",168,l,0.12586084805661812,colour,0.06
11,22,1,2,11,8,508,1497.0851045226445,1498.0538615380647,"[92, 0, 162]",162,l,0.4453440753859468,colour,0.06
11,22,1,2,11,9,509,1500.0697433623136,1500.782042294275,"[97, 0, 157]",157,l,0.18883951817406341,colour,0.06
11,22,1,2,11,10,510,1502.7886837128317,1503.5578500125557,"[90, 0, 164]",164,l,0.24654735246440396,colour,0.06
11,22,1,2,11,11,511,1505.5700958541129,1506.2779163676314,"[52, 0, 202]",202,a,0.18440284731332213,colour,0.06
11,22,1,2,11,12,512,1508.2890641676495,1509.0058710565208,"[68, 0, 186]",186,a,0.19338410266209394,colour,0.06
11,22,1,2,11,13,513,1511.023677604273,1511.8138843180495,"[69, 0, 185]",185,a,0.26688081363681704,colour,0.06
11,22,1,2,11,14,514,1513.8207076932886,1514.557841347938,"[83, 0, 171]",171,l,0.21372898539993912,colour,0.06
11,22,1,2,11,15,515,1516.5709843698423,1517.2779447245412,"[54, 0, 200]",200,a,0.1835285100969486,colour,0.06
11,22,1,2,11,16,516,1519.2898557973676,1520.0779302309966,"[85, 0, 169]",169,l,0.2645902075455524,colour,0.06
11,22,1,2,11,17,517,1522.0869973446825,1523.0058450626675,"[70, 0, 184]",184,a,0.3953178058145568,colour,0.06
11,22,1,2,11,18,518,1525.0248020334984,1525.669857341214,"[91, 0, 163]",163,l,0.12170853378484026,colour,0.06
11,22,1,2,11,19,519,1527.6812788639218,1528.4778450028389,"[53, 0, 201]",201,a,0.2736817396944389,colour,0.06
11,22,1,2,11,20,520,1530.493953682133,1531.1578308716416,"[80, 0, 174]",174,l,0.1404957571066916,colour,0.06
11,22,1,2,11,21,521,1533.1660606695223,1533.9498335214448,"[72, 0, 182]",182,l,0.260454828676302,colour,0.06
11,22,1,2,11,22,522,1535.9631092692725,1536.9178012702032,"[64, 0, 190]",190,a,0.43146850063931197,colour,0.06
11,22,1,2,11,23,523,1538.9320506044314,1539.9098306227243,"[77, 0, 177]",177,l,0.45429106609662995,colour,0.06
11,22,1,2,11,24,524,1541.9167745147133,1542.8778070361004,"[63, 0, 191]",191,a,0.4377144981408492,colour,0.06
11,22,1,2,11,25,525,1544.8857052159728,1545.797784303315,"[88, 0, 166]",166,l,0.3887535810354166,colour,0.06
11,22,1,2,11,26,526,1547.8077671080246,1548.4698211862124,"[8, 0, 246]",246,a,0.13865295349387452,colour,0.06
11,22,1,2,11,27,527,1550.479889849259,1551.1337850217242,"[56, 0, 198]",198,a,0.13070554292062297,colour,0.06
11,22,1,2,11,28,528,1553.1519546951167,1553.8778019160964,"[95, 0, 159]",159,l,0.20241577021079138,colour,0.06
11,22,1,2,11,29,529,1555.8863849935005,1556.8298051330494,"[50, 0, 204]",204,a,0.4198169720475562,colour,0.06
11,22,1,2,11,30,530,1558.8398804914905,1559.5897495378158,"[82, 0, 172]",172,l,0.22650809393962845,colour,0.06
11,22,1,2,11,31,531,1561.605762118823,1562.3977647685679,"[74, 0, 180]",180,l,0.2686988049536012,colour,0.06
11,22,1,2,11,32,532,1564.4191891821683,1565.0298050542478,"[55, 0, 199]",199,a,0.08790161419892684,colour,0.06
11,22,1,2,11,33,533,1567.0437460073736,1568.6777618226479,"[75, 0, 179]",179,l,1.1106883397442289,colour,0.06
11,22,1,2,11,34,534,1570.6845501455828,1571.997791313799,"[81, 0, 173]",173,l,0.7897876620991156,colour,0.06
11,22,1,2,11,35,535,1574.0130500742816,1574.8297846530913,"[41, 0, 213]",213,a,0.29352801386266947,colour,0.06
11,22,1,2,11,36,536,1576.8412928218022,1577.8777558361762,"[67, 0, 187]",187,a,0.513057557400316,colour,0.06
11,22,1,2,11,37,537,1579.8885023075272,1580.7498103633407,"[58, 0, 196]",196,l,0.3379746726131998,colour,0.06
11,22,1,2,11,38,538,1582.7636898764758,1583.6937432898558,"[62, 0, 192]",192,a,0.4069516113377176,colour,0.06
11,22,1,2,11,39,539,1585.701389802387,1586.381717923039,"[89, 0, 165]",165,l,0.15694432519376278,colour,0.06
11,22,1,2,11,40,540,1588.3890718082548,1589.109731688688,"[84, 0, 170]",170,l,0.19731428800150752,colour,0.06
11,22,1,2,11,41,541,1591.1236218357226,1592.3178298634011,"[71, 0, 183]",183,a,0.6707919368636794,colour,0.06
11,22,1,2,11,42,542,1594.3270706629846,1595.0457550138235,"[78, 0, 176]",176,l,0.19528440770227462,colour,0.06
11,22,1,2,11,43,543,1597.0616206903942,1597.6297540118685,"[96, 0, 158]",158,l,0.044762129022274166,colour,0.06
11,22,1,2,11,44,544,1599.6399754870217,1600.2537834778195,"[24, 0, 230]",230,a,0.09039032459259033,colour,0.06
11,22,1,2,11,45,545,1602.2651888529072,1602.821747839509,"[99, 0, 155]",155,l,0.033224028011318296,colour,0.06
11,22,1,2,11,46,546,1604.8435019018361,1605.5977256991318,"[60, 0, 194]",194,a,0.23087072174530476,colour,0.06
11,22,1,2,11,47,547,1607.6093673815485,1608.1897374861292,"[87, 0, 167]",167,l,0.05702057370217517,colour,0.06
11,22,1,2,11,48,548,1610.2032404828933,1610.797728771111,"[73, 0, 181]",181,a,0.07172243652166799,colour,0.06
11,22,1,2,11,49,549,1612.8128532302799,1613.9338000665884,"[94, 0, 160]",160,l,0.597615422331728,colour,0.06
11,22,1,2,11,50,550,1615.95374677144,1616.573692846112,"[51, 0, 203]",203,a,0.09660442068707198,colour,0.06
11,22,1,2,12,1,551,1625.297413300781,1626.0937025661697,"[56, 0, 198]",198,a,0.27208469569450244,colour,0.06
11,22,1,2,12,2,552,1628.1109128316748,1628.6857541316422,"[89, 0, 165]",165,l,0.051640642690472305,colour,0.06
11,22,1,2,12,3,553,1630.7047831761301,1631.5497446698719,"[72, 0, 182]",182,a,0.3225690076360479,colour,0.06
11,22,1,2,12,4,554,1633.564365006634,1634.1017527704826,"[99, 0, 155]",155,l,0.014081556000746787,colour,0.06
11,22,1,2,12,5,555,1636.1115815815283,1636.7016670696903,"[91, 0, 163]",163,l,0.06674028956331313,colour,0.06
11,22,1,2,12,6,556,1638.7211683351197,1639.5016529699787,"[92, 0, 162]",162,l,0.2571110794087872,colour,0.06
11,22,1,2,12,7,557,1641.5182894024765,1642.2376759800245,"[61, 0, 193]",193,a,0.19604492356302217,colour,0.06
11,22,1,2,12,8,558,1644.2528315529926,1644.9577250059228,"[55, 0, 199]",199,a,0.18155455589294434,colour,0.06
11,22,1,2,12,9,559,1646.971853823401,1647.6937259606202,"[75, 0, 179]",179,a,0.1985907416092232,colour,0.06
11,22,1,2,12,10,560,1649.7063431986026,1650.6616484171245,"[90, 0, 164]",164,l,0.4319608075893484,colour,0.06
11,22,1,2,12,11,561,1652.675338490575,1653.333685693855,"[51, 0, 203]",203,a,0.13502602925291285,colour,0.06
11,22,1,2,12,12,562,1655.3474462656304,1655.9416836742312,"[53, 0, 201]",201,a,0.07112024660455063,colour,0.06
11,22,1,2,12,13,563,1657.9569979669177,1658.6056991035002,"[83, 0, 171]",171,l,0.12536539026768878,colour,0.06
11,22,1,2,12,14,564,1660.6134799174033,1661.2376299001044,"[78, 0, 176]",176,l,0.1013014234486036,colour,0.06
11,22,1,2,12,15,565,1663.2543080801843,1664.1096694610897,"[84, 0, 170]",170,l,0.3319882192881778,colour,0.06
11,22,1,2,12,16,566,1666.1295397598878,1666.6776692689164,"[74, 0, 180]",180,l,0.0248760764952749,colour,0.06
11,22,1,2,12,17,567,1668.692236830364,1669.333671121567,"[98, 0, 156]",156,l,0.11807333875913173,colour,0.06
11,22,1,2,12,18,568,1671.34866206703,1672.1016078353277,"[81, 0, 173]",173,l,0.22955803433433175,colour,0.06
11,22,1,2,12,19,569,1674.1143648884608,1674.677697625768,"[64, 0, 190]",190,a,0.04026441217865795,colour,0.06
11,22,1,2,12,20,570,1676.6929004602134,1677.269662151346,"[97, 0, 157]",157,l,0.05337120027979836,colour,0.06
11,22,1,2,12,21,571,1679.2867392970365,1679.9416757972795,"[31, 0, 223]",223,a,0.13151135097723454,colour,0.06
11,22,1,2,12,22,572,1681.9587643645355,1682.94961414946,"[71, 0, 183]",183,l,0.4673915526946075,colour,0.06
11,22,1,2,12,23,573,1684.9590904686484,1685.5496576299774,"[58, 0, 196]",196,a,0.06708017829805613,colour,0.06
11,22,1,2,12,24,574,1687.5687008529785,1688.5175985972746,"[73, 0, 181]",181,l,0.4254694443079643,colour,0.06
11,22,1,2,12,25,575,1690.5376473080833,1691.5656469740788,"[59, 0, 195]",195,a,0.5046272920444608,colour,0.06
11,22,1,2,12,26,576,1693.5847685723566,1694.3896050752373,"[79, 0, 175]",175,l,0.28140426438767463,colour,0.06
11,22,1,2,12,27,577,1696.3974973474396,1697.0775950683746,"[80, 0, 174]",174,l,0.1569506266969256,colour,0.06
11,22,1,2,12,28,578,1699.0852352794027,1699.6535722190747,"[95, 0, 159]",159,l,0.04493817809270695,colour,0.06
11,22,1,2,12,29,579,1701.6635987405898,1702.213604923978,"[86, 0, 168]",168,l,0.02686184603953734,colour,0.06
11,22,1,2,12,30,580,1704.226230038912,1704.805604501802,"[50, 0, 204]",204,a,0.05602690123487264,colour,0.06
11,22,1,2,12,31,581,1706.820194906264,1707.397580054996,"[82, 0, 172]",172,l,0.05395527329528704,colour,0.06
11,22,1,2,12,32,582,1709.4140912445728,1710.0375527851284,"[20, 0, 234]",234,a,0.1002144095255062,colour,0.06
11,22,1,2,12,33,583,1712.054945794982,1712.669571803126,"[68, 0, 186]",186,l,0.09125678497366607,colour,0.06
11,22,1,2,12,34,584,1714.6808578429627,1715.2856081724167,"[88, 0, 166]",166,l,0.08224992966279387,colour,0.06
11,22,1,2,12,35,585,1717.305374102085,1718.1655711194617,"[66, 0, 188]",188,l,0.3367612342699431,colour,0.06
11,22,1,2,12,36,586,1720.180538434186,1720.8935541651445,"[57, 0, 197]",197,a,0.1897363045718521,colour,0.06
11,22,1,2,12,37,587,1722.9152672675555,1723.4456244934117,"[6, 0, 248]",248,a,0.007052593398839235,colour,0.06
11,22,1,2,12,38,588,1725.4622526550665,1726.8135798753938,"[93, 0, 161]",161,l,0.8279276710236445,colour,0.06
11,22,1,2,12,39,589,1728.8218813532148,1729.4295796170481,"[60, 0, 194]",194,a,0.08436251757666469,colour,0.06
11,22,1,2,12,40,590,1731.4471423743526,1732.1815474666655,"[77, 0, 177]",177,a,0.2113407056313008,colour,0.06
11,22,1,2,12,41,591,1734.197307592607,1734.925560816424,"[69, 0, 185]",185,a,0.20538418454816565,colour,0.06
11,22,1,2,12,42,592,1736.9319407214643,1737.6535481944447,"[67, 0, 187]",187,a,0.1982496713171713,colour,0.06
11,22,1,2,12,43,593,1739.6664423059556,1740.685603682592,"[52, 0, 202]",202,a,0.49576182739110664,colour,0.06
11,22,1,2,12,44,594,1742.6979794932413,1743.4375506583601,"[94, 0, 160]",160,l,0.21618658199440688,colour,0.06
11,22,1,2,12,45,595,1745.4482372651692,1746.3655418960843,"[70, 0, 184]",184,a,0.3939440723625012,colour,0.06
11,22,1,2,12,46,596,1748.3859876032802,1749.0375330928364,"[85, 0, 169]",169,l,0.12824282626388595,colour,0.06
11,22,1,2,12,47,597,1751.05802172923,1751.8135255246889,"[65, 0, 189]",189,a,0.23211960616754368,colour,0.06
11,22,1,2,12,48,598,1753.823906901176,1754.573528218607,"[54, 0, 200]",200,a,0.22632928797975183,colour,0.06
11,22,1,2,12,49,599,1756.589710547065,1757.2615138794645,"[62, 0, 192]",192,a,0.14843017078237608,colour,0.06
11,22,1,2,12,50,600,1759.2773850699305,1759.9415115636657,"[87, 0, 167]",167,l,0.14069858758011833,colour,0.06
11,22,1,2,13,1,601,1768.8554870176595,1769.5174895020318,"[61, 0, 193]",193,a,0.13846942142117769,colour,0.06
11,22,1,2,13,2,602,1771.5283553085756,1772.061504112091,"[82, 0, 172]",172,l,0.009701205068267882,colour,0.06
11,22,1,2,13,3,603,1774.0754111944698,1774.7255770428455,"[75, 0, 179]",179,l,0.12751381803536788,colour,0.06
11,22,1,2,13,4,604,1776.731865969603,1777.7094506404828,"[56, 0, 198]",198,a,0.45498738513560966,colour,0.06
11,22,1,2,13,5,605,1779.716385080188,1781.557485311525,"[85, 0, 169]",169,l,1.3176601160084829,colour,0.06
11,22,1,2,13,6,606,1783.5708138346672,1784.2454867261695,"[93, 0, 161]",161,l,0.15122686844551936,colour,0.06
11,22,1,2,13,7,607,1786.2585765789263,1786.9975294064498,"[98, 0, 156]",156,l,0.21622675424441695,colour,0.06
11,22,1,2,13,8,608,1789.0087847263203,1789.661460158939,"[79, 0, 175]",175,l,0.1293266894062981,colour,0.06
11,22,1,2,13,9,609,1791.6807964030886,1792.2934957185062,"[71, 0, 183]",183,l,0.08957348886178806,colour,0.06
11,22,1,2,13,10,610,1794.3059546305449,1794.8454790068208,"[69, 0, 185]",185,l,0.016105528571642935,colour,0.06
11,22,1,2,13,11,611,1796.8530554148601,1797.5014292657143,"[62, 0, 192]",192,a,0.12500068923691288,colour,0.06
11,22,1,2,13,12,612,1799.5096618204843,1800.045467506512,"[70, 0, 184]",184,a,0.012515231966972351,colour,0.06
11,22,1,2,13,13,613,1802.0568232570076,1802.6294779261225,"[89, 0, 165]",165,l,0.04973521758802235,colour,0.06
11,22,1,2,13,14,614,1804.6506108939066,1805.317438774684,"[92, 0, 162]",162,a,0.14344920532312244,colour,0.06
11,22,1,2,13,15,615,1807.3381991645438,1807.9974120404804,"[53, 0, 201]",201,a,0.1358030866831541,colour,0.06
11,22,1,2,13,16,616,1810.010381770262,1810.613477554347,"[50, 0, 204]",204,a,0.07972813630476594,colour,0.06
11,22,1,2,13,17,617,1812.6199291392695,1813.3414984092233,"[96, 0, 158]",158,l,0.1981319115147926,colour,0.06
11,22,1,2,13,18,618,1815.3545410005026,1816.3254558959743,"[59, 0, 195]",195,a,0.447614201460965,colour,0.06
11,22,1,2,13,19,619,1818.3391786586144,1819.053458240116,"[51, 0, 203]",203,a,0.1913833669386804,colour,0.06
11,22,1,2,13,20,620,1821.0737464090926,1822.0614261307055,"[99, 0, 155]",155,l,0.4643999013933353,colour,0.06
11,22,1,2,13,21,621,1824.0740055594943,1824.8693944938714,"[12, 0, 242]",242,a,0.27199883735738695,colour,0.06
11,22,1,2,13,22,622,1826.8867158238427,1827.6934644471621,"[65, 0, 189]",189,a,0.2841088022105396,colour,0.06
11,22,1,2,13,23,623,1829.7150723927189,1830.4054624810815,"[94, 0, 160]",160,l,0.1670555236050859,colour,0.06
11,22,1,2,13,24,624,1832.4183778601582,1833.1174431857653,"[84, 0, 170]",170,l,0.1756610501324758,colour,0.06
11,22,1,2,13,25,625,1835.1372949737706,1836.0134139876463,"[66, 0, 188]",188,a,0.352640695462469,colour,0.06
11,22,1,2,13,26,626,1838.0281894995715,1838.709406923619,"[81, 0, 173]",173,l,0.1578001516754739,colour,0.06
11,22,1,2,13,27,627,1840.7159605146153,1841.437465193856,"[76, 0, 178]",178,l,0.19820398523006588,colour,0.06
11,22,1,2,13,28,628,1843.4504018406733,1844.2056661780225,"[54, 0, 200]",200,a,0.23194749566027895,colour,0.06
11,22,1,2,13,29,629,1846.2163260033121,1847.005375992565,"[88, 0, 166]",166,l,0.26571936294203624,colour,0.06
11,22,1,2,13,30,630,1849.0134805475245,1849.7653968033846,"[86, 0, 168]",168,l,0.22871126630343497,colour,0.06
11,22,1,2,13,31,631,1851.7792826180812,1852.6213729772717,"[68, 0, 186]",186,a,0.31950016267364845,colour,0.06
11,22,1,2,13,32,632,1854.6388762639253,1855.221386131714,"[97, 0, 157]",157,l,0.0591563984635286,colour,0.06
11,22,1,2,13,33,633,1857.2328123805928,1857.829397502821,"[91, 0, 163]",163,l,0.07319975137943402,colour,0.06
11,22,1,2,13,34,634,1859.8423845618381,1860.4373663386214,"[3, 0, 251]",251,a,0.07164091046433896,colour,0.06
11,22,1,2,13,35,635,1862.4519602877554,1863.077420988644,"[57, 0, 197]",197,a,0.1022801297949627,colour,0.06
11,22,1,2,13,36,636,1865.0927392198355,1865.869387010811,"[60, 0, 194]",194,a,0.25325533089926466,colour,0.06
11,22,1,2,13,37,637,1867.8898823425407,1868.4693753529573,"[55, 0, 199]",199,a,0.056095430336426944,colour,0.06
11,22,1,2,13,38,638,1870.4838550868444,1871.11737111205,"[63, 0, 191]",191,a,0.11006251908838749,colour,0.06
11,22,1,2,13,39,639,1873.124771471077,1873.949363269785,"[87, 0, 167]",167,l,0.3012690493487753,colour,0.06
11,22,1,2,13,40,640,1875.9686699754675,1876.5413411860936,"[80, 0, 174]",174,l,0.04929135361453518,colour,0.06
11,22,1,2,13,41,641,1878.562751815014,1879.5093723440077,"[9, 0, 245]",245,a,0.4234494101838209,colour,0.06
11,22,1,2,13,42,642,1881.515962562582,1882.3253727945266,"[72, 0, 182]",182,l,0.28605715645244345,colour,0.06
11,22,1,2,13,43,643,1884.3443112545647,1884.9973116098554,"[77, 0, 177]",177,l,0.12967918126378208,colour,0.06
11,22,1,2,13,44,644,1887.0164150911733,1888.2933362110052,"[67, 0, 187]",187,l,0.7540288436575793,colour,0.06
11,22,1,2,13,45,645,1890.31353615853,1891.4373564925045,"[78, 0, 176]",176,l,0.6006303105386905,colour,0.06
11,22,1,2,13,46,646,1893.4543855889933,1894.2213463532971,"[95, 0, 159]",159,l,0.24361595953814685,colour,0.06
11,22,1,2,13,47,647,1896.2358902840642,1897.085352251539,"[83, 0, 171]",171,l,0.32609510741895065,colour,0.06
11,22,1,2,13,48,648,1899.0954709330108,1899.7013185163378,"[90, 0, 164]",164,l,0.0836433555232361,colour,0.06
11,22,1,2,13,49,649,1901.720588988217,1902.3333079959266,"[58, 0, 196]",196,a,0.089211544720456,colour,0.06
11,22,1,2,13,50,650,1904.345850009413,1904.9173077816376,"[52, 0, 202]",202,a,0.04811454290756956,colour,0.06
11,22,1,2,14,1,651,1912.7833033879288,1913.4693414822104,"[81, 0, 173]",173,l,0.16194419522071257,colour,0.06
11,22,1,2,14,2,652,1915.4873756727902,1916.1172568968032,"[36, 0, 218]",218,a,0.10680068971123546,colour,0.06
11,22,1,2,14,3,653,1918.128178235609,1918.6933017888805,"[96, 0, 158]",158,l,0.04170234251068905,colour,0.06
11,22,1,2,14,4,654,1920.7065342137357,1921.3972968800226,"[53, 0, 201]",201,a,0.16741786152124405,colour,0.06
11,22,1,2,14,5,655,1923.4098983641597,1924.0612811954925,"[54, 0, 200]",200,a,0.12804275273811072,colour,0.06
11,22,1,2,14,6,656,1926.0819679362467,1926.733234189218,"[76, 0, 178]",178,l,0.12794350361218676,colour,0.06
11,22,1,2,14,7,657,1928.7540079698083,1929.4532229567412,"[87, 0, 167]",167,l,0.17584970220923424,colour,0.06
11,22,1,2,14,8,658,1931.4729786464595,1932.2052971446537,"[94, 0, 160]",160,l,0.20893706579227,colour,0.06
11,22,1,2,14,9,659,1934.2231694646762,1934.79724788561,"[60, 0, 194]",194,a,0.05064500094158575,colour,0.06
11,22,1,2,14,10,660,1936.8171811996726,1937.5012540044263,"[74, 0, 180]",180,a,0.16068585851462558,colour,0.06
11,22,1,2,14,11,661,1939.5204358610208,1940.1732940380462,"[92, 0, 162]",162,l,0.12935110786929727,colour,0.06
11,22,1,2,14,12,662,1942.192552300694,1942.8932875316823,"[93, 0, 161]",161,l,0.17794850544305518,colour,0.06
11,22,1,2,14,13,663,1944.9115753587685,1945.5013201704714,"[99, 0, 155]",155,l,0.0663850408163853,colour,0.06
11,22,1,2,14,14,664,1947.5211353308405,1948.4852567833732,"[72, 0, 182]",182,l,0.44078176777111366,colour,0.06
11,22,1,2,14,15,665,1950.5056705891038,1951.181234753225,"[62, 0, 192]",192,a,0.15218036866281182,colour,0.06
11,22,1,2,14,16,666,1953.1933923733886,1953.8452604225022,"[69, 0, 185]",185,a,0.12884186545852572,colour,0.06
11,22,1,2,14,17,667,1955.8655340191908,1956.5732840343262,"[79, 0, 175]",175,l,0.18444262573029846,colour,0.06
11,22,1,2,14,18,668,1958.5845385665307,1959.1172553214128,"[84, 0, 170]",170,l,0.009421968541573733,colour,0.06
11,22,1,2,14,19,669,1961.1315483725048,1961.6612726884196,"[45, 0, 209]",209,a,0.006448434141930193,colour,0.06
11,22,1,2,14,20,670,1963.666209149349,1964.3012143047526,"[66, 0, 188]",188,a,0.11164341529365629,colour,0.06
11,22,1,2,14,21,671,1966.3226678628707,1967.101258100418,"[78, 0, 176]",176,l,0.2551753282896243,colour,0.06
11,22,1,2,14,22,672,1969.119715674955,1969.7571981193032,"[52, 0, 202]",202,a,0.11407344276085496,colour,0.06
11,22,1,2,14,23,673,1971.7761791146477,1972.7972392209922,"[57, 0, 197]",197,a,0.49766528321197256,colour,0.06
11,22,1,2,14,24,674,1974.8077052742592,1975.5651857808698,"[63, 0, 191]",191,a,0.2341345202876255,colour,0.06
11,22,1,2,14,25,675,1977.5735644524102,1978.1892034314806,"[82, 0, 172]",172,l,0.09222013136604801,colour,0.06
11,22,1,2,14,26,676,1980.1987455229391,1980.9652175248484,"[73, 0, 181]",181,l,0.2438404515851289,colour,0.06
11,22,1,2,14,27,677,1982.9801722365664,1983.5972026721574,"[67, 0, 187]",187,l,0.09405308880377561,colour,0.06
11,22,1,2,14,28,678,1985.6054147469695,1986.7092233915464,"[70, 0, 184]",184,l,0.5805284305242822,colour,0.06
11,22,1,2,14,29,679,1988.7305855774903,1989.453211535234,"[65, 0, 189]",189,a,0.19941702974028885,colour,0.06
11,22,1,2,14,30,680,1991.4652336725267,1992.0932004130445,"[98, 0, 156]",156,l,0.10456522199092433,colour,0.06
11,22,1,2,14,31,681,1994.1060870414367,1994.8211814895622,"[34, 0, 220]",220,a,0.19166142196627334,colour,0.06
11,22,1,2,14,32,682,1996.8406733027077,1997.5652050793287,"[61, 0, 193]",193,l,0.2011893349699676,colour,0.06
11,22,1,2,14,33,683,1999.575261926977,2000.2371631930582,"[89, 0, 165]",165,l,0.13852849829709157,colour,0.06
11,22,1,2,14,34,684,2002.24733228673,2003.1571794510237,"[91, 0, 163]",163,l,0.38678789761615917,colour,0.06
11,22,1,2,14,35,685,2005.1694272618042,2006.0131938279374,"[64, 0, 190]",190,a,0.3203303891932592,colour,0.06
11,22,1,2,14,36,686,2008.0290543845622,2008.6451612521778,"[86, 0, 168]",168,l,0.09279238898307085,colour,0.06
11,22,1,2,14,37,687,2010.6541980397305,2011.4931974986102,"[55, 0, 199]",199,a,0.3156546541140415,colour,0.06
11,22,1,2,14,38,688,2013.5138365839957,2014.3251514533185,"[97, 0, 157]",157,l,0.2881437505129725,colour,0.06
11,22,1,2,14,39,689,2016.3421655836864,2017.013172560255,"[56, 0, 198]",198,a,0.1476491749053821,colour,0.06
11,22,1,2,14,40,690,2019.0298582234536,2019.7331573893316,"[80, 0, 174]",174,l,0.1800606994656846,colour,0.06
11,22,1,2,14,41,691,2021.748845441558,2022.2771755440626,"[77, 0, 177]",177,l,0.00494867010274902,colour,0.06
11,22,1,2,14,42,692,2024.295935592032,2024.885149499809,"[59, 0, 195]",195,a,0.06595220445888117,colour,0.06
11,22,1,2,14,43,693,2026.90635217831,2027.5171823024284,"[50, 0, 204]",204,l,0.08829506597248837,colour,0.06
11,22,1,2,14,44,694,2029.530712080712,2030.5651314302231,"[83, 0, 171]",171,l,0.5112458675866947,colour,0.06
11,22,1,2,14,45,695,2032.5778557941667,2033.429187346832,"[95, 0, 159]",159,l,0.32797532639233395,colour,0.06
11,22,1,2,14,46,696,2035.4374411692843,2036.2531328448677,"[90, 0, 164]",164,l,0.29233505547745153,colour,0.06
11,22,1,2,14,47,697,2038.2658887165599,2039.045130768558,"[71, 0, 183]",183,a,0.2563627727795392,colour,0.06
11,22,1,2,14,48,698,2041.0628975378932,2041.9892641624901,"[85, 0, 169]",169,l,0.4031131920637563,colour,0.06
11,22,1,2,14,49,699,2044.0006077037542,2044.5971195707098,"[58, 0, 196]",196,a,0.07314776378916577,colour,0.06
11,22,1,2,14,50,700,2046.610166494269,2047.2051014034078,"[75, 0, 179]",179,l,0.07156568596838042,colour,0.06
11,22,1,2,15,1,701,2058.8602820879314,2059.885129807575,"[91, 0, 163]",163,l,0.5011260046157986,colour,0.06
11,22,1,2,15,2,702,2061.892669194087,2062.6691121853073,"[56, 0, 198]",198,a,0.2531293003121391,colour,0.06
11,22,1,2,15,3,703,2064.68971228,2066.685062538716,"[87, 0, 167]",167,l,1.472005060117226,colour,0.06
11,22,1,2,15,4,704,2068.7056614518515,2069.573092231527,"[84, 0, 170]",170,l,0.34380870760651305,colour,0.06
11,22,1,2,15,5,705,2071.5808647746453,2072.3730773441494,"[73, 0, 181]",181,a,0.26913400436751544,colour,0.06
11,22,1,2,15,6,706,2074.393616392801,2075.0530844806344,"[80, 0, 174]",174,l,0.1360787785379216,colour,0.06
11,22,1,2,15,7,707,2077.065733226307,2077.6850660833297,"[29, 0, 225]",225,a,0.09605933836428449,colour,0.06
11,22,1,2,15,8,708,2079.706520823005,2080.50908838131,"[82, 0, 172]",172,l,0.2791916397982277,colour,0.06
11,22,1,2,15,9,709,2082.519220059621,2083.1730715152225,"[83, 0, 171]",171,l,0.13045584474457428,colour,0.06
11,22,1,2,15,10,710,2085.1913006593823,2085.741070929216,"[20, 0, 234]",234,a,0.027315950021147728,colour,0.06
11,22,1,2,15,11,711,2087.753925262252,2088.565075504128,"[71, 0, 183]",183,l,0.2876317512127571,colour,0.06
11,22,1,2,15,12,712,2090.5823334249435,2091.405069029308,"[55, 0, 199]",199,a,0.29939867655048147,colour,0.06
11,22,1,2,15,13,713,2093.4263299969025,2094.12509324291,"[97, 0, 157]",157,l,0.17537826899206266,colour,0.06
11,22,1,2,15,14,714,2096.145278224314,2096.829055644863,"[59, 0, 195]",195,a,0.16038732352899387,colour,0.06
11,22,1,2,15,15,715,2098.8486325286212,2099.581083358964,"[99, 0, 155]",155,l,0.20917613012716174,colour,0.06
11,22,1,2,15,16,716,2101.598835162178,2102.245057828317,"[90, 0, 164]",164,l,0.12281563377473503,colour,0.06
11,22,1,2,15,17,717,2104.255242282001,2104.925054330961,"[57, 0, 197]",197,a,0.1464325858396478,colour,0.06
11,22,1,2,15,18,718,2106.942951463221,2107.7251000958495,"[60, 0, 194]",194,a,0.2590578583185561,colour,0.06
11,22,1,2,15,19,719,2109.740037084499,2110.3650259583374,"[74, 0, 180]",180,a,0.1015617554076016,colour,0.06
11,22,1,2,15,20,720,2112.3808987241355,2112.941001533589,"[96, 0, 158]",158,l,0.03731726546538994,colour,0.06
11,22,1,2,15,21,721,2114.9592519453727,2115.605016569083,"[81, 0, 173]",173,l,0.12237964669475332,colour,0.06
11,22,1,2,15,22,722,2117.615638979012,2118.3570352247334,"[76, 0, 178]",178,l,0.21800378564512357,colour,0.06
11,22,1,2,15,23,723,2120.365840824903,2121.0450342763797,"[67, 0, 187]",187,a,0.15577027143444866,colour,0.06
11,22,1,2,15,24,724,2123.0535342523362,2123.7810242033447,"[89, 0, 165]",165,l,0.2039324696525,colour,0.06
11,22,1,2,15,25,725,2125.7881681689178,2126.3970022834837,"[61, 0, 193]",193,a,0.08551569748669863,colour,0.06
11,22,1,2,15,26,726,2128.413401227037,2129.1090066189645,"[69, 0, 185]",185,a,0.1723157255910337,colour,0.06
11,22,1,2,15,27,727,2131.1167834943626,2131.693003253953,"[65, 0, 189]",189,a,0.052896616340149194,colour,0.06
11,22,1,2,15,28,728,2133.7106558080413,2134.2449818160967,"[66, 0, 188]",188,a,0.010904009570367634,colour,0.06
11,22,1,2,15,29,729,2136.257738081622,2136.965145057242,"[77, 0, 177]",177,l,0.18395228794543073,colour,0.06
11,22,1,2,15,30,730,2138.976693792094,2139.5969915708993,"[68, 0, 186]",186,a,0.09756343474145979,colour,0.06
11,22,1,2,15,31,731,2141.6175940286485,2142.740980738541,"[51, 0, 203]",203,a,0.6000111852190457,colour,0.06
11,22,1,2,15,32,732,2144.758439520665,2145.348987777368,"[92, 0, 162]",162,l,0.0672885226085782,colour,0.06
11,22,1,2,15,33,733,2147.3679786188877,2147.956972760847,"[58, 0, 196]",196,a,0.06557371886447072,colour,0.06
11,22,1,2,15,34,734,2149.977701249183,2150.628974197549,"[54, 0, 200]",200,a,0.12851694284472615,colour,0.06
11,22,1,2,15,35,735,2152.6496424275683,2153.708959908865,"[78, 0, 176]",176,l,0.535930928948801,colour,0.06
11,22,1,2,15,36,736,2155.730363842449,2156.316997273767,"[85, 0, 169]",169,l,0.06335282343206927,colour,0.06
11,22,1,2,15,37,737,2158.3244996388094,2159.2770349411876,"[52, 0, 202]",202,a,0.4296359370346181,colour,0.06
11,22,1,2,15,38,738,2161.293706425873,2161.9889565690537,"[25, 0, 229]",229,a,0.17223735025618225,colour,0.06
11,22,1,2,15,39,739,2163.9968815304455,2164.6369684757665,"[50, 0, 204]",204,a,0.11758103175088763,colour,0.06
11,22,1,2,15,40,740,2166.6530862135696,2167.229005468893,"[93, 0, 161]",161,l,0.05243857385357842,colour,0.06
11,22,1,2,15,41,741,2169.247145997768,2169.837003843102,"[86, 0, 168]",168,l,0.0667910955962725,colour,0.06
11,22,1,2,15,42,742,2171.8567544128164,2172.8769267911557,"[64, 0, 190]",190,a,0.49678346287691966,colour,0.06
11,22,1,2,15,43,743,2174.888216769439,2175.6289521422004,"[63, 0, 191]",191,a,0.21742798335617408,colour,0.06
11,22,1,2,15,44,744,2177.6385308613535,2178.4369098715833,"[72, 0, 182]",182,a,0.2751098238513805,colour,0.06
11,22,1,2,15,45,745,2180.4512297041365,2180.980976469291,"[70, 0, 184]",184,l,0.0064051111694425344,colour,0.06
11,22,1,2,15,46,746,2182.998252507008,2183.764917493274,"[88, 0, 166]",166,l,0.24393339914968237,colour,0.06
11,22,1,2,15,47,747,2185.7797993434942,2186.5489865170675,"[62, 0, 192]",192,a,0.2460050270310603,colour,0.06
11,22,1,2,15,48,748,2188.561153983348,2189.1329339213553,"[94, 0, 160]",160,l,0.048381570260971785,colour,0.06
11,22,1,2,15,49,749,2191.139624964446,2191.8288831404643,"[79, 0, 175]",175,l,0.1661047802772373,colour,0.06
11,22,1,2,15,50,750,2193.8428418166004,2194.4529898001347,"[98, 0, 156]",156,l,0.08680396649288014,colour,0.06
11,22,1,2,16,1,751,2205.8586141517735,2206.5809151869034,"[56, 0, 198]",198,a,0.19809410232119262,colour,0.06
11,22,1,2,16,2,752,2208.5939475381747,2209.3088942941977,"[52, 0, 202]",202,a,0.19153027137508616,colour,0.06
11,22,1,2,16,3,753,2211.328601540881,2212.084855612251,"[39, 0, 215]",215,a,0.23291753738885745,colour,0.06
11,22,1,2,16,4,754,2214.0944130636635,2215.1089026437257,"[92, 0, 162]",162,l,0.49109357537236065,colour,0.06
11,22,1,2,16,5,755,2217.125943949446,2218.1169028296135,"[50, 0, 204]",204,a,0.4675616939784959,colour,0.06
11,22,1,2,16,6,756,2220.1262657213374,2220.8048900658614,"[76, 0, 178]",178,l,0.15543983498355374,colour,0.06
11,22,1,2,16,7,757,2222.813920551853,2223.4528826741735,"[86, 0, 168]",168,l,0.11593672633171082,colour,0.06
11,22,1,2,16,8,758,2225.4703320039553,2226.068904077285,"[84, 0, 170]",170,l,0.07517606863984838,colour,0.06
11,22,1,2,16,9,759,2228.079880948353,2229.092876278097,"[95, 0, 159]",159,l,0.4897481987136416,colour,0.06
11,22,1,2,16,10,760,2231.111377963389,2231.8928980183555,"[66, 0, 188]",188,a,0.2581142041599378,colour,0.06
11,22,1,2,16,11,761,2233.908476975397,2234.6769347468507,"[71, 0, 183]",183,a,0.24511966214049608,colour,0.06
11,22,1,2,16,12,762,2236.689958433504,2237.324897816754,"[82, 0, 172]",172,l,0.1116071815486066,colour,0.06
11,22,1,2,16,13,763,2239.346438020875,2240.108829782286,"[72, 0, 182]",182,a,0.2392174918204546,colour,0.06
11,22,1,2,16,14,764,2242.127926962101,2242.6928811618127,"[91, 0, 163]",163,l,0.04167674254858866,colour,0.06
11,22,1,2,16,15,765,2244.7062486756477,2245.532877050049,"[98, 0, 156]",156,l,0.3032331573776901,colour,0.06
11,22,1,2,16,16,766,2247.5501676600543,2248.356892652635,"[53, 0, 201]",201,a,0.28334119712235406,colour,0.06
11,22,1,2,16,17,767,2250.378490752075,2251.0368304722942,"[88, 0, 166]",166,l,0.13493505091173574,colour,0.06
11,22,1,2,16,18,768,2253.0506190071465,2253.7968351354357,"[68, 0, 186]",186,l,0.22282563749467954,colour,0.06
11,22,1,2,16,19,769,2255.8164734591264,2256.5808348424034,"[78, 0, 176]",176,l,0.24100830778479576,colour,0.06
11,22,1,2,16,20,770,2258.598007692548,2259.372804803017,"[69, 0, 185]",185,l,0.2516929453704506,colour,0.06
11,22,1,2,16,21,771,2261.3793544555083,2262.0367958138813,"[93, 0, 161]",161,l,0.13891328545287251,colour,0.06
11,22,1,2,16,22,772,2264.0466163542005,2264.6929158202256,"[62, 0, 192]",192,a,0.12310904875630513,colour,0.06
11,22,1,2,16,23,773,2266.703032532416,2267.3168058648007,"[65, 0, 189]",189,a,0.09032297704834491,colour,0.06
11,22,1,2,16,24,774,2269.328254562861,2270.6128005337087,"[44, 0, 210]",210,a,0.7611850184039213,colour,0.06
11,22,1,2,16,25,775,2272.625368147157,2273.3808431919315,"[99, 0, 155]",155,l,0.2320329601643607,colour,0.06
11,22,1,2,16,26,776,2275.3913194851484,2276.3087946512387,"[85, 0, 169]",169,l,0.3942095242673531,colour,0.06
11,22,1,2,16,27,777,2278.328961515741,2278.9327867018874,"[51, 0, 203]",203,a,0.08047486754367128,colour,0.06
11,22,1,2,16,28,778,2280.9541492816643,2281.940817607683,"[80, 0, 174]",174,a,0.46335778589127585,colour,0.06
11,22,1,2,16,29,779,2283.9544206412393,2284.5973196442937,"[96, 0, 158]",158,l,0.11956365057267249,colour,0.06
11,22,1,2,16,30,780,2286.610943945532,2287.6128304660087,"[18, 0, 236]",236,a,0.4787134324433282,colour,0.06
11,22,1,2,16,31,781,2289.6266914684093,2290.2847562843817,"[59, 0, 195]",195,a,0.13458728522527963,colour,0.06
11,22,1,2,16,32,782,2292.2987870342913,2292.884769044991,"[75, 0, 179]",179,l,0.06252023385604843,colour,0.06
11,22,1,2,16,33,783,2294.89279601234,2295.6127737521892,"[63, 0, 191]",191,l,0.1966632612165995,colour,0.06
11,22,1,2,16,34,784,2297.6273484029225,2298.244788044074,"[74, 0, 180]",180,l,0.09404954419005662,colour,0.06
11,22,1,2,16,35,785,2300.252508205769,2300.8607586411526,"[89, 0, 165]",165,l,0.08486782148247585,colour,0.06
11,22,1,2,16,36,786,2302.8777660761843,2303.4130329813925,"[57, 0, 197]",197,a,0.011276193661615252,colour,0.06
11,22,1,2,16,37,787,2305.424673482252,2306.316792867903,"[61, 0, 193]",193,a,0.36875961476471275,colour,0.06
11,22,1,2,16,38,788,2308.3311485404265,2309.0447294398327,"[73, 0, 181]",181,l,0.19005886412924156,colour,0.06
11,22,1,2,16,39,789,2311.065702506341,2311.644801277318,"[94, 0, 160]",160,l,0.05646446370519698,colour,0.06
11,22,1,2,16,40,790,2313.6598229427473,2314.316757421824,"[77, 0, 177]",177,a,0.1336660803644918,colour,0.06
11,22,1,2,16,41,791,2316.3318905455526,2317.324717829295,"[87, 0, 167]",167,l,0.46938401757506654,colour,0.06
11,22,1,2,16,42,792,2319.332186717482,2319.86883168848,"[90, 0, 164]",164,l,0.013369876949582249,colour,0.06
11,22,1,2,16,43,793,2321.8792256679735,2322.532757320965,"[60, 0, 194]",194,a,0.1301872420590371,colour,0.06
11,22,1,2,16,44,794,2324.5513165076845,2325.1967672364553,"[81, 0, 173]",173,l,0.12205945025198162,colour,0.06
11,22,1,2,16,45,795,2327.207748439745,2327.812724836578,"[54, 0, 200]",200,a,0.0815851183142513,colour,0.06
11,22,1,2,16,46,796,2329.832965350244,2330.8127401965903,"[97, 0, 157]",157,l,0.4564623369369656,colour,0.06
11,22,1,2,16,47,797,2332.8332221375895,2333.6287615209585,"[70, 0, 184]",184,a,0.2721067511010915,colour,0.06
11,22,1,2,16,48,798,2335.6459253126523,2336.3166991326725,"[83, 0, 171]",171,l,0.1474825782352127,colour,0.06
11,22,1,2,16,49,799,2338.3342914283858,2339.172723355703,"[67, 0, 187]",187,a,0.3164758221828379,colour,0.06
11,22,1,2,16,50,800,2341.1932576781837,2343.0927077122033,"[55, 0, 199]",199,a,1.376121376932133,colour,0.06
