id,age,condition,counterbalance,block,trialinblock,trial,tstart,tend,trialstim,trialintensity,response,RT,trialtype,colourfreq
91,19,0,1,Practice,1,NA,5.513837095350027e-06,14.510606480092974,"[98, 0, 156]",156,l,13.955901413952233,colour,0.5
91,19,0,1,Practice,2,NA,16.50787476156256,17.334568566875532,"[26, 0, 228]",228,l,0.3045216322061606,colour,0.5
91,19,0,1,Practice,3,NA,19.35166071236017,32.254605147318216,"[66, 0, 188]",188,l,12.380824643420056,colour,0.5
91,19,0,1,Practice,4,NA,34.27348929387517,41.58264964882983,"[93, 0, 161]",161,a,6.786966914165532,colour,0.5
91,19,0,1,Practice,5,NA,43.60194772790419,44.16660332304309,"[25, 0, 229]",229,l,0.0428189791564364,colour,0.5
91,19,0,1,Practice,6,NA,46.17970186614548,47.16661947072134,"[13, 0, 241]",241,l,0.4646993514325004,colour,0.5
91,19,0,1,Practice,7,NA,49.17963530612178,50.766613720566966,"[24, 0, 230]",230,l,1.0646746966522187,colour,0.5
91,19,0,1,Practice,8,NA,52.77341111536953,53.998617205332266,"[36, 0, 218]",218,l,0.703044944559224,colour,0.5
91,19,0,1,Practice,9,NA,56.00778673691093,68.72662098309956,"[81, 0, 173]",173,a,12.196661679248791,colour,0.5
91,19,0,1,Practice,10,NA,70.74213301687269,72.32661286985967,"[73, 0, 181]",181,a,1.0622671137098223,colour,0.5
91,19,0,1,1,1,1,5.841646183398552,6.632000176468864,"[83, 0, 171]",171,a,0.26748825650429353,colour,0.5
91,19,0,1,1,2,2,8.639447417779593,9.839993210101966,"[21, 0, 233]",233,l,0.6783610161510296,colour,0.5
91,19,0,1,1,3,3,11.858095965406392,13.144024109700695,"[22, 0, 232]",232,l,0.763711466541281,colour,0.5
91,19,0,1,1,4,4,15.155026996217202,16.248031457304023,"[16, 0, 238]",238,l,0.5709193280490581,colour,0.5
91,19,0,1,1,5,5,18.264320943853818,19.20803202444222,"[13, 0, 241]",241,l,0.421366402762942,colour,0.5
91,19,0,1,1,6,6,21.21752096543787,22.80001150033786,"[74, 0, 180]",180,a,1.0604636911011767,colour,0.5
91,19,0,1,1,7,7,24.811225094657857,25.76801778297522,"[26, 0, 228]",228,l,0.4350691062572878,colour,0.5
91,19,0,1,1,8,8,27.77997141465312,28.784007946262136,"[4, 0, 250]",250,l,0.4818186723277904,colour,0.5
91,19,0,1,1,9,9,30.795558279234683,31.82402943453053,"[64, 0, 190]",190,a,0.5061894929094706,colour,0.5
91,19,0,1,1,10,10,33.84254966699518,34.74402781185927,"[36, 0, 218]",218,l,0.3793445687042549,colour,0.5
91,19,0,1,1,11,11,36.76434792234795,37.72005950231687,"[65, 0, 189]",189,a,0.4334799360658508,colour,0.5
91,19,0,1,1,12,12,39.73308912233915,40.69605417121784,"[78, 0, 176]",176,a,0.4410228820925113,colour,0.5
91,19,0,1,1,13,13,42.701821263850434,43.64803445053985,"[77, 0, 177]",177,a,0.42423793676425703,colour,0.5
91,19,0,1,1,14,14,45.65491927921539,46.56802495097509,"[12, 0, 242]",242,l,0.3908401570515707,colour,0.5
91,19,0,1,1,15,15,48.5768033930799,49.48003179128864,"[2, 0, 252]",252,l,0.38096879119984806,colour,0.5
91,19,0,1,1,16,16,51.498635125375586,52.58405646812753,"[51, 0, 203]",203,a,0.5631798527028877,colour,0.5
91,19,0,1,1,17,17,54.59245839310461,55.5440223767946,"[7, 0, 247]",247,l,0.42929256131174043,colour,0.5
91,19,0,1,1,18,18,57.561214559245855,58.38404827611521,"[63, 0, 191]",191,a,0.3006666637666058,colour,0.5
91,19,0,1,1,19,19,60.38933330078726,61.296027941047214,"[20, 0, 234]",234,l,0.3844929286860861,colour,0.5
91,19,0,1,1,20,20,63.31125601159874,64.14405325433472,"[49, 0, 205]",205,a,0.31065618351567537,colour,0.5
91,19,0,1,1,21,21,66.15492144538439,66.97600884738495,"[28, 0, 226]",226,l,0.29886245349189267,colour,0.5
91,19,0,1,1,22,22,68.98307523925905,69.76807567838114,"[45, 0, 209]",209,a,0.2636195034137927,colour,0.5
91,19,0,1,1,23,23,71.77989934076322,72.58405646812753,"[67, 0, 187]",187,a,0.28197786503005773,colour,0.5
91,19,0,1,1,24,24,74.59229337144643,75.25605962204281,"[5, 0, 249]",249,l,0.14138967121834867,colour,0.5
91,19,0,1,1,25,25,77.26421696841135,78.11206505083828,"[6, 0, 248]",248,l,0.3255553923372645,colour,0.5
91,19,0,1,1,26,26,80.12356694071786,80.91206631113891,"[53, 0, 201]",201,a,0.2669636530918069,colour,0.5
91,19,0,1,1,27,27,82.92054031000589,83.72018750238931,"[87, 0, 167]",167,a,0.27753685318748467,colour,0.5
91,19,0,1,1,28,28,85.73304028538405,86.50405208856682,"[50, 0, 204]",204,a,0.24888334702700377,colour,0.5
91,19,0,1,1,29,29,88.51422947304673,89.13605068961624,"[52, 0, 202]",202,a,0.09906339389272034,colour,0.5
91,19,0,1,1,30,30,91.15483794995816,92.00806951863342,"[95, 0, 159]",159,a,0.33093572783400305,colour,0.5
91,19,0,1,1,31,31,94.01423675919068,94.7520740935579,"[85, 0, 169]",169,a,0.2156210504763294,colour,0.5
91,19,0,1,1,32,32,96.76420928840525,97.55207456616336,"[48, 0, 206]",206,l,0.26589278478058986,colour,0.5
91,19,0,1,1,33,33,99.56107356224675,100.14405798050575,"[42, 0, 212]",212,l,0.06076222666888498,colour,0.5
91,19,0,1,1,34,34,102.15483046686859,102.72809436245007,"[41, 0, 213]",213,l,0.05102161783725023,colour,0.5
91,19,0,1,1,35,35,104.7485759499541,105.48007708363002,"[96, 0, 158]",158,a,0.20929784671170637,colour,0.5
91,19,0,1,1,36,36,107.49854847916868,108.06406384092406,"[62, 0, 192]",192,a,0.04327190248295665,colour,0.5
91,19,0,1,1,37,37,110.07671851917985,110.69606401739293,"[56, 0, 198]",198,a,0.09709810046479106,colour,0.5
91,19,0,1,1,38,38,112.70165309144068,113.83206468849676,"[93, 0, 161]",161,a,0.6083910548186395,colour,0.5
91,19,0,1,1,39,39,115.8423157222569,116.84007670552819,"[33, 0, 221]",221,l,0.47554351785220206,colour,0.5
91,19,0,1,1,40,40,118.85801522689871,119.64009687048383,"[58, 0, 196]",196,a,0.2599015935556963,colour,0.5
91,19,0,1,1,41,41,121.65503428236116,122.56805448944215,"[91, 0, 163]",163,a,0.390916957083391,colour,0.5
91,19,0,1,1,42,42,124.57753476582002,125.40807960109669,"[73, 0, 181]",181,a,0.3090626810444519,colour,0.5
91,19,0,1,1,43,43,127.42049324535765,128.47208042661077,"[9, 0, 245]",245,l,0.5292495926842093,colour,0.5
91,19,0,1,1,44,44,130.4800436066871,131.48806665142183,"[71, 0, 183]",183,a,0.4858189700753428,colour,0.5
91,19,0,1,1,45,45,133.4956273205171,134.36810655595036,"[97, 0, 157]",157,a,0.3502460161689669,colour,0.5
91,19,0,1,1,46,46,136.3862483020348,137.3280953076901,"[10, 0, 244]",244,l,0.4197169741091784,colour,0.5
91,19,0,1,1,47,47,139.3394254805462,140.35207543263095,"[37, 0, 217]",217,a,0.4904064928123262,colour,0.5
91,19,0,1,1,48,48,142.37062520359177,143.2720694776799,"[18, 0, 236]",236,l,0.3792126301850658,colour,0.5
91,19,0,1,1,49,49,145.29248135435046,146.2480743865599,"[69, 0, 185]",185,a,0.43336178216850385,colour,0.5
91,19,0,1,1,50,50,148.2612040435488,149.35206991876476,"[19, 0, 235]",235,l,0.5687039421172813,colour,0.5
91,19,0,1,2,1,51,157.15429601731012,157.96010336105246,"[53, 0, 201]",201,a,0.28280691168038175,colour,0.5
91,19,0,1,2,2,52,159.96753563621314,160.832085168513,"[82, 0, 172]",172,a,0.3424214699771255,colour,0.5
91,19,0,1,2,3,53,162.8425232792797,163.76009950137814,"[40, 0, 214]",214,l,0.39533355049206875,colour,0.5
91,19,0,1,2,4,54,165.77997141465312,166.67213903093943,"[54, 0, 200]",200,a,0.36997772011091,colour,0.5
91,19,0,1,2,5,55,168.68626078698435,169.57611810037633,"[8, 0, 246]",246,l,0.3677485495863948,colour,0.5
91,19,0,1,2,6,56,171.59247572234017,172.44012215541443,"[52, 0, 202]",202,a,0.32545811228919774,colour,0.5
91,19,0,1,2,7,57,174.45187059312593,175.30407461657887,"[29, 0, 225]",225,l,0.33021301971166395,colour,0.5
91,19,0,1,2,8,58,177.3112666454399,178.2721128007688,"[42, 0, 212]",212,l,0.4386113606451545,colour,0.5
91,19,0,1,2,9,59,180.2800066639029,181.26411299296888,"[0, 0, 254]",254,l,0.4619124944147188,colour,0.5
91,19,0,1,2,10,60,183.27993222692749,184.2640866052534,"[6, 0, 248]",248,l,0.4619550298375543,colour,0.5
91,19,0,1,2,11,61,186.2801976793853,187.24010648031253,"[87, 0, 167]",167,a,0.45048779842909425,colour,0.5
91,19,0,1,2,12,62,189.2520175765967,190.10409044919652,"[99, 0, 155]",155,a,0.33000940110650845,colour,0.5
91,19,0,1,2,13,63,192.11141677969135,192.98412365833065,"[27, 0, 227]",227,l,0.3505079239839688,colour,0.5
91,19,0,1,2,14,64,195.00185698573478,195.904105494119,"[36, 0, 218]",218,l,0.38037880932097323,colour,0.5
91,19,0,1,2,15,65,197.92383877348038,198.8000930265407,"[17, 0, 237]",237,l,0.3539568367996253,colour,0.5
91,19,0,1,2,16,66,200.81455979199382,201.73610795487184,"[67, 0, 187]",187,a,0.39990650085383095,colour,0.5
91,19,0,1,2,17,67,203.75201068428578,204.7441467534809,"[96, 0, 158]",158,a,0.47015451776678674,colour,0.5
91,19,0,1,2,18,68,206.7520142288995,207.68015222952818,"[16, 0, 238]",238,l,0.40611391377751715,colour,0.5
91,19,0,1,2,19,69,209.6895478289225,210.54409681377,"[84, 0, 170]",170,a,0.33234294096473604,colour,0.5
91,19,0,1,2,20,70,212.56447442580247,213.5601377832354,"[58, 0, 196]",196,a,0.4733840581320692,colour,0.5
91,19,0,1,2,21,71,215.5800408103678,216.55212852312252,"[59, 0, 195]",195,a,0.44986394577426836,colour,0.5
91,19,0,1,2,22,72,218.5644925427332,219.49614207772538,"[32, 0, 222]",222,l,0.40945530650787987,colour,0.5
91,19,0,1,2,23,73,221.50198518272373,222.47215486355708,"[1, 0, 253]",253,l,0.44814835090073757,colour,0.5
91,19,0,1,2,24,74,224.48629906884162,225.3761173914536,"[69, 0, 185]",185,a,0.36762685104622506,colour,0.5
91,19,0,1,2,25,75,227.39256087192916,228.3761154222011,"[72, 0, 182]",182,a,0.4613796202465892,colour,0.5
91,19,0,1,2,26,76,230.392584502697,231.4961456223391,"[50, 0, 204]",204,a,0.58142714962014,colour,0.5
91,19,0,1,2,27,77,233.50196627809783,234.70415322831832,"[89, 0, 165]",165,a,0.6802739280392416,colour,0.5
91,19,0,1,2,28,78,236.7207310104277,237.68812604347477,"[47, 0, 207]",207,a,0.4452291615016293,colour,0.5
91,19,0,1,2,29,79,239.7050417457649,240.68014159565791,"[39, 0, 215]",215,l,0.4529044398514088,colour,0.5
91,19,0,1,2,30,80,242.68946197041078,243.72816525481176,"[65, 0, 189]",189,a,0.5164913328189868,colour,0.5
91,19,0,1,2,31,81,245.73630921039148,246.64014925205265,"[43, 0, 211]",211,l,0.38173954861122184,colour,0.5
91,19,0,1,2,32,82,248.65813306573546,249.58417659127736,"[66, 0, 188]",188,a,0.4038087308581453,colour,0.5
91,19,0,1,2,33,83,251.5956859642465,252.5361659290793,"[37, 0, 217]",217,l,0.4182491086248774,colour,0.5
91,19,0,1,2,34,84,254.5487843734445,255.63214865655755,"[9, 0, 245]",245,l,0.5615615379065275,colour,0.5
91,19,0,1,2,35,85,257.6424508903292,258.4481436247588,"[90, 0, 164]",164,a,0.28340122586814687,colour,0.5
91,19,0,1,2,36,86,260.44265104306396,261.2881703118037,"[20, 0, 234]",234,l,0.32328565561329015,colour,0.5
91,19,0,1,2,37,87,263.3020675753942,264.136179871246,"[46, 0, 208]",208,l,0.3121236551669426,colour,0.5
91,19,0,1,2,38,88,266.14577672613086,266.79218498492264,"[38, 0, 216]",216,l,0.12421324261231348,colour,0.5
91,19,0,1,2,39,89,268.78972777733,269.58414311433444,"[80, 0, 174]",174,a,0.27227388392202556,colour,0.5
91,19,0,1,2,40,90,271.6021198387898,272.56814783104346,"[45, 0, 209]",209,l,0.4439444345771335,colour,0.5
91,19,0,1,2,41,91,274.5864857126435,275.5765005252033,"[18, 0, 236]",236,l,0.46784500253852457,colour,0.5
91,19,0,1,2,42,92,277.5864648387942,278.22414112935076,"[41, 0, 213]",213,l,0.1155037236167118,colour,0.5
91,19,0,1,2,43,93,280.2427779403515,281.2481456727546,"[97, 0, 157]",157,a,0.4831955592962913,colour,0.5
91,19,0,1,2,44,94,283.25838528497843,284.4081737303932,"[86, 0, 168]",168,a,0.6277702662628144,colour,0.5
91,19,0,1,2,45,95,286.41477498965105,287.4161479381728,"[25, 0, 229]",229,l,0.4791799015365541,colour,0.5
91,19,0,1,2,46,96,289.43037091271253,290.3281854985107,"[21, 0, 233]",233,l,0.3755652187974192,colour,0.5
91,19,0,1,2,47,97,292.3366539835115,293.22416751706623,"[56, 0, 198]",198,a,0.36527598195243627,colour,0.5
91,19,0,1,2,48,98,295.2429417804524,296.2881581025431,"[71, 0, 183]",183,a,0.5229602596955374,colour,0.5
91,19,0,1,2,49,99,298.3054696204781,299.27219314544345,"[73, 0, 181]",181,a,0.4445096041599754,colour,0.5
91,19,0,1,2,50,100,301.28980319891707,302.2721892069676,"[94, 0, 160]",160,a,0.4601913857040927,colour,0.5
91,19,0,1,3,1,101,310.20745503949,311.05628183018416,"[88, 0, 166]",166,a,0.32593742333119735,colour,0.5
91,19,0,1,3,2,102,313.0676033384225,313.8801848400035,"[31, 0, 223]",223,l,0.2904884916206356,colour,0.5
91,19,0,1,3,3,103,315.8956657599192,316.89621005562367,"[7, 0, 247]",247,l,0.47836779028875753,colour,0.5
91,19,0,1,3,4,104,318.90210908680456,319.704190643708,"[12, 0, 242]",242,l,0.2801216670195572,colour,0.5
91,19,0,1,3,5,105,321.7175160423503,322.54418503533816,"[66, 0, 188]",188,a,0.3044972137140576,colour,0.5
91,19,0,1,3,6,106,324.5613047500665,325.50417339324486,"[51, 0, 203]",203,a,0.4207086793030612,colour,0.5
91,19,0,1,3,7,107,327.51442836545175,328.4001845564344,"[80, 0, 174]",174,a,0.36350012858747505,colour,0.5
91,19,0,1,3,8,108,330.404988694645,331.31217918751645,"[22, 0, 232]",232,l,0.3849844489886891,colour,0.5
91,19,0,1,3,9,109,333.326885017741,334.3522187927156,"[35, 0, 219]",219,l,0.5031210356974043,colour,0.5
91,19,0,1,3,10,110,336.3458042166021,337.10421490465524,"[95, 0, 159]",159,a,0.23636927193729207,colour,0.5
91,19,0,1,3,11,111,339.09902794775553,339.99220420463826,"[92, 0, 162]",162,a,0.3709158622077666,colour,0.5
91,19,0,1,3,12,112,342.00531810778193,342.96822604892077,"[54, 0, 200]",200,a,0.4407649126951583,colour,0.5
91,19,0,1,3,13,113,344.97395060615963,345.81622221760335,"[9, 0, 245]",245,l,0.3200135798251722,colour,0.5
91,19,0,1,3,14,114,347.83338171080686,348.65625481231837,"[89, 0, 165]",165,a,0.3007178638072219,colour,0.5
91,19,0,1,3,15,115,350.65174881581333,351.4562895495619,"[50, 0, 204]",204,l,0.28255996998632327,colour,0.5
91,19,0,1,3,16,116,353.45851872011553,354.27223331775167,"[67, 0, 187]",187,a,0.2915916553174611,colour,0.5
91,19,0,1,3,17,117,356.2866047724092,356.904240977281,"[26, 0, 228]",228,l,0.09549790257005952,colour,0.5
91,19,0,1,3,18,118,358.91158975701546,359.79220270802034,"[63, 0, 191]",191,a,0.3583828824921511,colour,0.5
91,19,0,1,3,19,119,361.79303490545135,362.5122862349672,"[43, 0, 211]",211,l,0.1970657656493131,colour,0.5
91,19,0,1,3,20,120,364.52737291465746,365.34422016644385,"[29, 0, 225]",225,l,0.29462860483909026,colour,0.5
91,19,0,1,3,21,121,367.35556136700325,368.16019662388135,"[46, 0, 208]",208,l,0.28251782842562534,colour,0.5
91,19,0,1,3,22,122,370.1679880869342,370.96821699046995,"[10, 0, 244]",244,l,0.27817252126988024,colour,0.5
91,19,0,1,3,23,123,372.98049239465035,373.76022159375134,"[17, 0, 237]",237,l,0.2576420968398452,colour,0.5
91,19,0,1,3,24,124,375.7773759669508,376.5522372247069,"[90, 0, 164]",164,a,0.2620657794177532,colour,0.5
91,19,0,1,3,25,125,378.56489781066193,379.28823765952257,"[77, 0, 177]",177,a,0.1985915265395306,colour,0.5
91,19,0,1,3,26,126,381.30190531068365,381.9842485076224,"[48, 0, 206]",206,l,0.1603813378023915,colour,0.5
91,19,0,1,3,27,127,383.9894275875995,384.7122314115404,"[65, 0, 189]",189,a,0.21299448888748884,colour,0.5
91,19,0,1,3,28,128,386.72724089733674,387.4242647183419,"[87, 0, 167]",167,a,0.17479887249646708,colour,0.5
91,19,0,1,3,29,129,389.4205117561214,391.2482323189615,"[81, 0, 173]",173,a,1.3054609558312222,colour,0.5
91,19,0,1,3,30,130,393.25192384116235,393.8562878166558,"[32, 0, 222]",222,l,0.08237691019894555,colour,0.5
91,19,0,1,3,31,131,395.86130738884094,396.47226198978024,"[30, 0, 224]",224,l,0.08878045860910788,colour,0.5
91,19,0,1,3,32,132,398.4769204048498,399.92824985302286,"[15, 0, 239]",239,l,0.9291037119692191,colour,0.5
91,19,0,1,3,33,133,401.9457133956312,402.6802459649625,"[62, 0, 192]",192,a,0.2123796947125811,colour,0.5
91,19,0,1,3,34,134,404.69566386943916,405.4402473985683,"[73, 0, 181]",181,a,0.2224278975627385,colour,0.5
91,19,0,1,3,35,135,407.4456580602273,408.68025187266176,"[37, 0, 217]",217,l,0.7248175605200231,colour,0.5
91,19,0,1,3,36,136,410.6987866774434,411.5765269129188,"[72, 0, 182]",182,a,0.35548929308424704,colour,0.5
91,19,0,1,3,37,137,413.5894663420913,414.2162917708629,"[61, 0, 193]",193,a,0.10457212332403287,colour,0.5
91,19,0,1,3,38,138,416.23006339746644,416.7922712372965,"[79, 0, 175]",175,a,0.04127549516852014,colour,0.5
91,19,0,1,3,39,139,418.80328121304046,419.37627571768826,"[0, 0, 254]",254,l,0.060308515618089586,colour,0.5
91,19,0,1,3,40,140,421.37836389124277,421.99224634619895,"[33, 0, 221]",221,l,0.09227151295635849,colour,0.5
91,19,0,1,3,41,141,424.0059033634898,424.6802888942184,"[49, 0, 205]",205,l,0.15316134586464614,colour,0.5
91,19,0,1,3,42,142,426.69356900051935,427.29629890737124,"[76, 0, 178]",178,a,0.0794963177468162,colour,0.5
91,19,0,1,3,43,143,429.297217357147,429.8246836133767,"[34, 0, 220]",220,l,0.00589666812447831,colour,0.5
91,19,0,1,3,44,144,431.8427552548237,432.48034804995405,"[71, 0, 183]",183,a,0.11616144710569642,colour,0.5
91,19,0,1,3,45,145,434.4924466170778,435.5602783864015,"[52, 0, 202]",202,a,0.5456966177735012,colour,0.5
91,19,0,1,3,46,146,437.5703640046704,438.4564092788787,"[6, 0, 248]",248,l,0.3638632549555041,colour,0.5
91,19,0,1,3,47,147,440.45096120180096,441.40030822419794,"[86, 0, 168]",168,a,0.427973569749156,colour,0.5
91,19,0,1,3,48,148,443.4199280757748,444.35236727280426,"[5, 0, 249]",249,l,0.41069946726202033,colour,0.5
91,19,0,1,3,49,149,446.3572982295591,447.4082840073679,"[39, 0, 215]",215,l,0.5294378512480762,colour,0.5
91,19,0,1,3,50,150,449.4197524203046,450.40027277803165,"[42, 0, 212]",212,l,0.4587841725733597,colour,0.5
91,19,0,1,4,1,151,462.70030810605385,463.34432768650004,"[12, 0, 242]",242,l,0.1210998869210016,colour,0.5
91,19,0,1,4,2,152,465.35726435875404,466.224253375578,"[77, 0, 177]",177,a,0.34465851745335385,colour,0.5
91,19,0,1,4,3,153,468.2323098972556,468.80032106357976,"[3, 0, 251]",251,l,0.04579842704697512,colour,0.5
91,19,0,1,4,4,154,470.8105953342747,471.8722756168572,"[26, 0, 228]",228,l,0.5403627561463509,colour,0.5
91,19,0,1,4,5,155,473.888535958773,475.21627365393215,"[82, 0, 172]",172,a,0.8054229496628977,colour,0.5
91,19,0,1,4,6,156,477.23320117162075,478.3283008954895,"[90, 0, 164]",164,a,0.5728531137865502,colour,0.5
91,19,0,1,4,7,157,480.33564849369577,481.40031058728346,"[33, 0, 221]",221,l,0.5426848744682502,colour,0.5
91,19,0,1,4,8,158,483.41371121056727,484.52029510124703,"[64, 0, 190]",190,a,0.5843427944637369,colour,0.5
91,19,0,1,4,9,159,486.5386467674689,487.74436691359733,"[91, 0, 163]",163,a,0.6833798006409779,colour,0.5
91,19,0,1,4,10,160,489.75746033672476,490.5523179632146,"[69, 0, 185]",185,a,0.2725814779405482,colour,0.5
91,19,0,1,4,11,161,492.56998079211917,493.344269397232,"[68, 0, 186]",186,a,0.25206838274607435,colour,0.5
91,19,0,1,4,12,162,495.35118573362706,495.92828214840847,"[29, 0, 225]",225,l,0.05489352165022865,colour,0.5
91,19,0,1,4,13,163,497.9450221952284,498.84027362873894,"[88, 0, 166]",166,a,0.37296701420564204,colour,0.5
91,19,0,1,4,14,164,500.84202427591663,501.7123086054344,"[78, 0, 176]",176,a,0.3480700148502365,colour,0.5
91,19,0,1,4,15,165,503.732657860528,504.312293009134,"[75, 0, 179]",179,a,0.05746100627584383,colour,0.5
91,19,0,1,4,16,166,506.3170581565646,507.1683189179166,"[4, 0, 250]",250,l,0.32907125903875567,colour,0.5
91,19,0,1,4,17,167,509.1764510580979,510.0402889099787,"[25, 0, 229]",229,l,0.34159557410748675,colour,0.5
91,19,0,1,4,18,168,512.0513945903804,512.8562972689688,"[45, 0, 209]",209,a,0.28280454862397164,colour,0.5
91,19,0,1,4,19,169,514.8639571873355,515.4162928736478,"[61, 0, 193]",193,a,0.030144214746542275,colour,0.5
91,19,0,1,4,20,170,517.4264151196112,517.9763065952575,"[81, 0, 173]",173,a,0.02829116748762317,colour,0.5
91,19,0,1,4,21,171,519.9889667873504,520.6003246869659,"[73, 0, 181]",181,a,0.08919714807416312,colour,0.5
91,19,0,1,4,22,172,522.6157390468579,523.5683037942217,"[96, 0, 158]",158,a,0.4311936578305904,colour,0.5
91,19,0,1,4,23,173,525.5844731576217,526.4802968499134,"[20, 0, 234]",234,l,0.3736861776851583,colour,0.5
91,19,0,1,4,24,174,528.4907172376115,529.3363361494849,"[97, 0, 157]",157,a,0.32333606795873493,colour,0.5
91,19,0,1,4,25,175,531.3500392468122,532.1123568910116,"[95, 0, 159]",159,a,0.24003558795084246,colour,0.5
91,19,0,1,4,26,176,534.1313832160959,535.0563322425296,"[76, 0, 178]",178,a,0.4027051732991822,colour,0.5
91,19,0,1,4,27,177,537.0688975176308,538.3843318455329,"[63, 0, 191]",191,a,0.7934630164527334,colour,0.5
91,19,0,1,4,28,178,540.3969605299062,541.3843381470651,"[79, 0, 175]",175,a,0.46521765328361653,colour,0.5
91,19,0,1,4,29,179,543.3970133053372,544.3603556590679,"[89, 0, 165]",165,a,0.44112094983574934,colour,0.5
91,19,0,1,4,30,180,546.365772228397,547.4564305465901,"[13, 0, 241]",241,l,0.5685397081833798,colour,0.5
91,19,0,1,4,31,181,549.4751827545697,550.5203455135634,"[70, 0, 184]",184,a,0.5229976751143113,colour,0.5
91,19,0,1,4,32,182,552.5377023238398,553.4883502208104,"[42, 0, 212]",212,l,0.4285674901038874,colour,0.5
91,19,0,1,4,33,183,555.506332459132,556.4963980778994,"[50, 0, 204]",204,a,0.4678473656240385,colour,0.5
91,19,0,1,4,34,184,558.5063746006927,559.1923305505479,"[43, 0, 211]",211,l,0.1637376967119053,colour,0.5
91,19,0,1,4,35,185,561.2094660191506,562.1123214448453,"[54, 0, 200]",200,l,0.3806840402830858,colour,0.5
91,19,0,1,4,36,186,564.1313658868603,565.0963545184641,"[94, 0, 160]",160,a,0.4428550554730464,colour,0.5
91,19,0,1,4,37,187,567.115645114478,567.9923314170155,"[8, 0, 246]",246,l,0.3544270893908106,colour,0.5
91,19,0,1,4,38,188,570.0063086314185,570.7923157419427,"[17, 0, 237]",237,l,0.2637632573605515,colour,0.5
91,19,0,1,4,39,189,572.8031658160326,573.6963767314155,"[27, 0, 227]",227,l,0.3712561454740353,colour,0.5
91,19,0,1,4,40,190,575.7093961114006,576.6723300464218,"[40, 0, 214]",214,l,0.44093229740974493,colour,0.5
91,19,0,1,4,41,191,578.6781451883435,579.488362823904,"[32, 0, 222]",222,l,0.2880446747876704,colour,0.5
91,19,0,1,4,42,192,581.5062627483276,582.4883549469814,"[48, 0, 206]",206,l,0.45981211165781133,colour,0.5
91,19,0,1,4,43,193,584.5062513267912,585.3283331909042,"[5, 0, 249]",249,l,0.2997793278773315,colour,0.5
91,19,0,1,4,44,194,587.3343988191045,587.8963455387857,"[2, 0, 252]",252,l,0.03975958042428829,colour,0.5
91,19,0,1,4,45,195,589.9125180529372,591.2003279952914,"[16, 0, 238]",238,l,0.7655393076420296,colour,0.5
91,19,0,1,4,46,196,593.2093462898338,593.7923551265849,"[7, 0, 247]",247,l,0.06091818984714337,colour,0.5
91,19,0,1,4,47,197,595.8031067390693,596.7283440610627,"[1, 0, 253]",253,l,0.40335580753162503,colour,0.5
91,19,0,1,4,48,198,598.7407655822462,599.7523608137271,"[80, 0, 174]",174,a,0.4898452617053408,colour,0.5
91,19,0,1,4,49,199,601.7718554221501,602.5283425644448,"[6, 0, 248]",248,l,0.2342235968390014,colour,0.5
91,19,0,1,4,50,200,604.5374644405965,605.2803721533273,"[24, 0, 230]",230,l,0.22063668418559246,colour,0.5
91,19,0,1,5,1,201,613.5371970189153,614.4003578488482,"[89, 0, 165]",165,a,0.3401631548185833,colour,0.5
91,19,0,1,5,2,202,616.4130412778759,617.2164063801756,"[0, 0, 254]",254,l,0.2812653969449457,colour,0.5
91,19,0,1,5,3,203,619.2255093517015,620.1043531447358,"[8, 0, 246]",246,l,0.35666019839118235,colour,0.5
91,19,0,1,5,4,204,622.1160145424074,622.6404792953108,"[97, 0, 157]",157,a,0.0022571336303371936,colour,0.5
91,19,0,1,5,5,205,624.6637757029093,625.2643918362155,"[35, 0, 219]",219,l,0.07848570792702958,colour,0.5
91,19,0,1,5,6,206,627.2730666967109,628.2723904624581,"[48, 0, 206]",206,l,0.4771271741774399,colour,0.5
91,19,0,1,5,7,207,630.2887362690526,631.5283516229247,"[56, 0, 198]",198,l,0.7173778022697661,colour,0.5
91,19,0,1,5,8,208,633.5387475921307,634.4723545436864,"[98, 0, 156]",156,a,0.4114032707293518,colour,0.5
91,19,0,1,5,9,209,636.4917916505365,637.5043604702805,"[73, 0, 181]",181,a,0.49030251734075136,colour,0.5
91,19,0,1,5,10,210,639.5230335151718,640.4244049276749,"[88, 0, 166]",166,a,0.3790739962714724,colour,0.5
91,19,0,1,5,11,211,642.4292760197714,643.2084215385257,"[31, 0, 223]",223,l,0.2569512902700808,colour,0.5
91,19,0,1,5,12,212,645.2261899182631,646.1284069189569,"[60, 0, 194]",194,a,0.38001174450619146,colour,0.5
91,19,0,1,5,13,213,648.1480062905175,649.0883838552982,"[95, 0, 159]",159,a,0.41816206855583005,colour,0.5
91,19,0,1,5,14,214,651.1017667555134,651.984406046191,"[82, 0, 172]",172,a,0.361033862514887,colour,0.5
91,19,0,1,5,15,215,653.9917942105385,654.9444133087236,"[39, 0, 215]",215,l,0.43036461118026637,colour,0.5
91,19,0,1,5,16,216,656.9605389551725,657.8644128676096,"[28, 0, 226]",226,l,0.3816332100832369,colour,0.5
91,19,0,1,5,17,217,659.882452213642,660.7684065093636,"[70, 0, 184]",184,a,0.36391563655342907,colour,0.5
91,19,0,1,5,18,218,662.7887352844409,663.600378250092,"[22, 0, 232]",232,l,0.2894731556298211,colour,0.5
91,19,0,1,5,19,219,665.61675595821,666.5923764730396,"[92, 0, 162]",162,a,0.45340383707662113,colour,0.5
91,19,0,1,5,20,220,668.5888420955744,669.4404151771159,"[38, 0, 216]",216,l,0.33002318572835065,colour,0.5
91,19,0,1,5,21,221,671.448163710942,672.2643855346541,"[15, 0, 239]",239,a,0.293965761346044,colour,0.5
91,19,0,1,5,22,222,674.2669872838887,675.0323962283728,"[85, 0, 169]",169,a,0.2432564636983443,colour,0.5
91,19,0,1,5,23,223,677.0484824901796,677.5844640991418,"[50, 0, 204]",204,l,0.013485694129485637,colour,0.5
91,19,0,1,5,24,224,679.5954205117596,680.136398062139,"[33, 0, 221]",221,l,0.019533599232090637,colour,0.5
91,19,0,1,5,25,225,682.1422210809542,682.9364127132285,"[87, 0, 167]",167,a,0.2719698345172219,colour,0.5
91,19,0,1,5,26,226,684.9547454748244,685.6884167020908,"[23, 0, 231]",231,l,0.2115644326840993,colour,0.5
91,19,0,1,5,27,227,687.7047550255957,688.5844243206666,"[19, 0, 235]",235,l,0.3575278419884853,colour,0.5
91,19,0,1,5,28,228,690.5952464316797,691.4324193077919,"[91, 0, 163]",163,a,0.31558989721816033,colour,0.5
91,19,0,1,5,29,229,693.439074917871,694.2003996753192,"[14, 0, 240]",240,l,0.23909114432171918,colour,0.5
91,19,0,1,5,30,230,696.2203487824881,697.0564307041059,"[61, 0, 193]",193,a,0.3140787086158525,colour,0.5
91,19,0,1,5,31,231,699.0640803824936,699.912400686735,"[18, 0, 236]",236,l,0.33535586582729593,colour,0.5
91,19,0,1,5,32,232,701.929857533949,702.7524344629783,"[86, 0, 168]",168,a,0.3004854944301769,colour,0.5
91,19,0,1,5,33,233,704.7578998692916,705.8804235109128,"[54, 0, 200]",200,l,0.6002608838607557,colour,0.5
91,19,0,1,5,34,234,707.8985625000787,708.6884360005788,"[1, 0, 253]",253,l,0.267721413547406,colour,0.5
91,19,0,1,5,35,235,710.6954212600831,711.5363959353708,"[29, 0, 225]",225,l,0.318969886895502,colour,0.5
91,19,0,1,5,36,236,713.5548326724092,714.3844047071179,"[47, 0, 207]",207,l,0.30726122768828645,colour,0.5
91,19,0,1,5,37,237,716.398464629252,717.000406449486,"[20, 0, 234]",234,l,0.07968693939619698,colour,0.5
91,19,0,1,5,38,238,719.00791276776,719.7444452890486,"[77, 0, 177]",177,a,0.2143323851050809,colour,0.5
91,19,0,1,5,39,239,721.7578518200316,726.2724440255843,"[12, 0, 242]",242,l,3.9922813985322136,colour,0.5
91,19,0,1,5,40,240,728.2891025462013,728.9524127226614,"[74, 0, 180]",180,a,0.14106947410618886,colour,0.5
91,19,0,1,5,41,241,730.961030475446,731.5844448006828,"[4, 0, 250]",250,l,0.10118780133780092,colour,0.5
91,19,0,1,5,42,242,733.6017169339466,734.2564385022852,"[45, 0, 209]",209,l,0.13260335219092667,colour,0.5
91,19,0,1,5,43,243,736.273594844708,739.2644658793288,"[6, 0, 248]",248,l,2.468689803034067,colour,0.5
91,19,0,1,5,44,244,741.2735664877691,742.0964297431346,"[34, 0, 220]",220,l,0.3006962022627704,colour,0.5
91,19,0,1,5,45,245,744.1016182754247,744.9044564112555,"[90, 0, 164]",164,a,0.2807203135162126,colour,0.5
91,19,0,1,5,46,246,746.9140540538647,747.7364179119759,"[65, 0, 189]",189,a,0.30002548184711486,colour,0.5
91,19,0,1,5,47,247,749.7310261549719,750.5284422075783,"[76, 0, 178]",178,a,0.27516195946373045,colour,0.5
91,19,0,1,5,48,248,752.543564727297,753.2964918921061,"[26, 0, 228]",228,l,0.2306569239590317,colour,0.5
91,19,0,1,5,49,249,755.3092359734583,756.0724716736004,"[67, 0, 187]",187,a,0.2411726224818267,colour,0.5
91,19,0,1,5,50,250,758.0904440657469,758.7044494008005,"[63, 0, 191]",191,a,0.09178156807320192,colour,0.5
91,19,0,1,6,1,251,803.0427874714369,804.328476944851,"[83, 0, 171]",171,l,0.7628304322133772,colour,0.5
91,19,0,1,6,2,252,806.340392767248,807.440540814132,"[24, 0, 230]",230,l,0.5779502737568691,colour,0.5
91,19,0,1,6,3,253,809.4496705672063,810.2324721619661,"[37, 0, 217]",217,l,0.26057349547045305,colour,0.5
91,19,0,1,6,4,254,812.2465167241171,813.2004918353923,"[56, 0, 198]",198,l,0.4317068396776449,colour,0.5
91,19,0,1,6,5,255,815.2153489026241,815.8644743076293,"[29, 0, 225]",225,l,0.1269650472968351,colour,0.5
91,19,0,1,6,6,256,817.8730069895973,818.6325054813642,"[81, 0, 173]",173,a,0.23764927269075997,colour,0.5
91,19,0,1,6,7,257,820.6386349126697,821.232466648129,"[78, 0, 176]",176,a,0.07161427001119591,colour,0.5
91,19,0,1,6,8,258,823.2479904973006,824.1445116915274,"[54, 0, 200]",200,a,0.3743045165028889,colour,0.5
91,19,0,1,6,9,259,826.1542727803753,827.8884871218179,"[27, 0, 227]",227,l,1.212056346819736,colour,0.5
91,19,0,1,6,10,260,829.9041929280211,830.4324968955189,"[1, 0, 253]",253,l,0.006073898985050619,colour,0.5
91,19,0,1,6,11,261,832.4511100757518,833.1285120759276,"[74, 0, 180]",180,a,0.1552014701301232,colour,0.5
91,19,0,1,6,12,262,835.1386154172942,835.9764909153455,"[98, 0, 156]",156,a,0.3155918664415367,colour,0.5
91,19,0,1,6,13,263,837.9823111772421,838.5445158663206,"[48, 0, 206]",206,l,0.03995650360593572,colour,0.5
91,19,0,1,6,14,264,840.5604603434331,841.1364929791016,"[96, 0, 158]",158,a,0.053795477928360924,colour,0.5
91,19,0,1,6,15,265,843.1543109834893,843.6965319068986,"[93, 0, 161]",161,a,0.020227162720402703,colour,0.5
91,19,0,1,6,16,266,845.7167500111391,847.5445016878366,"[80, 0, 174]",174,a,1.3055609928269405,colour,0.5
91,19,0,1,6,17,267,849.5604315926321,850.2004886846116,"[71, 0, 183]",183,a,0.11784317114506848,colour,0.5
91,19,0,1,6,18,268,852.2167592665355,853.4965209579677,"[52, 0, 202]",202,l,0.7575914875778835,colour,0.5
91,19,0,1,6,19,269,855.5136001064966,856.336550008069,"[33, 0, 221]",221,l,0.30072495303465985,colour,0.5
91,19,0,1,6,20,270,858.3463544200058,858.9764983984351,"[84, 0, 170]",170,a,0.11264951885095797,colour,0.5
91,19,0,1,6,21,271,860.9823761619045,861.648529121594,"[4, 0, 250]",250,l,0.14391855886788107,colour,0.5
91,19,0,1,6,22,272,863.6542225649755,864.2725385487138,"[5, 0, 249]",249,l,0.09612214908702299,colour,0.5
91,19,0,1,6,23,273,866.2792567803699,868.3125001723238,"[73, 0, 181]",181,l,1.511127538891742,colour,0.5
91,19,0,1,6,24,274,870.3260662110988,872.4325158001448,"[9, 0, 245]",245,l,1.5843077421013732,colour,0.5
91,19,0,1,6,25,275,874.4510088572279,875.0405527870462,"[88, 0, 166]",166,a,0.0673689997929614,colour,0.5
91,19,0,1,6,26,276,877.0603731064475,877.9685478214233,"[65, 0, 189]",189,a,0.3859623695316259,colour,0.5
91,19,0,1,6,27,277,879.9822914849501,880.544546980178,"[19, 0, 235]",235,l,0.040071506751701236,colour,0.5
91,19,0,1,6,28,278,882.5604063864739,883.7925087266776,"[47, 0, 207]",207,l,0.7099069301621057,colour,0.5
91,19,0,1,6,29,279,885.8103444541339,886.8885426541674,"[10, 0, 244]",244,l,0.5564947041566484,colour,0.5
91,19,0,1,6,30,280,888.9041370018385,889.5044939842192,"[15, 0, 239]",239,l,0.07842426787829027,colour,0.5
91,19,0,1,6,31,281,891.5134287833353,892.7605063446681,"[20, 0, 234]",234,l,0.7247482435195707,colour,0.5
91,19,0,1,6,32,282,894.7791707249417,895.6325133582868,"[50, 0, 204]",204,l,0.33119409103528596,colour,0.5
91,19,0,1,6,33,283,897.6385147895489,898.4805288254283,"[11, 0, 243]",243,l,0.319831622793572,colour,0.5
91,19,0,1,6,34,284,900.4979151741718,901.4805158285017,"[63, 0, 191]",191,a,0.4604135150730144,colour,0.5
91,19,0,1,6,35,285,903.4978844541474,904.3685618423624,"[38, 0, 216]",216,l,0.34850915358401835,colour,0.5
91,19,0,1,6,36,286,906.3892529561126,907.264544254751,"[25, 0, 229]",229,l,0.35306674396269955,colour,0.5
91,19,0,1,6,37,287,909.2798696053505,910.1845765029138,"[36, 0, 218]",218,l,0.3822078319499269,colour,0.5
91,19,0,1,6,38,288,912.2017852269055,913.0965207216504,"[53, 0, 201]",201,l,0.3725471739307977,colour,0.5
91,19,0,1,6,39,289,915.1081108331273,916.0165699051868,"[17, 0, 237]",237,l,0.3862616927945055,colour,0.5
91,19,0,1,6,40,290,918.0299209038494,918.856545392191,"[51, 0, 203]",203,l,0.3049162662937306,colour,0.5
91,19,0,1,6,41,291,920.8729388541833,921.8165258731751,"[46, 0, 208]",208,l,0.42132898737327196,colour,0.5
91,19,0,1,6,42,292,923.826074284967,924.664543703373,"[70, 0, 184]",184,a,0.31634883920196444,colour,0.5
91,19,0,1,6,43,293,926.6698472388089,927.5205861537252,"[72, 0, 182]",182,a,0.3287664219387807,colour,0.5
91,19,0,1,6,44,294,929.5291991803388,930.3925821396406,"[21, 0, 233]",233,l,0.34120015235384926,colour,0.5
91,19,0,1,6,45,295,932.3917428529821,933.2565771361988,"[79, 0, 175]",175,a,0.3425671931472607,colour,0.5
91,19,0,1,6,46,296,935.2668325022678,936.0805411922047,"[35, 0, 219]",219,l,0.29149201221298426,colour,0.5
91,19,0,1,6,47,297,938.0825931318977,938.9205974177166,"[66, 0, 188]",188,a,0.31587701122043654,colour,0.5
91,19,0,1,6,48,298,940.9263381226629,941.7365313397604,"[32, 0, 222]",222,l,0.288049794791732,colour,0.5
91,19,0,1,6,49,299,943.7544521380332,944.6085753749358,"[87, 0, 167]",167,a,0.3320172300154809,colour,0.5
91,19,0,1,6,50,300,946.6138186518801,947.7925559882424,"[3, 0, 251]",251,l,0.6565466524916701,colour,0.5
91,19,0,1,7,1,301,956.0192823252582,956.76853962944,"[98, 0, 156]",156,a,0.22652035538339987,colour,0.5
91,19,0,1,7,2,302,958.7856747041515,959.3446014097426,"[12, 0, 242]",242,l,0.0368470863904804,colour,0.5
91,19,0,1,7,3,303,961.3638096918585,962.5525700249127,"[97, 0, 157]",157,a,0.6665578337851912,colour,0.5
91,19,0,1,7,4,304,964.5669198179967,966.1125664172869,"[46, 0, 208]",208,l,1.023574857012136,colour,0.5
91,19,0,1,7,5,305,968.1294387964881,968.936662017979,"[65, 0, 189]",189,a,0.2851156392134726,colour,0.5
91,19,0,1,7,6,306,970.9417851717735,971.7205955272657,"[73, 0, 181]",181,a,0.2565141207887791,colour,0.5
91,19,0,1,7,7,307,973.7387534210575,974.4805741177697,"[37, 0, 217]",217,l,0.21961425896734,colour,0.5
91,19,0,1,7,8,308,976.4887452487601,977.2005962046678,"[41, 0, 213]",213,l,0.18965790895163082,colour,0.5
91,19,0,1,7,9,309,979.2073400363442,980.4405987095379,"[87, 0, 167]",167,a,0.7108226230193395,colour,0.5
91,19,0,1,7,10,310,982.4574486394995,983.3605896038061,"[89, 0, 165]",165,a,0.38093098197714426,colour,0.5
91,19,0,1,7,11,311,985.3793008517823,986.3605399791559,"[59, 0, 195]",195,a,0.45897479422274046,colour,0.5
91,19,0,1,7,12,312,988.3794111287862,989.6165822719631,"[36, 0, 218]",218,l,0.7150489885825664,colour,0.5
91,19,0,1,7,13,313,991.6294086672424,992.31258366775,"[28, 0, 226]",226,l,0.16106938745360821,colour,0.5
91,19,0,1,7,14,314,994.3324291933386,994.9046143436572,"[35, 0, 219]",219,l,0.04998343874467537,colour,0.5
91,19,0,1,7,15,315,996.9106256210653,997.776568581874,"[67, 0, 187]",187,a,0.3437668492551893,colour,0.5
91,19,0,1,7,16,316,999.7856447718514,1000.7446162183769,"[80, 0, 174]",174,a,0.43690009810961783,colour,0.5
91,19,0,1,7,17,317,1002.7542997194687,1003.5926415316644,"[40, 0, 214]",214,l,0.3162590422143694,colour,0.5
91,19,0,1,7,18,318,1005.5980667656404,1006.8325967749697,"[25, 0, 229]",229,l,0.7209696813079063,colour,0.5
91,19,0,1,7,19,319,1008.8391889757768,1010.0645931704785,"[34, 0, 220]",220,l,0.7031792461930308,colour,0.5
91,19,0,1,7,20,320,1012.0735456926923,1013.0485766194761,"[39, 0, 215]",215,l,0.4528138551977463,colour,0.5
91,19,0,1,7,21,321,1015.0579218065541,1015.9606055151962,"[45, 0, 209]",209,l,0.3805572217388544,colour,0.5
91,19,0,1,7,22,322,1017.9798208865395,1018.8405965827696,"[26, 0, 228]",228,l,0.33858225541189313,colour,0.5
91,19,0,1,7,23,323,1020.8547088865016,1021.6726191296766,"[77, 0, 177]",177,a,0.29564984850003384,colour,0.5
91,19,0,1,7,24,324,1023.6828240834002,1024.59259584549,"[15, 0, 239]",239,l,0.38746016737422906,colour,0.5
91,19,0,1,7,25,325,1026.592349297658,1027.6486043462646,"[29, 0, 225]",225,l,0.5339785062242299,colour,0.5
91,19,0,1,7,26,326,1029.6548621715046,1030.5845842222916,"[63, 0, 191]",191,a,0.40750812998157926,colour,0.5
91,19,0,1,7,27,327,1032.592392226914,1033.5766427037597,"[8, 0, 246]",246,l,0.4619889006135054,colour,0.5
91,19,0,1,7,28,328,1035.59236308228,1036.5366176708776,"[53, 0, 201]",201,a,0.42196071697981097,colour,0.5
91,19,0,1,7,29,329,1038.5455571961647,1039.4886058271222,"[91, 0, 163]",163,a,0.42101312257000245,colour,0.5
91,19,0,1,7,30,330,1041.4986288238142,1042.4165965291904,"[10, 0, 244]",244,l,0.39575929840793833,colour,0.5
91,19,0,1,7,31,331,1044.436132097675,1045.376651840983,"[90, 0, 164]",164,a,0.41846060412353836,colour,0.5
91,19,0,1,7,32,332,1047.3893108515476,1048.8086359484878,"[30, 0, 224]",224,a,0.8971442592155654,colour,0.5
91,19,0,1,7,33,333,1050.8267351591785,1051.768636515626,"[18, 0, 236]",236,l,0.4199792757863179,colour,0.5
91,19,0,1,7,34,334,1053.7798390822427,1054.6566128186823,"[4, 0, 250]",250,l,0.35457596331252716,colour,0.5
91,19,0,1,7,35,335,1056.670481725334,1057.6166389858408,"[16, 0, 238]",238,l,0.42426117372815497,colour,0.5
91,19,0,1,7,36,336,1059.6235884053458,1060.4806107454933,"[43, 0, 211]",211,l,0.3347816377936397,colour,0.5
91,19,0,1,7,37,337,1062.489344682952,1063.5286328292277,"[82, 0, 172]",172,a,0.5170411423605401,colour,0.5
91,19,0,1,7,38,338,1065.5362364275788,1067.0086661959067,"[95, 0, 159]",159,a,0.9506628631788772,colour,0.5
91,19,0,1,7,39,339,1069.0124731150863,1070.8806649387407,"[61, 0, 193]",193,a,1.3460003520885948,colour,0.5
91,19,0,1,7,40,340,1072.887475724303,1073.4486493235163,"[2, 0, 252]",252,l,0.039089253841666505,colour,0.5
91,19,0,1,7,41,341,1075.4656532474037,1076.8886312695977,"[69, 0, 185]",185,l,0.9007656767498702,colour,0.5
91,19,0,1,7,42,342,1078.903118121234,1080.2086224001832,"[74, 0, 180]",180,a,0.7833458904642612,colour,0.5
91,19,0,1,7,43,343,1082.2156230196997,1083.096629817097,"[55, 0, 199]",199,a,0.35880823657498695,colour,0.5
91,19,0,1,7,44,344,1085.1063070166565,1085.8726552847947,"[62, 0, 192]",192,a,0.24413119655218907,colour,0.5
91,19,0,1,7,45,345,1087.8875221981725,1088.576624980662,"[51, 0, 203]",203,a,0.1671771572146099,colour,0.5
91,19,0,1,7,46,346,1090.5906014073698,1091.5046397073602,"[86, 0, 168]",168,l,0.39170622525853105,colour,0.5
91,19,0,1,7,47,347,1093.5124898535432,1094.3366681619955,"[47, 0, 207]",207,l,0.3019293353136163,colour,0.5
91,19,0,1,7,48,348,1096.3469711834623,1097.096649115585,"[70, 0, 184]",184,a,0.2276140667963773,colour,0.5
91,19,0,1,7,49,349,1099.1126570019405,1099.7606544309238,"[19, 0, 235]",235,l,0.12580713894567452,colour,0.5
91,19,0,1,7,50,350,1101.7688866081007,1102.9366502025805,"[64, 0, 190]",190,a,0.6456603445112705,colour,0.5
91,19,0,1,8,1,351,1111.191410919244,1111.7686530571955,"[82, 0, 172]",172,l,0.0541853858740069,colour,0.5
91,19,0,1,8,2,352,1113.7861548029177,1119.8486649198458,"[0, 0, 254]",254,l,5.5403887500287965,colour,0.5
91,19,0,1,8,3,353,1121.8642860490654,1122.9846395970962,"[3, 0, 251]",251,a,0.5951960193051491,colour,0.5
91,19,0,1,8,4,354,1124.9830685438646,1126.1606763287855,"[56, 0, 198]",198,a,0.6554746026231442,colour,0.5
91,19,0,1,8,5,355,1128.1705110669136,1128.7206975334848,"[98, 0, 156]",156,l,0.02820964128477499,colour,0.5
91,19,0,1,8,6,356,1130.7237892276025,1131.5846559023194,"[53, 0, 201]",201,a,0.33864251390332356,colour,0.5
91,19,0,1,8,7,357,1133.5993073817517,1134.3846839441976,"[34, 0, 220]",220,a,0.2635939034225885,colour,0.5
91,19,0,1,8,8,358,1136.3956505968235,1137.3046567215351,"[99, 0, 155]",155,l,0.3869631332345307,colour,0.5
91,19,0,1,8,9,359,1139.3174614552408,1140.432657584839,"[5, 0, 249]",249,a,0.5929215564392507,colour,0.5
91,19,0,1,8,10,360,1142.4424352152273,1143.5766994176374,"[28, 0, 226]",226,a,0.612025863112649,colour,0.5
91,19,0,1,8,11,361,1145.5831569229777,1146.8326601842418,"[18, 0, 236]",236,a,0.727363383572083,colour,0.5
91,19,0,1,8,12,362,1148.848680673691,1149.7047026440268,"[62, 0, 192]",192,l,0.3336832002096344,colour,0.5
91,19,0,1,8,13,363,1151.7237789875944,1152.6327055553265,"[39, 0, 215]",215,a,0.38694068396580406,colour,0.5
91,19,0,1,8,14,364,1154.6456134768086,1155.5526818772778,"[40, 0, 214]",214,a,0.3849107996793464,colour,0.5
91,19,0,1,8,15,365,1157.5675188583555,1158.4327079971845,"[43, 0, 211]",211,a,0.34308588883141056,colour,0.5
91,19,0,1,8,16,366,1160.4424281259999,1161.528687180049,"[50, 0, 204]",204,a,0.5639710901014041,colour,0.5
91,19,0,1,8,17,367,1163.5363010183792,1164.6167457182019,"[44, 0, 210]",210,a,0.5584958376130089,colour,0.5
91,19,0,1,8,18,368,1166.6300226737512,1167.4486678343092,"[49, 0, 205]",205,a,0.29649622438591905,colour,0.5
91,19,0,1,8,19,369,1169.458027199842,1170.416715864645,"[37, 0, 217]",217,a,0.43640739627880976,colour,0.5
91,19,0,1,8,20,370,1172.426805815223,1173.5206948553096,"[64, 0, 190]",190,l,0.5717062331386842,colour,0.5
91,19,0,1,8,21,371,1175.5361868029286,1176.704718004039,"[46, 0, 208]",208,a,0.6464035326498561,colour,0.5
91,19,0,1,8,22,372,1178.7236588644446,1179.4567030882754,"[33, 0, 221]",221,l,0.21079525069217198,colour,0.5
91,19,0,1,8,23,373,1181.4612492571177,1182.8807031418546,"[72, 0, 182]",182,a,0.8972131823538803,colour,0.5
91,19,0,1,8,24,374,1184.8987684817403,1186.032677434705,"[68, 0, 186]",186,l,0.6116410752001684,colour,0.5
91,19,0,1,8,25,375,1188.0393720355933,1189.0407233225415,"[29, 0, 225]",225,a,0.47913027691538446,colour,0.5
91,19,0,1,8,26,376,1191.056523258012,1191.8326920857944,"[76, 0, 178]",178,l,0.2539143407775555,colour,0.5
91,19,0,1,8,27,377,1193.8463754908007,1194.4406999280618,"[11, 0, 243]",243,a,0.07203923026099801,colour,0.5
91,19,0,1,8,28,378,1196.455844503158,1197.2007064816717,"[65, 0, 189]",189,l,0.2226720823382493,colour,0.5
91,19,0,1,8,29,379,1199.2058201831533,1200.0247122853762,"[8, 0, 246]",246,a,0.2967467106936965,colour,0.5
91,19,0,1,8,30,380,1202.0341610540345,1202.8007298761513,"[86, 0, 168]",168,l,0.24461168915149756,colour,0.5
91,19,0,1,8,31,381,1204.815180100064,1205.6087159780727,"[38, 0, 216]",216,a,0.2718339574930724,colour,0.5
91,19,0,1,8,32,382,1207.6168280320999,1208.3687445870892,"[66, 0, 188]",188,l,0.2298538711911533,colour,0.5
91,19,0,1,8,33,383,1210.3823901828437,1211.3606971238623,"[63, 0, 191]",191,a,0.45619896487914957,colour,0.5
91,19,0,1,8,34,384,1213.366721004364,1214.344690025173,"[74, 0, 180]",180,l,0.4558897954702843,colour,0.5
91,19,0,1,8,35,385,1216.351069548953,1218.0327392685867,"[55, 0, 199]",199,a,1.159661386627704,colour,0.5
91,19,0,1,8,36,386,1220.038552441256,1221.088707597024,"[89, 0, 165]",165,l,0.5288841032015625,colour,0.5
91,19,0,1,8,37,387,1223.1003650562197,1224.1127235619933,"[70, 0, 184]",184,l,0.49021941574756056,colour,0.5
91,19,0,1,8,38,388,1226.1314895546238,1227.160723196488,"[73, 0, 181]",181,l,0.5115985791489948,colour,0.5
91,19,0,1,8,39,389,1229.1737378503312,1230.0727390952816,"[35, 0, 219]",219,a,0.37667350252741016,colour,0.5
91,19,0,1,8,40,390,1232.0800358873094,1233.0327250901028,"[17, 0, 237]",237,a,0.4305174235487357,colour,0.5
91,19,0,1,8,41,391,1235.0487534565036,1236.0327491147327,"[75, 0, 179]",179,l,0.46170611889101565,colour,0.5
91,19,0,1,8,42,392,1238.0487869334465,1239.2967352891574,"[16, 0, 238]",238,a,0.7257411302707624,colour,0.5
91,19,0,1,8,43,393,1241.3144217488298,1242.2167364234338,"[54, 0, 200]",200,l,0.38058479098253883,colour,0.5
91,19,0,1,8,44,394,1244.2362420595891,1245.520715729188,"[30, 0, 224]",224,a,0.7623853857803624,colour,0.5
91,19,0,1,8,45,395,1247.5331951457774,1248.5767352576659,"[95, 0, 159]",159,l,0.5214478895941284,colour,0.5
91,19,0,1,8,46,396,1250.5956327949825,1251.6407156031346,"[87, 0, 167]",167,l,0.5233816753316205,colour,0.5
91,19,0,1,8,47,397,1253.658188598085,1254.6567597233807,"[4, 0, 250]",250,a,0.4763879245147109,colour,0.5
91,19,0,1,8,48,398,1256.6737608903495,1257.7207798473537,"[27, 0, 227]",227,a,0.5248215777392033,colour,0.5
91,19,0,1,8,49,399,1259.7362446195912,1260.9527474920906,"[6, 0, 248]",248,a,0.6943740225106012,colour,0.5
91,19,0,1,8,50,400,1262.9705851887993,1264.000730978907,"[51, 0, 203]",203,a,0.5081500601954758,colour,0.5
91,19,0,1,9,1,401,1272.5010352252284,1273.3607361146715,"[85, 0, 169]",169,l,0.3366980942955706,colour,0.5
91,19,0,1,9,2,402,1275.3767936256772,1276.5047822797496,"[79, 0, 175]",175,l,0.6059011579491198,colour,0.5
91,19,0,1,9,3,403,1278.5174408964813,1279.4167497354501,"[16, 0, 238]",238,a,0.3771138227893971,colour,0.5
91,19,0,1,9,4,404,1281.4122941512906,1282.296757738397,"[9, 0, 245]",245,a,0.3623304048087448,colour,0.5
91,19,0,1,9,5,405,1284.3030230467266,1285.4327513202734,"[23, 0, 231]",231,a,0.6078258852357976,colour,0.5
91,19,0,1,9,6,406,1287.4435442866525,1288.5207826830738,"[56, 0, 198]",198,l,0.555093792558182,colour,0.5
91,19,0,1,9,7,407,1290.537263185106,1291.416730436962,"[34, 0, 220]",220,a,0.3574136265087873,colour,0.5
91,19,0,1,9,8,408,1293.417504345125,1294.7127733441885,"[31, 0, 223]",223,a,0.7729837920633145,colour,0.5
91,19,0,1,9,9,409,1296.7300289359118,1298.0247725438676,"[81, 0, 173]",173,l,0.7725734041014221,colour,0.5
91,19,0,1,9,10,410,1300.0424180435366,1301.2327738482854,"[58, 0, 196]",196,l,0.6680477546469774,colour,0.5
91,19,0,1,9,11,411,1303.2455269881466,1304.368797362491,"[75, 0, 179]",179,l,0.6010044658032712,colour,0.5
91,19,0,1,9,12,412,1306.3862742959172,1307.3367981312913,"[86, 0, 168]",168,l,0.4284194038773421,colour,0.5
91,19,0,1,9,13,413,1309.3550021051196,1310.2168478819658,"[27, 0, 227]",227,a,0.339635794487549,colour,0.5
91,19,0,1,9,14,414,1312.2299862035725,1313.4648068715178,"[76, 0, 178]",178,l,0.7120620575733483,colour,0.5
91,19,0,1,9,15,415,1315.480667459371,1316.504764556681,"[70, 0, 184]",184,l,0.5025802846066654,colour,0.5
91,19,0,1,9,16,416,1318.5119680070784,1319.4487844128453,"[93, 0, 161]",161,l,0.41479625736246817,colour,0.5
91,19,0,1,9,17,417,1321.464938810066,1322.4008911168494,"[20, 0, 234]",234,a,0.41452883565216325,colour,0.5
91,19,0,1,9,18,418,1324.4182002716989,1325.3207705525856,"[32, 0, 222]",222,a,0.3803547846910078,colour,0.5
91,19,0,1,9,19,419,1327.3423990207666,1328.4088046723045,"[87, 0, 167]",167,l,0.5441409245540854,colour,0.5
91,19,0,1,9,20,420,1330.4204526791873,1331.432787947997,"[19, 0, 235]",235,a,0.49068336680647917,colour,0.5
91,19,0,1,9,21,421,1333.4518253007845,1334.3847717719327,"[61, 0, 193]",193,l,0.4107959596149158,colour,0.5
91,19,0,1,9,22,422,1336.404940645385,1337.2648085256806,"[24, 0, 230]",230,a,0.33785048880963586,colour,0.5
91,19,0,1,9,23,423,1339.2799042638217,1339.9608256753418,"[80, 0, 174]",174,l,0.15865392758860253,colour,0.5
91,19,0,1,9,24,424,1341.9673682514986,1342.9688203631376,"[91, 0, 163]",163,l,0.4791995938576292,colour,0.5
91,19,0,1,9,25,425,1344.9830500330718,1345.8648390093877,"[90, 0, 164]",164,l,0.3596613078552764,colour,0.5
91,19,0,1,9,26,426,1347.8706494251383,1348.736790884519,"[29, 0, 225]",225,a,0.3443229603290092,colour,0.5
91,19,0,1,9,27,427,1350.7456851174647,1351.6567916249624,"[62, 0, 192]",192,l,0.3888973128341604,colour,0.5
91,19,0,1,9,28,428,1353.667548751313,1354.6728302313422,"[73, 0, 181]",181,l,0.48306401461013593,colour,0.5
91,19,0,1,9,29,429,1356.6831919359392,1357.9288288071984,"[54, 0, 200]",200,a,0.7234540643112268,colour,0.5
91,19,0,1,9,30,430,1359.9488066651684,1361.3128101294278,"[49, 0, 205]",205,a,0.8421443990373518,colour,0.5
91,19,0,1,9,31,431,1363.32373424666,1364.1528127918427,"[59, 0, 195]",195,l,0.30681381819886155,colour,0.5
91,19,0,1,9,32,432,1366.1674489112338,1367.0969787650101,"[41, 0, 213]",213,a,0.4072722159908153,colour,0.5
91,19,0,1,9,33,433,1369.0926586639835,1369.9048325345502,"[17, 0, 237]",237,a,0.2899091435538139,colour,0.5
91,19,0,1,9,34,434,1371.920778587053,1373.232810082176,"[4, 0, 250]",250,a,0.7901476175757125,colour,0.5
91,19,0,1,9,35,435,1375.2488750762714,1376.1528265764646,"[42, 0, 212]",212,a,0.381651720876107,colour,0.5
91,19,0,1,9,36,436,1378.1614159723104,1379.1768208798603,"[89, 0, 165]",165,l,0.49316144827753305,colour,0.5
91,19,0,1,9,37,437,1381.192610969185,1382.1608346550202,"[35, 0, 219]",219,a,0.4459211495704949,colour,0.5
91,19,0,1,9,38,438,1384.1677218467812,1385.2168352788722,"[14, 0, 240]",240,a,0.5275438439566642,colour,0.5
91,19,0,1,9,39,439,1387.2302429914125,1388.0728151076473,"[39, 0, 215]",215,a,0.32030817691702396,colour,0.5
91,19,0,1,9,40,440,1390.0896354991128,1391.1608539535082,"[74, 0, 180]",180,l,0.5490659736096859,colour,0.5
91,19,0,1,9,41,441,1393.1677080621594,1394.0648117552337,"[3, 0, 251]",251,a,0.37487441222765483,colour,0.5
91,19,0,1,9,42,442,1396.0738997605804,1396.9288930041657,"[50, 0, 204]",204,a,0.33277223352342844,colour,0.5
91,19,0,1,9,43,443,1398.948974443716,1399.8090349148843,"[83, 0, 171]",171,l,0.3349352378572803,colour,0.5
91,19,0,1,9,44,444,1401.8269198731577,1402.8728419679683,"[45, 0, 209]",209,a,0.5237900940410327,colour,0.5
91,19,0,1,9,45,445,1404.8894481070165,1405.7848338421318,"[36, 0, 218]",218,a,0.37314424506621435,colour,0.5
91,19,0,1,9,46,446,1407.7956102669705,1408.7368456291733,"[18, 0, 236]",236,a,0.4189875706215389,colour,0.5
91,19,0,1,9,47,447,1410.7487197038718,1411.6248569845338,"[53, 0, 201]",201,a,0.35386034441762604,colour,0.5
91,19,0,1,9,48,448,1413.63946395932,1414.632813863078,"[78, 0, 176]",176,l,0.4712564999354072,colour,0.5
91,19,0,1,9,49,449,1416.639386765426,1417.5528291758383,"[12, 0, 242]",242,a,0.39126748038688675,colour,0.5
91,19,0,1,9,50,450,1419.5612480361888,1420.504939030623,"[25, 0, 229]",229,a,0.4215101567097008,colour,0.5
91,19,0,1,10,1,451,1428.857338598813,1429.8088407486212,"[28, 0, 226]",226,a,0.42847887467360124,colour,0.5
91,19,0,1,10,2,452,1431.826867491589,1432.8888667897554,"[77, 0, 177]",177,l,0.5398523312469479,colour,0.5
91,19,0,1,10,3,453,1434.9049849531148,1435.7528598170902,"[75, 0, 179]",179,l,0.32587834636797197,colour,0.5
91,19,0,1,10,4,454,1437.7643569807988,1438.768849586544,"[62, 0, 192]",192,l,0.48236808806541376,colour,0.5
91,19,0,1,10,5,455,1440.7799481777183,1441.4568775622174,"[41, 0, 213]",213,a,0.1546729282999877,colour,0.5
91,19,0,1,10,6,456,1443.4675393777725,1444.3288574004546,"[86, 0, 168]",168,l,0.3392037450103089,colour,0.5
91,19,0,1,10,7,457,1446.342536866985,1447.2728626843018,"[33, 0, 221]",221,a,0.40818436423433013,colour,0.5
91,19,0,1,10,8,458,1449.2799645223422,1450.048837739625,"[98, 0, 156]",156,l,0.24671601035515778,colour,0.5
91,19,0,1,10,9,459,1452.0612336608174,1452.8809047912073,"[22, 0, 232]",232,a,0.2959050609788392,colour,0.5
91,19,0,1,10,10,460,1454.891425215872,1455.8568781923968,"[12, 0, 242]",242,a,0.4434304650640115,colour,0.5
91,19,0,1,10,11,461,1457.8757969973958,1458.824858875014,"[63, 0, 191]",191,l,0.4267561905726325,colour,0.5
91,19,0,1,10,12,462,1460.8445779758913,1461.7288603936904,"[14, 0, 240]",240,a,0.36238554332521744,colour,0.5
91,19,0,1,10,13,463,1463.722813670116,1464.5048724705703,"[31, 0, 223]",223,a,0.2598484242626,colour,0.5
91,19,0,1,10,14,464,1466.5196897593269,1467.2968829815509,"[67, 0, 187]",187,l,0.25507500607636757,colour,0.5
91,19,0,1,10,15,465,1469.3165753008798,1470.1208852406708,"[87, 0, 167]",167,l,0.2821157112775836,colour,0.5
91,19,0,1,10,16,466,1472.1290228946891,1472.8968835329288,"[55, 0, 199]",199,a,0.24568176973843947,colour,0.5
91,19,0,1,10,17,467,1474.9102601316117,1475.7928946961183,"[99, 0, 155]",155,l,0.3604619975667447,colour,0.5
91,19,0,1,10,18,468,1477.8008878085238,1478.592882171797,"[3, 0, 251]",251,a,0.2697552362806164,colour,0.5
91,19,0,1,10,19,469,1480.6133712423616,1481.2888792353042,"[36, 0, 218]",218,a,0.1532672905595973,colour,0.5
91,19,0,1,10,20,470,1483.300842713128,1483.896874868311,"[30, 0, 224]",224,a,0.07368590199621394,colour,0.5
91,19,0,1,10,21,471,1485.9103125131805,1487.0248725808633,"[59, 0, 195]",195,a,0.5924363376980182,colour,0.5
91,19,0,1,10,22,472,1489.0352689439314,1489.9608591522847,"[95, 0, 159]",159,l,0.4034546629700344,colour,0.5
91,19,0,1,10,23,473,1491.9727218054468,1492.7768895666813,"[48, 0, 206]",206,a,0.28186719422228634,colour,0.5
91,19,0,1,10,24,474,1494.7852398977557,1495.656876695779,"[73, 0, 181]",181,l,0.34942760335979983,colour,0.5
91,19,0,1,10,25,475,1497.675921137794,1498.5368724894943,"[44, 0, 210]",210,a,0.3387969016912393,colour,0.5
91,19,0,1,10,26,476,1500.5508209531254,1501.4409315097437,"[92, 0, 162]",162,l,0.36784070963039994,colour,0.5
91,19,0,1,10,27,477,1503.4571134762082,1504.296858956921,"[66, 0, 188]",188,a,0.3175579475937411,colour,0.5
91,19,0,1,10,28,478,1506.3164079161652,1506.9929229742847,"[52, 0, 202]",202,l,0.16462778954883106,colour,0.5
91,19,0,1,10,29,479,1509.0093077716592,1509.8329244551423,"[96, 0, 158]",158,l,0.30139291650266387,colour,0.5
91,19,0,1,10,30,480,1511.8530326762702,1513.304917841684,"[71, 0, 183]",183,l,0.929737016936997,colour,0.5
91,19,0,1,10,31,481,1515.3217366577883,1516.544890020392,"[70, 0, 184]",184,l,0.7011863834923133,colour,0.5
91,19,0,1,10,32,482,1518.5561256700894,1519.400865516829,"[88, 0, 166]",166,l,0.3225381351658143,colour,0.5
91,19,0,1,10,33,483,1521.4164901906915,1522.2408886592602,"[18, 0, 236]",236,a,0.30216958161327057,colour,0.5
91,19,0,1,10,34,484,1524.2510495021706,1524.8969213421806,"[42, 0, 212]",212,a,0.12380246081738733,colour,0.5
91,19,0,1,10,35,485,1526.9073051021842,1527.7128718057647,"[94, 0, 160]",160,l,0.2833090658241417,colour,0.5
91,19,0,1,10,36,486,1529.7198747883667,1530.4808773794794,"[32, 0, 222]",222,a,0.23887846726574935,colour,0.5
91,19,0,1,10,37,487,1532.50111517607,1533.2809215690359,"[45, 0, 209]",209,a,0.2576310691074468,colour,0.5
91,19,0,1,10,38,488,1535.2979219483386,1535.8329134274682,"[19, 0, 235]",235,a,0.012790555250830948,colour,0.5
91,19,0,1,10,39,489,1537.8448469729628,1538.672896791395,"[51, 0, 203]",203,a,0.30586937454063445,colour,0.5
91,19,0,1,10,40,490,1540.6885549421713,1541.9289422349539,"[47, 0, 207]",207,a,0.718793286185246,colour,0.5
91,19,0,1,10,41,491,1543.938477255986,1544.7289399506408,"[49, 0, 205]",205,a,0.26838268162100576,colour,0.5
91,19,0,1,10,42,492,1546.7353793390794,1547.3449393299525,"[57, 0, 197]",197,a,0.08735985468956642,colour,0.5
91,19,0,1,10,43,493,1549.3604478191119,1550.3049166601559,"[25, 0, 229]",229,a,0.4223187233437784,colour,0.5
91,19,0,1,10,44,494,1552.3135474098672,1552.9049404484686,"[21, 0, 233]",233,a,0.06926143169403076,colour,0.5
91,19,0,1,10,45,495,1554.922902994469,1556.4809222779877,"[16, 0, 238]",238,a,1.0358136334689334,colour,0.5
91,19,0,1,10,46,496,1558.5010190775502,1559.3449503576558,"[65, 0, 189]",189,l,0.32187923017772846,colour,0.5
91,19,0,1,10,47,497,1561.3603296651854,1562.160916181223,"[24, 0, 230]",230,a,0.2782690136227757,colour,0.5
91,19,0,1,10,48,498,1564.1728371236532,1565.4409291466582,"[38, 0, 216]",216,a,0.745863136020489,colour,0.5
91,19,0,1,10,49,499,1567.4541037021263,1568.7529145617445,"[89, 0, 165]",165,l,0.7766682250075974,colour,0.5
91,19,0,1,10,50,500,1570.7666168713768,1572.0489263550844,"[26, 0, 228]",228,a,0.7601172244467307,colour,0.5
91,19,0,1,11,1,501,1580.4284910839342,1581.4169383878761,"[87, 0, 167]",167,l,0.46615146310068667,colour,0.5
91,19,0,1,11,2,502,1583.432327935414,1584.4169435078802,"[79, 0, 175]",175,l,0.46326102447346784,colour,0.5
91,19,0,1,11,3,503,1586.4323350246414,1587.5129794045934,"[94, 0, 160]",160,l,0.5592961334914435,colour,0.5
91,19,0,1,11,4,504,1589.5186275556334,1590.560954226792,"[1, 0, 253]",253,a,0.5201450457389001,colour,0.5
91,19,0,1,11,5,505,1592.5810561463586,1593.552958357468,"[30, 0, 224]",224,a,0.44963197025936097,colour,0.5
91,19,0,1,11,6,506,1595.5655378110532,1596.7529669433134,"[63, 0, 191]",191,l,0.6653345469094347,colour,0.5
91,19,0,1,11,7,507,1598.768645574106,1599.872946731106,"[24, 0, 230]",230,a,0.58210889773909,colour,0.5
91,19,0,1,11,8,508,1601.877903287881,1602.8249600935378,"[8, 0, 246]",246,a,0.4247491493879352,colour,0.5
91,19,0,1,11,9,509,1604.8323584978934,1605.7049539180298,"[73, 0, 181]",181,l,0.3503992223995738,colour,0.5
91,19,0,1,11,10,510,1607.7229282793996,1608.648959201848,"[22, 0, 232]",232,a,0.403809124691179,colour,0.5
91,19,0,1,11,11,511,1610.6604122547724,1611.5369402310753,"[48, 0, 206]",206,a,0.35428727391990833,colour,0.5
91,19,0,1,11,12,512,1613.5399094389868,1614.1849959492974,"[10, 0, 244]",244,a,0.12285053409868851,colour,0.5
91,19,0,1,11,13,513,1616.1961674020567,1617.0249462301435,"[90, 0, 164]",164,l,0.30654718418372795,colour,0.5
91,19,0,1,11,14,514,1619.0399293282244,1619.9769658941077,"[13, 0, 241]",241,a,0.4148202819924336,colour,0.5
91,19,0,1,11,15,515,1621.9930104081868,1622.928961927275,"[46, 0, 208]",208,a,0.4137608352175448,colour,0.5
91,19,0,1,11,16,516,1624.9461001527961,1626.0889899848844,"[69, 0, 185]",185,a,0.6206538558762986,colour,0.5
91,19,0,1,11,17,517,1628.1024871005502,1628.9929359712114,"[93, 0, 161]",161,l,0.3683471960539464,colour,0.5
91,19,0,1,11,18,518,1631.0086520174227,1631.7769766067213,"[34, 0, 220]",220,a,0.24611263771657832,colour,0.5
91,19,0,1,11,19,519,1633.7898266327684,1634.616978481441,"[52, 0, 202]",202,a,0.3048989370581694,colour,0.5
91,19,0,1,11,20,520,1636.6336145527894,1637.5129687707522,"[0, 0, 254]",254,a,0.3571489617752377,colour,0.5
91,19,0,1,11,21,521,1639.524224506633,1640.4489687329333,"[2, 0, 252]",252,a,0.4025649639661424,colour,0.5
91,19,0,1,11,22,522,1642.4615820573235,1643.3769515580789,"[17, 0, 237]",237,a,0.3937699803209398,colour,0.5
91,19,0,1,11,23,523,1645.3836709712923,1646.24896054095,"[56, 0, 198]",198,a,0.3431213350268081,colour,0.5
91,19,0,1,11,24,524,1648.2587145405414,1648.864970947936,"[29, 0, 225]",225,a,0.08411574200727046,colour,0.5
91,19,0,1,11,25,525,1650.8835904297011,1651.7209570782434,"[91, 0, 163]",163,l,0.3153331093781162,colour,0.5
91,19,0,1,11,26,526,1653.7273704727995,1654.5769999224285,"[26, 0, 228]",228,a,0.3274505811568815,colour,0.5
91,19,0,1,11,27,527,1656.5867228081624,1657.4569945346157,"[27, 0, 227]",227,a,0.34813539337483235,colour,0.5
91,19,0,1,11,28,528,1659.4617431404768,1660.2570005210582,"[50, 0, 204]",204,a,0.2738209125236608,colour,0.5
91,19,0,1,11,29,529,1662.2742064881604,1663.128993356222,"[40, 0, 214]",214,a,0.331183457194129,colour,0.5
91,19,0,1,11,30,530,1665.1349439812766,1666.1849861031515,"[49, 0, 205]",205,a,0.5279483242193237,colour,0.5
91,19,0,1,11,31,531,1668.1973654827743,1669.0249781316961,"[3, 0, 251]",251,a,0.3054396881489083,colour,0.5
91,19,0,1,11,32,532,1671.0411274089129,1671.745056538639,"[6, 0, 248]",248,a,0.1817175719770603,colour,0.5
91,19,0,1,11,33,533,1673.7597820611845,1674.5609762821987,"[45, 0, 209]",209,a,0.27889759247773327,colour,0.5
91,19,0,1,11,34,534,1676.572326541209,1677.4969750628516,"[60, 0, 194]",194,a,0.40243657006067224,colour,0.5
91,19,0,1,11,35,535,1679.5097727073298,1680.281004276796,"[25, 0, 229]",229,a,0.2490129224897828,colour,0.5
91,19,0,1,11,36,536,1682.291100528906,1683.2570013087534,"[59, 0, 195]",195,l,0.4436805574805476,colour,0.5
91,19,0,1,11,37,537,1685.2754155965813,1685.8809685943124,"[32, 0, 222]",222,a,0.08331780921434984,colour,0.5
91,19,0,1,11,38,538,1687.9004439042765,1688.720969681337,"[67, 0, 187]",187,l,0.2983024039422162,colour,0.5
91,19,0,1,11,39,539,1690.7347090125259,1691.561035359162,"[81, 0, 173]",173,l,0.3040056934696622,colour,0.5
91,19,0,1,11,40,540,1693.5784610925184,1694.209008369653,"[92, 0, 162]",162,l,0.10834595939377323,colour,0.5
91,19,0,1,11,41,541,1696.2098429301404,1696.8090199487342,"[55, 0, 199]",199,a,0.07696034086984582,colour,0.5
91,19,0,1,11,42,542,1698.8069841567485,1699.4330096835038,"[5, 0, 249]",249,a,0.10391991370124742,colour,0.5
91,19,0,1,11,43,543,1701.4474484858802,1702.1130059498537,"[53, 0, 201]",201,l,0.14330534005421214,colour,0.5
91,19,0,1,11,44,544,1704.1193267905037,1704.6970580856723,"[20, 0, 234]",234,a,0.055473263550084084,colour,0.5
91,19,0,1,11,45,545,1706.7130659720278,1707.3529962454631,"[72, 0, 182]",182,l,0.11773801414528862,colour,0.5
91,19,0,1,11,46,546,1709.3693227535696,1709.9530247599469,"[95, 0, 159]",159,l,0.061472725530620664,colour,0.5
91,19,0,1,11,47,547,1711.9631434613257,1712.4970042074856,"[97, 0, 157]",157,l,0.011669668456306681,colour,0.5
91,19,0,1,11,48,548,1714.509914098191,1715.2730387336342,"[65, 0, 189]",189,l,0.24083824691479094,colour,0.5
91,19,0,1,11,49,549,1717.2911710274057,1718.0650047399686,"[70, 0, 184]",184,l,0.2514961239648983,colour,0.5
91,19,0,1,11,50,550,1720.0724630089826,1720.8650012740982,"[54, 0, 200]",200,a,0.2706213044875767,colour,0.5
91,19,0,1,12,1,551,1728.962268728501,1729.4970136597985,"[45, 0, 209]",209,a,0.011779157735873014,colour,0.5
91,19,0,1,12,2,552,1731.5098424181342,1732.1050518282282,"[7, 0, 247]",247,a,0.07292380923172459,colour,0.5
91,19,0,1,12,3,553,1734.1192818920244,1737.2970755724527,"[11, 0, 243]",243,a,2.6555021718668286,colour,0.5
91,19,0,1,12,4,554,1739.3068035781907,1739.9450225890614,"[35, 0, 219]",219,a,0.11598618543939665,colour,0.5
91,19,0,1,12,5,555,1741.9629977381555,1742.6170131399122,"[21, 0, 233]",233,a,0.13181250865454786,colour,0.5
91,19,0,1,12,6,556,1744.6349276366527,1745.7450592955574,"[33, 0, 221]",221,a,0.58795948579791,colour,0.5
91,19,0,1,12,7,557,1747.7598947012448,1748.60104621356,"[42, 0, 212]",212,a,0.3189041145669762,colour,0.5
91,19,0,1,12,8,558,1750.6192490058602,1751.4330577327637,"[47, 0, 207]",207,a,0.2914766521716956,colour,0.5
91,19,0,1,12,9,559,1753.4474102827953,1754.305037964834,"[1, 0, 253]",253,a,0.3480172394483816,colour,0.5
91,19,0,1,12,10,560,1756.3098850323004,1757.1850428170292,"[38, 0, 216]",216,a,0.35284461462288164,colour,0.5
91,19,0,1,12,11,561,1759.2005709985096,1760.233038119215,"[41, 0, 213]",213,a,0.5102839199244045,colour,0.5
91,19,0,1,12,12,562,1762.2474568354373,1763.137036880973,"[57, 0, 197]",197,a,0.36742086938465945,colour,0.5
91,19,0,1,12,13,563,1765.153704853903,1765.9370223874284,"[25, 0, 229]",229,a,0.2612371266295668,colour,0.5
91,19,0,1,12,14,564,1767.9506096939149,1768.569054859283,"[48, 0, 206]",206,a,0.09628717074519955,colour,0.5
91,19,0,1,12,15,565,1770.5755529307935,1771.3530356301053,"[78, 0, 176]",176,l,0.255242784623988,colour,0.5
91,19,0,1,12,16,566,1773.3723967246187,1774.2810649291205,"[89, 0, 165]",165,l,0.38667050533695146,colour,0.5
91,19,0,1,12,17,567,1776.2942851707921,1777.22506154835,"[92, 0, 162]",162,l,0.40856639519915916,colour,0.5
91,19,0,1,12,18,568,1779.2317919892666,1780.1210664100072,"[64, 0, 190]",190,l,0.3670880691788625,colour,0.5
91,19,0,1,12,19,569,1782.1380325246428,1783.0090974576888,"[91, 0, 163]",163,l,0.34908298775553703,colour,0.5
91,19,0,1,12,20,570,1785.028578675352,1786.0330563149182,"[20, 0, 234]",234,a,0.482900568342302,colour,0.5
91,19,0,1,12,21,571,1788.044249429222,1789.0730644123978,"[55, 0, 199]",199,a,0.5066034254268743,colour,0.5
91,19,0,1,12,22,572,1791.0911380230973,1791.913073376345,"[98, 0, 156]",156,l,0.2997119801293593,colour,0.5
91,19,0,1,12,23,573,1793.9192181676626,1794.9850771604397,"[88, 0, 166]",166,l,0.5436533427273389,colour,0.5
91,19,0,1,12,24,574,1796.9974100661639,1797.8970666715177,"[0, 0, 254]",254,a,0.3777282231603749,colour,0.5
91,19,0,1,12,25,575,1799.903568681504,1800.6171033307328,"[87, 0, 167]",167,l,0.19133057456929237,colour,0.5
91,19,0,1,12,26,576,1802.6223009215028,1803.5690564346442,"[80, 0, 174]",174,l,0.42469676781911403,colour,0.5
91,19,0,1,12,27,577,1805.5753823953273,1806.2970606062736,"[84, 0, 170]",170,l,0.1993091146578081,colour,0.5
91,19,0,1,12,28,578,1808.2984024409088,1809.1690439891245,"[54, 0, 200]",200,a,0.3484240827674512,colour,0.5
91,19,0,1,12,29,579,1811.1889879762894,1812.0890514249331,"[3, 0, 251]",251,a,0.37805944797582924,colour,0.5
91,19,0,1,12,30,580,1814.0952773486206,1814.62509526161,"[83, 0, 171]",171,l,0.007625259895576164,colour,0.5
91,19,0,1,12,31,581,1816.642212613253,1817.5130924385157,"[4, 0, 250]",250,a,0.34872970756259747,colour,0.5
91,19,0,1,12,32,582,1819.5327662470518,1820.5050634860818,"[71, 0, 183]",183,l,0.4501735090161674,colour,0.5
91,19,0,1,12,33,583,1822.5171238501207,1823.8410794384254,"[69, 0, 185]",185,l,0.8108265220653266,colour,0.5
91,19,0,1,12,34,584,1825.8515526015544,1826.8570759032737,"[65, 0, 189]",189,l,0.4832727531902492,colour,0.5
91,19,0,1,12,35,585,1828.8672194169485,1829.6250594215817,"[40, 0, 214]",214,a,0.23564932073350064,colour,0.5
91,19,0,1,12,36,586,1831.6328560046677,1832.6490730234655,"[62, 0, 192]",192,l,0.4942610673897434,colour,0.5
91,19,0,1,12,37,587,1834.6641085031151,1835.2730584259552,"[13, 0, 241]",241,a,0.08684037131024525,colour,0.5
91,19,0,1,12,38,588,1837.289038349234,1838.2091576374369,"[18, 0, 236]",236,a,0.39816018601413816,colour,0.5
91,19,0,1,12,39,589,1840.2265487123223,1840.9050853839435,"[68, 0, 186]",186,l,0.1563613477628678,colour,0.5
91,19,0,1,12,40,590,1842.914065081568,1843.7770829452493,"[61, 0, 193]",193,l,0.34075549978297204,colour,0.5
91,19,0,1,12,41,591,1845.7890582384716,1846.6330891617108,"[31, 0, 223]",223,a,0.3220615810423624,colour,0.5
91,19,0,1,12,42,592,1848.6484050599975,1849.5131196139264,"[26, 0, 228]",228,a,0.3424817284976598,colour,0.5
91,19,0,1,12,43,593,1851.5233509553364,1852.2970877816842,"[34, 0, 220]",220,a,0.2521050104696769,colour,0.5
91,19,0,1,12,44,594,1854.304670506157,1855.1371160440904,"[37, 0, 217]",217,a,0.31042814647662453,colour,0.5
91,19,0,1,12,45,595,1857.1483461799507,1858.001113009901,"[10, 0, 244]",244,a,0.33045247828704305,colour,0.5
91,19,0,1,12,46,596,1860.0077449892124,1860.8731160850439,"[52, 0, 202]",202,a,0.34309809806291014,colour,0.5
91,19,0,1,12,47,597,1862.8827653215267,1863.7611168065923,"[85, 0, 169]",169,l,0.3561320503940806,colour,0.5
91,19,0,1,12,48,598,1865.7737789679086,1866.8011386886938,"[59, 0, 195]",195,l,0.5051548584306147,colour,0.5
91,19,0,1,12,49,599,1868.8206718940637,1869.8170906488667,"[82, 0, 172]",172,l,0.4747199850389734,colour,0.5
91,19,0,1,12,50,600,1871.8363213802513,1872.6970884118346,"[99, 0, 155]",155,l,0.3386846554640215,colour,0.5
91,19,0,1,13,1,601,1880.898016628984,1881.8651347880368,"[12, 0, 242]",242,a,0.4442181578197051,colour,0.5
91,19,0,1,13,2,602,1883.8852181968105,1884.737129198562,"[76, 0, 178]",178,l,0.3297884532948956,colour,0.5
91,19,0,1,13,3,603,1886.7445331167837,1887.6171037245658,"[17, 0, 237]",237,a,0.3503011546272319,colour,0.5
91,19,0,1,13,4,604,1889.6351978152816,1890.385136079858,"[45, 0, 209]",209,a,0.2277144976251293,colour,0.5
91,19,0,1,13,5,605,1892.400787929102,1893.0091407808068,"[91, 0, 163]",163,l,0.08611766318790615,colour,0.5
91,19,0,1,13,6,606,1895.0257603106147,1895.8251774967357,"[19, 0, 235]",235,a,0.2771126806328539,colour,0.5
91,19,0,1,13,7,607,1897.83827485831,1898.6171273553628,"[89, 0, 165]",165,l,0.25685794866876677,colour,0.5
91,19,0,1,13,8,608,1900.6351391321514,1901.297101566306,"[93, 0, 161]",161,l,0.13977923334459774,colour,0.5
91,19,0,1,13,9,609,1903.3070268890879,1904.153162527422,"[32, 0, 222]",222,a,0.32392604983760975,colour,0.5
91,19,0,1,13,10,610,1906.1664178213978,1906.7131360766944,"[35, 0, 219]",219,a,0.024559472978580743,colour,0.5
91,19,0,1,13,11,611,1908.7288548798242,1909.6650982390856,"[55, 0, 199]",199,a,0.41402274306165054,colour,0.5
91,19,0,1,13,12,612,1911.6696160509891,1912.4811251088686,"[44, 0, 210]",210,a,0.2892726878344547,colour,0.5
91,19,0,1,13,13,613,1914.4977698448638,1915.329106311372,"[31, 0, 223]",223,a,0.3091961949830875,colour,0.5
91,19,0,1,13,14,614,1917.341471512511,1918.2091848128184,"[37, 0, 217]",217,a,0.34543675792519934,colour,0.5
91,19,0,1,13,15,615,1920.2165607679635,1921.1291343532212,"[28, 0, 226]",226,a,0.39043567681801505,colour,0.5
91,19,0,1,13,16,616,1923.1384815095225,1924.001113403734,"[43, 0, 211]",211,a,0.34080000440008007,colour,0.5
91,19,0,1,13,17,617,1926.0133651771466,1926.8491127231682,"[75, 0, 179]",179,l,0.31352180981775746,colour,0.5
91,19,0,1,13,18,618,1928.8571168633061,1929.889155085286,"[65, 0, 189]",189,l,0.5097711319103837,colour,0.5
91,19,0,1,13,19,619,1931.9039707986813,1932.91313127178,"[42, 0, 212]",212,l,0.4871934939874336,colour,0.5
91,19,0,1,13,20,620,1934.919635644852,1935.9051519439672,"[70, 0, 184]",184,l,0.46336696911021136,colour,0.5
91,19,0,1,13,21,621,1937.9195958663477,1938.7771601391432,"[71, 0, 183]",183,l,0.3353991889161989,colour,0.5
91,19,0,1,13,22,622,1940.7946055648208,1941.4891197966645,"[54, 0, 200]",200,l,0.17236529567162506,colour,0.5
91,19,0,1,13,23,623,1943.4977107679006,1944.0652067831543,"[2, 0, 252]",252,a,0.04527854983462021,colour,0.5
91,19,0,1,13,24,624,1946.075838272518,1946.9131694748648,"[96, 0, 158]",158,l,0.3151669061917346,colour,0.5
91,19,0,1,13,25,625,1948.919534820161,1949.5611487869173,"[80, 0, 174]",174,l,0.11938035360071808,colour,0.5
91,19,0,1,13,26,626,1951.5757896324794,1952.3291567236884,"[15, 0, 239]",239,a,0.2311535642365925,colour,0.5
91,19,0,1,13,27,627,1954.3414632417262,1955.0731865048,"[78, 0, 176]",176,l,0.20943766221171245,colour,0.5
91,19,0,1,13,28,628,1957.091465309437,1957.9131663241133,"[50, 0, 204]",204,a,0.29953317387844436,colour,0.5
91,19,0,1,13,29,629,1959.9195631771,1960.673172877694,"[67, 0, 187]",187,l,0.2314643090358004,colour,0.5
91,19,0,1,13,30,630,1962.6851532909204,1963.3131685296248,"[53, 0, 201]",201,a,0.10583164403215051,colour,0.5
91,19,0,1,13,31,631,1965.3258023340313,1965.881165123661,"[95, 0, 159]",159,l,0.03311814879998565,colour,0.5
91,19,0,1,13,32,632,1967.8882389985956,1968.7691808113304,"[69, 0, 185]",185,l,0.35887243354227394,colour,0.5
91,19,0,1,13,33,633,1970.7788942447805,1972.0891845450096,"[7, 0, 247]",247,a,0.7882603056787048,colour,0.5
91,19,0,1,13,34,634,1974.1070419340103,1975.5051777015324,"[0, 0, 254]",254,a,0.87601636981708,colour,0.5
91,19,0,1,13,35,635,1977.5132814847748,1978.8811761513643,"[48, 0, 206]",206,a,0.8456992565479595,colour,0.5
91,19,0,1,13,36,636,1980.8882086724334,1982.3451776069996,"[82, 0, 172]",172,l,0.9350630016124342,colour,0.5
91,19,0,1,13,37,637,1984.357098943292,1985.5771897563827,"[5, 0, 249]",249,a,0.6980194646748714,colour,0.5
91,19,0,1,13,38,638,1987.5914627494349,1988.6171553184686,"[57, 0, 197]",197,l,0.503546389809344,colour,0.5
91,19,0,1,13,39,639,1990.6225821278058,1991.4332070005476,"[58, 0, 196]",196,a,0.28863505049957894,colour,0.5
91,19,0,1,13,40,640,1993.450680783193,1994.3212065405387,"[27, 0, 227]",227,a,0.348274814983597,colour,0.5
91,19,0,1,13,41,641,1996.3413080662722,1997.0573125261872,"[41, 0, 213]",213,a,0.19373067445121706,colour,0.5
91,19,0,1,13,42,642,1999.075731540128,2000.001152000681,"[56, 0, 198]",198,l,0.4031600658490788,colour,0.5
91,19,0,1,13,43,643,2002.0041452332225,2003.0732069847872,"[59, 0, 195]",195,l,0.5475083111377899,colour,0.5
91,19,0,1,13,44,644,2005.0815809466585,2005.9451974568656,"[11, 0, 243]",243,a,0.3414274016977288,colour,0.5
91,19,0,1,13,45,645,2007.9564173527178,2008.865333680471,"[1, 0, 253]",253,a,0.38739085040288046,colour,0.5
91,19,0,1,13,46,646,2010.878415682033,2011.4731879226456,"[63, 0, 191]",191,l,0.07255753211211413,colour,0.5
91,19,0,1,13,47,647,2013.4878358574351,2014.297164581716,"[61, 0, 193]",193,l,0.28720617582439445,colour,0.5
91,19,0,1,13,48,648,2016.315947509749,2017.089235351188,"[46, 0, 208]",208,l,0.2511936499213334,colour,0.5
91,19,0,1,13,49,649,2019.0971213373996,2019.9772266203945,"[23, 0, 231]",231,a,0.3578602483321447,colour,0.5
91,19,0,1,13,50,650,2021.9877482266165,2022.8252042782842,"[38, 0, 216]",216,a,0.3153130231949035,colour,0.5
91,19,0,1,14,1,651,2030.7277863745694,2031.6172045492567,"[52, 0, 202]",202,l,0.366503601137083,colour,0.5
91,19,0,1,14,2,652,2033.6347807319544,2034.4411953868112,"[84, 0, 170]",170,l,0.28419010021025315,colour,0.5
91,19,0,1,14,3,653,2036.4472629842348,2037.329213437566,"[89, 0, 165]",165,l,0.3597971848503221,colour,0.5
91,19,0,1,14,4,654,2039.3379064150213,2040.3131968865928,"[49, 0, 205]",205,a,0.4532147908466868,colour,0.5
91,19,0,1,14,5,655,2042.3222667750088,2043.273212026048,"[26, 0, 228]",228,a,0.4289715765044093,colour,0.5
91,19,0,1,14,6,656,2045.2910587811784,2046.065190241614,"[71, 0, 183]",183,l,0.2519990658038296,colour,0.5
91,19,0,1,14,7,657,2048.0722645104106,2048.9052055070933,"[33, 0, 221]",221,a,0.3109322698437609,colour,0.5
91,19,0,1,14,8,658,2050.915967359586,2051.8092393211555,"[36, 0, 218]",218,a,0.370950520678889,colour,0.5
91,19,0,1,14,9,659,2053.822342984291,2054.689239447209,"[15, 0, 239]",239,a,0.3454017055919394,colour,0.5
91,19,0,1,14,10,660,2056.697249495017,2057.4653129641374,"[77, 0, 177]",177,l,0.24584600370144472,colour,0.5
91,19,0,1,14,11,661,2059.478522571939,2060.377237884415,"[22, 0, 232]",232,a,0.3765978840237949,colour,0.5
91,19,0,1,14,12,662,2062.384710331913,2063.1772572616464,"[37, 0, 217]",217,a,0.27033103970461525,colour,0.5
91,19,0,1,14,13,663,2065.1971835257427,2065.7612329912663,"[30, 0, 224]",224,a,0.04173984003136866,colour,0.5
91,19,0,1,14,14,664,2067.7753858611686,2068.7772440284025,"[58, 0, 196]",196,l,0.47969899108284153,colour,0.5
91,19,0,1,14,15,665,2070.790971544222,2071.4892407075095,"[38, 0, 216]",216,a,0.17609895943314768,colour,0.5
91,19,0,1,14,16,666,2073.5097124488384,2074.2652645997878,"[78, 0, 176]",176,l,0.23333665475365706,colour,0.5
91,19,0,1,14,17,667,2076.2753206795896,2077.14522100889,"[14, 0, 240]",240,a,0.3476387530681677,colour,0.5
91,19,0,1,14,18,668,2079.150321319583,2079.9932557744905,"[24, 0, 230]",230,a,0.3207823679840658,colour,0.5
91,19,0,1,14,19,669,2082.009679956507,2082.8812454683066,"[54, 0, 200]",200,l,0.3493645879207179,colour,0.5
91,19,0,1,14,20,670,2084.9002899103507,2085.9852315481985,"[27, 0, 227]",227,a,0.5627292924327776,colour,0.5
91,19,0,1,14,21,671,2087.9940198364784,2088.905253162491,"[40, 0, 214]",214,a,0.38893472822383046,colour,0.5
91,19,0,1,14,22,672,2090.9159157657123,2091.777216459159,"[86, 0, 168]",168,l,0.3397539483848959,colour,0.5
91,19,0,1,14,23,673,2093.790937279584,2094.593225212011,"[85, 0, 169]",169,l,0.2800984300847631,colour,0.5
91,19,0,1,14,24,674,2096.6034526149742,2097.489262762887,"[79, 0, 175]",175,l,0.36369468868360855,colour,0.5
91,19,0,1,14,25,675,2099.494014519558,2100.361285924213,"[19, 0, 235]",235,a,0.3450165238173213,colour,0.5
91,19,0,1,14,26,676,2102.3689879841404,2103.137279490358,"[67, 0, 187]",187,l,0.2460523792251479,colour,0.5
91,19,0,1,14,27,677,2105.1502504272503,2105.7452345571946,"[76, 0, 178]",178,l,0.07271152603789233,colour,0.5
91,19,0,1,14,28,678,2107.762445644301,2108.4092170294607,"[66, 0, 188]",188,l,0.12453816589550115,colour,0.5
91,19,0,1,14,29,679,2110.4187075458467,2111.281270516949,"[75, 0, 179]",179,l,0.3405148596211802,colour,0.5
91,19,0,1,14,30,680,2113.2937058227544,2114.1132371376734,"[9, 0, 245]",245,a,0.2972772217763122,colour,0.5
91,19,0,1,14,31,681,2116.1218139304256,2116.6972632796387,"[43, 0, 211]",211,a,0.05331340996781364,colour,0.5
91,19,0,1,14,32,682,2118.7155416904134,2119.3212345036445,"[44, 0, 210]",210,a,0.08369275098084472,colour,0.5
91,19,0,1,14,33,683,2121.340596779686,2122.3132390281535,"[68, 0, 186]",186,a,0.45047165075084195,colour,0.5
91,19,0,1,14,34,684,2124.324949262751,2125.225261228479,"[21, 0, 233]",233,a,0.38766181672690436,colour,0.5
91,19,0,1,14,35,685,2127.2374358079687,2128.129283621005,"[53, 0, 201]",201,a,0.3696382245107088,colour,0.5
91,19,0,1,14,36,686,2130.143691703357,2130.697260522691,"[8, 0, 246]",246,a,0.03129779078881256,colour,0.5
91,19,0,1,14,37,687,2132.706236675702,2133.3852542337554,"[1, 0, 253]",253,a,0.15718724363250658,colour,0.5
91,19,0,1,14,38,688,2135.393720749533,2135.9932226913807,"[87, 0, 167]",167,l,0.07736245798878372,colour,0.5
91,19,0,1,14,39,689,2138.003059004899,2138.7292680246755,"[0, 0, 254]",254,a,0.20400179433636367,colour,0.5
91,19,0,1,14,40,690,2140.737444669532,2141.5052844338934,"[92, 0, 162]",162,l,0.24561205893405713,colour,0.5
91,19,0,1,14,41,691,2143.5186244048527,2144.3052502480277,"[74, 0, 180]",180,l,0.26432015612954274,colour,0.5
91,19,0,1,14,42,692,2146.315602894145,2146.9292978782323,"[95, 0, 159]",159,l,0.09153383868397214,colour,0.5
91,19,0,1,14,43,693,2148.931289953267,2149.601250225969,"[7, 0, 247]",247,a,0.14772784110391513,colour,0.5
91,19,0,1,14,44,694,2151.618686199363,2152.2892931678507,"[34, 0, 220]",220,a,0.1482709553092718,colour,0.5
91,19,0,1,14,45,695,2154.306297091738,2155.001295754628,"[93, 0, 161]",161,l,0.17304310531471856,colour,0.5
91,19,0,1,14,46,696,2157.0094070209598,2157.737299340195,"[12, 0, 242]",242,a,0.20572132768575102,colour,0.5
91,19,0,1,14,47,697,2159.743900205649,2161.13729918265,"[48, 0, 206]",206,l,0.8714272717188578,colour,0.5
91,19,0,1,14,48,698,2163.150031842495,2164.217289383756,"[62, 0, 192]",192,l,0.5450940327718854,colour,0.5
91,19,0,1,14,49,699,2166.228106374765,2167.03329695508,"[73, 0, 181]",181,l,0.28289158866391517,colour,0.5
91,19,0,1,14,50,700,2169.040633525554,2169.8972844685486,"[88, 0, 166]",166,l,0.3344496252539102,colour,0.5
91,19,0,1,15,1,701,2177.664829242014,2178.417295212683,"[78, 0, 176]",176,l,0.22945569246076047,colour,0.5
91,19,0,1,15,2,702,2180.431230285554,2180.969291009562,"[76, 0, 178]",178,l,0.015795209328643978,colour,0.5
91,19,0,1,15,3,703,2182.978158854792,2184.4492708131147,"[48, 0, 206]",206,a,0.9489299390406813,colour,0.5
91,19,0,1,15,4,704,2186.4654141826613,2187.0412912490137,"[13, 0, 241]",241,a,0.05357098547392525,colour,0.5
91,19,0,1,15,5,705,2189.059286090429,2190.0092987132084,"[52, 0, 202]",202,a,0.427864868164761,colour,0.5
91,19,0,1,15,6,706,2192.027959942672,2192.7692871498584,"[94, 0, 160]",160,l,0.21905893555958755,colour,0.5
91,19,0,1,15,7,707,2194.77795255807,2195.7852970054955,"[46, 0, 208]",208,a,0.48508562811184675,colour,0.5
91,19,0,1,15,8,708,2197.7935717180662,2198.657284326764,"[49, 0, 205]",205,a,0.34153058944502845,colour,0.5
91,19,0,1,15,9,709,2200.6685247026617,2201.705317438231,"[2, 0, 252]",252,a,0.5145189501054119,colour,0.5
91,19,0,1,15,10,710,2203.7154692226904,2204.9933392699168,"[17, 0, 237]",237,l,0.7557112649083138,colour,0.5
91,19,0,1,15,11,711,2207.012399859639,2207.7693127498787,"[5, 0, 249]",249,a,0.23492464338778518,colour,0.5
91,19,0,1,15,12,712,2209.77783243492,2210.6333290141774,"[62, 0, 192]",192,a,0.33318498454173096,colour,0.5
91,19,0,1,15,13,713,2212.6529248411243,2213.329300871468,"[79, 0, 175]",175,l,0.15418574030627497,colour,0.5
91,19,0,1,15,14,714,2215.3404384534515,2216.1053338222555,"[54, 0, 200]",200,a,0.24298274048487656,colour,0.5
91,19,0,1,15,15,715,2218.121646151878,2218.9612978971563,"[10, 0, 244]",244,a,0.31757685224874876,colour,0.5
91,19,0,1,15,16,716,2220.9713713061647,2221.817323805939,"[56, 0, 198]",198,a,0.32379529281752184,colour,0.5
91,19,0,1,15,17,717,2223.830735850788,2224.753304075799,"[19, 0, 235]",235,a,0.4004728519648779,colour,0.5
91,19,0,1,15,18,718,2226.7682312476973,2227.545340580633,"[84, 0, 170]",170,l,0.25484421208966523,colour,0.5
91,19,0,1,15,19,719,2229.565106549242,2230.329330016102,"[87, 0, 167]",167,l,0.24206862298888154,colour,0.5
91,19,0,1,15,20,720,2232.3463867154205,2233.3693452028383,"[36, 0, 218]",218,a,0.5008158528071363,colour,0.5
91,19,0,1,15,21,721,2235.3775411461247,2236.209322659066,"[72, 0, 182]",182,l,0.3095561705704313,colour,0.5
91,19,0,1,15,22,722,2238.2213956261985,2239.217312620691,"[81, 0, 173]",173,l,0.4738216214464046,colour,0.5
91,19,0,1,15,23,723,2241.2369954877067,2242.0413432367495,"[21, 0, 233]",233,a,0.2822476498258766,colour,0.5
91,19,0,1,15,24,724,2244.049432841537,2244.8333368123276,"[28, 0, 226]",226,a,0.26164318225346506,colour,0.5
91,19,0,1,15,25,725,2246.84632429076,2247.6493211466877,"[7, 0, 247]",247,a,0.2808644612960052,colour,0.5
91,19,0,1,15,26,726,2249.658808512293,2250.4413367776724,"[20, 0, 234]",234,a,0.26024581529782154,colour,0.5
91,19,0,1,15,27,727,2252.455693659984,2253.31333906512,"[77, 0, 177]",177,l,0.3357142660242971,colour,0.5
91,19,0,1,15,28,728,2255.330600958405,2256.489402184525,"[51, 0, 203]",203,a,0.6371993426000699,colour,0.5
91,19,0,1,15,29,729,2258.502566893847,2259.513369706372,"[96, 0, 158]",158,l,0.4886637225281447,colour,0.5
91,19,0,1,15,30,730,2261.533768979949,2262.3853566338366,"[11, 0, 243]",243,a,0.3294257207890041,colour,0.5
91,19,0,1,15,31,731,2264.3932115061616,2265.2733498722664,"[30, 0, 224]",224,a,0.35797328225453384,colour,0.5
91,19,0,1,15,32,732,2267.2837257553183,2268.2253246377513,"[66, 0, 188]",188,l,0.41932549080229364,colour,0.5
91,19,0,1,15,33,733,2270.2245270988205,2271.0013430161925,"[0, 0, 254]",254,a,0.2546551658306271,colour,0.5
91,19,0,1,15,34,734,2273.021367348032,2273.873353574425,"[53, 0, 201]",201,a,0.3298715548880864,colour,0.5
91,19,0,1,15,35,735,2275.8807452834153,2276.5293669589155,"[92, 0, 162]",162,l,0.127123767422745,colour,0.5
91,19,0,1,15,36,736,2278.5369898557256,2279.361353271961,"[8, 0, 246]",246,a,0.30215816004783846,colour,0.5
91,19,0,1,15,37,737,2281.380746268027,2282.1934211112093,"[55, 0, 199]",199,l,0.29050700238440186,colour,0.5
91,19,0,1,15,38,738,2284.208815778751,2285.4813464505423,"[1, 0, 253]",253,a,0.7503573171561584,colour,0.5
91,19,0,1,15,39,739,2287.490076843387,2288.5613717039523,"[86, 0, 168]",168,l,0.5494929030828644,colour,0.5
91,19,0,1,15,40,740,2290.5682648034126,2291.449374788557,"[63, 0, 191]",191,l,0.35898152898880653,colour,0.5
91,19,0,1,15,41,741,2293.4589239880443,2294.0973678852315,"[91, 0, 163]",163,l,0.11623824713751674,colour,0.5
91,19,0,1,15,42,742,2296.1150681295258,2296.9213795966352,"[89, 0, 165]",165,l,0.2840758847305551,colour,0.5
91,19,0,1,15,43,743,2298.9275464433595,2299.5373435297806,"[12, 0, 242]",242,a,0.08744531936827116,colour,0.5
91,19,0,1,15,44,744,2301.5526133480307,2302.577332328772,"[25, 0, 229]",229,a,0.5025428691878915,colour,0.5
91,19,0,1,15,45,745,2304.5714628360874,2305.185575297335,"[74, 0, 180]",180,l,0.09202535898657516,colour,0.5
91,19,0,1,15,46,746,2307.1964332483767,2307.7533887527825,"[35, 0, 219]",219,a,0.03247736071352847,colour,0.5
91,19,0,1,15,47,747,2309.7611045973317,2311.4733580642787,"[16, 0, 238]",238,a,1.1900363953609485,colour,0.5
91,19,0,1,15,48,748,2313.4799738958827,2314.0173635056417,"[90, 0, 164]",164,l,0.015180021262494847,colour,0.5
91,19,0,1,15,49,749,2316.027387290029,2316.689389896521,"[41, 0, 213]",213,a,0.1402754797891248,colour,0.5
91,19,0,1,15,50,750,2318.698677975859,2319.3053739157913,"[4, 0, 250]",250,a,0.08520669647259638,colour,0.5
91,19,0,1,16,1,751,2326.760380313848,2327.337382993166,"[3, 0, 251]",251,a,0.05394277645973489,colour,0.5
91,19,0,1,16,2,752,2329.3550253420544,2330.6573489175935,"[80, 0, 174]",174,l,0.7802845225087367,colour,0.5
91,19,0,1,16,3,753,2332.667490068183,2333.2493728981062,"[75, 0, 179]",179,l,0.06040225108154118,colour,0.5
91,19,0,1,16,4,754,2335.261128031212,2336.0813615742372,"[22, 0, 232]",232,a,0.2979436098539736,colour,0.5
91,19,0,1,16,5,755,2338.0892956096795,2338.649385343655,"[94, 0, 160]",160,l,0.038004207075573504,colour,0.5
91,19,0,1,16,6,756,2340.6674735266424,2341.217411082296,"[64, 0, 190]",190,l,0.02846367220627144,colour,0.5
91,19,0,1,16,7,757,2343.229950757406,2344.0973915159993,"[25, 0, 229]",229,a,0.3452740993525367,colour,0.5
91,19,0,1,16,8,758,2346.1049454897,2347.1293690856837,"[95, 0, 159]",159,l,0.5022978967463132,colour,0.5
91,19,0,1,16,9,759,2349.1362168928026,2350.033370210498,"[2, 0, 252]",252,a,0.37499571693479083,colour,0.5
91,19,0,1,16,10,760,2352.0424235573737,2352.9773908543575,"[54, 0, 200]",200,a,0.4127793700317852,colour,0.5
91,19,0,1,16,11,761,2354.9955885266245,2355.881377800717,"[12, 0, 242]",242,a,0.36368129795300774,colour,0.5
91,19,0,1,16,12,762,2357.901840483566,2358.785371048609,"[93, 0, 161]",161,l,0.36161242285743356,colour,0.5
91,19,0,1,16,13,763,2360.7923543388897,2361.6653837777267,"[20, 0, 234]",234,a,0.35072729643434286,colour,0.5
91,19,0,1,16,14,764,2363.6830533019966,2364.6253926156205,"[49, 0, 205]",205,a,0.4201801374438219,colour,0.5
91,19,0,1,16,15,765,2366.6361076004105,2367.7694135745696,"[72, 0, 182]",182,l,0.6112196595640853,colour,0.5
91,19,0,1,16,16,766,2369.776751720434,2370.6894355826953,"[5, 0, 249]",249,a,0.390417166025145,colour,0.5
91,19,0,1,16,17,767,2372.6985996004078,2373.657398936077,"[55, 0, 199]",199,a,0.4366110148548614,colour,0.5
91,19,0,1,16,18,768,2375.6673199265497,2376.7533848143066,"[44, 0, 210]",210,a,0.5645535888907034,colour,0.5
91,19,0,1,16,19,769,2378.761063243466,2379.8733850821445,"[98, 0, 156]",156,l,0.5900358439539559,colour,0.5
91,19,0,1,16,20,770,2381.886071661953,2382.90543630108,"[79, 0, 175]",175,l,0.4971455983177293,colour,0.5
91,19,0,1,16,21,771,2384.9173190403963,2385.7774409516132,"[40, 0, 214]",214,a,0.3379863658337854,colour,0.5
91,19,0,1,16,22,772,2387.7923110157717,2388.63345701425,"[28, 0, 226]",226,a,0.31892538227839395,colour,0.5
91,19,0,1,16,23,773,2390.6517243973503,2391.401432261773,"[84, 0, 170]",170,l,0.22752308825147338,colour,0.5
91,19,0,1,16,24,774,2393.4173046649958,2394.257396730536,"[41, 0, 213]",213,a,0.3178698739502579,colour,0.5
91,19,0,1,16,25,775,2396.27671135118,2396.9374248984386,"[11, 0, 243]",243,a,0.13857170034316368,colour,0.5
91,19,0,1,16,26,776,2398.9485510588565,2399.537412846723,"[9, 0, 245]",245,a,0.06660966394701973,colour,0.5
91,19,0,1,16,27,777,2401.5423910650425,2402.2973934064794,"[81, 0, 173]",173,l,0.2328793991182465,colour,0.5
91,19,0,1,16,28,778,2404.307966606575,2405.353426325717,"[39, 0, 215]",215,a,0.5233391399378888,colour,0.5
91,19,0,1,16,29,779,2407.3703333634185,2408.025409393478,"[70, 0, 184]",184,l,0.13267936452757567,colour,0.5
91,19,0,1,16,30,780,2410.042415286618,2410.721425361582,"[31, 0, 223]",223,a,0.15676504030125216,colour,0.5
91,19,0,1,16,31,781,2412.72988439427,2413.3134198036278,"[37, 0, 217]",217,a,0.06125492849969305,colour,0.5
91,19,0,1,16,32,782,2415.3241532992106,2415.977442448231,"[83, 0, 171]",171,l,0.13119456366985105,colour,0.5
91,19,0,1,16,33,783,2417.9959807976265,2419.4334444899287,"[82, 0, 172]",172,l,0.9153446884592995,colour,0.5
91,19,0,1,16,34,784,2421.449069557624,2422.1054452807584,"[33, 0, 221]",221,a,0.13417243617004715,colour,0.5
91,19,0,1,16,35,785,2424.1210006376496,2424.8094807490124,"[66, 0, 188]",188,l,0.1663681967474986,colour,0.5
91,19,0,1,16,36,786,2426.8248092503636,2427.42543129134,"[24, 0, 230]",230,a,0.07958414548193105,colour,0.5
91,19,0,1,16,37,787,2429.4334149514325,2430.113441937807,"[62, 0, 192]",192,l,0.15772011780063622,colour,0.5
91,19,0,1,16,38,788,2432.120984096109,2432.793429933372,"[4, 0, 250]",250,a,0.15026027339627035,colour,0.5
91,19,0,1,16,39,789,2434.8084941637935,2435.9374185968773,"[30, 0, 224]",224,a,0.6067754969117232,colour,0.5
91,19,0,1,16,40,790,2437.9490788130206,2439.2494370950735,"[68, 0, 186]",186,l,0.7781636597355828,colour,0.5
91,19,0,1,16,41,791,2441.2615167576005,2442.3374420701293,"[15, 0, 239]",239,a,0.5535747270332649,colour,0.5
91,19,0,1,16,42,792,2444.3552907945123,2445.313441071339,"[71, 0, 183]",183,l,0.4360470268293284,colour,0.5
91,19,0,1,16,43,793,2447.3240359329793,2448.5134409925668,"[85, 0, 169]",169,l,0.667212012631353,colour,0.5
91,19,0,1,16,44,794,2450.527201197634,2451.617447946308,"[29, 0, 225]",225,a,0.5680151047708932,colour,0.5
91,19,0,1,16,45,795,2453.636608966859,2454.7054797029414,"[32, 0, 222]",222,a,0.5467501568491571,colour,0.5
91,19,0,1,16,46,796,2456.7146803483774,2457.697452719731,"[52, 0, 202]",202,a,0.460623041348299,colour,0.5
91,19,0,1,16,47,797,2459.7148453700065,2460.5454772453522,"[48, 0, 206]",206,a,0.30861054541310295,colour,0.5
91,19,0,1,16,48,798,2462.5584210068337,2463.4974776108284,"[76, 0, 178]",178,l,0.41685095394495875,colour,0.5
91,19,0,1,16,49,799,2465.5114942098735,2466.553482173156,"[57, 0, 197]",197,l,0.5197905840177555,colour,0.5
91,19,0,1,16,50,800,2468.558392649895,2469.4894285722403,"[59, 0, 195]",195,l,0.40884799539344385,colour,0.5
