id,age,condition,counterbalance,block,trialinblock,trial,tstart,tend,trialstim,trialintensity,response,RT,trialtype,colourfreq
03,21,1,1,Practice,1,NA,5.907611921429634e-06,0.8979765770491213,"[26, 0, 228]",228,a,0.2652359295170754,colour,0.5
03,21,1,1,Practice,2,NA,2.9072291993070394,3.7299607256427407,"[80, 0, 174]",174,l,0.30044181644916534,colour,0.5
03,21,1,1,Practice,3,NA,5.735554519109428,6.27397458255291,"[49, 0, 205]",205,a,0.016122870380058885,colour,0.5
03,21,1,1,Practice,4,NA,8.282630528323352,32.857994126854464,"[11, 0, 243]",243,l,24.053830860415474,colour,0.5
03,21,1,1,Practice,5,NA,34.87884905608371,35.62595822708681,"[78, 0, 176]",176,l,0.22520188544876873,colour,0.5
03,21,1,1,Practice,6,NA,37.644294117810205,40.04198712576181,"[3, 0, 251]",251,a,1.8754773412365466,colour,0.5
03,21,1,1,Practice,7,NA,42.050927428295836,42.96998460846953,"[52, 0, 202]",202,a,0.3968765656463802,colour,0.5
03,21,1,1,Practice,8,NA,44.98862454807386,45.985961362021044,"[76, 0, 178]",178,l,0.4753621807321906,colour,0.5
03,21,1,1,Practice,9,NA,48.00445636641234,48.64996313583106,"[34, 0, 220]",220,a,0.12332930555567145,colour,0.5
03,21,1,1,Practice,10,NA,50.660999092506245,51.289998991647735,"[73, 0, 181]",181,l,0.10680471220985055,colour,0.5
03,21,1,1,1,1,1,6.35368348332122,6.984005523379892,"[38, 0, 216]",216,a,0.10726117971353233,colour,0.5
03,21,1,1,1,2,2,8.995418390491977,9.536015240242705,"[34, 0, 220]",220,a,0.018558413721621037,colour,0.5
03,21,1,1,1,3,3,11.542415630305186,12.576025259681046,"[4, 0, 250]",250,a,0.5115774946752936,colour,0.5
03,21,1,1,1,4,4,14.589497547131032,15.295999628258869,"[80, 0, 174]",174,l,0.1842434850987047,colour,0.5
03,21,1,1,1,5,5,17.308421922381967,18.06400390062481,"[88, 0, 166]",166,l,0.23329029907472432,colour,0.5
03,21,1,1,1,6,6,20.07432817760855,20.840002063661814,"[81, 0, 173]",173,l,0.2434976038057357,colour,0.5
03,21,1,1,1,7,7,22.85581103898585,23.543957143323496,"[28, 0, 226]",226,a,0.1666925293393433,colour,0.5
03,21,1,1,1,8,8,25.55910051893443,26.38399150245823,"[61, 0, 193]",193,l,0.3025843382347375,colour,0.5
03,21,1,1,1,9,9,28.40309657412581,29.319998629391193,"[2, 0, 252]",252,a,0.39482108363881707,colour,0.5
03,21,1,1,1,10,10,31.325195820303634,31.991979721700773,"[13, 0, 241]",241,a,0.1447387698572129,colour,0.5
03,21,1,1,1,11,11,33.99720999551937,34.81597982556559,"[54, 0, 200]",200,l,0.29653486469760537,colour,0.5
03,21,1,1,1,12,12,36.8256022692658,37.61599274375476,"[76, 0, 178]",178,l,0.26817086921073496,colour,0.5
03,21,1,1,1,13,13,39.62276098597795,40.40797159890644,"[68, 0, 186]",186,l,0.26297564757987857,colour,0.5
03,21,1,1,1,14,14,42.41980903199874,43.20799121260643,"[9, 0, 245]",245,a,0.2659235845785588,colour,0.5
03,21,1,1,1,15,15,45.21690118871629,46.02398009668104,"[50, 0, 204]",204,l,0.28477935190312564,colour,0.5
03,21,1,1,1,16,16,48.029707404086366,48.8001322534401,"[86, 0, 168]",168,l,0.24845139775425196,colour,0.5
03,21,1,1,1,17,17,50.811138671590015,51.591980745550245,"[75, 0, 179]",179,l,0.25854015490040183,colour,0.5
03,21,1,1,1,18,18,53.60821349918842,54.37597161787562,"[37, 0, 217]",217,a,0.2455290611833334,colour,0.5
03,21,1,1,1,19,19,56.38968100049533,57.119955621426925,"[64, 0, 190]",190,l,0.20803650468587875,colour,0.5
03,21,1,1,1,20,20,59.13981018192135,59.82396032544784,"[10, 0, 244]",244,a,0.16186319035477936,colour,0.5
03,21,1,1,1,21,21,61.843200880335644,62.56795063056052,"[23, 0, 231]",231,a,0.20252660033293068,colour,0.5
03,21,1,1,1,22,22,64.5778105633799,65.50393964070827,"[27, 0, 227]",227,a,0.40396500448696315,colour,0.5
03,21,1,1,1,23,23,67.51548838475719,68.07196076982655,"[36, 0, 218]",218,a,0.03414132143370807,colour,0.5
03,21,1,1,1,24,24,70.07824497530237,70.65595235093497,"[3, 0, 251]",251,a,0.055532668717205524,colour,0.5
03,21,1,1,1,25,25,72.67216816917062,73.40794993750751,"[73, 0, 181]",181,l,0.21351568936370313,colour,0.5
03,21,1,1,1,26,26,75.42240290134214,76.15996839781292,"[1, 0, 253]",253,a,0.21555147878825665,colour,0.5
03,21,1,1,1,27,27,78.1726238487754,78.82398631935939,"[78, 0, 176]",176,l,0.12904755445197225,colour,0.5
03,21,1,1,1,28,28,80.82909095636569,81.93596813618205,"[55, 0, 199]",199,l,0.5848611928522587,colour,0.5
03,21,1,1,1,29,29,83.9543245069217,84.70394326420501,"[6, 0, 248]",248,a,0.22738379193469882,colour,0.5
03,21,1,1,1,30,30,86.72018586378545,87.34395785210654,"[99, 0, 155]",155,l,0.10147833987139165,colour,0.5
03,21,1,1,1,31,31,89.36109605734237,90.07196707138792,"[14, 0, 240]",240,a,0.18920003599487245,colour,0.5
03,21,1,1,1,32,32,92.08000231580809,92.7599371264223,"[84, 0, 170]",170,l,0.15794324199669063,colour,0.5
03,21,1,1,1,33,33,94.76774512184784,95.47992685483769,"[45, 0, 209]",209,l,0.18992313696071506,colour,0.5
03,21,1,1,1,34,34,97.48664547246881,98.23192562302575,"[32, 0, 222]",222,a,0.2230018621776253,colour,0.5
03,21,1,1,1,35,35,100.23685933090746,101.33595096459612,"[46, 0, 208]",208,a,0.5768629699014127,colour,0.5
03,21,1,1,1,36,36,103.34653951227665,103.91193605214357,"[91, 0, 163]",163,l,0.04339906363748014,colour,0.5
03,21,1,1,1,37,37,105.92486916435882,106.55193212931044,"[56, 0, 198]",198,l,0.10496623953804374,colour,0.5
03,21,1,1,1,38,38,108.56569428741932,109.29592519137077,"[8, 0, 246]",246,a,0.20804162486456335,colour,0.5
03,21,1,1,1,39,39,111.31584670580924,111.91197228594683,"[49, 0, 205]",205,a,0.07386462111026049,colour,0.5
03,21,1,1,1,40,40,113.92541976110078,114.53593410807662,"[74, 0, 180]",180,l,0.08825063100084662,colour,0.5
03,21,1,1,1,41,41,116.55064070853405,117.17591364379041,"[93, 0, 161]",161,l,0.1030048867687583,colour,0.5
03,21,1,1,1,42,42,119.1914532284718,119.85591501439922,"[16, 0, 238]",238,a,0.142268568277359,colour,0.5
03,21,1,1,1,43,43,121.8635402652435,122.5679423599504,"[96, 0, 158]",158,l,0.18230615695938468,colour,0.5
03,21,1,1,1,44,44,124.58253356348723,125.27190767927095,"[67, 0, 187]",187,l,0.16711630742065609,colour,0.5
03,21,1,1,1,45,45,127.28585494495928,127.80797175643966,"[30, 0, 224]",224,l,0.0006254273466765881,colour,0.5
03,21,1,1,1,46,46,129.83283643098548,130.80794497509487,"[24, 0, 230]",230,a,0.45275542489252985,colour,0.5
03,21,1,1,1,47,47,132.81766981841065,133.84790458227508,"[57, 0, 197]",197,l,0.508148672292009,colour,0.5
03,21,1,1,1,48,48,135.86465366766788,136.64793089102022,"[19, 0, 235]",235,a,0.2610048425849527,colour,0.5
03,21,1,1,1,49,49,138.6617296768818,139.44790127384476,"[97, 0, 157]",157,l,0.2640232779085636,colour,0.5
03,21,1,1,1,50,50,141.45889666420408,142.23991675674915,"[95, 0, 159]",159,l,0.2588067885953933,colour,0.5
03,21,1,1,2,1,51,150.20873636892065,151.25587736279704,"[65, 0, 189]",189,l,0.524118730565533,colour,0.5
03,21,1,1,2,2,52,153.27220188220963,154.12789988750592,"[61, 0, 193]",193,l,0.3340640487149358,colour,0.5
03,21,1,1,2,3,53,156.1475350758992,156.87190988496877,"[29, 0, 225]",225,a,0.20217292685993016,colour,0.5
03,21,1,1,2,4,54,158.8820951343514,159.89589037536643,"[55, 0, 199]",199,a,0.49143857741728425,colour,0.5
03,21,1,1,2,5,55,161.91357996501029,162.47991149500012,"[22, 0, 232]",232,a,0.04420605394989252,colour,0.5
03,21,1,1,2,6,56,164.49196751252748,165.03988792723976,"[96, 0, 158]",158,l,0.025694901822134852,colour,0.5
03,21,1,1,2,7,57,167.05461973394267,167.69589974894188,"[80, 0, 174]",174,l,0.11898006522096694,colour,0.5
03,21,1,1,2,8,58,169.71107266307808,170.28790333750658,"[83, 0, 171]",171,l,0.05454293382354081,colour,0.5
03,21,1,1,2,9,59,172.30505335819907,172.91987598570995,"[39, 0, 215]",215,a,0.09249825915321708,colour,0.5
03,21,1,1,2,10,60,174.93024634267204,176.00790409371257,"[48, 0, 206]",206,l,0.5556240410078317,colour,0.5
03,21,1,1,2,11,61,178.02420813334174,178.7999034288805,"[19, 0, 235]",235,a,0.2534225210547447,colour,0.5
03,21,1,1,2,12,62,180.805666182423,181.54389412794262,"[2, 0, 252]",252,a,0.21598470932804048,colour,0.5
03,21,1,1,2,13,63,183.5559694438707,184.32787239714526,"[72, 0, 182]",182,l,0.24967350182123482,colour,0.5
03,21,1,1,2,14,64,186.33742237300612,186.88790633087046,"[89, 0, 165]",165,l,0.028253718744963408,colour,0.5
03,21,1,1,2,15,65,188.90024237288162,189.54389097704552,"[62, 0, 192]",192,l,0.12151210033334792,colour,0.5
03,21,1,1,2,16,66,191.55689222482033,192.28785253153183,"[32, 0, 222]",222,a,0.20903529808856547,colour,0.5
03,21,1,1,2,17,67,194.30685914168134,195.0158865628764,"[90, 0, 164]",164,l,0.186836960259825,colour,0.5
03,21,1,1,2,18,68,197.02576500643045,197.63185331295244,"[26, 0, 228]",228,a,0.08388996892608702,colour,0.5
03,21,1,1,2,19,69,199.65096074785106,200.3198966232594,"[41, 0, 213]",213,a,0.14662962406873703,colour,0.5
03,21,1,1,2,20,70,202.33869725232944,202.8718669556547,"[82, 0, 172]",172,l,0.010929224314168096,colour,0.5
03,21,1,1,2,21,71,204.8857094582636,205.5758614197839,"[45, 0, 209]",209,a,0.16790951299481094,colour,0.5
03,21,1,1,2,22,72,207.58911472884938,208.28785804542713,"[63, 0, 191]",191,l,0.1765623081009835,colour,0.5
03,21,1,1,2,23,73,210.30806391639635,211.39988200366497,"[50, 0, 204]",204,a,0.569580364972353,colour,0.5
03,21,1,1,2,24,74,213.41762515646406,213.99984639999457,"[85, 0, 169]",169,l,0.06001660437323153,colour,0.5
03,21,1,1,2,25,75,216.0115952177439,216.6798465892207,"[35, 0, 219]",219,a,0.1460502769332379,colour,0.5
03,21,1,1,2,26,76,218.69929509446956,219.24785117665306,"[36, 0, 218]",218,a,0.02626125211827457,colour,0.5
03,21,1,1,2,27,77,221.26200954359956,223.2558493996039,"[51, 0, 203]",203,a,1.4716816905420274,colour,0.5
03,21,1,1,2,28,78,225.2623947248794,226.04787551634945,"[66, 0, 188]",188,l,0.2634510197676718,colour,0.5
03,21,1,1,2,29,79,228.05943134939298,228.68784717516974,"[37, 0, 217]",217,a,0.10621709423139691,colour,0.5
03,21,1,1,2,30,80,230.70024426328018,231.51183506986126,"[8, 0, 246]",246,a,0.2893802598118782,colour,0.5
03,21,1,1,2,31,81,233.5286688322667,234.14387152111158,"[10, 0, 244]",244,a,0.09311462799087167,colour,0.5
03,21,1,1,2,32,82,236.15377950295806,237.0798380819615,"[57, 0, 197]",197,a,0.4038114044815302,colour,0.5
03,21,1,1,2,33,83,239.091564450413,240.08786663110368,"[17, 0, 237]",237,a,0.47408887674100697,colour,0.5
03,21,1,1,2,34,84,242.10747464420274,242.71986842388287,"[91, 0, 163]",163,l,0.09016432822681963,colour,0.5
03,21,1,1,2,35,85,244.73270031786524,245.67182946158573,"[33, 0, 221]",221,a,0.4169678275939077,colour,0.5
03,21,1,1,2,36,86,247.68594608083367,248.46383549203165,"[86, 0, 168]",168,l,0.2556119104847312,colour,0.5
03,21,1,1,2,37,87,250.4831063731108,251.47983863344416,"[54, 0, 200]",200,a,0.47445987979881465,colour,0.5
03,21,1,1,2,38,88,253.4989598528482,254.09582704491913,"[4, 0, 250]",250,a,0.07467476208694279,colour,0.5
03,21,1,1,2,39,89,256.1085159727372,257.06383651611395,"[75, 0, 179]",179,l,0.4330906979739666,colour,0.5
03,21,1,1,2,40,90,259.0774651602842,259.8958462646697,"[71, 0, 183]",183,l,0.2960953328292817,colour,0.5
03,21,1,1,2,41,91,261.90587240015157,262.7358207590878,"[46, 0, 208]",208,a,0.30768227973021567,colour,0.5
03,21,1,1,2,42,92,264.7498144984711,265.4238286234904,"[40, 0, 214]",214,a,0.15174804581329226,colour,0.5
03,21,1,1,2,43,93,267.43754312605597,268.0398461795412,"[53, 0, 201]",201,a,0.08006966346874833,colour,0.5
03,21,1,1,2,44,94,270.0471201199107,271.1438392258715,"[3, 0, 251]",251,a,0.5746727928053588,colour,0.5
03,21,1,1,2,45,95,273.1567762766499,273.9838625572156,"[11, 0, 243]",243,a,0.3049387491773814,colour,0.5
03,21,1,1,2,46,96,276.00072743347846,276.6718200093601,"[98, 0, 156]",156,l,0.14883831213228405,colour,0.5
03,21,1,1,2,47,97,278.68847969174385,279.2398537413683,"[1, 0, 253]",253,a,0.02924187807366252,colour,0.5
03,21,1,1,2,48,98,281.25105983926915,281.84783880994655,"[97, 0, 157]",157,l,0.07472399272955954,colour,0.5
03,21,1,1,2,49,99,283.86072150990367,284.407819574466,"[14, 0, 240]",240,a,0.025364465080201626,colour,0.5
03,21,1,1,2,50,100,286.4234914914705,288.2958290928509,"[34, 0, 220]",220,a,1.3501069685444236,colour,0.5
03,21,1,1,3,1,101,297.84536821441725,298.3758491317276,"[85, 0, 169]",169,l,0.008412548806518316,colour,0.5
03,21,1,1,3,2,102,300.39332092460245,300.96780742821284,"[32, 0, 222]",222,a,0.05263553815893829,colour,0.5
03,21,1,1,3,3,103,302.9874323767144,303.5358470680658,"[97, 0, 157]",157,l,0.026464870432391763,colour,0.5
03,21,1,1,3,4,104,305.5500613611657,306.2318062877748,"[37, 0, 217]",217,a,0.15955958585254848,colour,0.5
03,21,1,1,3,5,105,308.23783528106287,308.83180455467664,"[30, 0, 224]",224,a,0.071779994526878,colour,0.5
03,21,1,1,3,6,106,310.8473071178887,311.52784333121963,"[51, 0, 203]",203,a,0.15862971544265747,colour,0.5
03,21,1,1,3,7,107,313.53500541928224,314.35183004452847,"[56, 0, 198]",198,a,0.29453570302575827,colour,0.5
03,21,1,1,3,8,108,316.3634311698843,316.91979721654207,"[82, 0, 172]",172,l,0.03430082881823182,colour,0.5
03,21,1,1,3,9,109,318.9263157604728,320.5358108342625,"[88, 0, 166]",166,l,1.0875550990458578,colour,0.5
03,21,1,1,3,10,110,322.55134175438434,323.33590370300226,"[49, 0, 205]",205,a,0.2624998816754669,colour,0.5
03,21,1,1,3,11,111,325.34857766493224,325.92780686100014,"[13, 0, 241]",241,a,0.05709544918499887,colour,0.5
03,21,1,1,3,12,112,327.94240515399724,328.68781606131233,"[74, 0, 180]",180,l,0.22314837272278965,colour,0.5
03,21,1,1,3,13,113,330.70833503990434,331.63976685889065,"[27, 0, 227]",227,a,0.40924214594997466,colour,0.5
03,21,1,1,3,14,114,333.6460790275596,334.39978590537794,"[94, 0, 160]",160,l,0.2319992722477764,colour,0.5
03,21,1,1,3,15,115,336.41187264281325,337.0157884953078,"[75, 0, 179]",179,l,0.08179510245099664,colour,0.5
03,21,1,1,3,16,116,339.02153825201094,339.871783854207,"[63, 0, 191]",191,l,0.3281138245947659,colour,0.5
03,21,1,1,3,17,117,341.8810337195173,342.79177366150543,"[64, 0, 190]",190,l,0.3884636228904128,colour,0.5
03,21,1,1,3,18,118,344.80317353177816,346.2637857887894,"[34, 0, 220]",220,a,0.9383599625434726,colour,0.5
03,21,1,1,3,19,119,348.27216761768796,348.95181295159273,"[65, 0, 189]",189,a,0.15737964864820242,colour,0.5
03,21,1,1,3,20,120,350.95989309437573,351.63180802064016,"[95, 0, 159]",159,l,0.14971973933279514,colour,0.5
03,21,1,1,3,21,121,353.64765992504545,354.2399163627997,"[5, 0, 249]",249,a,0.07075048121623695,colour,0.5
03,21,1,1,3,22,122,356.2572743340861,357.09578608488664,"[71, 0, 183]",183,l,0.3163453144952655,colour,0.5
03,21,1,1,3,23,123,359.1011392388027,359.71178276720457,"[40, 0, 214]",214,a,0.08834003400988877,colour,0.5
03,21,1,1,3,24,124,361.72638854314573,362.59986475342885,"[81, 0, 173]",173,l,0.35120540484786034,colour,0.5
03,21,1,1,3,25,125,364.6172223307658,365.9677814345341,"[77, 0, 177]",177,l,0.8283174431417137,colour,0.5
03,21,1,1,3,26,126,367.97679893067107,368.72778551466763,"[21, 0, 233]",233,a,0.22875713254325092,colour,0.5
03,21,1,1,3,27,127,370.74270400428213,371.28777927625924,"[19, 0, 235]",235,a,0.0228103743866086,colour,0.5
03,21,1,1,3,28,128,373.30539639806375,373.9118175043259,"[87, 0, 167]",167,l,0.08421292249113321,colour,0.5
03,21,1,1,3,29,129,375.93055433034897,376.55174662778154,"[84, 0, 170]",170,l,0.0991637073457241,colour,0.5
03,21,1,1,3,30,130,378.5714381362777,379.14376754593104,"[17, 0, 237]",237,a,0.0500680566765368,colour,0.5
03,21,1,1,3,31,131,381.1497764531523,381.9357842102181,"[43, 0, 211]",211,a,0.263786576455459,colour,0.5
03,21,1,1,3,32,132,383.9467992929276,384.55180885549635,"[79, 0, 175]",175,l,0.0829404063988477,colour,0.5
03,21,1,1,3,33,133,386.57210964360274,387.12775573995896,"[48, 0, 206]",206,a,0.033478478668257594,colour,0.5
03,21,1,1,3,34,134,389.1347118464764,389.7997454968281,"[28, 0, 226]",226,a,0.14267422957345843,colour,0.5
03,21,1,1,3,35,135,391.80685244640335,392.43175674183294,"[52, 0, 202]",202,a,0.10258662234991789,colour,0.5
03,21,1,1,3,36,136,394.44777878769673,394.9997546339873,"[80, 0, 174]",174,l,0.02989093610085547,colour,0.5
03,21,1,1,3,37,137,397.0103880800307,397.5517659264151,"[14, 0, 240]",240,a,0.01912161335349083,colour,0.5
03,21,1,1,3,38,138,399.557510956889,400.11178371240385,"[45, 0, 209]",209,a,0.03213428263552487,colour,0.5
03,21,1,1,3,39,139,402.12017696280964,402.7997722784057,"[78, 0, 176]",176,l,0.15732214716263115,colour,0.5
03,21,1,1,3,40,140,404.8078764458187,405.4077731005382,"[67, 0, 187]",187,l,0.07771170791238546,colour,0.5
03,21,1,1,3,41,141,407.4175314209424,408.51177047914825,"[35, 0, 219]",219,a,0.5720974341966212,colour,0.5
03,21,1,1,3,42,142,410.5270520946942,411.07976758363657,"[41, 0, 213]",213,a,0.030399785144254565,colour,0.5
03,21,1,1,3,43,143,413.0898075038567,413.97577414358966,"[60, 0, 194]",194,l,0.3638092619366944,colour,0.5
03,21,1,1,3,44,144,415.9963246297557,416.927724941168,"[39, 0, 215]",215,a,0.40947609045542777,colour,0.5
03,21,1,1,3,45,145,418.9340249004308,419.53574584960006,"[46, 0, 208]",208,a,0.0795403344091028,colour,0.5
03,21,1,1,3,46,146,421.54363222047687,422.50374350557104,"[18, 0, 236]",236,a,0.43793421518057585,colour,0.5
03,21,1,1,3,47,147,424.51258613402024,425.26373419491574,"[7, 0, 247]",247,a,0.22910529235377908,colour,0.5
03,21,1,1,3,48,148,427.2784644262865,427.85576653433964,"[3, 0, 251]",251,a,0.05522980121895671,colour,0.5
03,21,1,1,3,49,149,429.8723624139093,430.8477395607624,"[89, 0, 165]",165,l,0.45313351694494486,colour,0.5
03,21,1,1,3,50,150,432.85701148142107,433.62372590834275,"[2, 0, 252]",252,a,0.2449902796652168,colour,0.5
03,21,1,1,4,1,151,451.04510362865403,451.9117619721219,"[49, 0, 205]",205,a,0.343801889102906,colour,0.5
03,21,1,1,4,2,152,453.92125405278057,454.6558826402761,"[7, 0, 247]",247,a,0.2125204405747354,colour,0.5
03,21,1,1,4,3,153,456.6713521203492,457.22372929542325,"[18, 0, 236]",236,a,0.030083526857197285,colour,0.5
03,21,1,1,4,4,154,459.23406617552973,459.79972698609345,"[8, 0, 246]",246,a,0.04344829451292753,colour,0.5
03,21,1,1,4,5,155,461.8123753478285,462.7276976869907,"[41, 0, 213]",213,a,0.3932023770175874,colour,0.5
03,21,1,1,4,6,156,464.73445765837096,465.42368802055717,"[30, 0, 224]",224,a,0.16686936607584357,colour,0.5
03,21,1,1,4,7,157,467.4378389043268,469.0316864796914,"[45, 0, 209]",209,l,1.0716000068932772,colour,0.5
03,21,1,1,4,8,158,471.0475312951021,471.92774463351816,"[53, 0, 201]",201,l,0.35814378852955997,colour,0.5
03,21,1,1,4,9,159,473.93829615949653,474.74371461290866,"[64, 0, 190]",190,l,0.2830944787710905,colour,0.5
03,21,1,1,4,10,160,476.75116066401824,477.37572861486115,"[72, 0, 182]",182,l,0.10240939166396856,colour,0.5
03,21,1,1,4,11,161,479.39189520222135,480.2317318508867,"[3, 0, 251]",251,a,0.3175851416308433,colour,0.5
03,21,1,1,4,12,162,482.25139106391,482.97572727594525,"[22, 0, 232]",232,a,0.20201223762705922,colour,0.5
03,21,1,1,4,13,163,484.98604800831527,485.6317016822286,"[60, 0, 194]",194,l,0.12350062862969935,colour,0.5
03,21,1,1,4,14,164,487.6425871895626,488.2716981533449,"[73, 0, 181]",181,l,0.10690199234522879,colour,0.5
03,21,1,1,4,15,165,490.28334732796066,491.303711919114,"[37, 0, 217]",217,a,0.4981670412234962,colour,0.5
03,21,1,1,4,16,166,493.3149184109643,494.18371966993436,"[0, 0, 254]",254,a,0.3466379737947136,colour,0.5
03,21,1,1,4,17,167,496.19009879231453,496.96773180994205,"[55, 0, 199]",199,a,0.2554051415063441,colour,0.5
03,21,1,1,4,18,168,498.98715589684434,499.6557180127129,"[4, 0, 250]",250,a,0.1463677166029811,colour,0.5
03,21,1,1,4,19,169,501.6749652628787,502.5277239959687,"[52, 0, 202]",202,l,0.3305643340572715,colour,0.5
03,21,1,1,4,20,170,504.5344567920547,505.2956877022516,"[99, 0, 155]",155,l,0.23896680027246475,colour,0.5
03,21,1,1,4,21,171,507.31598021951504,508.2316641092766,"[86, 0, 168]",168,l,0.393407964380458,colour,0.5
03,21,1,1,4,22,172,510.2380022716243,511.01567939994857,"[62, 0, 192]",192,l,0.2554366490803659,colour,0.5
03,21,1,1,4,23,173,513.03507591784,513.6636985125951,"[81, 0, 173]",173,l,0.1062608112115413,colour,0.5
03,21,1,1,4,24,174,515.6759624807164,516.4157201235648,"[67, 0, 187]",187,l,0.21749156364239752,colour,0.5
03,21,1,1,4,25,175,518.4261834281497,519.1516763658728,"[46, 0, 208]",208,a,0.2039574426598847,colour,0.5
03,21,1,1,4,26,176,521.1607734188437,521.7357022115029,"[50, 0, 204]",204,a,0.052639870438724756,colour,0.5
03,21,1,1,4,27,177,523.7547513572499,524.3677040042821,"[93, 0, 161]",161,l,0.09068223554641008,colour,0.5
03,21,1,1,4,28,178,526.3799825448077,527.047681350261,"[90, 0, 164]",164,l,0.1457277168519795,colour,0.5
03,21,1,1,4,29,179,529.0677084154449,529.7756952955388,"[87, 0, 167]",167,l,0.18581611174158752,colour,0.5
03,21,1,1,4,30,180,531.7865989198908,532.5596865615807,"[59, 0, 195]",195,a,0.25077942106872797,colour,0.5
03,21,1,1,4,31,181,534.5680282183457,535.2156731772702,"[26, 0, 228]",228,a,0.12529932288452983,colour,0.5
03,21,1,1,4,32,182,537.2245910305064,538.0237028291449,"[95, 0, 159]",159,l,0.27688628574833274,colour,0.5
03,21,1,1,4,33,183,540.0372853933368,540.6636488880031,"[19, 0, 235]",235,a,0.10409662779420614,colour,0.5
03,21,1,1,4,34,184,542.6781506885309,543.6876927874982,"[39, 0, 215]",215,a,0.48732958268374205,colour,0.5
03,21,1,1,4,35,185,545.6939187038224,546.2236741571687,"[2, 0, 252]",252,a,0.007482678629457951,colour,0.5
03,21,1,1,4,36,186,548.2410675745923,548.847668668488,"[47, 0, 207]",207,a,0.08433147030882537,colour,0.5
03,21,1,1,4,37,187,550.8662455929443,551.6316559959669,"[56, 0, 198]",198,a,0.24310100078582764,colour,0.5
03,21,1,1,4,38,188,553.6477229404263,554.3836594903842,"[14, 0, 240]",240,a,0.21373703074641526,colour,0.5
03,21,1,1,4,39,189,556.3979521587025,557.3196268389001,"[24, 0, 230]",230,a,0.3994464101269841,colour,0.5
03,21,1,1,4,40,190,559.3357477402315,560.2476081736386,"[94, 0, 160]",160,l,0.38968533277511597,colour,0.5
03,21,1,1,4,41,191,562.2576894478407,563.0876445020549,"[82, 0, 172]",172,l,0.3076212336309254,colour,0.5
03,21,1,1,4,42,192,565.1016437553335,566.0716323023662,"[80, 0, 174]",174,l,0.4476413356605917,colour,0.5
03,21,1,1,4,43,193,568.0863259059843,568.8556424730923,"[68, 0, 186]",186,l,0.24708672193810344,colour,0.5
03,21,1,1,4,44,194,570.8677906503435,571.5436389157549,"[10, 0, 244]",244,a,0.15353728784248233,colour,0.5
03,21,1,1,4,45,195,573.5555629949085,574.0796998422593,"[13, 0, 241]",241,a,0.0019448113162070513,colour,0.5
03,21,1,1,4,46,196,576.1026094655972,576.9837097451091,"[44, 0, 210]",210,a,0.3589228156488389,colour,0.5
03,21,1,1,4,47,197,578.9934960284736,579.7436519914772,"[70, 0, 184]",184,l,0.2279765298590064,colour,0.5
03,21,1,1,4,48,198,581.7593290284276,582.4556364077143,"[78, 0, 176]",176,l,0.17410195246338844,colour,0.5
03,21,1,1,4,49,199,584.4626106312498,585.0476360579487,"[34, 0, 220]",220,a,0.06287198746576905,colour,0.5
03,21,1,1,4,50,200,587.0567594987806,587.6236605299637,"[25, 0, 229]",229,a,0.044622742803767323,colour,0.5
03,21,1,1,5,1,201,601.4476885970216,602.0716303330846,"[27, 0, 227]",227,a,0.10088835889473557,colour,0.4
03,21,1,1,5,2,202,604.0893797872122,604.6956303582992,"[83, 0, 171]",171,l,0.08403529808856547,colour,0.4
03,21,1,1,5,3,203,606.7144888825715,607.343660892453,"[80, 0, 174]",174,l,0.10689962934702635,colour,0.4
03,21,1,1,5,4,204,609.3553955315147,609.9116654798854,"[72, 0, 182]",182,l,0.034039315301924944,colour,0.4
03,21,1,1,5,5,205,611.9180292421952,612.4876332380809,"[55, 0, 199]",199,l,0.04729577503167093,colour,0.4
03,21,1,1,5,6,206,614.4963525929488,615.0876031483058,"[26, 0, 228]",228,a,0.06925150379538536,colour,0.4
03,21,1,1,5,7,207,617.1058949280996,617.9516258747317,"[76, 0, 178]",178,l,0.32331993198022246,colour,0.4
03,21,1,1,5,8,208,619.96559716505,620.6876230768394,"[86, 0, 168]",168,l,0.19975471263751388,colour,0.4
03,21,1,1,5,9,209,622.7001213834155,623.319623688003,"[95, 0, 159]",159,l,0.09718541940674186,colour,0.4
03,21,1,1,5,10,210,625.3253616292495,626.7436122130603,"[82, 0, 172]",172,l,0.8960943876300007,colour,0.4
03,21,1,1,5,11,211,628.7630784416106,629.4476358217653,"[37, 0, 217]",217,a,0.16241772565990686,colour,0.4
03,21,1,1,5,12,212,631.4664297553245,632.2396473661065,"[89, 0, 165]",165,l,0.25090584554709494,colour,0.4
03,21,1,1,5,13,213,634.2479011951946,634.847610773053,"[16, 0, 238]",238,a,0.07747815735638142,colour,0.4
03,21,1,1,5,14,214,636.8575037887786,637.5836016735993,"[57, 0, 197]",197,a,0.2043430176563561,colour,0.4
03,21,1,1,5,15,215,639.5920839332975,640.5755916354246,"[2, 0, 252]",252,a,0.46127982600592077,colour,0.4
03,21,1,1,5,16,216,642.5923686840106,643.519614708377,"[9, 0, 245]",245,a,0.4051717482507229,colour,0.4
03,21,1,1,5,17,217,645.5300453237724,646.5596188202035,"[69, 0, 185]",185,l,0.5075334848370403,colour,0.4
03,21,1,1,5,18,218,648.5772776897065,649.3755891935434,"[74, 0, 180]",180,l,0.27618287689983845,colour,0.4
03,21,1,1,5,19,219,651.3899043111596,652.0716319084167,"[10, 0, 244]",244,a,0.15948278573341668,colour,0.4
03,21,1,1,5,20,220,654.0776045818347,655.0716240315232,"[30, 0, 224]",224,a,0.47254657628946006,colour,0.4
03,21,1,1,5,21,221,657.077821197221,657.9836238867138,"[97, 0, 157]",157,l,0.38352361344732344,colour,0.4
03,21,1,1,5,22,222,659.9999287137762,660.6875742399134,"[7, 0, 247]",247,a,0.1653747207019478,colour,0.4
03,21,1,1,5,23,223,662.7033461937681,663.415562585229,"[77, 0, 177]",177,l,0.190062164561823,colour,0.4
03,21,1,1,5,24,224,665.422317042714,666.1836342052557,"[0, 0, 254]",254,a,0.23915466479957104,colour,0.4
03,21,1,1,5,25,225,668.2037002611905,668.8876125218812,"[96, 0, 158]",158,l,0.16158828628249466,colour,0.4
03,21,1,1,5,26,226,670.9071067133918,671.4876277241856,"[19, 0, 235]",235,a,0.05841837776824832,colour,0.4
03,21,1,1,5,27,227,673.5010354209226,674.2475947828498,"[65, 0, 189]",189,l,0.2256071527954191,colour,0.4
03,21,1,1,5,28,228,676.2668538484722,677.0155860583764,"[54, 0, 200]",200,a,0.2264105984941125,colour,0.4
03,21,1,1,5,29,229,679.032730959123,679.7276071023662,"[85, 0, 169]",169,l,0.1726183348800987,colour,0.4
03,21,1,1,5,30,230,681.7360838481691,682.3915986362845,"[3, 0, 251]",251,a,0.13338616117835045,colour,0.4
03,21,1,1,5,31,231,684.4081311065238,684.9595965284389,"[60, 0, 194]",194,a,0.029206825885921717,colour,0.4
03,21,1,1,5,32,232,686.9707797833253,687.6796083124354,"[58, 0, 196]",196,a,0.18660301598720253,colour,0.4
03,21,1,1,5,33,233,689.6898376725148,690.2316235431936,"[81, 0, 173]",173,l,0.019561933120712638,colour,0.4
03,21,1,1,5,34,234,692.2368991093244,693.247568001505,"[98, 0, 156]",156,l,0.4884575577452779,colour,0.4
03,21,1,1,5,35,235,695.2526876046322,695.9276154520921,"[36, 0, 218]",218,a,0.1533068879507482,colour,0.4
03,21,1,1,5,36,236,697.9404276537243,698.8236180734821,"[68, 0, 186]",186,l,0.36080658063292503,colour,0.4
03,21,1,1,5,37,237,700.8313283950556,701.6155835378449,"[5, 0, 249]",249,a,0.2620804358739406,colour,0.4
03,21,1,1,5,38,238,703.6284213394392,704.639563634526,"[41, 0, 213]",213,a,0.4889112680684775,colour,0.4
03,21,1,1,5,39,239,706.6598923855927,707.367570884293,"[38, 0, 216]",216,a,0.18543762573972344,colour,0.4
03,21,1,1,5,40,240,709.3788518130314,710.1195858002175,"[6, 0, 248]",248,a,0.21861953870393336,colour,0.4
03,21,1,1,5,41,241,712.1291026929393,712.8475788715295,"[8, 0, 246]",246,a,0.19643577304668725,colour,0.4
03,21,1,1,5,42,242,714.8637178896461,715.5275633067358,"[88, 0, 166]",166,l,0.14184794086031616,colour,0.4
03,21,1,1,5,43,243,717.535680471221,718.2955585208256,"[61, 0, 193]",193,l,0.23757494892925024,colour,0.4
03,21,1,1,5,44,244,720.3015477356967,720.863606037572,"[91, 0, 163]",163,l,0.03973747813142836,colour,0.4
03,21,1,1,5,45,245,722.8798931417987,723.5355394743383,"[62, 0, 192]",192,l,0.13355472730472684,colour,0.4
03,21,1,1,5,46,246,725.5519163755234,726.1195668955334,"[29, 0, 225]",225,a,0.045326939318329096,colour,0.4
03,21,1,1,5,47,247,728.1303173138294,728.6555588988122,"[46, 0, 208]",208,a,0.0032003920059651136,colour,0.4
03,21,1,1,5,48,248,730.6774512182456,731.2715894519351,"[53, 0, 201]",201,a,0.07195998216047883,colour,0.4
03,21,1,1,5,49,249,733.2869880397338,734.3755714704748,"[99, 0, 155]",155,l,0.5663941516540945,colour,0.4
03,21,1,1,5,50,250,736.3810045749415,737.1675597778521,"[70, 0, 184]",184,l,0.2644057022407651,colour,0.4
03,21,1,1,6,1,251,760.8352424358018,761.591566025978,"[98, 0, 156]",156,l,0.23329148069024086,colour,0.28
03,21,1,1,6,2,252,763.6017879028805,764.1595717950258,"[80, 0, 174]",174,l,0.0355063914321363,colour,0.28
03,21,1,1,6,3,253,766.180181751959,767.6955291398335,"[83, 0, 171]",171,l,0.9934022931847721,colour,0.28
03,21,1,1,6,4,254,769.7117835548706,770.295565610053,"[39, 0, 215]",215,a,0.06156048062257469,colour,0.28
03,21,1,1,6,5,255,772.305650428636,772.9435307655949,"[97, 0, 157]",157,l,0.11561386403627694,colour,0.28
03,21,1,1,6,6,256,774.9622018192895,775.6635382173117,"[90, 0, 164]",164,l,0.17919359263032675,colour,0.28
03,21,1,1,6,7,257,777.6810623914935,778.2475620936602,"[1, 0, 253]",253,a,0.044231259962543845,colour,0.28
03,21,1,1,6,8,258,780.2594519082922,780.9115394491237,"[63, 0, 191]",191,a,0.12982185557484627,colour,0.28
03,21,1,1,6,9,259,782.9315290988889,783.5275396760553,"[85, 0, 169]",169,l,0.07373780268244445,colour,0.28
03,21,1,1,6,10,260,785.5410387450829,786.1595497396775,"[13, 0, 241]",241,a,0.09626224474050105,colour,0.28
03,21,1,1,6,11,261,788.1663034094963,788.7995446354616,"[54, 0, 200]",200,a,0.11094285151921213,colour,0.28
03,21,1,1,6,12,262,790.8071537385695,791.5835122705903,"[67, 0, 187]",187,l,0.2541278989519924,colour,0.28
03,21,1,1,6,13,263,793.6042021785397,794.3115171575919,"[45, 0, 209]",209,a,0.18508552759885788,colour,0.28
03,21,1,1,6,14,264,796.3231746028177,797.1915390868671,"[72, 0, 182]",182,l,0.34608816471882164,colour,0.28
03,21,1,1,6,15,265,799.1984113042708,799.9274937536102,"[60, 0, 194]",194,l,0.20679864706471562,colour,0.28
03,21,1,1,6,16,266,801.9331210241653,802.6795606568921,"[76, 0, 178]",178,l,0.22429879661649466,colour,0.28
03,21,1,1,6,17,267,804.6988728917204,805.31154354522,"[70, 0, 184]",184,l,0.09049279591999948,colour,0.28
03,21,1,1,6,18,268,807.3240977777168,807.9195427922532,"[92, 0, 162]",162,l,0.07315766764804721,colour,0.28
03,21,1,1,6,19,269,809.9336196330842,811.2234961388167,"[71, 0, 183]",183,l,0.7675296880770475,colour,0.28
03,21,1,1,6,20,270,813.2307027312927,813.7914833971299,"[50, 0, 204]",204,a,0.038651251001283526,colour,0.28
03,21,1,1,6,21,271,815.8090953989886,816.3678280657623,"[18, 0, 236]",236,a,0.037009307416155934,colour,0.28
03,21,1,1,6,22,272,818.3874719187152,819.1675534762908,"[58, 0, 196]",196,a,0.2577886967919767,colour,0.28
03,21,1,1,6,23,273,821.1846381186042,821.9675230714492,"[61, 0, 193]",193,a,0.2605672797653824,colour,0.28
03,21,1,1,6,24,274,823.9817503616214,824.5755349216051,"[66, 0, 188]",188,l,0.07156141009181738,colour,0.28
03,21,1,1,6,25,275,826.5912769429851,827.9115154244937,"[75, 0, 179]",179,l,0.797940107062459,colour,0.28
03,21,1,1,6,26,276,829.91977161658,830.5354930006433,"[11, 0, 243]",243,a,0.09353919397108257,colour,0.28
03,21,1,1,6,27,277,832.5448964657262,833.2235044094268,"[31, 0, 223]",223,a,0.15635131672024727,colour,0.28
03,21,1,1,6,28,278,835.2327093763743,835.9675238591153,"[68, 0, 186]",186,l,0.2125452528707683,colour,0.28
03,21,1,1,6,29,279,837.9828302869573,838.7274826471694,"[56, 0, 198]",198,a,0.2223673763219267,colour,0.28
03,21,1,1,6,30,280,840.733028391609,841.6954984199256,"[99, 0, 155]",155,l,0.4401653523091227,colour,0.28
03,21,1,1,6,31,281,843.7019531608094,844.3355023742188,"[78, 0, 176]",176,l,0.1112122421618551,colour,0.28
03,21,1,1,6,32,282,846.3429413358681,847.1115182603244,"[55, 0, 199]",199,a,0.24636322678998113,colour,0.28
03,21,1,1,6,33,283,849.1243639388122,849.8155040596612,"[69, 0, 185]",185,l,0.16889334004372358,colour,0.28
03,21,1,1,6,34,284,851.827682957286,852.4155078406911,"[94, 0, 160]",160,l,0.06554501969367266,colour,0.28
03,21,1,1,6,35,285,854.4216801938601,855.167542448733,"[86, 0, 168]",168,l,0.2236808524467051,colour,0.28
03,21,1,1,6,36,286,857.1874899568502,858.1034593849909,"[64, 0, 190]",190,a,0.3937829057686031,colour,0.28
03,21,1,1,6,37,287,860.109635676723,860.7914704000577,"[44, 0, 210]",210,a,0.15962102566845715,colour,0.28
03,21,1,1,6,38,288,862.7972571782302,863.3594608092681,"[32, 0, 222]",222,a,0.04023845004849136,colour,0.28
03,21,1,1,6,39,289,865.3756478766445,865.9674986531027,"[57, 0, 197]",197,a,0.06962565728463233,colour,0.28
03,21,1,1,6,40,290,867.9851413748693,868.6714927232824,"[82, 0, 172]",172,l,0.16399941081181169,colour,0.28
03,21,1,1,6,41,291,870.6885954823811,871.6874552983791,"[6, 0, 248]",248,a,0.47675954597070813,colour,0.28
03,21,1,1,6,42,292,873.7044446300715,874.5995055658277,"[74, 0, 180]",180,l,0.37283227196894586,colour,0.28
03,21,1,1,6,43,293,876.6109794790391,877.6474858452566,"[79, 0, 175]",175,l,0.5143478070385754,colour,0.28
03,21,1,1,6,44,294,879.6580161035527,880.5914718967397,"[42, 0, 212]",212,a,0.4112566679250449,colour,0.28
03,21,1,1,6,45,295,882.6114099526312,883.1835125070065,"[93, 0, 161]",161,l,0.049903035163879395,colour,0.28
03,21,1,1,6,46,296,885.1897151863668,886.0474958489649,"[19, 0, 235]",235,a,0.3355819310527295,colour,0.28
03,21,1,1,6,47,297,888.0649349524174,889.0075787771493,"[59, 0, 195]",195,a,0.42039704392664135,colour,0.28
03,21,1,1,6,48,298,891.0183725184761,891.639457689831,"[3, 0, 251]",251,a,0.09887738153338432,colour,0.28
03,21,1,1,6,49,299,893.6590487675276,894.4714524722658,"[95, 0, 159]",159,l,0.2901297486387193,colour,0.28
03,21,1,1,6,50,300,896.4874745181296,897.095476128161,"[34, 0, 220]",220,a,0.08641767199151218,colour,0.28
03,21,1,1,7,1,301,922.0667982373852,922.79143534787,"[56, 0, 198]",198,a,0.20158018870279193,colour,0.14
03,21,1,1,7,2,302,924.8021680430975,925.407440300798,"[93, 0, 161]",161,l,0.08295458485372365,colour,0.14
03,21,1,1,7,3,303,927.4274760305416,928.471431598533,"[60, 0, 194]",194,a,0.5218214271590114,colour,0.14
03,21,1,1,7,4,304,930.4899841044098,931.5675055847969,"[50, 0, 204]",204,a,0.5558761025313288,colour,0.14
03,21,1,1,7,5,305,933.584155814955,934.2314620662946,"[90, 0, 164]",164,l,0.12515202444046736,colour,0.14
03,21,1,1,7,6,306,936.2404953164514,936.8154804289807,"[84, 0, 170]",170,l,0.05264144577085972,colour,0.14
03,21,1,1,7,7,307,938.8344909776933,939.7114023119211,"[58, 0, 196]",196,a,0.3546527379658073,colour,0.14
03,21,1,1,7,8,308,941.7254433128983,942.6314216577448,"[70, 0, 184]",184,l,0.38378591486252844,colour,0.14
03,21,1,1,7,9,309,944.6474795436952,945.191463862313,"[80, 0, 174]",174,l,0.021930522518232465,colour,0.14
03,21,1,1,7,10,310,947.2101782388054,947.8874238696881,"[76, 0, 178]",178,l,0.15487793926149607,colour,0.14
03,21,1,1,7,11,311,949.8979159248993,950.6314070853405,"[51, 0, 203]",203,a,0.21134756738319993,colour,0.14
03,21,1,1,7,12,312,952.64820343256,953.351451952476,"[65, 0, 189]",189,l,0.18099071155302227,colour,0.14
03,21,1,1,7,13,313,955.3670588845853,956.5034300042316,"[73, 0, 181]",181,l,0.6140412373933941,colour,0.14
03,21,1,1,7,14,314,958.5235452908091,959.4474196003284,"[69, 0, 185]",185,l,0.40158263058401644,colour,0.14
03,21,1,1,7,15,315,961.4612428045366,962.1274142754264,"[85, 0, 169]",169,l,0.1438207149039954,colour,0.14
03,21,1,1,7,16,316,964.1333786782343,964.7274664994329,"[61, 0, 193]",193,a,0.07284731697291136,colour,0.14
03,21,1,1,7,17,317,966.7429505519103,967.3754229904152,"[96, 0, 158]",158,l,0.11009608255699277,colour,0.14
03,21,1,1,7,18,318,969.3838071825448,970.2794017796405,"[91, 0, 163]",163,l,0.3732678657397628,colour,0.14
03,21,1,1,7,19,319,972.2903180068824,972.8154780659825,"[42, 0, 212]",212,a,0.002855776809155941,colour,0.14
03,21,1,1,7,20,320,974.8373329699971,975.6713855972048,"[63, 0, 191]",191,a,0.3118093912489712,colour,0.14
03,21,1,1,7,21,321,977.6813818004448,978.4714312045835,"[99, 0, 155]",155,l,0.26774039561860263,colour,0.14
03,21,1,1,7,22,322,980.4784826219548,981.0954395006411,"[88, 0, 166]",166,l,0.09475027024745941,colour,0.14
03,21,1,1,7,23,323,983.1037216864061,983.6314027530607,"[39, 0, 215]",215,a,0.005404747556895018,colour,0.14
03,21,1,1,7,24,324,985.650700021768,986.4714296292514,"[72, 0, 182]",182,l,0.2983749129343778,colour,0.14
03,21,1,1,7,25,325,988.4791454647202,989.1674302027095,"[66, 0, 188]",188,l,0.16622621566057205,colour,0.14
03,21,1,1,7,26,326,991.1823616891634,992.4634353446309,"[68, 0, 186]",186,l,0.7588233300484717,colour,0.14
03,21,1,1,7,27,327,994.479561365908,995.1753992810845,"[5, 0, 249]",249,a,0.1737766359001398,colour,0.14
03,21,1,1,7,28,328,997.1829410365317,997.9354187212884,"[97, 0, 157]",157,l,0.23027147026732564,colour,0.14
03,21,1,1,7,29,329,999.9487295318395,1000.5914092753083,"[55, 0, 199]",199,a,0.12055741809308529,colour,0.14
03,21,1,1,7,30,330,1002.6051415009424,1003.5353744530585,"[11, 0, 243]",243,a,0.40801098360680044,colour,0.14
03,21,1,1,7,31,331,1005.5429177838378,1006.1913925760891,"[83, 0, 171]",171,l,0.1261693285778165,colour,0.14
03,21,1,1,7,32,332,1008.1993301468901,1008.7356809438206,"[67, 0, 187]",187,a,0.014037062413990498,colour,0.14
03,21,1,1,7,33,333,1010.7464144267142,1011.9834383851849,"[94, 0, 160]",160,l,0.7149102976545691,colour,0.14
03,21,1,1,7,34,334,1013.9967070543207,1014.7993930047378,"[64, 0, 190]",190,l,0.2806156128644943,colour,0.14
03,21,1,1,7,35,335,1016.8094274110626,1017.5833803322166,"[74, 0, 180]",180,l,0.25163997430354357,colour,0.14
03,21,1,1,7,36,336,1019.59097801405,1020.4873697550502,"[59, 0, 195]",195,a,0.374070129590109,colour,0.14
03,21,1,1,7,37,337,1022.4974695399869,1023.0794083962683,"[18, 0, 236]",236,a,0.05989530007354915,colour,0.14
03,21,1,1,7,38,338,1025.0914734720718,1025.7114023119211,"[13, 0, 241]",241,a,0.09767181915231049,colour,0.14
03,21,1,1,7,39,339,1027.7166581859346,1028.7594042529818,"[82, 0, 172]",172,l,0.5204488742165267,colour,0.14
03,21,1,1,7,40,340,1030.7793612133246,1031.3593993692193,"[78, 0, 176]",176,l,0.057913073571398854,colour,0.14
03,21,1,1,7,41,341,1033.3733946839347,1033.999401354231,"[71, 0, 183]",183,l,0.10378864035010338,colour,0.14
03,21,1,1,7,42,342,1036.0140732962172,1037.3353842203505,"[79, 0, 175]",175,l,0.799237041734159,colour,0.14
03,21,1,1,7,43,343,1039.3424955022056,1040.2393760061823,"[54, 0, 200]",200,a,0.37457307102158666,colour,0.14
03,21,1,1,7,44,344,1042.2490681605414,1042.8473650133237,"[57, 0, 197]",197,a,0.07605046592652798,colour,0.14
03,21,1,1,7,45,345,1044.8586309759412,1045.4633660276886,"[52, 0, 202]",202,a,0.08296049246564507,colour,0.14
03,21,1,1,7,46,346,1047.483814114239,1048.2233736526687,"[75, 0, 179]",179,l,0.21727101015858352,colour,0.14
03,21,1,1,7,47,347,1050.2340342740063,1050.9913594143,"[95, 0, 159]",159,l,0.23499683337286115,colour,0.14
03,21,1,1,7,48,348,1052.9999318646733,1053.9753862053622,"[26, 0, 228]",228,a,0.45315517857670784,colour,0.14
03,21,1,1,7,49,349,1055.9844552953728,1056.5994122242555,"[81, 0, 173]",173,l,0.09265776677057147,colour,0.14
03,21,1,1,7,50,350,1058.6096951474901,1059.4233902730048,"[87, 0, 167]",167,l,0.29141132324002683,colour,0.14
03,21,1,1,8,1,351,1075.954032667214,1076.4793731076643,"[13, 0, 241]",241,a,0.002305180300027132,colour,0.06
03,21,1,1,8,2,352,1078.501989709679,1079.1193490987644,"[78, 0, 176]",176,l,0.09509606682695448,colour,0.06
03,21,1,1,8,3,353,1081.1271141648758,1081.7513619191013,"[56, 0, 198]",198,a,0.1020289366133511,colour,0.06
03,21,1,1,8,4,354,1083.7679152633063,1084.2953556901775,"[83, 0, 171]",171,l,0.005182618508115411,colour,0.06
03,21,1,1,8,5,355,1086.3149640969932,1086.8713537745643,"[52, 0, 202]",202,a,0.034164952114224434,colour,0.06
03,21,1,1,8,6,356,1088.87772265682,1089.935354524292,"[55, 0, 199]",199,a,0.5354418004862964,colour,0.06
03,21,1,1,8,7,357,1091.9404197768308,1092.5833937230054,"[62, 0, 192]",192,l,0.12063185474835336,colour,0.06
03,21,1,1,8,8,358,1094.5969223303255,1095.439376478782,"[59, 0, 195]",195,l,0.3205149613786489,colour,0.06
03,21,1,1,8,9,359,1097.4564906596206,1098.0073688572738,"[82, 0, 172]",172,l,0.028659773990511894,colour,0.06
03,21,1,1,8,10,360,1100.0192334656604,1100.6073549150024,"[98, 0, 156]",156,l,0.06591208418831229,colour,0.06
03,21,1,1,8,11,361,1102.6131712317,1103.2633726443164,"[93, 0, 161]",161,l,0.12799086584709585,colour,0.06
03,21,1,1,8,12,362,1105.2696414899547,1106.2873271410353,"[51, 0, 203]",203,a,0.49551960872486234,colour,0.06
03,21,1,1,8,13,363,1108.3011404990684,1108.9353171088733,"[41, 0, 213]",213,a,0.11185814929194748,colour,0.06
03,21,1,1,8,14,364,1110.941933326656,1111.903334850911,"[89, 0, 165]",165,l,0.439172072801739,colour,0.06
03,21,1,1,8,15,365,1113.9109226865694,1114.5513523882255,"[88, 0, 166]",166,l,0.11821718560531735,colour,0.06
03,21,1,1,8,16,366,1116.567434298573,1117.1353648430668,"[90, 0, 164]",164,l,0.04564083460718393,colour,0.06
03,21,1,1,8,17,367,1119.145726929186,1119.7592967329547,"[79, 0, 175]",175,l,0.09139352128840983,colour,0.06
03,21,1,1,8,18,368,1121.7709214892238,1122.3433473911136,"[0, 0, 254]",254,a,0.05013264738954604,colour,0.06
03,21,1,1,8,19,369,1124.349216482835,1124.951324976515,"[69, 0, 185]",185,a,0.07982666068710387,colour,0.06
03,21,1,1,8,20,370,1126.9588836673647,1127.5993243968114,"[94, 0, 160]",160,l,0.11842395481653512,colour,0.06
03,21,1,1,8,21,371,1129.6152968180832,1130.4393331557512,"[77, 0, 177]",177,l,0.3017690770793706,colour,0.06
03,21,1,1,8,22,372,1132.459266879363,1133.2553216461092,"[57, 0, 197]",197,a,0.27384500741027296,colour,0.06
03,21,1,1,8,23,373,1135.272084909957,1136.2553397628944,"[74, 0, 180]",180,l,0.4611604905221611,colour,0.06
03,21,1,1,8,24,374,1138.272248749854,1138.9993391265161,"[54, 0, 200]",200,a,0.20481642056256533,colour,0.06
03,21,1,1,8,25,375,1141.00683637755,1141.9593192609027,"[92, 0, 162]",162,l,0.43029517959803343,colour,0.06
03,21,1,1,8,26,376,1143.975802894216,1144.903342334088,"[66, 0, 188]",188,a,0.405309988418594,colour,0.06
03,21,1,1,8,27,377,1146.9134862294886,1147.663333417382,"[76, 0, 178]",178,l,0.22776424698531628,colour,0.06
03,21,1,1,8,28,378,1149.679435807746,1150.367330638459,"[86, 0, 168]",168,l,0.1658146467525512,colour,0.06
03,21,1,1,8,29,379,1152.3827217430808,1153.0953300113324,"[61, 0, 193]",193,a,0.19029650301672518,colour,0.06
03,21,1,1,8,30,380,1155.1017355213407,1155.6873135140631,"[73, 0, 181]",181,l,0.06335011660121381,colour,0.06
03,21,1,1,8,31,381,1157.6956524136476,1158.6073308903724,"[71, 0, 183]",183,l,0.38949549896642566,colour,0.06
03,21,1,1,8,32,382,1160.617807585746,1161.7192938027438,"[68, 0, 186]",186,l,0.579239436192438,colour,0.06
03,21,1,1,8,33,383,1163.7273743394762,1164.3033283131663,"[85, 0, 169]",169,l,0.05366583913564682,colour,0.06
03,21,1,1,8,34,384,1166.3213081671856,1167.1592953151558,"[58, 0, 196]",196,a,0.315718705765903,colour,0.06
03,21,1,1,8,35,385,1169.165231360821,1169.7272806041874,"[63, 0, 191]",191,a,0.03977765026502311,colour,0.06
03,21,1,1,8,36,386,1171.7436279668473,1172.3673326075077,"[84, 0, 170]",170,l,0.10143619845621288,colour,0.06
03,21,1,1,8,37,387,1174.3844700250775,1174.983320625266,"[96, 0, 158]",158,l,0.07656916091218591,colour,0.06
03,21,1,1,8,38,388,1176.9940840404015,1177.9914373958018,"[80, 0, 174]",174,l,0.47519558388739824,colour,0.06
03,21,1,1,8,39,389,1180.0099012865685,1180.7353087593801,"[99, 0, 155]",155,l,0.20313548599369824,colour,0.06
03,21,1,1,8,40,390,1182.744504274102,1183.3113119637128,"[65, 0, 189]",189,a,0.044492379762232304,colour,0.06
03,21,1,1,8,41,391,1185.322876067832,1185.9992891082074,"[87, 0, 167]",167,l,0.15418634586967528,colour,0.06
03,21,1,1,8,42,392,1188.0104885108303,1188.975271990057,"[70, 0, 184]",184,a,0.4425622986163944,colour,0.06
03,21,1,1,8,43,393,1190.9950966183096,1191.8633086837362,"[67, 0, 187]",187,l,0.3458786385599524,colour,0.06
03,21,1,1,8,44,394,1193.870352224214,1194.6152909104712,"[50, 0, 204]",204,a,0.2226863915566355,colour,0.06
03,21,1,1,8,45,395,1196.6205739595462,1197.3912800149992,"[60, 0, 194]",194,a,0.24839704716578126,colour,0.06
03,21,1,1,8,46,396,1199.402041460853,1200.0152993386146,"[53, 0, 201]",201,a,0.09094768785871565,colour,0.06
03,21,1,1,8,47,397,1202.0272214484867,1203.063266621204,"[64, 0, 190]",190,a,0.5137428597081453,colour,0.06
03,21,1,1,8,48,398,1205.0744053714443,1205.7752774250694,"[95, 0, 159]",159,l,0.17873082356527448,colour,0.06
03,21,1,1,8,49,399,1207.7933403805364,1208.3756486643106,"[91, 0, 163]",163,l,0.06003669067285955,colour,0.06
03,21,1,1,8,50,400,1210.3872541219462,1211.535269689979,"[75, 0, 179]",179,l,0.6257250704802573,colour,0.06
03,21,1,1,9,1,401,1235.4666412505321,1236.24722929392,"[77, 0, 177]",177,l,0.2578040568623692,colour,0.06
03,21,1,1,9,2,402,1238.2645187359303,1238.9272877722979,"[60, 0, 194]",194,a,0.1407081508077681,colour,0.06
03,21,1,1,9,3,403,1240.9366676067002,1241.5352566929068,"[63, 0, 191]",191,a,0.07643761625513434,colour,0.06
03,21,1,1,9,4,404,1243.5470263846219,1244.2232625880279,"[73, 0, 181]",181,l,0.1549838837236166,colour,0.06
03,21,1,1,9,5,405,1246.2338353819214,1246.7752821512986,"[93, 0, 161]",161,l,0.01917438884265721,colour,0.06
03,21,1,1,9,6,406,1248.7809511693195,1249.4152742901351,"[86, 0, 168]",168,l,0.11231146613135934,colour,0.06
03,21,1,1,9,7,407,1251.4218204030767,1251.9513237948995,"[89, 0, 165]",165,l,0.0072298296727240086,colour,0.06
03,21,1,1,9,8,408,1253.9845143721905,1255.1272370447405,"[74, 0, 180]",180,l,0.6204502917826176,colour,0.06
03,21,1,1,9,9,409,1257.1409554858692,1257.8153051675763,"[55, 0, 199]",199,a,0.1521281071472913,colour,0.06
03,21,1,1,9,10,410,1259.8287215288728,1260.4072800055146,"[91, 0, 163]",163,l,0.05632587429136038,colour,0.06
03,21,1,1,9,11,411,1262.4226195164956,1263.09520437452,"[31, 0, 223]",223,a,0.15030617569573224,colour,0.06
03,21,1,1,9,12,412,1265.110365079483,1265.7032532461453,"[75, 0, 179]",179,l,0.07074024132452905,colour,0.06
03,21,1,1,9,13,413,1267.7200117837638,1268.4472218896262,"[62, 0, 192]",192,a,0.20505706034600735,colour,0.06
03,21,1,1,9,14,414,1270.4544985869434,1271.151344353566,"[61, 0, 193]",193,a,0.1745288814418018,colour,0.06
03,21,1,1,9,15,415,1273.15794284828,1273.7592530159745,"[72, 0, 182]",182,a,0.07902360870502889,colour,0.06
03,21,1,1,9,16,416,1275.7675363835879,1276.399236884201,"[88, 0, 166]",166,l,0.10945293237455189,colour,0.06
03,21,1,1,9,17,417,1278.4083748972043,1279.0472473320551,"[52, 0, 202]",202,a,0.11667961091734469,colour,0.06
03,21,1,1,9,18,418,1281.064855001634,1282.0552620966919,"[67, 0, 187]",187,a,0.46816346514970064,colour,0.06
03,21,1,1,9,19,419,1284.0650712230708,1285.3832491028588,"[83, 0, 171]",171,l,0.7959822991397232,colour,0.06
03,21,1,1,9,20,420,1287.393459558254,1288.1032289850991,"[99, 0, 155]",155,l,0.18743088003247976,colour,0.06
03,21,1,1,9,21,421,1290.1124883028679,1290.9351973799057,"[84, 0, 170]",170,l,0.3005505178589374,colour,0.06
03,21,1,1,9,22,422,1292.9407667550258,1293.5431922944263,"[79, 0, 175]",175,l,0.08012637728825212,colour,0.06
03,21,1,1,9,23,423,1295.5503807703499,1296.3832428012975,"[49, 0, 205]",205,a,0.31059713335707784,colour,0.06
03,21,1,1,9,24,424,1298.394339804072,1298.9592613657005,"[68, 0, 186]",186,a,0.04270274401642382,colour,0.06
03,21,1,1,9,25,425,1300.9726233761758,1301.5112446949352,"[65, 0, 189]",189,a,0.016269381158053875,colour,0.06
03,21,1,1,9,26,426,1303.5197072622832,1304.5032236289699,"[64, 0, 190]",190,a,0.4612097213976085,colour,0.06
03,21,1,1,9,27,427,1306.5199943759944,1307.3592264708132,"[95, 0, 159]",159,l,0.3170215480495244,colour,0.06
03,21,1,1,9,28,428,1309.3795571911614,1310.0152205694467,"[87, 0, 167]",167,a,0.1134618897922337,colour,0.06
03,21,1,1,9,29,429,1312.0204457233194,1312.6072241582442,"[92, 0, 162]",162,l,0.06447533424943686,colour,0.06
03,21,1,1,9,30,430,1314.6143567077816,1315.431231745286,"[80, 0, 174]",174,l,0.294857868924737,colour,0.06
03,21,1,1,9,31,431,1317.4426973876543,1318.127198447939,"[78, 0, 176]",176,l,0.1621825995389372,colour,0.06
03,21,1,1,9,32,432,1320.1460313722491,1320.7272164074238,"[66, 0, 188]",188,a,0.059003239031881094,colour,0.06
03,21,1,1,9,33,433,1322.7399695320055,1323.439224848291,"[69, 0, 185]",185,a,0.17700144625268877,colour,0.06
03,21,1,1,9,34,434,1325.4589616488665,1325.9912085712422,"[50, 0, 204]",204,a,0.010056855389848351,colour,0.06
03,21,1,1,9,35,435,1328.00604632264,1328.7271837180015,"[85, 0, 169]",169,l,0.19885083637200296,colour,0.06
03,21,1,1,9,36,436,1330.7406213469803,1331.4152301792055,"[57, 0, 197]",197,a,0.15236914064735174,colour,0.06
03,21,1,1,9,37,437,1333.4283613960724,1333.9992386959493,"[51, 0, 203]",203,a,0.04865257441997528,colour,0.06
03,21,1,1,9,38,438,1336.0066654484253,1337.4551941186655,"[81, 0, 173]",173,l,0.9263078833464533,colour,0.06
03,21,1,1,9,39,439,1339.4756973437034,1340.1672234334983,"[54, 0, 200]",200,a,0.16927143232896924,colour,0.06
03,21,1,1,9,40,440,1342.1790774080437,1342.8311866105068,"[53, 0, 201]",201,a,0.12995576323010027,colour,0.06
03,21,1,1,9,41,441,1344.8511900447775,1345.4871881920844,"[56, 0, 198]",198,a,0.11426966777071357,colour,0.06
03,21,1,1,9,42,442,1347.5075669616926,1348.0872018192895,"[30, 0, 224]",224,a,0.05742706754244864,colour,0.06
03,21,1,1,9,43,443,1350.1014905492775,1351.1432090722956,"[90, 0, 164]",164,l,0.5195359392091632,colour,0.06
03,21,1,1,9,44,444,1353.1486689583398,1353.7671980699524,"[70, 0, 184]",184,l,0.09625554946251214,colour,0.06
03,21,1,1,9,45,445,1355.773824527394,1356.3272087667137,"[98, 0, 156]",156,l,0.031103193992748857,colour,0.06
03,21,1,1,9,46,446,1358.336504318053,1359.215165903559,"[59, 0, 195]",195,a,0.35682007228024304,colour,0.06
03,21,1,1,9,47,447,1361.2274141178932,1361.815210250672,"[58, 0, 196]",196,a,0.06559976423159242,colour,0.06
03,21,1,1,9,48,448,1363.821289656451,1364.3911764335353,"[82, 0, 172]",172,l,0.047516722697764635,colour,0.06
03,21,1,1,9,49,449,1366.399692170089,1367.0871647978202,"[71, 0, 183]",183,l,0.16513723181560636,colour,0.06
03,21,1,1,9,50,450,1369.102937539108,1369.9751916453242,"[97, 0, 157]",157,l,0.34996203309856355,colour,0.06
03,21,1,1,10,1,451,1414.5120670450851,1415.0551793889608,"[92, 0, 162]",162,l,0.02017436339519918,colour,0.06
03,21,1,1,10,2,452,1417.0756097522099,1418.4391590759624,"[60, 0, 194]",194,a,0.8413029368966818,colour,0.06
03,21,1,1,10,3,453,1420.4507507490925,1421.0391703399364,"[61, 0, 193]",193,a,0.06598533946089447,colour,0.06
03,21,1,1,10,4,454,1423.0447440473363,1423.9831154316198,"[97, 0, 157]",157,l,0.4160513482056558,colour,0.06
03,21,1,1,10,5,455,1425.9981382903643,1426.6791644480545,"[90, 0, 164]",164,l,0.15900820144452155,colour,0.06
03,21,1,1,10,6,456,1428.6857849978842,1429.5911406723317,"[73, 0, 181]",181,l,0.38299270905554295,colour,0.06
03,21,1,1,10,7,457,1431.6079252038617,1432.4711303063668,"[99, 0, 155]",155,l,0.3416581859346479,colour,0.06
03,21,1,1,10,8,458,1434.4831812037155,1435.1111653742846,"[87, 0, 167]",167,l,0.10573738976381719,colour,0.06
03,21,1,1,10,9,459,1437.124013022054,1437.7191665905993,"[78, 0, 176]",176,l,0.07290088012814522,colour,0.06
03,21,1,1,10,10,460,1439.7336140405387,1440.3831392198335,"[74, 0, 180]",180,a,0.12729927245527506,colour,0.06
03,21,1,1,10,11,461,1442.390017345082,1443.1031647883356,"[79, 0, 175]",175,l,0.19148512999527156,colour,0.06
03,21,1,1,10,12,462,1445.1089775601868,1445.711176244542,"[81, 0, 173]",173,l,0.07997041428461671,colour,0.06
03,21,1,1,10,13,463,1447.718643563101,1448.3111284316983,"[6, 0, 248]",248,a,0.07024281402118504,colour,0.06
03,21,1,1,10,14,464,1450.3282457629684,1451.0231506570708,"[71, 0, 183]",183,l,0.1727703595533967,colour,0.06
03,21,1,1,10,15,465,1453.031536030583,1453.5671227665152,"[39, 0, 215]",215,a,0.013451019767671824,colour,0.06
03,21,1,1,10,16,466,1455.578621885972,1456.503135013627,"[62, 0, 192]",192,a,0.40233330079354346,colour,0.06
03,21,1,1,10,17,467,1458.5163095535245,1459.0631405904423,"[83, 0, 171]",171,l,0.024562594713643193,colour,0.06
03,21,1,1,10,18,468,1461.0789834363386,1461.6951250538696,"[59, 0, 195]",195,a,0.09386726748198271,colour,0.06
03,21,1,1,10,19,469,1463.7042189561762,1464.3271229083184,"[93, 0, 161]",161,l,0.10064141754992306,colour,0.06
03,21,1,1,10,20,470,1466.3451055192854,1466.9591132795904,"[76, 0, 178]",178,l,0.0918551089707762,colour,0.06
03,21,1,1,10,21,471,1468.97025242378,1469.5831385108177,"[56, 0, 198]",198,a,0.09069405100308359,colour,0.06
03,21,1,1,10,22,472,1471.5954808543902,1472.1671592367347,"[58, 0, 196]",196,a,0.04941821098327637,colour,0.06
03,21,1,1,10,23,473,1474.1738908512052,1474.711143949069,"[89, 0, 165]",165,l,0.015095720300450921,colour,0.06
03,21,1,1,10,24,474,1476.720832952531,1478.1991005346645,"[54, 0, 200]",200,a,0.9559877181891352,colour,0.06
03,21,1,1,10,25,475,1480.205510770902,1480.943138101371,"[82, 0, 172]",172,l,0.21534470980986953,colour,0.06
03,21,1,1,10,26,476,1482.9557825245429,1483.5031503734645,"[94, 0, 160]",160,l,0.02520535117946565,colour,0.06
03,21,1,1,10,27,477,1485.5184449860826,1486.447122640442,"[67, 0, 187]",187,a,0.40648246742784977,colour,0.06
03,21,1,1,10,28,478,1488.4562019705772,1489.2471272877883,"[98, 0, 156]",156,l,0.2686671151313931,colour,0.06
03,21,1,1,10,29,479,1491.2532425334211,1492.7750852282625,"[85, 0, 169]",169,l,0.9996215139981359,colour,0.06
03,21,1,1,10,30,480,1494.7848179487046,1495.519088924164,"[72, 0, 182]",182,a,0.2120194686576724,colour,0.06
03,21,1,1,10,31,481,1497.5350932469591,1498.079128765501,"[68, 0, 186]",186,a,0.02183599933050573,colour,0.06
03,21,1,1,10,32,482,1500.0977289269213,1500.6391178008635,"[96, 0, 158]",158,l,0.01936697936616838,colour,0.06
03,21,1,1,10,33,483,1502.6447690960485,1503.3350963189732,"[50, 0, 204]",204,a,0.16803987603634596,colour,0.06
03,21,1,1,10,34,484,1505.3481657020748,1506.1511167106219,"[88, 0, 166]",166,l,0.2810130030848086,colour,0.06
03,21,1,1,10,35,485,1508.1611361510586,1509.2950799979735,"[80, 0, 174]",174,l,0.6119361307937652,colour,0.06
03,21,1,1,10,36,486,1511.3017226033844,1511.887097765226,"[55, 0, 199]",199,a,0.06306733516976237,colour,0.06
03,21,1,1,10,37,487,1513.895721021574,1514.4631210556254,"[70, 0, 184]",184,a,0.04518869938328862,colour,0.06
03,21,1,1,10,38,488,1516.4739876585081,1517.3350624481682,"[63, 0, 191]",191,a,0.33882643352262676,colour,0.06
03,21,1,1,10,39,489,1519.3492381444667,1520.247075300198,"[53, 0, 201]",201,a,0.375649451976642,colour,0.06
03,21,1,1,10,40,490,1522.2556678366382,1522.935077256756,"[77, 0, 177]",177,l,0.157093322603032,colour,0.06
03,21,1,1,10,41,491,1524.9433117874432,1525.9271073907148,"[69, 0, 185]",185,a,0.4616720965132117,colour,0.06
03,21,1,1,10,42,492,1527.9436776700895,1528.5510896928608,"[95, 0, 159]",159,l,0.08517942042089999,colour,0.06
03,21,1,1,10,43,493,1530.568919885438,1531.8790790622588,"[57, 0, 197]",197,a,0.7878990054596215,colour,0.06
03,21,1,1,10,44,494,1533.8972467808053,1534.7190732490271,"[75, 0, 179]",179,l,0.29982387204654515,colour,0.06
03,21,1,1,10,45,495,1536.7255898236763,1537.391084667528,"[4, 0, 250]",250,a,0.14317756472155452,colour,0.06
03,21,1,1,10,46,496,1539.397692614235,1540.031084683258,"[91, 0, 163]",163,l,0.11173093714751303,colour,0.06
03,21,1,1,10,47,497,1542.0385071034543,1542.6070997028146,"[65, 0, 189]",189,a,0.04639189876616001,colour,0.06
03,21,1,1,10,48,498,1544.616877715569,1545.375098461518,"[52, 0, 202]",202,a,0.23662971868179739,colour,0.06
03,21,1,1,10,49,499,1547.3826642415952,1548.0870679116342,"[51, 0, 203]",203,a,0.18216634169220924,colour,0.06
03,21,1,1,10,50,500,1550.1017532444093,1550.7750820775982,"[84, 0, 170]",170,l,0.15112892002798617,colour,0.06
03,21,1,1,11,1,501,1577.087381806923,1577.687049637083,"[71, 0, 183]",183,l,0.07662784378044307,colour,0.06
03,21,1,1,11,2,502,1579.697768547805,1580.2310540420003,"[57, 0, 197]",197,a,0.01131283026188612,colour,0.06
03,21,1,1,11,3,503,1582.2447748461273,1583.3110398163553,"[27, 0, 227]",227,a,0.5440437893848866,colour,0.06
03,21,1,1,11,4,504,1585.3231868122239,1586.519074745709,"[95, 0, 159]",159,l,0.6736537560354918,colour,0.06
03,21,1,1,11,5,505,1588.5265857812483,1589.4790347940288,"[74, 0, 180]",180,a,0.43019868759438396,colour,0.06
03,21,1,1,11,6,506,1591.4955396950245,1592.423020845512,"[20, 0, 234]",234,a,0.4052485483698547,colour,0.06
03,21,1,1,11,7,507,1594.433252174873,1595.0790464517195,"[73, 0, 181]",181,a,0.12345848698168993,colour,0.06
03,21,1,1,11,8,508,1597.0897346423008,1597.7990405126475,"[83, 0, 171]",171,l,0.1870697233825922,colour,0.06
03,21,1,1,11,9,509,1599.8087098237593,1600.855011925567,"[52, 0, 202]",202,a,0.5241179426666349,colour,0.06
03,21,1,1,11,10,510,1602.8714364820626,1603.7830684850924,"[77, 0, 177]",177,l,0.38936946843750775,colour,0.06
03,21,1,1,11,11,511,1605.793505402049,1606.4070661473088,"[92, 0, 162]",162,l,0.09138761390931904,colour,0.06
03,21,1,1,11,12,512,1608.4188015740365,1609.0390238291584,"[69, 0, 185]",185,a,0.09799477271735668,colour,0.06
03,21,1,1,11,13,513,1611.0596436324995,1611.7190322889946,"[88, 0, 166]",166,l,0.13716078037396073,colour,0.06
03,21,1,1,11,14,514,1613.731777930865,1614.9830315422732,"[50, 0, 204]",204,a,0.7289591755252331,colour,0.06
03,21,1,1,11,15,515,1616.997549884487,1617.7350169196725,"[54, 0, 200]",200,a,0.21541717741638422,colour,0.06
03,21,1,1,11,16,516,1619.7477739828173,1620.3670025647152,"[55, 0, 199]",199,a,0.0972708840854466,colour,0.06
03,21,1,1,11,17,517,1622.3730032010935,1622.9190623001195,"[65, 0, 189]",189,a,0.023806804325431585,colour,0.06
03,21,1,1,11,18,518,1624.9356735395268,1626.1750196134672,"[75, 0, 179]",179,l,0.7170583333354443,colour,0.06
03,21,1,1,11,19,519,1628.1858732195105,1628.9590451442637,"[56, 0, 198]",198,a,0.25091411639004946,colour,0.06
03,21,1,1,11,20,520,1630.967412400758,1632.111003503669,"[53, 0, 201]",201,a,0.6213553498964757,colour,0.06
03,21,1,1,11,21,521,1634.12408588361,1635.1510277015623,"[89, 0, 165]",165,l,0.5047462373040617,colour,0.06
03,21,1,1,11,22,522,1637.1710811543744,1637.775023394497,"[61, 0, 193]",193,a,0.08160802558995783,colour,0.06
03,21,1,1,11,23,523,1639.7807786648627,1640.5510164375883,"[64, 0, 190]",190,a,0.24822729942388833,colour,0.06
03,21,1,1,11,24,524,1642.5630417349748,1643.8390375350136,"[96, 0, 158]",158,l,0.75461784331128,colour,0.06
03,21,1,1,11,25,525,1645.8594001568854,1646.5910016447306,"[59, 0, 195]",195,l,0.20986710069701076,colour,0.06
03,21,1,1,11,26,526,1648.6096463105641,1649.3190057438333,"[80, 0, 174]",174,l,0.18713628337718546,colour,0.06
03,21,1,1,11,27,527,1651.328545085853,1652.2070002960972,"[87, 0, 167]",167,l,0.3561536849010736,colour,0.06
03,21,1,1,11,28,528,1654.21944267652,1655.0550305151846,"[97, 0, 157]",157,l,0.31336626410484314,colour,0.06
03,21,1,1,11,29,529,1657.063337907195,1657.711029733764,"[58, 0, 196]",196,a,0.1254505596589297,colour,0.06
03,21,1,1,11,30,530,1659.719955070177,1660.6070343244355,"[86, 0, 168]",168,l,0.3654346640687436,colour,0.06
03,21,1,1,11,31,531,1662.6263981531374,1663.663017946761,"[82, 0, 172]",172,l,0.5143797083292156,colour,0.06
03,21,1,1,11,32,532,1665.6735552942846,1666.3349687128793,"[62, 0, 192]",192,a,0.13926509930752218,colour,0.06
03,21,1,1,11,33,533,1668.3454725835472,1668.9350662291981,"[93, 0, 161]",161,l,0.06732835411094129,colour,0.06
03,21,1,1,11,34,534,1670.9550877804868,1671.70301496936,"[99, 0, 155]",155,l,0.22562408819794655,colour,0.06
03,21,1,1,11,35,535,1673.7209967924282,1674.2950047734194,"[78, 0, 176]",176,a,0.05173166166059673,colour,0.06
03,21,1,1,11,36,536,1676.3149664599914,1677.0389994108118,"[79, 0, 175]",175,l,0.20206343755126,colour,0.06
03,21,1,1,11,37,537,1679.049540302949,1679.990995106753,"[91, 0, 163]",163,l,0.4193202690221369,colour,0.06
03,21,1,1,11,38,538,1682.0028408106882,1682.814986546291,"[63, 0, 191]",191,a,0.28975913976319134,colour,0.06
03,21,1,1,11,39,539,1684.8312764074653,1685.91898156167,"[72, 0, 182]",182,a,0.5657647857442498,colour,0.06
03,21,1,1,11,40,540,1687.9252255950123,1688.543026091531,"[76, 0, 178]",178,l,0.09562736516818404,colour,0.06
03,21,1,1,11,41,541,1690.5504193671513,1691.3989966381341,"[98, 0, 156]",156,l,0.32624029950238764,colour,0.06
03,21,1,1,11,42,542,1693.4100499239285,1694.239000277361,"[94, 0, 160]",160,l,0.30670987418852746,colour,0.06
03,21,1,1,11,43,543,1696.2540672468022,1696.8150538939517,"[66, 0, 188]",188,a,0.038742623291909695,colour,0.06
03,21,1,1,11,44,544,1698.832352394471,1699.6790096666664,"[24, 0, 230]",230,a,0.3244518453720957,colour,0.06
03,21,1,1,11,45,545,1701.6919644405134,1702.3030096916482,"[90, 0, 164]",164,l,0.08956568245775998,colour,0.06
03,21,1,1,11,46,546,1704.3171160712373,1705.1110003530048,"[84, 0, 170]",170,l,0.2715701535344124,colour,0.06
03,21,1,1,11,47,547,1707.1299018063582,1707.718990541296,"[60, 0, 194]",194,a,0.06698058801703155,colour,0.06
03,21,1,1,11,48,548,1709.7397895446047,1710.271013255231,"[51, 0, 203]",203,a,0.009288856061175466,colour,0.06
03,21,1,1,11,49,549,1712.3022605967708,1712.9110038187355,"[81, 0, 173]",173,l,0.08659687195904553,colour,0.06
03,21,1,1,11,50,550,1714.9273960797582,1715.5989671784919,"[68, 0, 186]",186,a,0.14935149322263896,colour,0.06
03,21,1,1,12,1,551,1734.6000025994144,1735.5109926334117,"[66, 0, 188]",188,l,0.3879335061646998,colour,0.06
03,21,1,1,12,2,552,1737.522880478762,1739.5029648721684,"[92, 0, 162]",162,l,1.4578128003049642,colour,0.06
03,21,1,1,12,3,553,1741.5232065832242,1742.0949755499605,"[81, 0, 173]",173,l,0.04955408745445311,colour,0.06
03,21,1,1,12,4,554,1744.1015594722703,1744.8389847597573,"[80, 0, 174]",174,l,0.2151493621058762,colour,0.06
03,21,1,1,12,5,555,1746.8517347336747,1747.478969415417,"[53, 0, 201]",201,a,0.10551526071503758,colour,0.06
03,21,1,1,12,6,556,1749.4925263798796,1750.1429448015988,"[99, 0, 155]",155,l,0.12892664363607764,colour,0.06
03,21,1,1,12,7,557,1752.1490119982045,1752.694937583292,"[93, 0, 161]",161,l,0.023672109004110098,colour,0.06
03,21,1,1,12,8,558,1754.7117662257515,1755.4389786946122,"[68, 0, 186]",186,a,0.2049975898116827,colour,0.06
03,21,1,1,12,9,559,1757.4462939887308,1758.2310280480888,"[70, 0, 184]",184,a,0.2625435986556113,colour,0.06
03,21,1,1,12,10,560,1760.2434208039194,1761.0469838492572,"[90, 0, 164]",164,l,0.28128200001083314,colour,0.06
03,21,1,1,12,11,561,1763.0561864529736,1763.6709381882101,"[79, 0, 175]",175,l,0.09252346539869905,colour,0.06
03,21,1,1,12,12,562,1765.6814074006397,1766.390946427593,"[86, 0, 168]",168,l,0.1875537601299584,colour,0.06
03,21,1,1,12,13,563,1768.400274274405,1768.9749372210354,"[37, 0, 217]",217,a,0.05232439981773496,colour,0.06
03,21,1,1,12,14,564,1770.9943408279214,1771.5669510497246,"[89, 0, 165]",165,l,0.05039731180295348,colour,0.06
03,21,1,1,12,15,565,1773.5726417293772,1774.7829672666267,"[74, 0, 180]",180,l,0.6881240487564355,colour,0.06
03,21,1,1,12,16,566,1776.7916003693826,1777.438934189966,"[75, 0, 179]",179,a,0.12509846151806414,colour,0.06
03,21,1,1,12,17,567,1779.448075747583,1780.2709498461336,"[69, 0, 185]",185,a,0.3009037976153195,colour,0.06
03,21,1,1,12,18,568,1782.2765806613024,1783.0149755973835,"[51, 0, 203]",203,a,0.21711150254122913,colour,0.06
03,21,1,1,12,19,569,1785.0268453257158,1785.7829589960165,"[71, 0, 183]",183,l,0.23388146189972758,colour,0.06
03,21,1,1,12,20,570,1787.7926684794948,1788.6309620395768,"[60, 0, 194]",194,a,0.31611176393926144,colour,0.06
03,21,1,1,12,21,571,1790.6366034885868,1791.2229463297408,"[88, 0, 166]",166,l,0.06410787580534816,colour,0.06
03,21,1,1,12,22,572,1793.2305487375706,1793.8389504952356,"[57, 0, 197]",197,a,0.08635505056008697,colour,0.06
03,21,1,1,12,23,573,1795.8557791374624,1796.726952136727,"[36, 0, 218]",218,a,0.34934251359663904,colour,0.06
03,21,1,1,12,24,574,1798.7466873619705,1799.2949303365313,"[73, 0, 181]",181,a,0.02636562124826014,colour,0.06
03,21,1,1,12,25,575,1801.309321072651,1802.5989238554612,"[67, 0, 187]",187,a,0.7673130729235709,colour,0.06
03,21,1,1,12,26,576,1804.6064289833885,1805.3590441201814,"[78, 0, 176]",176,l,0.2303466945886612,colour,0.06
03,21,1,1,12,27,577,1807.3723836815916,1807.910940409638,"[87, 0, 167]",167,l,0.01639501820318401,colour,0.06
03,21,1,1,12,28,578,1809.9193340537604,1810.4709475617856,"[97, 0, 157]",157,l,0.0292635397054255,colour,0.06
03,21,1,1,12,29,579,1812.4820780414157,1813.046979123028,"[62, 0, 192]",192,a,0.04268620256334543,colour,0.06
03,21,1,1,12,30,580,1815.0604309304617,1818.5989214922301,"[33, 0, 221]",221,a,3.016231571789831,colour,0.06
03,21,1,1,12,31,581,1820.607737733284,1821.4069030950777,"[82, 0, 172]",172,l,0.2769091287627816,colour,0.06
03,21,1,1,12,32,582,1823.4203698686324,1824.342892498942,"[72, 0, 182]",182,a,0.4002368589863181,colour,0.06
03,21,1,1,12,33,583,1826.3581693884917,1826.982923234813,"[63, 0, 191]",191,a,0.10245547187514603,colour,0.06
03,21,1,1,12,34,584,1828.9989941176027,1829.5589197436348,"[56, 0, 198]",198,a,0.037637097761034966,colour,0.06
03,21,1,1,12,35,585,1831.5772891112138,1832.1988862825092,"[91, 0, 163]",163,l,0.09928776905871928,colour,0.06
03,21,1,1,12,36,586,1834.218222148018,1834.8629191701766,"[84, 0, 170]",170,a,0.12242779228836298,colour,0.06
03,21,1,1,12,37,587,1836.8746325417887,1837.4709085710347,"[83, 0, 171]",171,l,0.07421750691719353,colour,0.06
03,21,1,1,12,38,588,1839.484225683147,1840.0549115736503,"[96, 0, 158]",158,l,0.04834970668889582,colour,0.06
03,21,1,1,12,39,589,1842.0625336738303,1842.806894194102,"[98, 0, 156]",156,l,0.22215391183272004,colour,0.06
03,21,1,1,12,40,590,1844.8126967260614,1845.6309045380913,"[76, 0, 178]",178,a,0.29595197294838727,colour,0.06
03,21,1,1,12,41,591,1847.6411295658909,1848.6549232315738,"[58, 0, 196]",196,a,0.4915650018956512,colour,0.06
03,21,1,1,12,42,592,1850.6725832826924,1851.2788905675989,"[50, 0, 204]",204,a,0.08397740265354514,colour,0.06
03,21,1,1,12,43,593,1853.2977660272736,1853.9029197373893,"[54, 0, 200]",200,a,0.08302626479417086,colour,0.06
03,21,1,1,12,44,594,1855.9230200578459,1856.6548869977705,"[59, 0, 195]",195,a,0.20964418398216367,colour,0.06
03,21,1,1,12,45,595,1858.673238642281,1859.2309213159606,"[65, 0, 189]",189,a,0.03545479755848646,colour,0.06
03,21,1,1,12,46,596,1861.2514174515381,1861.8468860965222,"[55, 0, 199]",199,a,0.07305408595129848,colour,0.06
03,21,1,1,12,47,597,1863.861067306716,1864.406921211863,"[61, 0, 193]",193,a,0.023995062801986933,colour,0.06
03,21,1,1,12,48,598,1866.4241354295518,1867.030869643204,"[94, 0, 160]",160,l,0.0844385961536318,colour,0.06
03,21,1,1,12,49,599,1869.0492937555537,1869.7268753368407,"[52, 0, 202]",202,a,0.1552513053175062,colour,0.06
03,21,1,1,12,50,600,1871.7370605862234,1872.7109009462874,"[64, 0, 190]",190,a,0.45166683476418257,colour,0.06
03,21,1,1,13,1,601,1922.41213691351,1923.062835359713,"[65, 0, 189]",189,a,0.12771399226039648,colour,0.06
03,21,1,1,13,2,602,1925.0694184943568,1925.6068531554192,"[94, 0, 160]",160,l,0.015262317145243287,colour,0.06
03,21,1,1,13,3,603,1927.6164574818686,1928.2388766095974,"[67, 0, 187]",187,a,0.10012390394695103,colour,0.06
03,21,1,1,13,4,604,1930.2573247463442,1930.85486777802,"[52, 0, 202]",202,a,0.07528837397694588,colour,0.06
03,21,1,1,13,5,605,1932.8669281278271,1933.926830517128,"[76, 0, 178]",178,l,0.5377131099812686,colour,0.06
03,21,1,1,13,6,606,1935.9452180014923,1936.542848860845,"[68, 0, 186]",186,a,0.07531830621883273,colour,0.06
03,21,1,1,13,7,607,1938.554769395385,1939.9028634172864,"[53, 0, 201]",201,a,0.825755475088954,colour,0.06
03,21,1,1,13,8,608,1941.9145173181314,1942.8148526386358,"[69, 0, 185]",185,l,0.37838431796990335,colour,0.06
03,21,1,1,13,9,609,1944.808605848346,1945.6308080458548,"[57, 0, 197]",197,a,0.30016415496356785,colour,0.06
03,21,1,1,13,10,610,1947.6369587376248,1948.3348462267313,"[70, 0, 184]",184,l,0.17572302231565118,colour,0.06
03,21,1,1,13,11,611,1950.3402907527052,1950.9028768080752,"[99, 0, 155]",155,l,0.04040898522362113,colour,0.06
03,21,1,1,13,12,612,1952.9186144974083,1953.9508362137713,"[59, 0, 195]",195,a,0.5100245603825897,colour,0.06
03,21,1,1,13,13,613,1955.9657196509652,1956.926844695583,"[73, 0, 181]",181,l,0.4388955931644887,colour,0.06
03,21,1,1,13,14,614,1958.9347058602143,1959.6388310811017,"[82, 0, 172]",172,l,0.18184772040694952,colour,0.06
03,21,1,1,13,15,615,1961.6537661121693,1962.614850590704,"[84, 0, 170]",170,l,0.438933402299881,colour,0.06
03,21,1,1,13,16,616,1964.6226377121639,1965.3668812601827,"[56, 0, 198]",198,a,0.22195698879659176,colour,0.06
03,21,1,1,13,17,617,1967.3728606288787,1967.934837798588,"[50, 0, 204]",204,a,0.048992069670930505,colour,0.06
03,21,1,1,13,18,618,1969.942006975878,1970.5108583320398,"[95, 0, 159]",159,l,0.0465604648925364,colour,0.06
03,21,1,1,13,19,619,1972.5208596554585,1973.4228014734108,"[62, 0, 192]",192,a,0.379773412598297,colour,0.06
03,21,1,1,13,20,620,1975.4429671722464,1976.0148330251686,"[86, 0, 168]",168,l,0.049641915364190936,colour,0.06
03,21,1,1,13,21,621,1978.0213401473593,1979.0068111713044,"[98, 0, 156]",156,l,0.46331010153517127,colour,0.06
03,21,1,1,13,22,622,1981.0214949287474,1981.5988226369955,"[61, 0, 193]",193,a,0.055015942780300975,colour,0.06
03,21,1,1,13,23,623,1983.6154330887366,1984.198826811742,"[63, 0, 191]",191,a,0.061223348369821906,colour,0.06
03,21,1,1,13,24,624,1986.1969020867255,1987.1348268496804,"[55, 0, 199]",199,a,0.41584182204678655,colour,0.06
03,21,1,1,13,25,625,1989.1502998743672,1989.8548201227095,"[25, 0, 229]",229,a,0.18226204626262188,colour,0.06
03,21,1,1,13,26,626,1991.8692065265495,1992.5668325021397,"[66, 0, 188]",188,a,0.17531657335348427,colour,0.06
03,21,1,1,13,27,627,1994.5725783202797,1995.3028277349658,"[96, 0, 158]",158,l,0.2079790032003075,colour,0.06
03,21,1,1,13,28,628,1997.322783513926,1998.286845467519,"[58, 0, 196]",196,a,0.44178957282565534,colour,0.06
03,21,1,1,13,29,629,2000.3074030429125,2001.0788223533891,"[80, 0, 174]",174,l,0.24915795726701617,colour,0.06
03,21,1,1,13,30,630,2003.0889886980876,2003.7028290741146,"[85, 0, 169]",169,l,0.09173498582094908,colour,0.06
03,21,1,1,13,31,631,2005.7141206366941,2007.0067914789543,"[64, 0, 190]",190,a,0.770621772389859,colour,0.06
03,21,1,1,13,32,632,2009.0144903790206,2009.558810254559,"[90, 0, 164]",164,l,0.022272380767390132,colour,0.06
03,21,1,1,13,33,633,2011.5771839544177,2012.7428178258706,"[71, 0, 183]",183,l,0.6434170231223106,colour,0.06
03,21,1,1,13,34,634,2014.7493174651172,2015.30277456576,"[54, 0, 200]",200,a,0.03129657218232751,colour,0.06
03,21,1,1,13,35,635,2017.3119472372346,2017.9668137549888,"[43, 0, 211]",211,a,0.13252048776485026,colour,0.06
03,21,1,1,13,36,636,2019.9840976833366,2020.998787742341,"[51, 0, 203]",203,a,0.4923983800690621,colour,0.06
03,21,1,1,13,37,637,2023.0140110687353,2023.8227665785234,"[75, 0, 179]",179,l,0.2866887168493122,colour,0.06
03,21,1,1,13,38,638,2025.8423076376785,2026.678774146596,"[88, 0, 166]",166,l,0.31423902651295066,colour,0.06
03,21,1,1,13,39,639,2028.6862304375973,2029.358774335822,"[74, 0, 180]",180,l,0.1501364284195006,colour,0.06
03,21,1,1,13,40,640,2031.37402523146,2031.9988168869168,"[91, 0, 163]",163,l,0.10259883175604045,colour,0.06
03,21,1,1,13,41,641,2034.0147967913654,2034.7027680280153,"[60, 0, 194]",194,a,0.16586860362440348,colour,0.06
03,21,1,1,13,42,642,2036.7182044249494,2037.2788188876584,"[89, 0, 165]",165,l,0.03836413729004562,colour,0.06
03,21,1,1,13,43,643,2039.2964746064972,2040.198770491872,"[72, 0, 182]",182,l,0.3800999110098928,colour,0.06
03,21,1,1,13,44,644,2042.2186156001408,2042.886808682233,"[79, 0, 175]",175,l,0.1459175506606698,colour,0.06
03,21,1,1,13,45,645,2044.9063261107076,2045.4467776315287,"[93, 0, 161]",161,l,0.018218524754047394,colour,0.06
03,21,1,1,13,46,646,2047.453497036593,2048.0387560140807,"[81, 0, 173]",173,l,0.06307796901091933,colour,0.06
03,21,1,1,13,47,647,2050.047315467382,2050.590808266308,"[92, 0, 162]",162,l,0.021409858018159866,colour,0.06
03,21,1,1,13,48,648,2052.6100775718223,2053.1907899919897,"[42, 0, 212]",212,a,0.058468790259212255,colour,0.06
03,21,1,1,13,49,649,2055.2046699097846,2055.8627998349257,"[97, 0, 157]",157,l,0.13588629523292184,colour,0.06
03,21,1,1,13,50,650,2057.8768817957025,2058.582782868063,"[77, 0, 177]",177,l,0.18446797714568675,colour,0.06
03,21,1,1,14,1,651,2099.1136769298464,2099.9107545141596,"[62, 0, 192]",192,a,0.2743475546594709,colour,0.06
03,21,1,1,14,2,652,2101.9271656798664,2103.038744198624,"[50, 0, 204]",204,a,0.5894329564180225,colour,0.06
03,21,1,1,14,3,653,2105.052573310444,2105.6307844149414,"[87, 0, 167]",167,l,0.05596077907830477,colour,0.06
03,21,1,1,14,4,654,2107.6465221042745,2108.3987646629103,"[70, 0, 184]",184,a,0.23017222108319402,colour,0.06
03,21,1,1,14,5,655,2110.41232162714,2110.9667735826224,"[65, 0, 189]",189,a,0.032236682483926415,colour,0.06
03,21,1,1,14,6,656,2112.975049467059,2113.6627552516293,"[73, 0, 181]",181,l,0.16549602546729147,colour,0.06
03,21,1,1,14,7,657,2115.678300349973,2116.8147561463993,"[90, 0, 164]",164,l,0.6142117725685239,colour,0.06
03,21,1,1,14,8,658,2118.8347946330905,2119.6707251176704,"[72, 0, 182]",182,l,0.31360572250559926,colour,0.06
03,21,1,1,14,9,659,2121.6787639067043,2122.2067340563517,"[54, 0, 200]",200,a,0.0057355782482773066,colour,0.06
03,21,1,1,14,10,660,2124.2258962357882,2125.1987866393756,"[57, 0, 197]",197,a,0.45071766595356166,colour,0.06
03,21,1,1,14,11,661,2127.211135678459,2128.2147397624794,"[69, 0, 185]",185,a,0.481342337327078,colour,0.06
03,21,1,1,14,12,662,2130.2269552873913,2130.9827247364447,"[83, 0, 171]",171,a,0.23354472359642386,colour,0.06
03,21,1,1,14,13,663,2132.9927717458922,2133.6627127162647,"[92, 0, 162]",162,l,0.14768867590464652,colour,0.06
03,21,1,1,14,14,664,2135.6804968288634,2136.6227042721584,"[66, 0, 188]",188,a,0.4201142624951899,colour,0.06
03,21,1,1,14,15,665,2138.623433280969,2139.1587116355076,"[67, 0, 187]",187,a,0.013074503047391772,colour,0.06
03,21,1,1,14,16,666,2141.170482114656,2141.854752775049,"[75, 0, 179]",179,l,0.16204396588727832,colour,0.06
03,21,1,1,14,17,667,2143.8738121606875,2144.46271500038,"[82, 0, 172]",172,l,0.06666393578052521,colour,0.06
03,21,1,1,14,18,668,2146.4678141237237,2147.686711717397,"[61, 0, 193]",193,a,0.6966437238734215,colour,0.06
03,21,1,1,14,19,669,2149.7024202619214,2150.4227514548693,"[91, 0, 163]",163,l,0.19804660300724208,colour,0.06
03,21,1,1,14,20,670,2152.43698071409,2153.286746218335,"[80, 0, 174]",174,l,0.32740844669751823,colour,0.06
03,21,1,1,14,21,671,2155.2966108771507,2155.9188031496014,"[0, 0, 254]",254,a,0.10070915916003287,colour,0.06
03,21,1,1,14,22,672,2157.9374745970126,2158.6467359624803,"[68, 0, 186]",186,l,0.1871551878284663,colour,0.06
03,21,1,1,14,23,673,2160.6563607691787,2161.4307047794573,"[58, 0, 196]",196,a,0.2520472111646086,colour,0.06
03,21,1,1,14,24,674,2163.437903101323,2164.134727206547,"[64, 0, 190]",190,a,0.17472068453207612,colour,0.06
03,21,1,1,14,25,675,2166.1412043964956,2166.718723907601,"[95, 0, 159]",159,l,0.0552593395113945,colour,0.06
03,21,1,1,14,26,676,2168.735191393411,2169.430690207053,"[26, 0, 228]",228,a,0.17329574981704354,colour,0.06
03,21,1,1,14,27,677,2171.438511199318,2172.1187154005747,"[94, 0, 160]",160,l,0.157984989695251,colour,0.06
03,21,1,1,14,28,678,2174.126218165504,2174.7907236681785,"[89, 0, 165]",165,l,0.1423016511835158,colour,0.06
03,21,1,1,14,29,679,2176.798265817575,2177.7986970788334,"[71, 0, 183]",183,a,0.4783873111009598,colour,0.06
03,21,1,1,14,30,680,2179.814137020614,2180.382685115561,"[59, 0, 195]",195,a,0.04651911114342511,colour,0.06
03,21,1,1,14,31,681,2182.392440285068,2182.9827314317226,"[55, 0, 199]",199,a,0.06800301210023463,colour,0.06
03,21,1,1,14,32,682,2185.002175210975,2185.742718182737,"[86, 0, 168]",168,l,0.21837141551077366,colour,0.06
03,21,1,1,14,33,683,2187.752371740062,2188.4067262581084,"[63, 0, 191]",191,a,0.13206795882433653,colour,0.06
03,21,1,1,14,34,684,2190.4244186047,2191.398669746006,"[5, 0, 249]",249,a,0.45206461916677654,colour,0.06
03,21,1,1,14,35,685,2193.409000324551,2194.2946794566233,"[79, 0, 175]",175,l,0.3758625225163996,colour,0.06
03,21,1,1,14,36,686,2196.3031081531662,2197.0626935751643,"[60, 0, 194]",194,a,0.2372673552017659,colour,0.06
03,21,1,1,14,37,687,2199.068998260889,2199.662710746983,"[84, 0, 170]",170,l,0.07149642542935908,colour,0.06
03,21,1,1,14,38,688,2201.678605974419,2202.374706978677,"[76, 0, 178]",178,l,0.1739062110427767,colour,0.06
03,21,1,1,14,39,689,2204.381905694492,2205.0626793967094,"[56, 0, 198]",198,a,0.15879670600406826,colour,0.06
03,21,1,1,14,40,690,2207.069584697252,2207.9186912972946,"[96, 0, 158]",158,l,0.32683067466132343,colour,0.06
03,21,1,1,14,41,691,2209.9292424295563,2210.750680565834,"[78, 0, 176]",176,l,0.29990815510973334,colour,0.06
03,21,1,1,14,42,692,2212.757546875626,2213.454708506819,"[99, 0, 155]",155,l,0.17491406295448542,colour,0.06
03,21,1,1,14,43,693,2215.47038514982,2216.1667023752816,"[97, 0, 157]",157,l,0.17410195246338844,colour,0.06
03,21,1,1,14,44,694,2218.17442687531,2220.0386634601746,"[98, 0, 156]",156,l,1.3427991573698819,colour,0.06
03,21,1,1,14,45,695,2222.0489999463316,2222.630703676725,"[53, 0, 201]",201,a,0.05956210638396442,colour,0.06
03,21,1,1,14,46,696,2224.64299915242,2225.2386974098627,"[81, 0, 173]",173,a,0.07355899666436017,colour,0.06
03,21,1,1,14,47,697,2227.2525300662965,2228.1506633940153,"[74, 0, 180]",180,a,0.3758743379730731,colour,0.06
03,21,1,1,14,48,698,2230.1589684230275,2230.686816874193,"[88, 0, 166]",166,l,0.005583159625530243,colour,0.06
03,21,1,1,14,49,699,2232.7060708198696,2233.9506912783254,"[77, 0, 177]",177,l,0.7223776162136346,colour,0.06
03,21,1,1,14,50,700,2235.956332333386,2236.494694895344,"[52, 0, 202]",202,a,0.016129565658047795,colour,0.06
03,21,1,1,15,1,701,2260.332460702164,2261.2546422618907,"[69, 0, 185]",185,a,0.39917505043558776,colour,0.06
03,21,1,1,15,2,702,2263.270986079937,2263.9266777047887,"[67, 0, 187]",187,a,0.13352125021629035,colour,0.06
03,21,1,1,15,3,703,2265.9430739043746,2267.182637775084,"[98, 0, 156]",156,l,0.7180642157327384,colour,0.06
03,21,1,1,15,4,704,2269.1933102118783,2269.9186558511574,"[78, 0, 176]",176,l,0.20300906151533127,colour,0.06
03,21,1,1,15,5,705,2271.927985667251,2272.606671198504,"[60, 0, 194]",194,a,0.15650688600726426,colour,0.06
03,21,1,1,15,6,706,2274.615730048623,2275.278640475357,"[64, 0, 190]",190,a,0.14081527688540518,colour,0.06
03,21,1,1,15,7,707,2277.287719805492,2277.9026330176275,"[80, 0, 174]",174,l,0.09272353909909725,colour,0.06
03,21,1,1,15,8,708,2279.9129462668207,2280.558638143819,"[0, 0, 254]",254,a,0.12340610544197261,colour,0.06
03,21,1,1,15,9,709,2282.5693377559073,2283.3106396687217,"[72, 0, 182]",182,l,0.2192075503990054,colour,0.06
03,21,1,1,15,10,710,2285.319537435891,2286.0546299738344,"[51, 0, 203]",203,a,0.21285914815962315,colour,0.06
03,21,1,1,15,11,711,2288.059034746606,2288.662657971494,"[90, 0, 164]",164,l,0.08133627194911242,colour,0.06
03,21,1,1,15,12,712,2290.668631432578,2291.574649949791,"[71, 0, 183]",183,l,0.3837985179852694,colour,0.06
03,21,1,1,15,13,713,2293.5907086234074,2294.5026576723903,"[93, 0, 161]",161,l,0.3896660346072167,colour,0.06
03,21,1,1,15,14,714,2296.501500552986,2297.550654099323,"[77, 0, 177]",177,l,0.5267925502266735,colour,0.06
03,21,1,1,15,15,715,2299.5642027929425,2300.2546351726633,"[13, 0, 241]",241,a,0.16836440516635776,colour,0.06
03,21,1,1,15,16,716,2302.267549380427,2303.126604922116,"[82, 0, 172]",172,l,0.33678119187243283,colour,0.06
03,21,1,1,15,17,717,2305.142819558736,2305.782645494677,"[48, 0, 206]",206,a,0.11755158612504601,colour,0.06
03,21,1,1,15,18,718,2307.7992401923984,2308.5746231682133,"[94, 0, 160]",160,l,0.2538959237281233,colour,0.06
03,21,1,1,15,19,719,2310.580751016969,2311.2466160757467,"[52, 0, 202]",202,a,0.1438049611169845,colour,0.06
03,21,1,1,15,20,720,2313.2527935490943,2314.1906501764897,"[63, 0, 191]",191,a,0.4155881851911545,colour,0.06
03,21,1,1,15,21,721,2316.206149195088,2316.934634180274,"[58, 0, 196]",196,a,0.20616494910791516,colour,0.06
03,21,1,1,15,22,722,2318.9407470626757,2319.6146091630217,"[74, 0, 180]",180,l,0.15208714711479843,colour,0.06
03,21,1,1,15,23,723,2321.6191777756903,2322.406638824381,"[55, 0, 199]",199,a,0.26520048337988555,colour,0.06
03,21,1,1,15,24,724,2324.4162892310414,2324.998639656231,"[79, 0, 175]",175,l,0.060093010775744915,colour,0.06
03,21,1,1,15,25,725,2327.0103061599657,2327.8226291262545,"[65, 0, 189]",189,a,0.290435372851789,colour,0.06
03,21,1,1,15,26,726,2329.838604304474,2330.8945926530287,"[99, 0, 155]",155,l,0.5337372354697436,colour,0.06
03,21,1,1,15,27,727,2332.9011202552356,2333.8946273115,"[76, 0, 178]",178,l,0.47116338927298784,colour,0.06
03,21,1,1,15,28,728,2335.9013156029396,2336.7106260417495,"[66, 0, 188]",188,a,0.28707547346130013,colour,0.06
03,21,1,1,15,29,729,2338.720333555946,2339.7986313067377,"[54, 0, 200]",200,a,0.5559363609645516,colour,0.06
03,21,1,1,15,30,730,2341.8143032235093,2342.694622900337,"[89, 0, 165]",165,l,0.35826469911262393,colour,0.06
03,21,1,1,15,31,731,2344.7052173556294,2345.270626498619,"[53, 0, 201]",201,a,0.04322143900208175,colour,0.06
03,21,1,1,15,32,732,2347.2835344048217,2347.8226433047093,"[97, 0, 157]",157,l,0.016867239261046052,colour,0.06
03,21,1,1,15,33,733,2349.8305848138407,2350.422595098149,"[62, 0, 192]",192,l,0.06991986045613885,colour,0.06
03,21,1,1,15,34,734,2352.4401295122225,2353.1505976219196,"[88, 0, 166]",166,l,0.18821542127989233,colour,0.06
03,21,1,1,15,35,735,2355.159129505977,2355.758584265597,"[59, 0, 195]",195,a,0.07455542660318315,colour,0.06
03,21,1,1,15,36,736,2357.7715039872564,2358.5186190658715,"[81, 0, 173]",173,l,0.2249321008566767,colour,0.06
03,21,1,1,15,37,737,2360.537304298021,2361.3186016578693,"[87, 0, 167]",167,l,0.25913643767125905,colour,0.06
03,21,1,1,15,38,738,2363.334329894744,2364.04658015701,"[86, 0, 168]",168,l,0.19003420160152018,colour,0.06
03,21,1,1,15,39,739,2366.0532495439984,2366.782586811576,"[83, 0, 171]",171,l,0.20698296697810292,colour,0.06
03,21,1,1,15,40,740,2368.787870648317,2369.8305773308966,"[85, 0, 169]",169,l,0.5204768371768296,colour,0.06
03,21,1,1,15,41,741,2371.8506335406564,2372.638599893544,"[91, 0, 163]",163,l,0.26623866125009954,colour,0.06
03,21,1,1,15,42,742,2374.647800134262,2375.5105763382744,"[70, 0, 184]",184,a,0.3408484384417534,colour,0.06
03,21,1,1,15,43,743,2377.522975789616,2378.0946061224677,"[92, 0, 162]",162,l,0.049473742954432964,colour,0.06
03,21,1,1,15,44,744,2380.1012837800663,2380.670576243894,"[57, 0, 197]",197,a,0.04699133220128715,colour,0.06
03,21,1,1,15,45,745,2382.681141554611,2383.342600265285,"[56, 0, 198]",198,a,0.1395266130566597,colour,0.06
03,21,1,1,15,46,746,2385.353189206682,2386.2705623016227,"[61, 0, 193]",193,a,0.3951204065233469,colour,0.06
03,21,1,1,15,47,747,2388.2908977482,2389.118624816183,"[68, 0, 186]",186,l,0.3055110073182732,colour,0.06
03,21,1,1,15,48,748,2391.134833938908,2391.69457485131,"[96, 0, 158]",158,l,0.03741969494149089,colour,0.06
03,21,1,1,15,49,749,2393.713218335528,2394.670560490107,"[95, 0, 159]",159,l,0.43518320145085454,colour,0.06
03,21,1,1,15,50,750,2396.6821687046904,2397.38255435857,"[75, 0, 179]",179,a,0.17837478686124086,colour,0.06
03,21,1,1,16,1,751,2412.8857244243845,2413.806555486517,"[63, 0, 191]",191,a,0.3976941895671189,colour,0.06
03,21,1,1,16,2,752,2415.8141011805274,2416.942577658454,"[62, 0, 192]",192,a,0.6064975124318153,colour,0.06
03,21,1,1,16,3,753,2418.9549073989037,2419.558536137687,"[83, 0, 171]",171,l,0.0821743761189282,colour,0.06
03,21,1,1,16,4,754,2421.5644942389335,2422.934571952559,"[88, 0, 166]",166,l,0.848081812961027,colour,0.06
03,21,1,1,16,5,755,2424.939724244876,2425.870558993425,"[58, 0, 196]",196,a,0.4092437212821096,colour,0.06
03,21,1,1,16,6,756,2427.8774926508777,2428.622541613877,"[70, 0, 184]",184,a,0.22283880994655192,colour,0.06
03,21,1,1,16,7,757,2430.617163253948,2431.9105359297246,"[72, 0, 182]",182,l,0.7711002952419221,colour,0.06
03,21,1,1,16,8,758,2433.9299982197117,2434.542556627188,"[64, 0, 190]",190,a,0.09046325739473104,colour,0.06
03,21,1,1,16,9,759,2436.5551746627316,2437.1585674879607,"[84, 0, 170]",170,l,0.08112989668734372,colour,0.06
03,21,1,1,16,10,760,2439.1647209364455,2439.8625225673895,"[59, 0, 195]",195,a,0.1757096315268427,colour,0.06
03,21,1,1,16,11,761,2441.8681112409104,2442.558537713019,"[66, 0, 188]",188,a,0.1681603929027915,colour,0.06
03,21,1,1,16,12,762,2444.5714377423283,2445.206536739599,"[96, 0, 158]",158,l,0.11284433957189322,colour,0.06
03,21,1,1,16,13,763,2447.212330606766,2447.854516861262,"[80, 0, 174]",174,l,0.11997334449552,colour,0.06
03,21,1,1,16,14,764,2449.868750059046,2450.7425330751576,"[79, 0, 175]",175,l,0.35163745377212763,colour,0.06
03,21,1,1,16,15,765,2452.7595799081028,2453.502525733784,"[76, 0, 178]",178,l,0.22072700783610344,colour,0.06
03,21,1,1,16,16,766,2455.5097831327002,2456.174551724689,"[81, 0, 173]",173,l,0.14251393429003656,colour,0.06
03,21,1,1,16,17,767,2458.181870169472,2458.7265701061115,"[12, 0, 242]",242,a,0.022617783630266786,colour,0.06
03,21,1,1,16,18,768,2460.74463936314,2461.7905503760558,"[53, 0, 201]",201,a,0.5238170444499701,colour,0.06
03,21,1,1,16,19,769,2463.807443215279,2464.8385318368673,"[92, 0, 162]",162,l,0.5089848069474101,colour,0.06
03,21,1,1,16,20,770,2466.8544294275343,2467.726518118521,"[98, 0, 156]",156,l,0.35046458058059216,colour,0.06
03,21,1,1,16,21,771,2469.7453029935714,2470.582515446702,"[74, 0, 180]",180,l,0.3149455862585455,colour,0.06
03,21,1,1,16,22,772,2472.589335282566,2473.166549563175,"[94, 0, 160]",160,a,0.0550167306791991,colour,0.06
03,21,1,1,16,23,773,2475.183278562501,2475.8625182351097,"[93, 0, 161]",161,l,0.1569338149856776,colour,0.06
03,21,1,1,16,24,774,2477.871025306871,2478.478548000334,"[78, 0, 176]",176,l,0.08532947581261396,colour,0.06
03,21,1,1,16,25,775,2480.496219866909,2481.27854004479,"[95, 0, 159]",159,l,0.2601088434457779,colour,0.06
03,21,1,1,16,26,776,2483.2933238390833,2483.966532155173,"[65, 0, 189]",189,a,0.15097453235648572,colour,0.06
03,21,1,1,16,27,777,2485.971892004367,2486.7585417302325,"[60, 0, 194]",194,a,0.2643856159411371,colour,0.06
03,21,1,1,16,28,778,2488.768984555034,2489.4545257622376,"[87, 0, 167]",167,l,0.1632609497755766,colour,0.06
03,21,1,1,16,29,779,2491.4720810502768,2492.6304878490046,"[73, 0, 181]",181,a,0.6359122889116406,colour,0.06
03,21,1,1,16,30,780,2494.644410302397,2495.270531975664,"[56, 0, 198]",198,a,0.10380754503421485,colour,0.06
03,21,1,1,16,31,781,2497.2853638192173,2497.886500694789,"[51, 0, 203]",203,a,0.07890860573388636,colour,0.06
03,21,1,1,16,32,782,2499.8948837050702,2500.5265192212537,"[99, 0, 155]",155,l,0.11251547816209495,colour,0.06
03,21,1,1,16,33,783,2502.5326549469028,2503.5345158688724,"[75, 0, 179]",179,l,0.4795999629423022,colour,0.06
03,21,1,1,16,34,784,2505.5498022106476,2506.366832817206,"[82, 0, 172]",172,l,0.29473656439222395,colour,0.06
03,21,1,1,16,35,785,2508.37823623186,2509.006502002245,"[34, 0, 220]",220,a,0.1156697899568826,colour,0.06
03,21,1,1,16,36,786,2511.0249942499213,2511.686494708294,"[89, 0, 165]",165,l,0.1392670685891062,colour,0.06
03,21,1,1,16,37,787,2513.6971628128085,2514.6465236796066,"[52, 0, 202]",202,a,0.42728659068234265,colour,0.06
03,21,1,1,16,38,788,2516.666039532749,2517.5584727285895,"[97, 0, 157]",157,l,0.3701742060948163,colour,0.06
03,21,1,1,16,39,789,2519.5726031325758,2520.382540967781,"[57, 0, 197]",197,a,0.287742254557088,colour,0.06
03,21,1,1,16,40,790,2522.4008658309467,2523.182495202869,"[90, 0, 164]",164,l,0.2593916498590261,colour,0.06
03,21,1,1,16,41,791,2525.197984769242,2525.8145257465076,"[68, 0, 186]",186,a,0.09444149490445852,colour,0.06
03,21,1,1,16,42,792,2527.823205716675,2528.7184726339765,"[77, 0, 177]",177,l,0.37301659188233316,colour,0.06
03,21,1,1,16,43,793,2530.7296909412835,2531.334482707083,"[9, 0, 245]",245,a,0.08257019123993814,colour,0.06
03,21,1,1,16,44,794,2533.354887864087,2534.1585088048596,"[50, 0, 204]",204,a,0.29057203768752515,colour,0.06
03,21,1,1,16,45,795,2536.1739790725987,2536.9504742692225,"[85, 0, 169]",169,l,0.25421927124261856,colour,0.06
03,21,1,1,16,46,796,2538.9710893463343,2539.5265137073584,"[91, 0, 163]",163,l,0.03326934645883739,colour,0.06
03,21,1,1,16,47,797,2541.5348766318057,2542.254505597288,"[67, 0, 187]",187,a,0.19734673877246678,colour,0.06
03,21,1,1,16,48,798,2544.2696174653247,2544.806517283432,"[54, 0, 200]",200,a,0.014770797220990062,colour,0.06
03,21,1,1,16,49,799,2546.816596982302,2547.3985043307766,"[86, 0, 168]",168,l,0.05963536165654659,colour,0.06
03,21,1,1,16,50,800,2549.4105666498654,2550.486492266413,"[61, 0, 193]",193,a,0.5536670205183327,colour,0.06
