id,age,condition,counterbalance,block,trialinblock,trial,tstart,tend,trialstim,trialintensity,response,RT,trialtype,colourfreq
027,19,0,1,Practice,1,NA,6.301517714746296e-06,1.0368973824661225,"[36, 0, 218]",218,a,0.43491571123013273,colour,0.5
027,19,0,1,Practice,2,NA,3.049333830625983,3.628930525330361,"[42, 0, 212]",212,a,0.05707485697348602,colour,0.5
027,19,0,1,Practice,3,NA,5.642903757237946,17.396813162617036,"[81, 0, 173]",173,l,11.230654227983905,colour,0.5
027,19,0,1,Practice,4,NA,19.411115255235927,20.060891216431628,"[28, 0, 226]",226,a,0.12679765693610534,colour,0.5
027,19,0,1,Practice,5,NA,22.06788354314631,36.59676558613137,"[50, 0, 204]",204,a,14.005878532640054,colour,0.5
027,19,0,1,Practice,6,NA,38.61565833775967,41.908859901013784,"[84, 0, 170]",170,l,2.7698621029994683,colour,0.5
027,19,0,1,Practice,7,NA,43.929937311666436,44.50876758371305,"[74, 0, 180]",180,l,0.05562393144646194,colour,0.5
027,19,0,1,Practice,8,NA,46.52265732045635,58.02073003923579,"[61, 0, 193]",193,l,10.974980987113668,colour,0.5
027,19,0,1,Practice,9,NA,60.04160895194218,63.5726740785758,"[16, 0, 238]",238,a,3.007781592386891,colour,0.5
027,19,0,1,Practice,10,NA,65.59249197244935,66.18904291297076,"[33, 0, 221]",221,a,0.07332018153101671,colour,0.5
027,19,0,1,1,1,1,5.938025709416252,13.33599441369006,"[78, 0, 176]",176,l,6.8751715687831165,colour,0.5
027,19,0,1,1,2,2,15.347051222313894,16.240263655694434,"[86, 0, 168]",168,l,0.370237673734664,colour,0.5
027,19,0,1,1,3,3,18.253457468061242,18.84798837683047,"[46, 0, 208]",208,a,0.07131905434653163,colour,0.5
027,19,0,1,1,4,4,20.862871391043882,21.50396267292672,"[45, 0, 209]",209,a,0.11820513739075977,colour,0.5
027,19,0,1,1,5,5,23.519420701049967,24.127946503213025,"[75, 0, 179]",179,l,0.08526983708725311,colour,0.5
027,19,0,1,1,6,6,26.144445070211077,29.663955961805186,"[58, 0, 196]",196,a,2.996052490110742,colour,0.5
027,19,0,1,1,7,7,31.676256533392007,33.02389261574717,"[69, 0, 185]",185,l,0.8239681552513503,colour,0.5
027,19,0,1,1,8,8,35.03656340177986,35.5839439574047,"[95, 0, 159]",159,l,0.02428646090265829,colour,0.5
027,19,0,1,1,9,9,37.60199584964721,38.32001335921814,"[30, 0, 224]",224,a,0.1950281776516931,colour,0.5
027,19,0,1,1,10,10,40.33662023363286,41.031888459896436,"[18, 0, 236]",236,a,0.17212293167540338,colour,0.5
027,19,0,1,1,11,11,43.042085504566785,46.295904522470664,"[53, 0, 201]",201,a,2.742284278210718,colour,0.5
027,19,0,1,1,12,12,48.312194745391025,49.287912616782705,"[16, 0, 238]",238,a,0.45240440491761547,colour,0.5
027,19,0,1,1,13,13,51.29689425532706,51.9438735221338,"[74, 0, 180]",180,l,0.12419749128457624,colour,0.5
027,19,0,1,1,14,14,53.953243491996545,54.78413859567081,"[54, 0, 200]",200,a,0.308581610021065,colour,0.5
027,19,0,1,1,15,15,56.79882232424279,57.335934155387804,"[60, 0, 194]",194,a,0.01407011783157941,colour,0.5
027,19,0,1,1,16,16,59.345627865957795,60.22386039921548,"[56, 0, 198]",198,a,0.3550128019269323,colour,0.5
027,19,0,1,1,17,17,62.23782142193522,63.511932129447814,"[12, 0, 242]",242,a,0.7508153579110513,colour,0.5
027,19,0,1,1,18,18,65.51944787635875,66.07986391862505,"[67, 0, 187]",187,l,0.03723687698948197,colour,0.5
027,19,0,1,1,19,19,68.0976865929988,69.05580706943874,"[73, 0, 181]",181,l,0.4350799446547171,colour,0.5
027,19,0,1,1,20,20,71.06664490015828,72.66380590680637,"[1, 0, 253]",253,a,1.0739066169626312,colour,0.5
027,19,0,1,1,21,21,74.67628804100968,75.19983033150493,"[6, 0, 248]",248,a,0.001311898187850602,colour,0.5
027,19,0,1,1,22,22,77.20752842871298,78.74377498208196,"[9, 0, 245]",245,a,1.0130630557832774,colour,0.5
027,19,0,1,1,23,23,80.75477547085029,81.67178717868228,"[13, 0, 241]",241,a,0.3918101477320306,colour,0.5
027,19,0,1,1,24,24,83.67856919208134,84.47179576450435,"[63, 0, 191]",191,l,0.27000684109225404,colour,0.5
027,19,0,1,1,25,25,86.49275580930407,87.2718130149151,"[4, 0, 250]",250,a,0.2559008833486587,colour,0.5
027,19,0,1,1,26,26,89.28971445832576,90.03977245201531,"[62, 0, 192]",192,l,0.22672483496717177,colour,0.5
027,19,0,1,1,27,27,92.05568340205355,92.80775394444936,"[61, 0, 193]",193,l,0.22891934012295678,colour,0.5
027,19,0,1,1,28,28,94.82155309681548,95.57574055687292,"[72, 0, 182]",182,l,0.2310886391933309,colour,0.5
027,19,0,1,1,29,29,97.57763455816894,98.34379254757368,"[15, 0, 239]",239,a,0.24307728541316465,colour,0.5
027,19,0,1,1,30,30,100.3589197457768,101.15174814074999,"[34, 0, 220]",220,a,0.26966419581731316,colour,0.5
027,19,0,1,1,31,31,103.17162511139759,103.9517153728375,"[65, 0, 189]",189,l,0.2568685608857777,colour,0.5
027,19,0,1,1,32,32,105.96882518749044,106.74372575143934,"[10, 0, 244]",244,a,0.25269852847850416,colour,0.5
027,19,0,1,1,33,33,108.7501103750983,109.55173096910585,"[31, 0, 223]",223,a,0.2783106721471995,colour,0.5
027,19,0,1,1,34,34,111.56290002357855,112.30374873624532,"[80, 0, 174]",174,l,0.21764985512709245,colour,0.5
027,19,0,1,1,35,35,114.3132305581239,115.07166445652547,"[32, 0, 222]",222,a,0.2354563818371389,colour,0.5
027,19,0,1,1,36,36,117.0789966716111,117.93566460776492,"[42, 0, 212]",212,a,0.3337026287917979,colour,0.5
027,19,0,1,1,37,37,119.95415957580553,120.70374771225033,"[92, 0, 162]",162,l,0.22627230689977296,colour,0.5
027,19,0,1,1,38,38,122.7211938706605,123.50370509820641,"[97, 0, 157]",157,l,0.25989565467170905,colour,0.5
027,19,0,1,1,39,39,125.51828248857055,126.28766488817928,"[20, 0, 234]",234,a,0.2465486365254037,colour,0.5
027,19,0,1,1,40,40,128.2997248203901,129.09564765667892,"[89, 0, 165]",165,l,0.2726105513575021,colour,0.5
027,19,0,1,1,41,41,131.11461523888283,131.9197469623614,"[23, 0, 231]",231,a,0.2822270682663657,colour,0.5
027,19,0,1,1,42,42,133.92726467851026,134.73565704593784,"[38, 0, 216]",216,a,0.28512695006793365,colour,0.5
027,19,0,1,1,43,43,136.75551038589037,137.50364287066623,"[48, 0, 206]",206,a,0.22488557813630905,colour,0.5
027,19,0,1,1,44,44,139.5214517604618,140.46367782836023,"[44, 0, 210]",210,a,0.4190854994521942,colour,0.5
027,19,0,1,1,45,45,142.47567671457364,143.4876137670799,"[64, 0, 190]",190,l,0.4887370134383673,colour,0.5
027,19,0,1,1,46,46,145.50715242476144,146.26360410054622,"[17, 0, 237]",237,a,0.2330775571608683,colour,0.5
027,19,0,1,1,47,47,148.2730902547337,149.0396105816617,"[96, 0, 158]",158,l,0.24324388190871105,colour,0.5
027,19,0,1,1,48,48,151.05633482192934,152.47962067984918,"[91, 0, 163]",163,l,0.9004993562557502,colour,0.5
027,19,0,1,1,49,49,154.4939499477914,155.5676159253635,"[29, 0, 225]",225,a,0.5504001663648523,colour,0.5
027,19,0,1,1,50,50,157.57870660466142,158.36756858517765,"[19, 0, 235]",235,a,0.2655804155074293,colour,0.5
027,19,0,1,2,1,51,187.28486307381536,188.27151684336422,"[89, 0, 165]",165,l,0.4626172033895273,colour,0.5
027,19,0,1,2,2,52,190.28596544638276,191.06357527108048,"[48, 0, 206]",206,a,0.2543707949516829,colour,0.5
027,19,0,1,2,3,53,193.0830099536397,193.87964604348235,"[42, 0, 212]",212,a,0.2736109180113999,colour,0.5
027,19,0,1,2,4,54,195.8971733340004,196.64749796086107,"[66, 0, 188]",188,l,0.22717184921202715,colour,0.5
027,19,0,1,2,5,55,198.6630977732275,199.51152331818594,"[85, 0, 169]",169,l,0.3252428350679111,colour,0.5
027,19,0,1,2,6,56,201.523231546671,202.37547108801664,"[65, 0, 189]",189,l,0.32903556381643284,colour,0.5
027,19,0,1,2,7,57,204.3828092107724,205.47146729765518,"[52, 0, 202]",202,l,0.5654005464166403,colour,0.5
027,19,0,1,2,8,58,207.492471453108,208.3114432888542,"[64, 0, 190]",190,l,0.2957347752235364,colour,0.5
027,19,0,1,2,9,59,210.32067186830682,211.10343279366498,"[22, 0, 232]",232,a,0.25948487417190336,colour,0.5
027,19,0,1,2,10,60,213.1179223565705,213.84747401507047,"[75, 0, 179]",179,l,0.20500506287498865,colour,0.5
027,19,0,1,2,11,61,215.85370700835483,216.63943791994825,"[14, 0, 240]",240,a,0.26243595585401636,colour,0.5
027,19,0,1,2,12,62,218.65081177391403,219.41546054872742,"[10, 0, 244]",244,a,0.24138256975857075,colour,0.5
027,19,0,1,2,13,63,221.42200231658353,222.19142094995186,"[19, 0, 235]",235,a,0.24608705000719056,colour,0.5
027,19,0,1,2,14,64,224.203513177461,224.98342542088358,"[17, 0, 237]",237,a,0.2567078720603604,colour,0.5
027,19,0,1,2,15,65,227.00055807856552,227.78344385283708,"[51, 0, 203]",203,l,0.2595057479775278,colour,0.5
027,19,0,1,2,16,66,229.7974930968776,230.55937038338743,"[97, 0, 157]",157,l,0.238502774052904,colour,0.5
027,19,0,1,2,17,67,232.57909217906126,233.47945841566252,"[47, 0, 207]",207,a,0.3770720685424749,colour,0.5
027,19,0,1,2,18,68,235.48553426472063,236.27947724144906,"[43, 0, 211]",211,a,0.2706464455986861,colour,0.5
027,19,0,1,2,19,69,238.29992449987913,239.3834035230975,"[53, 0, 201]",201,a,0.5601419260347029,colour,0.5
027,19,0,1,2,20,70,241.39388453011634,242.3513831250748,"[95, 0, 159]",159,l,0.4350405601435341,colour,0.5
027,19,0,1,2,21,71,244.36289246175147,245.31135821829957,"[61, 0, 193]",193,l,0.4253062835196033,colour,0.5
027,19,0,1,2,22,72,247.33188267037622,248.1993679573061,"[2, 0, 252]",252,a,0.3442655555991223,colour,0.5
027,19,0,1,2,23,73,250.20720508185332,250.9673474805022,"[94, 0, 160]",160,l,0.23696087030111812,colour,0.5
027,19,0,1,2,24,74,252.98853595549008,253.78340801292507,"[73, 0, 181]",181,l,0.2716160923446296,colour,0.5
027,19,0,1,2,25,75,255.80202664833632,256.59936378254497,"[60, 0, 194]",194,l,0.2740728983771987,colour,0.5
027,19,0,1,2,26,76,258.6147603708232,259.55129340714484,"[8, 0, 246]",246,a,0.4138390882726526,colour,0.5
027,19,0,1,2,27,77,261.56809641643486,262.25532862635737,"[90, 0, 164]",164,l,0.16389117429207545,colour,0.5
027,19,0,1,2,28,78,264.2715097541659,265.02331208800024,"[9, 0, 245]",245,a,0.22670317348092794,colour,0.5
027,19,0,1,2,29,79,267.0348844399268,267.8393273282418,"[50, 0, 204]",204,l,0.29333704597956967,colour,0.5
027,19,0,1,2,30,80,269.8510997534904,271.72735439642565,"[33, 0, 221]",221,a,1.3530888684035745,colour,0.5
027,19,0,1,2,31,81,273.742129890903,274.5913549415127,"[74, 0, 180]",180,l,0.3266106592636788,colour,0.5
027,19,0,1,2,32,82,276.60383038033615,277.33526146787335,"[91, 0, 163]",163,l,0.208066815030179,colour,0.5
027,19,0,1,2,33,83,279.3541384657001,280.1512652865931,"[11, 0, 243]",243,a,0.2739862524322234,colour,0.5
027,19,0,1,2,34,84,282.1668643112789,282.9432622744789,"[23, 0, 231]",231,a,0.25180016770900693,colour,0.5
027,19,0,1,2,35,85,284.9370639395638,285.8632979253307,"[69, 0, 185]",185,l,0.40293627309438307,colour,0.5
027,19,0,1,2,36,86,287.8748813049169,288.6232682136615,"[59, 0, 195]",195,l,0.2257520374696469,colour,0.5
027,19,0,1,2,37,87,290.6408124395093,291.50325926548976,"[27, 0, 227]",227,a,0.3393196482647909,colour,0.5
027,19,0,1,2,38,88,293.51740775851067,294.6952989461861,"[56, 0, 198]",198,l,0.6549699909664923,colour,0.5
027,19,0,1,2,39,89,296.70399937928596,297.47124556283234,"[4, 0, 250]",250,a,0.24395477239158936,colour,0.5
027,19,0,1,2,40,90,299.4855114217062,300.47921974549536,"[46, 0, 208]",208,l,0.47055987843486946,colour,0.5
027,19,0,1,2,41,91,302.4857812056289,303.40725320973434,"[6, 0, 248]",248,a,0.3980573194421595,colour,0.5
027,19,0,1,2,42,92,305.4243559351744,306.2551840851811,"[15, 0, 239]",239,a,0.3077360245079035,colour,0.5
027,19,0,1,2,43,93,308.2683613560657,309.05523560012807,"[78, 0, 176]",176,l,0.2637423402047716,colour,0.5
027,19,0,1,2,44,94,311.06532591275754,311.94326109293615,"[87, 0, 167]",167,l,0.3547000888938783,colour,0.5
027,19,0,1,2,45,95,313.9561811829335,314.7112177731178,"[13, 0, 241]",241,a,0.23181292040681,colour,0.5
027,19,0,1,2,46,96,316.72206781303976,317.49518898461247,"[0, 0, 254]",254,a,0.24992310172819998,colour,0.5
027,19,0,1,2,47,97,319.5034727295715,320.29519441968296,"[63, 0, 191]",191,l,0.2684216143825324,colour,0.5
027,19,0,1,2,48,98,322.31860536283057,323.2232503330888,"[24, 0, 230]",230,a,0.38143784197745845,colour,0.5
027,19,0,1,2,49,99,325.2408158265753,325.983148547748,"[35, 0, 219]",219,a,0.21927879864233546,colour,0.5
027,19,0,1,2,50,100,327.9909210816986,328.51937777192506,"[12, 0, 242]",242,a,0.005249561945674941,colour,0.5
027,19,0,1,3,1,101,336.02492764079943,336.7911163501267,"[30, 0, 224]",224,a,0.2444746480032336,colour,0.5
027,19,0,1,3,2,102,338.80493322551774,339.575111586164,"[88, 0, 166]",166,l,0.24706811827491038,colour,0.5
027,19,0,1,3,3,103,341.5864204556856,342.3431533369003,"[89, 0, 165]",165,l,0.2335261467815144,colour,0.5
027,19,0,1,3,4,104,344.3534535689978,344.975159005131,"[77, 0, 177]",177,l,0.0984238711243961,colour,0.5
027,19,0,1,3,5,105,346.99427270388696,347.74312316837313,"[40, 0, 214]",214,a,0.22557086870074272,colour,0.5
027,19,0,1,3,6,106,349.760176269323,350.4871226421965,"[99, 0, 155]",155,l,0.20377547833777498,colour,0.5
027,19,0,1,3,7,107,352.494741182687,353.67907016311074,"[83, 0, 171]",171,l,0.6614747373969294,colour,0.5
027,19,0,1,3,8,108,355.69814605274587,356.4230877538066,"[73, 0, 181]",181,l,0.20223554380936548,colour,0.5
027,19,0,1,3,9,109,358.42121659552504,359.2070908667665,"[91, 0, 163]",163,l,0.2627376412419835,colour,0.5
027,19,0,1,3,10,110,361.22003064902674,361.99112076118763,"[78, 0, 176]",176,l,0.24771481200878043,colour,0.5
027,19,0,1,3,11,111,364.00311334586877,364.7510926248942,"[71, 0, 183]",183,l,0.2247422185173491,colour,0.5
027,19,0,1,3,12,112,366.76889363778173,367.54308764352754,"[24, 0, 230]",230,a,0.2509790005569812,colour,0.5
027,19,0,1,3,13,113,369.5523304014059,370.4630457068997,"[58, 0, 196]",196,a,0.38757867547974456,colour,0.5
027,19,0,1,3,14,114,372.4743900224712,373.2150075480313,"[69, 0, 185]",185,l,0.21742024339619093,colour,0.5
027,19,0,1,3,15,115,375.2245677450992,375.9830548126047,"[21, 0, 233]",233,a,0.23390384428785183,colour,0.5
027,19,0,1,3,16,116,377.9915051540447,378.87900683280895,"[42, 0, 212]",212,a,0.36409841559361666,colour,0.5
027,19,0,1,3,17,117,380.8980189195281,381.63104035376455,"[43, 0, 211]",211,a,0.209350750214071,colour,0.5
027,19,0,1,3,18,118,383.64874920688453,384.463039405382,"[57, 0, 197]",197,l,0.29110039939405397,colour,0.5
027,19,0,1,3,19,119,386.4782930278743,387.2790357410413,"[68, 0, 186]",186,l,0.27831461059395224,colour,0.5
027,19,0,1,3,20,120,389.29108267635456,390.07902463461505,"[49, 0, 205]",205,a,0.26472143923456315,colour,0.5
027,19,0,1,3,21,121,392.0882646355749,392.9110232923849,"[52, 0, 202]",202,l,0.2997110358119244,colour,0.5
027,19,0,1,3,22,122,394.93218183514546,395.75908059213543,"[2, 0, 252]",252,a,0.30373455783410463,colour,0.5
027,19,0,1,3,23,123,397.76453574124025,398.4389825561957,"[4, 0, 250]",250,a,0.1514074646984227,colour,0.5
027,19,0,1,3,24,124,400.45232209128153,400.98306347719335,"[15, 0, 239]",239,a,0.007526774570578709,colour,0.5
027,19,0,1,3,25,125,402.999247755768,403.6309934861929,"[86, 0, 168]",168,l,0.10856892821902875,colour,0.5
027,19,0,1,3,26,126,405.64010154902644,406.214985492712,"[11, 0, 243]",243,a,0.05163782474119216,colour,0.5
027,19,0,1,3,27,127,408.2341291236953,408.7990097945294,"[65, 0, 189]",189,l,0.04044395800156053,colour,0.5
027,19,0,1,3,28,128,410.8136462616676,411.3509317785356,"[55, 0, 199]",199,l,0.014177243705489673,colour,0.5
027,19,0,1,3,29,129,413.3607074088941,413.9113261593011,"[26, 0, 228]",228,a,0.027328914642566815,colour,0.5
027,19,0,1,3,30,130,415.9243313198531,416.47093757592665,"[39, 0, 215]",215,a,0.02332114645105321,colour,0.5
027,19,0,1,3,31,131,418.4869426549558,419.20698846702,"[41, 0, 213]",213,a,0.19665081964922138,colour,0.5
027,19,0,1,3,32,132,421.2216576233186,422.1749085983756,"[60, 0, 194]",194,l,0.43039673203020357,colour,0.5
027,19,0,1,3,33,133,424.19056354906934,424.9268869810039,"[94, 0, 160]",160,l,0.2130556514894124,colour,0.5
027,19,0,1,3,34,134,426.94141198997386,427.7028926744388,"[72, 0, 182]",182,l,0.23825425776885822,colour,0.5
027,19,0,1,3,35,135,429.72289606937557,430.446940197362,"[1, 0, 253]",253,a,0.20081021822988987,colour,0.5
027,19,0,1,3,36,136,432.45938885472424,433.1189168155688,"[14, 0, 240]",240,a,0.13670561926846858,colour,0.5
027,19,0,1,3,37,137,435.1314336081414,435.8789394852938,"[35, 0, 219]",219,a,0.22450945602031425,colour,0.5
027,19,0,1,3,38,138,437.8972343799978,438.5588824092556,"[38, 0, 216]",216,a,0.13861852513218764,colour,0.5
027,19,0,1,3,39,139,440.56934214863577,441.2228686971357,"[36, 0, 218]",218,a,0.13084677887673024,colour,0.5
027,19,0,1,3,40,140,443.2452520983061,443.8469234195654,"[23, 0, 231]",231,a,0.07499441724212375,colour,0.5
027,19,0,1,3,41,141,445.85829727351665,446.8708341521997,"[80, 0, 174]",174,l,0.48940536865848117,colour,0.5
027,19,0,1,3,42,142,448.88967255319585,449.6628457123443,"[7, 0, 247]",247,a,0.24981715739704669,colour,0.5
027,19,0,1,3,43,143,451.67117750638863,452.4148965624772,"[54, 0, 200]",200,l,0.22046230331761762,colour,0.5
027,19,0,1,3,44,144,454.4214619610575,455.1348320979014,"[18, 0, 236]",236,a,0.19033393736754078,colour,0.5
027,19,0,1,3,45,145,457.1559977298748,457.86285642492294,"[93, 0, 161]",161,l,0.1836373883415945,colour,0.5
027,19,0,1,3,46,146,459.8749699200707,460.6788212529791,"[33, 0, 221]",221,a,0.28094313309702557,colour,0.5
027,19,0,1,3,47,147,462.68765244267706,463.44683504071145,"[56, 0, 198]",198,l,0.2359553836431587,colour,0.5
027,19,0,1,3,48,148,465.45423224024125,466.3508384372253,"[48, 0, 206]",206,l,0.37406978699436877,colour,0.5
027,19,0,1,3,49,149,468.3620803530648,469.1347745965031,"[97, 0, 157]",157,l,0.24949144745187368,colour,0.5
027,19,0,1,3,50,150,471.14350102339813,471.78285466050147,"[5, 0, 249]",249,a,0.11614453959919047,colour,0.5
027,19,0,1,4,1,151,479.6603688202158,480.66277915250976,"[77, 0, 177]",177,l,0.4783501354249893,colour,0.5
027,19,0,1,4,2,152,482.677121417335,483.44677675163257,"[9, 0, 245]",245,a,0.24658447643741965,colour,0.5
027,19,0,1,4,3,153,485.45849640162487,487.26283019484254,"[40, 0, 214]",214,a,1.2810120560025098,colour,0.5
027,19,0,1,4,4,154,489.2725758929737,490.0228059969959,"[53, 0, 201]",201,l,0.2269863481487846,colour,0.5
027,19,0,1,4,5,155,492.03926084717386,492.87877485802164,"[88, 0, 166]",166,l,0.3167050600022776,colour,0.5
027,19,0,1,4,6,156,494.89891412954603,495.5347794801928,"[78, 0, 176]",176,l,0.11274801906256471,colour,0.5
027,19,0,1,4,7,157,497.5552783323219,498.21479605318746,"[5, 0, 249]",249,l,0.1362712080590427,colour,0.5
027,19,0,1,4,8,158,500.2287295067508,501.01472035615006,"[48, 0, 206]",206,l,0.2629514991422184,colour,0.5
027,19,0,1,4,9,159,503.02569957727974,503.84669183861115,"[36, 0, 218]",218,a,0.29808642459101975,colour,0.5
027,19,0,1,4,10,160,505.85411306269816,506.71065693763376,"[62, 0, 192]",192,l,0.3333678604249144,colour,0.5
027,19,0,1,4,11,161,508.72935000977304,509.4706587335677,"[96, 0, 158]",158,l,0.2182307767070597,colour,0.5
027,19,0,1,4,12,162,511.4692787001841,512.3506454531162,"[59, 0, 195]",195,l,0.35836403028224595,colour,0.5
027,19,0,1,4,13,163,514.3600819827989,514.9906524793041,"[8, 0, 246]",246,a,0.10745040800247807,colour,0.5
027,19,0,1,4,14,164,517.0009089945961,517.846698927824,"[49, 0, 205]",205,l,0.3225977710681036,colour,0.5
027,19,0,1,4,15,165,519.8604866586829,520.7026421889168,"[51, 0, 203]",203,a,0.3189401311974507,colour,0.5
027,19,0,1,4,16,166,522.7216125280538,523.4947419703822,"[6, 0, 248]",248,a,0.24987899108964484,colour,0.5
027,19,0,1,4,17,167,525.5030619490717,526.2786501666415,"[43, 0, 211]",211,a,0.2522857787553221,colour,0.5
027,19,0,1,4,18,168,528.3000812502432,529.0066406229889,"[14, 0, 240]",240,a,0.18319076794432476,colour,0.5
027,19,0,1,4,19,169,531.0191227571922,531.750654275238,"[74, 0, 180]",180,l,0.20823222999752034,colour,0.5
027,19,0,1,4,20,170,533.7693103259371,534.5507841653744,"[52, 0, 202]",202,l,0.2582316589250695,colour,0.5
027,19,0,1,4,21,171,536.5664198176528,537.3506541177048,"[18, 0, 236]",236,a,0.26106458705908153,colour,0.5
027,19,0,1,4,22,172,539.3634643249097,540.1106299198582,"[25, 0, 229]",229,a,0.2240951309358934,colour,0.5
027,19,0,1,4,23,173,542.1306104717805,542.9506035479862,"[84, 0, 170]",170,l,0.29693285215762444,colour,0.5
027,19,0,1,4,24,174,544.9589924495813,545.7426166835066,"[17, 0, 237]",237,l,0.2723202874767594,colour,0.5
027,19,0,1,4,25,175,547.7576922879962,548.4625856957718,"[13, 0, 241]",241,a,0.18172487632546108,colour,0.5
027,19,0,1,4,26,176,550.4767207980476,551.2145900721807,"[30, 0, 224]",224,a,0.2146629335329635,colour,0.5
027,19,0,1,4,27,177,553.2269713820278,553.7506444291066,"[4, 0, 250]",250,a,0.0005372047744458541,colour,0.5
027,19,0,1,4,28,178,555.7739840862923,556.3186077259015,"[67, 0, 187]",187,l,0.021410997505881824,colour,0.5
027,19,0,1,4,29,179,558.3366568612255,559.0865860675694,"[32, 0, 222]",222,a,0.2266842689277837,colour,0.5
027,19,0,1,4,30,180,561.1025797250768,561.8385660255735,"[41, 0, 213]",213,a,0.21152201850782149,colour,0.5
027,19,0,1,4,31,181,563.853974035359,564.5025231689215,"[28, 0, 226]",226,a,0.12531837457208894,colour,0.5
027,19,0,1,4,32,182,566.5103677765292,567.2145940106275,"[89, 0, 165]",165,l,0.1809631798096234,colour,0.5
027,19,0,1,4,33,183,569.2335040914477,569.9105010537314,"[56, 0, 198]",198,l,0.1537965293682646,colour,0.5
027,19,0,1,4,34,184,571.9211364480434,572.4625951480557,"[63, 0, 191]",191,l,0.018303953140275553,colour,0.5
027,19,0,1,4,35,185,574.4838174937322,575.5905782788759,"[80, 0, 174]",174,l,0.5835119092807872,colour,0.5
027,19,0,1,4,36,186,577.6090634007851,578.3665646738955,"[98, 0, 156]",156,l,0.23430438479408622,colour,0.5
027,19,0,1,4,37,187,580.3748992248729,581.3584731253795,"[69, 0, 185]",185,l,0.46035062457667664,colour,0.5
027,19,0,1,4,38,188,583.3758582377923,584.1104696248804,"[19, 0, 235]",235,a,0.21180401161836926,colour,0.5
027,19,0,1,4,39,189,586.1259942128381,586.9104892383766,"[87, 0, 167]",167,l,0.2599019561894238,colour,0.5
027,19,0,1,4,40,190,588.9246617559402,589.9105266536644,"[82, 0, 172]",172,l,0.46265461869188584,colour,0.5
027,19,0,1,4,41,191,591.9249496567354,592.7584496522031,"[60, 0, 194]",194,l,0.3102637226402294,colour,0.5
027,19,0,1,4,42,192,594.7689066346647,595.3904553204338,"[20, 0, 234]",234,a,0.09839827117684763,colour,0.5
027,19,0,1,4,43,193,597.4096997757733,598.1905119553558,"[99, 0, 155]",155,l,0.25764640503621195,colour,0.5
027,19,0,1,4,44,194,600.2068395935639,600.8384167582553,"[85, 0, 169]",169,l,0.10837043025821913,colour,0.5
027,19,0,1,4,45,195,602.8476256454596,603.5904565807286,"[61, 0, 193]",193,l,0.22013107953534927,colour,0.5
027,19,0,1,4,46,196,605.5979124631849,606.3104945158993,"[2, 0, 252]",252,a,0.1896261976362439,colour,0.5
027,19,0,1,4,47,197,608.3180642195948,608.9744918314536,"[37, 0, 217]",217,a,0.13318503751361277,colour,0.5
027,19,0,1,4,48,198,610.990196406623,611.6064455121086,"[44, 0, 210]",210,a,0.09312429082638118,colour,0.5
027,19,0,1,4,49,199,613.6153857969184,614.3584246824321,"[16, 0, 238]",238,a,0.21992628007137682,colour,0.5
027,19,0,1,4,50,200,616.3655962086777,617.0063928944,"[83, 0, 171]",171,l,0.11755608060047962,colour,0.5
027,19,0,1,5,1,201,656.0297475176922,656.8063069573836,"[63, 0, 191]",191,l,0.2526670208608266,colour,0.5
027,19,0,1,5,2,202,658.827689991871,659.5743116866797,"[35, 0, 219]",219,a,0.22337242509820499,colour,0.5
027,19,0,1,5,3,203,661.5935305420862,662.2942688835901,"[53, 0, 201]",201,l,0.17746229031763505,colour,0.5
027,19,0,1,5,4,204,664.3124909169419,664.9903110155719,"[29, 0, 225]",225,a,0.1546740163466893,colour,0.5
027,19,0,1,5,5,205,667.0001839256729,667.6063769830507,"[47, 0, 207]",207,l,0.08303515973966569,colour,0.5
027,19,0,1,5,6,206,669.6254083681852,670.3022800876934,"[69, 0, 185]",185,l,0.1536701050645206,colour,0.5
027,19,0,1,5,7,207,672.3130706569937,672.99029368638,"[32, 0, 222]",222,a,0.1541608361148974,colour,0.5
027,19,0,1,5,8,208,675.0008136840625,675.7662804752326,"[8, 0, 246]",246,a,0.2422285491193179,colour,0.5
027,19,0,1,5,9,209,677.7821827606822,678.5663130856119,"[24, 0, 230]",230,a,0.260837338399142,colour,0.5
027,19,0,1,5,10,210,680.579374959867,681.1742461508402,"[87, 0, 167]",167,l,0.07201616025122348,colour,0.5
027,19,0,1,5,11,211,683.1889164886816,683.8702351137326,"[40, 0, 214]",214,a,0.15803272774792276,colour,0.5
027,19,0,1,5,12,212,685.8772648557351,686.614232224485,"[1, 0, 253]",253,a,0.21378150810778607,colour,0.5
027,19,0,1,5,13,213,688.6275091381831,689.334277248854,"[77, 0, 177]",177,l,0.1835582254716428,colour,0.5
027,19,0,1,5,14,214,691.3464703007194,692.0302287964587,"[71, 0, 183]",183,l,0.16066400716954377,colour,0.5
027,19,0,1,5,15,215,694.0498856076738,694.7902959706844,"[99, 0, 155]",155,l,0.21730090833443683,colour,0.5
027,19,0,1,5,16,216,696.8000022842898,697.486262878243,"[85, 0, 169]",169,l,0.16308339789975435,colour,0.5
027,19,0,1,5,17,217,699.5032403609221,700.2462103235448,"[52, 0, 202]",202,l,0.21956827482790686,colour,0.5
027,19,0,1,5,18,218,702.2534425019549,703.3182170315122,"[0, 0, 254]",254,a,0.5414346754696453,colour,0.5
027,19,0,1,5,19,219,705.3331654240174,706.0541663105541,"[18, 0, 236]",236,a,0.19786425653728656,colour,0.5
027,19,0,1,5,20,220,708.0677330942854,709.1101758164004,"[19, 0, 235]",235,a,0.5173754632123746,colour,0.5
027,19,0,1,5,21,221,711.1167148273526,711.878185665686,"[75, 0, 179]",179,l,0.23917428002459928,colour,0.5
027,19,0,1,5,22,222,713.8973694688757,715.0061963656626,"[41, 0, 213]",213,l,0.5835268754017306,colour,0.5
027,19,0,1,5,23,223,717.0229477812536,717.798183507417,"[6, 0, 248]",248,a,0.2520341117196949,colour,0.5
027,19,0,1,5,24,224,719.8043333993555,720.5742494591395,"[54, 0, 200]",200,l,0.24680463586992119,colour,0.5
027,19,0,1,5,25,225,722.5858934908756,723.3341689414374,"[88, 0, 166]",166,l,0.2251132206292823,colour,0.5
027,19,0,1,5,26,226,725.3531995388767,726.0381297239219,"[39, 0, 215]",215,a,0.161925099324435,colour,0.5
027,19,0,1,5,27,227,728.0563332465535,728.8061269701575,"[61, 0, 193]",193,l,0.2270477879937971,colour,0.5
027,19,0,1,5,28,228,730.8222561104049,731.4781220990844,"[57, 0, 197]",197,l,0.13275929090741556,colour,0.5
027,19,0,1,5,29,229,733.4942969253607,734.2701285392395,"[37, 0, 217]",217,a,0.25257407341268845,colour,0.5
027,19,0,1,5,30,230,736.2925966171024,736.8701512247208,"[12, 0, 242]",242,a,0.050400757128954865,colour,0.5
027,19,0,1,5,31,231,738.8907292397198,739.6060741161346,"[72, 0, 182]",182,l,0.19207591444137506,colour,0.5
027,19,0,1,5,32,232,741.6253504729393,742.6621041019243,"[48, 0, 206]",206,l,0.5135338976542698,colour,0.5
027,19,0,1,5,33,233,744.6724677430902,745.4781209175417,"[67, 0, 187]",187,l,0.2824657384189777,colour,0.5
027,19,0,1,5,34,234,747.4852668438689,748.2460838992556,"[3, 0, 251]",251,a,0.23766506543324795,colour,0.5
027,19,0,1,5,35,235,750.2666284374282,751.0221037711017,"[38, 0, 216]",216,a,0.2305927881388925,colour,0.5
027,19,0,1,5,36,236,753.0340156175225,753.7980669292447,"[36, 0, 218]",218,a,0.2404345844843192,colour,0.5
027,19,0,1,5,37,237,755.815951437311,756.5101125648798,"[97, 0, 157]",157,l,0.17105718671518844,colour,0.5
027,19,0,1,5,38,238,758.5191205910378,759.2380872674112,"[43, 0, 211]",211,a,0.1956811729032779,colour,0.5
027,19,0,1,5,39,239,761.2551187068893,761.9980386511743,"[65, 0, 189]",189,l,0.2196891852945555,colour,0.5
027,19,0,1,5,40,240,764.0053681093268,764.6381039664411,"[73, 0, 181]",181,l,0.10953030420932919,colour,0.5
027,19,0,1,5,41,241,766.6471056910959,767.2940073704085,"[59, 0, 195]",195,l,0.12438378004299011,colour,0.5
027,19,0,1,5,42,242,769.3033296850044,769.8700539449637,"[51, 0, 203]",203,l,0.04455373209202662,colour,0.5
027,19,0,1,5,43,243,771.8829208658717,772.5424322852195,"[17, 0, 237]",237,a,0.1374157220707275,colour,0.5
027,19,0,1,5,44,244,774.5551322157844,775.2140229351644,"[68, 0, 186]",186,l,0.13569186185486615,colour,0.5
027,19,0,1,5,45,245,777.2271214370267,777.9021436597395,"[81, 0, 173]",173,l,0.1502397138538072,colour,0.5
027,19,0,1,5,46,246,779.9165040414373,780.7340060470888,"[49, 0, 205]",205,a,0.2943500156980008,colour,0.5
027,19,0,1,5,47,247,782.7352809238218,783.278076728122,"[62, 0, 192]",192,l,0.020222766703227535,colour,0.5
027,19,0,1,5,48,248,785.2971159901499,785.9900152378686,"[46, 0, 208]",208,a,0.16968660561542492,colour,0.5
027,19,0,1,5,49,249,788.0004194450739,788.7026138320653,"[23, 0, 231]",231,a,0.17793372295273002,colour,0.5
027,19,0,1,5,50,250,790.7208039639663,791.397982488852,"[76, 0, 178]",178,l,0.15414114386658184,colour,0.5
027,19,0,1,6,1,251,837.7023078143975,838.4779275395704,"[64, 0, 190]",190,l,0.25142050097929314,colour,0.5
027,19,0,1,6,2,252,840.4845973071206,841.1258201332821,"[36, 0, 218]",218,a,0.11796567955752835,colour,0.5
027,19,0,1,6,3,253,843.1411237740977,844.2378726218012,"[73, 0, 181]",181,l,0.5722479381220182,colour,0.5
027,19,0,1,6,4,254,846.2520577424148,846.8939126900368,"[0, 0, 254]",254,a,0.11966787825804204,colour,0.5
027,19,0,1,6,5,255,848.9073861324723,849.6538546215161,"[2, 0, 252]",252,a,0.22318101635028142,colour,0.5
027,19,0,1,6,6,256,851.6732967871212,852.6298533044901,"[5, 0, 249]",249,a,0.4334139796847012,colour,0.5
027,19,0,1,6,7,257,854.6430388461158,855.3337577671045,"[31, 0, 223]",223,a,0.1675090357894078,colour,0.5
027,19,0,1,6,8,258,857.3463572671608,858.2058486791793,"[47, 0, 207]",207,l,0.33641425262612756,colour,0.5
027,19,0,1,6,9,259,860.2215843681188,860.9818780033092,"[52, 0, 202]",202,l,0.23707311616453808,colour,0.5
027,19,0,1,6,10,260,863.0030176415021,863.973807722432,"[85, 0, 169]",169,l,0.4475959495466668,colour,0.5
027,19,0,1,6,11,261,865.9875509487902,866.8297962757206,"[22, 0, 232]",232,a,0.31903544173110276,colour,0.5
027,19,0,1,6,12,262,868.84708765299,869.9978224301885,"[95, 0, 159]",159,l,0.6275654580531409,colour,0.5
027,19,0,1,6,13,263,872.01926454145,872.8697368996218,"[90, 0, 164]",164,l,0.32720457774121314,colour,0.5
027,19,0,1,6,14,264,874.8789816267235,875.5337491812825,"[79, 0, 175]",175,l,0.13165967525856104,colour,0.5
027,19,0,1,6,15,265,877.5509527310933,878.357779564074,"[37, 0, 217]",217,a,0.2835503879468888,colour,0.5
027,19,0,1,6,16,266,880.3792945366877,881.0137700078194,"[76, 0, 178]",178,l,0.11140855171834119,colour,0.5
027,19,0,1,6,17,267,883.020180625259,883.7177000703668,"[42, 0, 212]",212,a,0.174180772548425,colour,0.5
027,19,0,1,6,18,268,885.7414497203426,886.293733648039,"[25, 0, 229]",229,a,0.028990153485210612,colour,0.5
027,19,0,1,6,19,269,888.302803114042,888.8857896339032,"[80, 0, 174]",174,l,0.05976797005860135,colour,0.5
027,19,0,1,6,20,270,890.8967672796571,891.5657487055287,"[99, 0, 155]",155,l,0.14594246947672218,colour,0.5
027,19,0,1,6,21,271,893.5844949467573,894.7416915412614,"[98, 0, 156]",156,l,0.6339532324636821,colour,0.5
027,19,0,1,6,22,272,896.7574650393508,897.6536896003963,"[62, 0, 192]",192,l,0.37304933423001785,colour,0.5
027,19,0,1,6,23,273,899.6639693525358,900.3977540586638,"[75, 0, 179]",179,l,0.21082412490795832,colour,0.5
027,19,0,1,6,24,274,902.4154900871072,903.0777316409949,"[58, 0, 196]",196,l,0.1389966164715588,colour,0.5
027,19,0,1,6,25,275,905.0875990372733,905.8376408833283,"[1, 0, 253]",253,a,0.22752079600468278,colour,0.5
027,19,0,1,6,26,276,907.8533860245516,909.0136821803462,"[53, 0, 201]",201,l,0.6369822954729898,colour,0.5
027,19,0,1,6,27,277,911.0256330174452,911.6457756760356,"[74, 0, 180]",180,l,0.09700563474325463,colour,0.5
027,19,0,1,6,28,278,913.6558667763602,914.3416500299791,"[45, 0, 209]",209,l,0.16266001434996724,colour,0.5
027,19,0,1,6,29,279,916.359043806995,917.1017223241943,"[20, 0, 234]",234,a,0.2194761150603881,colour,0.5
027,19,0,1,6,30,280,919.1092951786559,919.6776617728756,"[61, 0, 193]",193,l,0.04524414264596999,colour,0.5
027,19,0,1,6,31,281,921.6875374398951,922.789618557028,"[26, 0, 228]",228,a,0.578873595004552,colour,0.5
027,19,0,1,6,32,282,924.7972615159233,925.4216376159893,"[83, 0, 171]",171,l,0.10131193757115398,colour,0.5
027,19,0,1,6,33,283,927.4380400847585,928.5096348307125,"[55, 0, 199]",199,l,0.5483525654417463,colour,0.5
027,19,0,1,6,34,284,930.5163947887922,931.2856665179133,"[17, 0, 237]",237,a,0.24609295769187156,colour,0.5
027,19,0,1,6,35,285,933.2873320890358,934.1096008024906,"[4, 0, 250]",250,a,0.30241320736240596,colour,0.5
027,19,0,1,6,36,286,936.1278862449108,936.7416245875938,"[28, 0, 226]",226,a,0.09049734371365048,colour,0.5
027,19,0,1,6,37,287,938.7531630688172,939.8936078538973,"[50, 0, 204]",204,l,0.6172159953130176,colour,0.5
027,19,0,1,6,38,288,941.9095853637555,942.8375853511534,"[92, 0, 162]",162,l,0.40505673535517417,colour,0.5
027,19,0,1,6,39,289,944.8472321941517,945.6296244804689,"[29, 0, 225]",225,a,0.2592592009168584,colour,0.5
027,19,0,1,6,40,290,947.6466728552768,948.5975717871333,"[46, 0, 208]",208,a,0.427860369294649,colour,0.5
027,19,0,1,6,41,291,950.6156386454968,951.3016215786047,"[82, 0, 172]",172,l,0.16276280792953912,colour,0.5
027,19,0,1,6,42,292,953.319017324844,954.4135716674064,"[88, 0, 166]",166,l,0.5714169248676626,colour,0.5
027,19,0,1,6,43,293,956.4286512103427,956.9815845886769,"[84, 0, 170]",170,l,0.029803837547660805,colour,0.5
027,19,0,1,6,44,294,958.9912558500655,959.5975568210124,"[13, 0, 241]",241,a,0.08299892598006409,colour,0.5
027,19,0,1,6,45,295,961.6168343593599,962.4055297433806,"[6, 0, 248]",248,a,0.26548628651653416,colour,0.5
027,19,0,1,6,46,296,964.413974177136,965.0135380330321,"[87, 0, 167]",167,l,0.07656625322124455,colour,0.5
027,19,0,1,6,47,297,967.0256826419354,967.5575484557485,"[14, 0, 240]",240,a,0.00869373774912674,colour,0.5
027,19,0,1,6,48,298,969.572762693715,970.2135176318552,"[44, 0, 210]",210,a,0.1175671082601184,colour,0.5
027,19,0,1,6,49,299,972.229119413445,973.0375172947242,"[38, 0, 216]",216,a,0.28408444198430516,colour,0.5
027,19,0,1,6,50,300,975.0618817369541,975.7974320508802,"[40, 0, 214]",214,a,0.212338853336405,colour,0.5
027,19,0,1,7,1,301,1020.44200649923,1021.1333602985978,"[64, 0, 190]",190,l,0.1672735164029291,colour,0.5
027,19,0,1,7,2,302,1023.1461204874649,1023.8054046581528,"[97, 0, 157]",157,l,0.13471079360169824,colour,0.5
027,19,0,1,7,3,303,1025.8068571590557,1026.4453967182344,"[13, 0, 241]",241,a,0.11533479396894109,colour,0.5
027,19,0,1,7,4,304,1028.4600501207315,1029.0853777506563,"[80, 0, 174]",174,l,0.10216855075850617,colour,0.5
027,19,0,1,7,5,305,1031.1079580743826,1031.7094084485288,"[48, 0, 206]",206,a,0.08527141247759573,colour,0.5
027,19,0,1,7,6,306,1033.7260436797806,1034.3733392042486,"[25, 0, 229]",229,a,0.12408957771549467,colour,0.5
027,19,0,1,7,7,307,1036.3824480547773,1037.1093625261856,"[85, 0, 169]",169,l,0.2036525986623019,colour,0.5
027,19,0,1,7,8,308,1039.117231158336,1039.8933565806947,"[76, 0, 178]",178,l,0.2530490506615024,colour,0.5
027,19,0,1,7,9,309,1041.9142303734116,1042.6693102865538,"[93, 0, 161]",161,l,0.23237021127715707,colour,0.5
027,19,0,1,7,10,310,1044.6799850653915,1045.293336652132,"[37, 0, 217]",217,a,0.09026733814971521,colour,0.5
027,19,0,1,7,11,311,1047.3052473170246,1047.829378406008,"[11, 0, 243]",243,a,0.0009314437629655004,colour,0.5
027,19,0,1,7,12,312,1049.852443553129,1050.5812886534259,"[43, 0, 211]",211,a,0.20597037732659373,colour,0.5
027,19,0,1,7,13,313,1052.6024818545557,1053.2533420714317,"[83, 0, 171]",171,l,0.1274963382165879,colour,0.5
027,19,0,1,7,14,314,1055.2602855613513,1056.0212833916594,"[33, 0, 221]",221,a,0.2377899143320974,colour,0.5
027,19,0,1,7,15,315,1058.0418133575731,1058.6533697981358,"[27, 0, 227]",227,a,0.08838633373670746,colour,0.5
027,19,0,1,7,16,316,1060.6557332628581,1061.3333269005234,"[89, 0, 165]",165,l,0.1544022631860571,colour,0.5
027,19,0,1,7,17,317,1063.342217560843,1064.005318090989,"[29, 0, 225]",225,a,0.13994617712160107,colour,0.5
027,19,0,1,7,18,318,1066.0143013049237,1066.6372851623892,"[60, 0, 194]",194,l,0.09771101140358951,colour,0.5
027,19,0,1,7,19,319,1068.657585516572,1069.5172974818706,"[70, 0, 184]",184,l,0.3365359507879475,colour,0.5
027,19,0,1,7,20,320,1071.5343304967246,1072.3412380679656,"[51, 0, 203]",203,l,0.28371343985782005,colour,0.5
027,19,0,1,7,21,321,1074.3625962902152,1075.0532840974338,"[14, 0, 240]",240,a,0.16764215545845218,colour,0.5
027,19,0,1,7,22,322,1077.0658769021102,1077.701214894114,"[23, 0, 231]",231,a,0.11215685748902615,colour,0.5
027,19,0,1,7,23,323,1079.7223175108666,1080.4692058388318,"[38, 0, 216]",216,a,0.22362881829030812,colour,0.5
027,19,0,1,7,24,324,1082.4882025655825,1083.0532506205927,"[35, 0, 219]",219,a,0.04184210827224888,colour,0.5
027,19,0,1,7,25,325,1085.066533835823,1086.1092203480803,"[74, 0, 180]",180,l,0.5201024470006814,colour,0.5
027,19,0,1,7,26,326,1088.1292725798266,1088.7251925804303,"[71, 0, 183]",183,l,0.07287986266601365,colour,0.5
027,19,0,1,7,27,327,1090.7388885453547,1091.3891891082894,"[67, 0, 187]",187,l,0.12714424067235086,colour,0.5
027,19,0,1,7,28,328,1093.3965059634065,1094.3891847759805,"[52, 0, 202]",202,l,0.4699336646590382,colour,0.5
027,19,0,1,7,29,329,1096.398186894483,1096.9972296932392,"[61, 0, 193]",193,l,0.07774069944571238,colour,0.5
027,19,0,1,7,30,330,1099.0064850541676,1099.6932722190686,"[73, 0, 181]",181,l,0.1634480985085247,colour,0.5
027,19,0,1,7,31,331,1101.7098731857986,1102.4932047927723,"[63, 0, 191]",191,l,0.26013865711865947,colour,0.5
027,19,0,1,7,32,332,1104.5143672739796,1105.1732761102467,"[1, 0, 253]",253,a,0.13566823114524595,colour,0.5
027,19,0,1,7,33,333,1107.1805815438565,1107.837135186157,"[57, 0, 197]",197,l,0.14235966016713064,colour,0.5
027,19,0,1,7,34,334,1109.843507994461,1110.4371622039325,"[6, 0, 248]",248,a,0.07042108741006814,colour,0.5
027,19,0,1,7,35,335,1112.4531212030852,1113.0531919376663,"[22, 0, 232]",232,a,0.07685809247777797,colour,0.5
027,19,0,1,7,36,336,1115.0627619808656,1115.741137007295,"[7, 0, 247]",247,a,0.15528447632095776,colour,0.5
027,19,0,1,7,37,337,1117.7504490819265,1118.3971825893532,"[65, 0, 189]",189,l,0.12349211462424137,colour,0.5
027,19,0,1,7,38,338,1120.4069026875513,1121.141084783434,"[3, 0, 251]",251,a,0.21101592748891562,colour,0.5
027,19,0,1,7,39,339,1123.1571233392897,1123.7331789722812,"[24, 0, 230]",230,a,0.05284259702602867,colour,0.5
027,19,0,1,7,40,340,1125.7510481203935,1126.3091018794657,"[8, 0, 246]",246,a,0.03488286455103662,colour,0.5
027,19,0,1,7,41,341,1128.3294057782477,1128.973127158024,"[95, 0, 159]",159,l,0.12070644792402163,colour,0.5
027,19,0,1,7,42,342,1130.9857790394744,1131.629064826513,"[79, 0, 175]",175,l,0.11856235493905842,colour,0.5
027,19,0,1,7,43,343,1133.6437784872978,1134.3655103504425,"[16, 0, 238]",238,a,0.19848653188091703,colour,0.5
027,19,0,1,7,44,344,1136.3784154743335,1137.0290953101212,"[45, 0, 209]",209,a,0.12751445510366466,colour,0.5
027,19,0,1,7,45,345,1139.0505145783682,1139.6131314272934,"[75, 0, 179]",179,l,0.039451074379030615,colour,0.5
027,19,0,1,7,46,346,1141.6287918918242,1142.3090888825682,"[42, 0, 212]",212,a,0.15719147451454774,colour,0.5
027,19,0,1,7,47,347,1144.3164486668102,1144.941100458469,"[17, 0, 237]",237,a,0.10143599878938403,colour,0.5
027,19,0,1,7,48,348,1146.9588203392632,1147.7410881705,"[54, 0, 200]",200,l,0.25906503525038715,colour,0.5
027,19,0,1,7,49,349,1149.755843972729,1150.453077486265,"[78, 0, 176]",176,a,0.17397794230782893,colour,0.5
027,19,0,1,7,50,350,1152.4591742091288,1153.1650203283061,"[46, 0, 208]",208,a,0.182505477394443,colour,0.5
027,19,0,1,8,1,351,1218.7347204821854,1219.4609662045405,"[88, 0, 166]",166,l,0.20231943283579312,colour,0.5
027,19,0,1,8,2,352,1221.4701049872965,1222.0448810173984,"[73, 0, 181]",181,l,0.05164215702097863,colour,0.5
027,19,0,1,8,3,353,1224.0640809682518,1224.8768584075442,"[47, 0, 207]",207,a,0.2883887755742762,colour,0.5
027,19,0,1,8,4,354,1226.8935334171692,1227.636867292691,"[64, 0, 190]",190,l,0.22007712275080848,colour,0.5
027,19,0,1,8,5,355,1229.643791878043,1231.06085025653,"[51, 0, 203]",203,a,0.8938914224127075,colour,0.5
027,19,0,1,8,6,356,1233.067270326239,1233.804799318168,"[99, 0, 155]",155,l,0.21421434391231742,colour,0.5
027,19,0,1,8,7,357,1235.8175472978473,1237.2208147947094,"[52, 0, 202]",202,a,0.8801052669296041,colour,0.5
027,19,0,1,8,8,358,1239.2410029030289,1239.9569117656793,"[8, 0, 246]",246,a,0.19322003457637038,colour,0.5
027,19,0,1,8,9,359,1241.9755926286307,1242.6848770159413,"[75, 0, 179]",179,l,0.18607962210080586,colour,0.5
027,19,0,1,8,10,360,1244.694623501753,1245.4207853350963,"[12, 0, 242]",242,a,0.20303465562756173,colour,0.5
027,19,0,1,8,11,361,1247.4302076863532,1248.0128172964178,"[82, 0, 172]",172,l,0.059674234929843806,colour,0.5
027,19,0,1,8,12,362,1250.0241021413676,1250.6127895697136,"[19, 0, 235]",235,a,0.06543146327021532,colour,0.5
027,19,0,1,8,13,363,1252.6345849600766,1253.284928058274,"[3, 0, 251]",251,a,0.12710328077082522,colour,0.5
027,19,0,1,8,14,364,1255.3066659472388,1255.9087598643382,"[84, 0, 170]",170,l,0.07893523176608142,colour,0.5
027,19,0,1,8,15,365,1257.9162311067485,1258.604753553358,"[20, 0, 234]",234,a,0.16534406902792398,colour,0.5
027,19,0,1,8,16,366,1260.619386082064,1261.3167802844255,"[96, 0, 158]",158,l,0.17403662523429375,colour,0.5
027,19,0,1,8,17,367,1263.3120214535302,1264.0047797046864,"[34, 0, 220]",220,a,0.1696480087848613,colour,0.5
027,19,0,1,8,18,368,1266.015372563721,1267.1168507039256,"[26, 0, 228]",228,a,0.5783615963155171,colour,0.5
027,19,0,1,8,19,369,1269.1250340183615,1269.8207870680053,"[14, 0, 240]",240,a,0.17135060133296065,colour,0.5
027,19,0,1,8,20,370,1271.8295875377808,1272.4927109109558,"[90, 0, 164]",164,l,0.13950428286625538,colour,0.5
027,19,0,1,8,21,371,1274.5022923756624,1275.2927261921577,"[65, 0, 189]",189,l,0.2673212110530585,colour,0.5
027,19,0,1,8,22,372,1277.2992526000598,1277.8447265513387,"[16, 0, 238]",238,a,0.02279496933624614,colour,0.5
027,19,0,1,8,23,373,1279.8620577069669,1280.5087419837655,"[31, 0, 223]",223,a,0.12356970211840235,colour,0.5
027,19,0,1,8,24,374,1282.5202158743923,1283.1568697030161,"[60, 0, 194]",194,l,0.11335060212877579,colour,0.5
027,19,0,1,8,25,375,1285.1772657615802,1285.8847719380574,"[32, 0, 222]",222,a,0.18491699123114813,colour,0.5
027,19,0,1,8,26,376,1287.8955944088084,1288.5567079902103,"[9, 0, 245]",245,a,0.13805138813040685,colour,0.5
027,19,0,1,8,27,377,1290.5676627929352,1291.100686905309,"[30, 0, 224]",224,a,0.00980004874872975,colour,0.5
027,19,0,1,8,28,378,1293.114734180126,1293.7167004913936,"[78, 0, 176]",176,l,0.07741814026667271,colour,0.5
027,19,0,1,8,29,379,1295.7130759345164,1296.412664248186,"[94, 0, 160]",160,l,0.17671477222756948,colour,0.5
027,19,0,1,8,30,380,1298.4287717269472,1299.0127968164597,"[76, 0, 178]",178,l,0.06095935162738897,colour,0.5
027,19,0,1,8,31,381,1301.015935762276,1301.860670978218,"[92, 0, 162]",162,l,0.32146113399358,colour,0.5
027,19,0,1,8,32,382,1303.867376191818,1304.4686245233897,"[39, 0, 215]",215,a,0.07799197264830582,colour,0.5
027,19,0,1,8,33,383,1306.4768275300885,1307.0846912785637,"[95, 0, 159]",159,l,0.0845723373349756,colour,0.5
027,19,0,1,8,34,384,1309.1021496461763,1309.7246262311091,"[36, 0, 218]",218,a,0.09937776405422483,colour,0.5
027,19,0,1,8,35,385,1311.742961298005,1312.4846894668735,"[2, 0, 252]",252,a,0.21848559452337213,colour,0.5
027,19,0,1,8,36,386,1314.493177223616,1315.1006258593115,"[55, 0, 199]",199,l,0.08434548253717367,colour,0.5
027,19,0,1,8,37,387,1317.1184032414894,1317.956619138742,"[40, 0, 214]",214,a,0.3136563047301024,colour,0.5
027,19,0,1,8,38,388,1319.9636654222413,1320.6606681425328,"[79, 0, 175]",175,l,0.17396100697806105,colour,0.5
027,19,0,1,8,39,389,1322.6552043288248,1323.2765887811547,"[89, 0, 165]",165,l,0.0981596010242356,colour,0.5
027,19,0,1,8,40,390,1325.2960856912396,1325.860645772118,"[72, 0, 182]",182,l,0.04211898139328696,colour,0.5
027,19,0,1,8,41,391,1327.874390180019,1328.5005846631102,"[28, 0, 226]",226,a,0.10310353913519066,colour,0.5
027,19,0,1,8,42,392,1330.5171537283895,1331.1485914719087,"[50, 0, 204]",204,l,0.10822391987312585,colour,0.5
027,19,0,1,8,43,393,1333.1566924727085,1333.8445993393543,"[22, 0, 232]",232,a,0.1647379413479939,colour,0.5
027,19,0,1,8,44,394,1335.8599829307495,1336.5006520106253,"[49, 0, 205]",205,a,0.11749070229416247,colour,0.5
027,19,0,1,8,45,395,1338.5187105982477,1339.052988713578,"[25, 0, 229]",229,a,0.011230100484681316,colour,0.5
027,19,0,1,8,46,396,1341.0658205822547,1341.7405470272643,"[53, 0, 201]",201,l,0.14991164083767217,colour,0.5
027,19,0,1,8,47,397,1343.755628145591,1345.0605481772945,"[24, 0, 230]",230,a,0.7822260836546775,colour,0.5
027,19,0,1,8,48,398,1347.067894964639,1347.7085250538657,"[41, 0, 213]",213,a,0.11739736101299059,colour,0.5
027,19,0,1,8,49,399,1349.7242552289827,1350.4605432148528,"[68, 0, 186]",186,l,0.2130871591216419,colour,0.5
027,19,0,1,8,50,400,1352.4758153480652,1353.0045544252498,"[35, 0, 219]",219,a,0.005819455866003409,colour,0.5
027,19,0,1,9,1,401,1664.3795718036708,1665.5797400543233,"[36, 0, 218]",218,a,0.6760887553682551,colour,0.5
027,19,0,1,9,2,402,1667.5993366072362,1668.1957422188862,"[96, 0, 158]",158,l,0.07312798508792184,colour,0.5
027,19,0,1,9,3,403,1670.208823785404,1670.9637654589023,"[27, 0, 227]",227,a,0.2316648346313741,colour,0.5
027,19,0,1,9,4,404,1672.9746974186128,1673.635705055669,"[28, 0, 226]",226,a,0.13779893339960836,colour,0.5
027,19,0,1,9,5,405,1675.6467728919524,1676.619834277837,"[48, 0, 206]",206,l,0.4497518578718882,colour,0.5
027,19,0,1,9,6,406,1678.6326531496306,1679.371736648347,"[85, 0, 169]",169,l,0.21589369961293414,colour,0.5
027,19,0,1,9,7,407,1681.3828647429327,1682.1317222966318,"[55, 0, 199]",199,l,0.22569256684801076,colour,0.5
027,19,0,1,9,8,408,1684.1486611824948,1685.0677397896507,"[14, 0, 240]",240,a,0.3959234664362157,colour,0.5
027,19,0,1,9,9,409,1687.087868821196,1687.8036886748596,"[7, 0, 247]",247,a,0.1926056361553492,colour,0.5
027,19,0,1,9,10,410,1689.8224806021317,1690.5077195617632,"[82, 0, 172]",172,l,0.16205309898941778,colour,0.5
027,19,0,1,9,11,411,1692.5257462479349,1693.3076808861806,"[76, 0, 178]",178,l,0.25868143008847255,colour,0.5
027,19,0,1,9,12,412,1695.3227970567095,1695.8522005506675,"[18, 0, 236]",236,a,0.006160919612739235,colour,0.5
027,19,0,1,9,13,413,1697.8854670747387,1698.4836847679107,"[60, 0, 194]",194,l,0.07493691584386397,colour,0.5
027,19,0,1,9,14,414,1700.483468546925,1701.4916825812834,"[87, 0, 167]",167,l,0.48499627225100994,colour,0.5
027,19,0,1,9,15,415,1703.4992262911983,1704.3476183593157,"[0, 0, 254]",254,a,0.3251120784843806,colour,0.5
027,19,0,1,9,16,416,1706.358882330489,1706.9716951370647,"[52, 0, 202]",202,l,0.09020314138615504,colour,0.5
027,19,0,1,9,17,417,1708.9840843238198,1709.9396633175347,"[65, 0, 189]",189,l,0.4323194840399083,colour,0.5
027,19,0,1,9,18,418,1711.9530446002027,1712.6995792552189,"[16, 0, 238]",238,a,0.22377217790926807,colour,0.5
027,19,0,1,9,19,419,1714.7187729045545,1715.387572373962,"[17, 0, 237]",237,a,0.14545016303600278,colour,0.5
027,19,0,1,9,20,420,1717.4065714637836,1718.3396213336382,"[44, 0, 210]",210,a,0.4098198985593626,colour,0.5
027,19,0,1,9,21,421,1720.3599630415702,1720.939636536059,"[70, 0, 184]",184,l,0.05702483863569796,colour,0.5
027,19,0,1,9,22,422,1722.9538791580562,1723.5796077223495,"[97, 0, 157]",157,l,0.1024922914657509,colour,0.5
027,19,0,1,9,23,423,1725.5946998683357,1726.2435577764845,"[19, 0, 235]",235,a,0.12571182586543728,colour,0.5
027,19,0,1,9,24,424,1728.25123775682,1729.4995996563957,"[11, 0, 243]",243,a,0.725265047934954,colour,0.5
027,19,0,1,9,25,425,1731.5179099110683,1732.3236284638115,"[88, 0, 166]",166,l,0.282589405804174,colour,0.5
027,19,0,1,9,26,426,1734.33053847689,1735.1075512323587,"[39, 0, 215]",215,a,0.2538056271878304,colour,0.5
027,19,0,1,9,27,427,1737.127664510088,1737.8355192395247,"[99, 0, 155]",155,l,0.18350545022985898,colour,0.5
027,19,0,1,9,28,428,1739.847942296954,1740.7555544965435,"[62, 0, 192]",192,l,0.3842924315977143,colour,0.5
027,19,0,1,9,29,429,1742.7700409086829,1743.5555768669437,"[66, 0, 188]",188,l,0.2629018746665679,colour,0.5
027,19,0,1,9,30,430,1745.5670960497664,1746.3235335471254,"[15, 0, 239]",239,a,0.23311064015433658,colour,0.5
027,19,0,1,9,31,431,1748.332972046046,1748.9235282696027,"[1, 0, 253]",253,a,0.0672986830904847,colour,0.5
027,19,0,1,9,32,432,1750.9425537470524,1751.8518070993596,"[80, 0, 174]",174,l,0.38608600238512736,colour,0.5
027,19,0,1,9,33,433,1753.864648026487,1754.5394906558213,"[5, 0, 249]",249,a,0.1515791811834788,colour,0.5
027,19,0,1,9,34,434,1756.5522988938028,1757.1795193434955,"[89, 0, 165]",165,l,0.10389753093477339,colour,0.5
027,19,0,1,9,35,435,1759.1932665083004,1759.9315615290398,"[91, 0, 163]",163,l,0.21519619986065663,colour,0.5
027,19,0,1,9,36,436,1761.9434241448325,1762.5395906924823,"[53, 0, 201]",201,l,0.07301573922450189,colour,0.5
027,19,0,1,9,37,437,1764.5529577967245,1765.299496390202,"[64, 0, 190]",190,l,0.22338108967232984,colour,0.5
027,19,0,1,9,38,438,1767.3187573870528,1767.9394396134885,"[20, 0, 234]",234,a,0.09731913547147997,colour,0.5
027,19,0,1,9,39,439,1769.9596190572192,1770.5634742498078,"[42, 0, 212]",212,a,0.08066145505290478,colour,0.5
027,19,0,1,9,40,440,1772.5848407427984,1773.1234570624074,"[41, 0, 213]",213,a,0.015546643277048133,colour,0.5
027,19,0,1,9,41,441,1775.1323134581908,1775.6994516494015,"[63, 0, 191]",191,l,0.0417141086072661,colour,0.5
027,19,0,1,9,42,442,1777.7110354228207,1778.4434282801958,"[30, 0, 224]",224,a,0.2092345658893464,colour,0.5
027,19,0,1,9,43,443,1780.4524721462803,1781.339482306299,"[45, 0, 209]",209,a,0.36374277343566064,colour,0.5
027,19,0,1,9,44,444,1783.3590347485588,1784.1394239384535,"[81, 0, 173]",173,l,0.2577421094174497,colour,0.5
027,19,0,1,9,45,445,1786.1561213972454,1786.907435363115,"[13, 0, 241]",241,a,0.22816315744421445,colour,0.5
027,19,0,1,9,46,446,1788.9219977873727,1789.643405515948,"[43, 0, 211]",211,a,0.19816397270187736,colour,0.5
027,19,0,1,9,47,447,1791.6565910575882,1792.2995227778301,"[23, 0, 231]",231,a,0.1196497613855172,colour,0.5
027,19,0,1,9,48,448,1794.3129406880907,1794.9714178700815,"[74, 0, 180]",180,l,0.13536851499520708,colour,0.5
027,19,0,1,9,49,449,1796.984983866132,1797.7714032190415,"[56, 0, 198]",198,a,0.2630885572580155,colour,0.5
027,19,0,1,9,50,450,1799.7822619235521,1800.5233764816949,"[98, 0, 156]",156,l,0.23058215432683937,colour,0.5
027,19,0,1,10,1,451,1807.6756153534952,1808.691354980896,"[29, 0, 225]",225,a,0.4915703354345169,colour,0.5
027,19,0,1,10,2,452,1810.7080804026918,1811.507410787177,"[38, 0, 216]",216,a,0.2761307392647723,colour,0.5
027,19,0,1,10,3,453,1813.5208629619738,1814.2193630815018,"[7, 0, 247]",247,a,0.17538790793332737,colour,0.5
027,19,0,1,10,4,454,1816.2396461064927,1817.0913350523333,"[54, 0, 200]",200,l,0.3288575458282139,colour,0.5
027,19,0,1,10,5,455,1819.1006825730146,1819.8593263908842,"[17, 0, 237]",237,a,0.23545795722748153,colour,0.5
027,19,0,1,10,6,456,1821.8664557757147,1822.5553287445073,"[84, 0, 170]",170,l,0.16594625826110132,colour,0.5
027,19,0,1,10,7,457,1824.571815102303,1825.6115324160055,"[75, 0, 179]",179,l,0.5165728067950113,colour,0.5
027,19,0,1,10,8,458,1827.6188213081186,1828.315313605097,"[10, 0, 244]",244,a,0.17314535366313066,colour,0.5
027,19,0,1,10,9,459,1830.3222582765447,1831.1953916967177,"[40, 0, 214]",214,a,0.35002160241128877,colour,0.5
027,19,0,1,10,10,460,1833.213115122111,1833.9393155522703,"[93, 0, 161]",161,l,0.20169164366961922,colour,0.5
027,19,0,1,10,11,461,1835.9519414399401,1836.7633199412812,"[35, 0, 219]",219,a,0.2882517174584791,colour,0.5
027,19,0,1,10,12,462,1838.7802123534202,1839.4912781023158,"[82, 0, 172]",172,l,0.18786807289870922,colour,0.5
027,19,0,1,10,13,463,1841.4992503157555,1842.2992514185316,"[5, 0, 249]",249,a,0.2768447805137839,colour,0.5
027,19,0,1,10,14,464,1844.3118851831096,1844.9072352897783,"[67, 0, 187]",187,l,0.07228594417392742,colour,0.5
027,19,0,1,10,15,465,1846.9215011486376,1847.5952626730432,"[13, 0, 241]",241,a,0.15052879617724102,colour,0.5
027,19,0,1,10,16,466,1849.6091697389784,1850.3712293757999,"[15, 0, 239]",239,a,0.23887653309793677,colour,0.5
027,19,0,1,10,17,467,1852.3908089933684,1853.1392608865572,"[49, 0, 205]",205,l,0.2255566902604187,colour,0.5
027,19,0,1,10,18,468,1855.1566554512683,1855.915261066155,"[51, 0, 203]",203,l,0.23542172346787993,colour,0.5
027,19,0,1,10,19,469,1857.9224353493337,1858.7312696110166,"[55, 0, 199]",199,l,0.28557278277003206,colour,0.5
027,19,0,1,10,20,470,1860.7507988164143,1861.411218442663,"[19, 0, 235]",235,a,0.13719162417692132,colour,0.5
027,19,0,1,10,21,471,1863.4229231265344,1864.2352220439789,"[99, 0, 155]",155,l,0.28910636142245494,colour,0.5
027,19,0,1,10,22,472,1866.2513689072512,1866.8672663090256,"[0, 0, 254]",254,a,0.09154812256747391,colour,0.5
027,19,0,1,10,23,473,1868.877780792871,1869.4351957351173,"[53, 0, 201]",201,l,0.03466900662169792,colour,0.5
027,19,0,1,10,24,474,1871.455585098316,1872.3392070085392,"[39, 0, 215]",215,a,0.3608708546234993,colour,0.5
027,19,0,1,10,25,475,1874.3478775094263,1875.6032321295643,"[47, 0, 207]",207,l,0.7321734856377589,colour,0.5
027,19,0,1,10,26,476,1877.6137281026895,1878.243197014337,"[87, 0, 167]",167,l,0.1062527249159757,colour,0.5
027,19,0,1,10,27,477,1880.2546169481793,1881.2752245015727,"[52, 0, 202]",202,a,0.497588289246778,colour,0.5
027,19,0,1,10,28,478,1883.286050910785,1883.9231966519874,"[91, 0, 163]",163,l,0.11398902510700282,colour,0.5
027,19,0,1,10,29,479,1885.9426002207765,1886.9312137637753,"[97, 0, 157]",157,l,0.46554150359588675,colour,0.5
027,19,0,1,10,30,480,1888.9439920695295,1889.6591368726076,"[83, 0, 171]",171,l,0.19196169935457874,colour,0.5
027,19,0,1,10,31,481,1891.678582188979,1892.323144821974,"[63, 0, 191]",191,l,0.12151737506792415,colour,0.5
027,19,0,1,10,32,482,1894.3349519055919,1895.0751602260425,"[41, 0, 213]",213,a,0.2169239985232707,colour,0.5
027,19,0,1,10,33,483,1897.0877546061092,1898.1231506508775,"[28, 0, 226]",226,a,0.5122511440131348,colour,0.5
027,19,0,1,10,34,484,1900.1347300920024,1901.363156338004,"[90, 0, 164]",164,l,0.7052431422634982,colour,0.5
027,19,0,1,10,35,485,1903.3694271404092,1904.1391640006623,"[20, 0, 234]",234,a,0.24663410092762206,colour,0.5
027,19,0,1,10,36,486,1906.151006136497,1906.867135946275,"[16, 0, 238]",238,a,0.19304044119780883,colour,0.5
027,19,0,1,10,37,487,1908.8895284058817,1909.6431302181882,"[94, 0, 160]",160,l,0.23031315808475483,colour,0.5
027,19,0,1,10,38,488,1911.655385103746,1912.379116518685,"[62, 0, 192]",192,l,0.20048884059360716,colour,0.5
027,19,0,1,10,39,489,1914.390014213859,1914.9950729972188,"[33, 0, 221]",221,a,0.08216870042087976,colour,0.5
027,19,0,1,10,40,490,1917.0152658316802,1917.5551038589329,"[3, 0, 251]",251,a,0.016660043504089117,colour,0.5
027,19,0,1,10,41,491,1919.5621485670417,1920.595146882566,"[36, 0, 218]",218,a,0.5099211561318953,colour,0.5
027,19,0,1,10,42,492,1922.6106706828286,1923.6030474161962,"[23, 0, 231]",231,a,0.4691727558383718,colour,0.5
027,19,0,1,10,43,493,1925.6108798146015,1926.315070996483,"[30, 0, 224]",224,a,0.18103170886752196,colour,0.5
027,19,0,1,10,44,494,1928.330621972069,1929.7470750105567,"[59, 0, 195]",195,l,0.8932210979692172,colour,0.5
027,19,0,1,10,45,495,1931.7683434361097,1932.331049687884,"[86, 0, 168]",168,l,0.03826481279975269,colour,0.5
027,19,0,1,10,46,496,1934.3479484015552,1935.163023139583,"[79, 0, 175]",175,l,0.2918825758679304,colour,0.5
027,19,0,1,10,47,497,1937.1776698467002,1937.7790457841038,"[72, 0, 182]",182,l,0.0782479719928233,colour,0.5
027,19,0,1,10,48,498,1939.787210587805,1940.3950589763408,"[57, 0, 197]",197,l,0.08462353721552063,colour,0.5
027,19,0,1,10,49,499,1942.4124377872358,1943.0670686775265,"[77, 0, 177]",177,l,0.13208227109862491,colour,0.5
027,19,0,1,10,50,500,1945.0866872857587,1946.171227721643,"[46, 0, 208]",208,a,0.5613073138083564,colour,0.5
027,19,0,1,11,1,501,1953.694421459193,1954.3709773149021,"[96, 0, 158]",158,l,0.1527016398467822,colour,0.5
027,19,0,1,11,2,502,1956.3853034320782,1957.0430118283402,"[59, 0, 195]",195,l,0.1347942887659883,colour,0.5
027,19,0,1,11,3,503,1959.0575002097175,1959.5949838306842,"[0, 0, 254]",254,a,0.012803905687178485,colour,0.5
027,19,0,1,11,4,504,1961.5943091739464,1962.1789616587776,"[6, 0, 248]",248,a,0.061406365886796266,colour,0.5
027,19,0,1,11,5,505,1964.1882926379621,1964.747040746035,"[90, 0, 164]",164,l,0.03545906000363175,colour,0.5
027,19,0,1,11,6,506,1966.7665746775601,1967.4189574997727,"[79, 0, 175]",175,l,0.12783110659802333,colour,0.5
027,19,0,1,11,7,507,1969.4393693121237,1970.1389592011838,"[18, 0, 236]",236,a,0.17668759691878222,colour,0.5
027,19,0,1,11,8,508,1972.1583525299939,1972.7550098087086,"[95, 0, 159]",159,l,0.07345054428151343,colour,0.5
027,19,0,1,11,9,509,1974.7680405691935,1975.706959913252,"[50, 0, 204]",204,l,0.4158862953336211,colour,0.5
027,19,0,1,11,10,510,1977.7212123813806,1978.4189511982404,"[2, 0, 252]",252,a,0.17444149803486653,colour,0.5
027,19,0,1,11,11,511,1980.4423286645615,1981.218942454885,"[44, 0, 210]",210,a,0.25351260638854,colour,0.5
027,19,0,1,11,12,512,1983.239424765532,1983.9229351388203,"[1, 0, 253]",253,a,0.16035247565014288,colour,0.5
027,19,0,1,11,13,513,1985.9427333404456,1986.5789606347826,"[67, 0, 187]",187,l,0.11308121205365751,colour,0.5
027,19,0,1,11,14,514,1988.6013156790868,1989.202903505182,"[87, 0, 167]",167,l,0.07850121443334501,colour,0.5
027,19,0,1,11,15,515,1991.210839484862,1991.770901854179,"[23, 0, 231]",231,a,0.0369076224451419,colour,0.5
027,19,0,1,11,16,516,1993.7890998629737,1994.5389176111348,"[11, 0, 243]",243,a,0.22659053376992233,colour,0.5
027,19,0,1,11,17,517,1996.5549573485332,1997.1709047686309,"[47, 0, 207]",207,l,0.09306048792495858,colour,0.5
027,19,0,1,11,18,518,1999.1802436247235,2000.1228741715895,"[34, 0, 220]",220,a,0.4194852522778092,colour,0.5
027,19,0,1,11,19,519,2002.1335040520644,2002.7789433843573,"[14, 0, 240]",240,a,0.12208096747053787,colour,0.5
027,19,0,1,11,20,520,2004.7907347141736,2005.3468649335555,"[93, 0, 161]",161,l,0.032905761909205467,colour,0.5
027,19,0,1,11,21,521,2007.3534358459729,2008.346890927336,"[80, 0, 174]",174,l,0.47024598385905847,colour,0.5
027,19,0,1,11,22,522,2010.3536934206932,2010.9948705608113,"[75, 0, 179]",179,l,0.1179759195074439,colour,0.5
027,19,0,1,11,23,523,2013.0101564786019,2013.9149235408695,"[86, 0, 168]",168,l,0.38159853080287576,colour,0.5
027,19,0,1,11,24,524,2015.9322330350114,2016.8827983800293,"[51, 0, 203]",203,l,0.42734482599189505,colour,0.5
027,19,0,1,11,25,525,2018.905275910176,2019.9068449892366,"[56, 0, 198]",198,l,0.4784147260215832,colour,0.5
027,19,0,1,11,26,526,2021.9211711064127,2022.5549116624898,"[28, 0, 226]",226,a,0.10895489645190537,colour,0.5
027,19,0,1,11,27,527,2024.563885030293,2025.290818406269,"[7, 0, 247]",247,a,0.20366953399206977,colour,0.5
027,19,0,1,11,28,528,2027.297904468127,2027.9228012314707,"[5, 0, 249]",249,a,0.10214649542467669,colour,0.5
027,19,0,1,11,29,529,2029.9386188401986,2030.6347858210938,"[98, 0, 156]",156,l,0.1733580300497124,colour,0.5
027,19,0,1,11,30,530,2032.6419104797824,2033.3707863000163,"[16, 0, 238]",238,a,0.2057065010885708,colour,0.5
027,19,0,1,11,31,531,2035.3936537368572,2036.0347788894142,"[38, 0, 216]",216,a,0.11831462633563206,colour,0.5
027,19,0,1,11,32,532,2038.0500415703427,2038.7787637909787,"[24, 0, 230]",230,a,0.20542568950622808,colour,0.5
027,19,0,1,11,33,533,2040.800256314411,2041.394819912326,"[88, 0, 166]",166,l,0.07139309722697362,colour,0.5
027,19,0,1,11,34,534,2043.4119730499515,2044.4987615539285,"[12, 0, 242]",242,a,0.5641630849713692,colour,0.5
027,19,0,1,11,35,535,2046.506430900452,2047.2587365684012,"[20, 0, 234]",234,l,0.2294325203547487,colour,0.5
027,19,0,1,11,36,536,2049.272219463106,2049.9947784010583,"[32, 0, 222]",222,a,0.1992399576411117,colour,0.5
027,19,0,1,11,37,537,2052.006869053177,2052.6427686683455,"[3, 0, 251]",251,a,0.11263931779831182,colour,0.5
027,19,0,1,11,38,538,2054.6633021788584,2055.3467255123687,"[84, 0, 170]",170,l,0.16030954652524088,colour,0.5
027,19,0,1,11,39,539,2057.367134567816,2058.0188218594994,"[30, 0, 224]",224,a,0.12839076055388432,colour,0.5
027,19,0,1,11,40,540,2060.039169081254,2060.9388047351094,"[73, 0, 181]",181,l,0.3763009197427891,colour,0.5
027,19,0,1,11,41,541,2062.945721837401,2063.6187196960673,"[97, 0, 157]",157,l,0.15003136976156384,colour,0.5
027,19,0,1,11,42,542,2065.6342001733574,2066.234720285269,"[82, 0, 172]",172,l,0.07731416515889578,colour,0.5
027,19,0,1,11,43,543,2068.243745246771,2069.0187261551328,"[89, 0, 165]",165,l,0.25176472164457664,colour,0.5
027,19,0,1,11,44,544,2071.0252064831584,2071.8987176008086,"[53, 0, 201]",201,l,0.3503382538910955,colour,0.5
027,19,0,1,11,45,545,2073.916145248513,2074.5546993799653,"[99, 0, 155]",155,l,0.11538953844865318,colour,0.5
027,19,0,1,11,46,546,2076.572472429849,2077.162673798928,"[25, 0, 229]",229,a,0.06690759486809839,colour,0.5
027,19,0,1,11,47,547,2079.182042709348,2079.8266407884075,"[57, 0, 197]",197,l,0.11989906536473427,colour,0.5
027,19,0,1,11,48,548,2081.8273012667196,2082.5947191667365,"[40, 0, 214]",214,a,0.24425173163763247,colour,0.5
027,19,0,1,11,49,549,2084.6087353277835,2085.218669914044,"[54, 0, 200]",200,l,0.08683615924383048,colour,0.5
027,19,0,1,11,50,550,2087.2351787210064,2087.866675147452,"[17, 0, 237]",237,a,0.10818256612401456,colour,0.5
027,19,0,1,12,1,551,2095.3451221687865,2096.218632498756,"[10, 0, 244]",244,a,0.3497092832112685,colour,0.5
027,19,0,1,12,2,552,2098.2367623723403,2098.9226062781236,"[75, 0, 179]",179,l,0.16253713467449415,colour,0.5
027,19,0,1,12,3,553,2100.940192251568,2101.5386466456694,"[21, 0, 233]",233,a,0.07525081043422688,colour,0.5
027,19,0,1,12,4,554,2103.551395806877,2104.2346883838036,"[52, 0, 202]",202,l,0.1609515141171869,colour,0.5
027,19,0,1,12,5,555,2106.2545090346102,2106.970577798391,"[47, 0, 207]",207,l,0.19296600446978118,colour,0.5
027,19,0,1,12,6,556,2108.9902342157584,2109.5705756716197,"[91, 0, 163]",163,l,0.057381268474273384,colour,0.5
027,19,0,1,12,7,557,2111.584255095062,2112.2745604786614,"[4, 0, 250]",250,a,0.1670663538534427,colour,0.5
027,19,0,1,12,8,558,2114.2899653376808,2115.378548593988,"[5, 0, 249]",249,a,0.565408029477112,colour,0.5
027,19,0,1,12,9,559,2117.3995204541425,2118.058685289754,"[83, 0, 171]",171,l,0.13624363890266977,colour,0.5
027,19,0,1,12,10,560,2120.071593564411,2120.7786409112887,"[15, 0, 239]",239,a,0.18378074798965827,colour,0.5
027,19,0,1,12,11,561,2122.790577569962,2123.354574846133,"[78, 0, 176]",176,l,0.040797237103106454,colour,0.5
027,19,0,1,12,12,562,2125.3688442495913,2126.234562353362,"[0, 0, 254]",254,a,0.34260943677509204,colour,0.5
027,19,0,1,12,13,563,2128.245405697904,2128.9386223848123,"[64, 0, 190]",190,l,0.16663745648111217,colour,0.5
027,19,0,1,12,14,564,2130.9520477781334,2131.5545867402543,"[76, 0, 178]",178,l,0.07930032622243743,colour,0.5
027,19,0,1,12,15,565,2133.561689343609,2134.1544979675527,"[45, 0, 209]",209,l,0.06991499640571419,colour,0.5
027,19,0,1,12,16,566,2136.171200546334,2136.738515574005,"[61, 0, 193]",193,l,0.04271171834261622,colour,0.5
027,19,0,1,12,17,567,2138.7508614377875,2139.5145708919154,"[22, 0, 232]",232,a,0.24048381512693595,colour,0.5
027,19,0,1,12,18,568,2141.5323175541853,2142.0824995303265,"[86, 0, 168]",168,l,0.026844878957490437,colour,0.5
027,19,0,1,12,19,569,2144.096462522284,2144.954486467279,"[41, 0, 213]",213,l,0.33479476139473263,colour,0.5
027,19,0,1,12,20,570,2146.971350916414,2147.71450559239,"[97, 0, 157]",157,l,0.2199054062657524,colour,0.5
027,19,0,1,12,21,571,2149.723967328173,2150.3145267024956,"[59, 0, 195]",195,l,0.06738217826932669,colour,0.5
027,19,0,1,12,22,572,2152.333630161287,2152.9224451954506,"[20, 0, 234]",234,a,0.06566186266718432,colour,0.5
027,19,0,1,12,23,573,2154.943057081153,2155.586477169374,"[92, 0, 162]",162,l,0.12018814770272002,colour,0.5
027,19,0,1,12,24,574,2157.6016701397166,2158.490495138176,"[29, 0, 225]",225,a,0.3655816364189377,colour,0.5
027,19,0,1,12,25,575,2160.5082091112854,2161.44244760579,"[43, 0, 211]",211,a,0.41102230778778903,colour,0.5
027,19,0,1,12,26,576,2163.4634257674625,2164.1704549974675,"[88, 0, 166]",166,l,0.18374608960584737,colour,0.5
027,19,0,1,12,27,577,2166.1824404929503,2166.810510860465,"[69, 0, 185]",185,l,0.10481676550989505,colour,0.5
027,19,0,1,12,28,578,2168.8119452444953,2169.5304467897367,"[11, 0, 243]",243,a,0.1955425394116901,colour,0.5
027,19,0,1,12,29,579,2171.54651094554,2172.0984636494686,"[93, 0, 161]",161,l,0.028719581867335364,colour,0.5
027,19,0,1,12,30,580,2174.1105995937833,2174.6584850588843,"[30, 0, 224]",224,a,0.024705512129003182,colour,0.5
027,19,0,1,12,31,581,2176.6727308316476,2177.2264306326397,"[67, 0, 187]",187,l,0.030438322079135105,colour,0.5
027,19,0,1,12,32,582,2179.2354859202314,2179.7783801858022,"[73, 0, 181]",181,l,0.01963475589582231,colour,0.5
027,19,0,1,12,33,583,2181.7991208588646,2182.4584164510597,"[66, 0, 188]",188,l,0.13603529482497834,colour,0.5
027,19,0,1,12,34,584,2184.471290067333,2185.010454225543,"[82, 0, 172]",172,l,0.016016106703318655,colour,0.5
027,19,0,1,12,35,585,2187.01825432865,2187.738401358918,"[9, 0, 245]",245,a,0.19689342826313805,colour,0.5
027,19,0,1,12,36,586,2189.752929518654,2190.514415323094,"[35, 0, 219]",219,a,0.23836532208952121,colour,0.5
027,19,0,1,12,37,587,2192.5343828781333,2193.0584245642676,"[63, 0, 191]",191,l,0.0009676775225671008,colour,0.5
027,19,0,1,12,38,588,2195.0839020128915,2195.8264292935637,"[80, 0, 174]",174,l,0.2193886814347934,colour,0.5
027,19,0,1,12,39,589,2197.834008449543,2198.5943777030043,"[18, 0, 236]",236,a,0.23711643913702574,colour,0.5
027,19,0,1,12,40,590,2200.617656314178,2201.2343410123867,"[25, 0, 229]",229,a,0.09345669613685459,colour,0.5
027,19,0,1,12,41,591,2203.2415653138887,2203.8184125756234,"[85, 0, 169]",169,l,0.05364289035787806,colour,0.5
027,19,0,1,12,42,592,2205.8355066364747,2206.5543752454105,"[8, 0, 246]",246,a,0.1956811729032779,colour,0.5
027,19,0,1,12,43,593,2208.5700152299833,2209.5063340145425,"[84, 0, 170]",170,l,0.41298956428363454,colour,0.5
027,19,0,1,12,44,594,2211.523418229277,2212.11434545496,"[96, 0, 158]",158,l,0.06775869423290715,colour,0.5
027,19,0,1,12,45,595,2214.133036557876,2214.7063124318374,"[31, 0, 223]",223,a,0.04880135199346114,colour,0.5
027,19,0,1,12,46,596,2216.712634040261,2217.4903821046173,"[32, 0, 222]",222,a,0.25453896683757193,colour,0.5
027,19,0,1,12,47,597,2219.5069968559255,2220.1623874735087,"[26, 0, 228]",228,a,0.13255724834743887,colour,0.5
027,19,0,1,12,48,598,2222.182534621941,2225.41828363073,"[23, 0, 231]",231,a,2.7126482187013607,colour,0.5
027,19,0,1,12,49,599,2227.4362579354784,2228.1223078222683,"[99, 0, 155]",155,l,0.16285575539222918,colour,0.5
027,19,0,1,12,50,600,2230.1417720432073,2230.834271931948,"[40, 0, 214]",214,a,0.16926991743093822,colour,0.5
027,19,0,1,13,1,601,2238.735798436348,2239.810248165755,"[74, 0, 180]",180,l,0.5504222216841299,colour,0.5
027,19,0,1,13,2,602,2241.832913560036,2242.5863058467366,"[77, 0, 177]",177,l,0.22997208818560466,colour,0.5
027,19,0,1,13,3,603,2244.608314701167,2245.274284787054,"[78, 0, 176]",176,l,0.14276256375887897,colour,0.5
027,19,0,1,13,4,604,2247.2720965834305,2248.2663334474055,"[63, 0, 191]",191,l,0.47682556086510886,colour,0.5
027,19,0,1,13,5,605,2250.281836373877,2251.194244425802,"[94, 0, 160]",160,l,0.3891631145088468,colour,0.5
027,19,0,1,13,6,606,2253.195843043257,2253.914247308756,"[33, 0, 221]",221,a,0.20147345346049406,colour,0.5
027,19,0,1,13,7,607,2255.9241017081367,2256.5302195410914,"[4, 0, 250]",250,a,0.09095026562863495,colour,0.5
027,19,0,1,13,8,608,2258.541210577576,2259.3382062480377,"[34, 0, 220]",220,a,0.2743860052723903,colour,0.5
027,19,0,1,13,9,609,2261.354032521369,2262.0981714163645,"[71, 0, 183]",183,l,0.2210455879685469,colour,0.5
027,19,0,1,13,10,610,2264.119729318103,2265.314209263306,"[93, 0, 161]",161,l,0.6711763248604257,colour,0.5
027,19,0,1,13,11,611,2267.3231255235587,2267.9782120926975,"[99, 0, 155]",155,l,0.1318392686516745,colour,0.5
027,19,0,1,13,12,612,2269.984115831423,2270.6822169858206,"[75, 0, 179]",179,l,0.17498224742303137,colour,0.5
027,19,0,1,13,13,613,2272.703068723218,2273.378205161018,"[37, 0, 217]",217,a,0.15194742639141623,colour,0.5
027,19,0,1,13,14,614,2275.390742433534,2276.5061662365188,"[66, 0, 188]",188,l,0.5925805876177037,colour,0.5
027,19,0,1,13,15,615,2278.515932808441,2279.2741493043286,"[82, 0, 172]",172,l,0.23538785279379226,colour,0.5
027,19,0,1,13,16,616,2281.2817832047876,2282.0421709689545,"[22, 0, 232]",232,a,0.23710186686366796,colour,0.5
027,19,0,1,13,17,617,2284.0483433100744,2284.674116772716,"[12, 0, 242]",242,a,0.10304367466596887,colour,0.5
027,19,0,1,13,18,618,2286.691393183879,2287.258150920665,"[32, 0, 222]",222,a,0.043549033129238524,colour,0.5
027,19,0,1,13,19,619,2289.2696972787962,2290.010137574034,"[56, 0, 198]",198,l,0.2172252900491003,colour,0.5
027,19,0,1,13,20,620,2292.0199250197475,2292.794225363701,"[44, 0, 210]",210,a,0.24982700352848042,colour,0.5
027,19,0,1,13,21,621,2294.803380687954,2295.3381136944226,"[28, 0, 226]",226,a,0.012218257950735278,colour,0.5
027,19,0,1,13,22,622,2297.349757332311,2297.9540989236557,"[39, 0, 215]",215,a,0.08099228497303557,colour,0.5
027,19,0,1,13,23,623,2299.9758344495494,2300.7621510088793,"[38, 0, 216]",216,a,0.2631295171449892,colour,0.5
027,19,0,1,13,24,624,2302.7728730491363,2303.5460978019837,"[43, 0, 211]",211,a,0.24999753847077955,colour,0.5
027,19,0,1,13,25,625,2305.5542732395115,2306.1301228914963,"[60, 0, 194]",194,l,0.052535003967932425,colour,0.5
027,19,0,1,13,26,626,2308.1496631245536,2308.9220856148313,"[41, 0, 213]",213,l,0.24914998370513786,colour,0.5
027,19,0,1,13,27,627,2310.9312074622576,2311.5780484894203,"[64, 0, 190]",190,l,0.1235767913312884,colour,0.5
027,19,0,1,13,28,628,2313.5877095108444,2314.2021551993967,"[23, 0, 231]",231,a,0.09117239428451285,colour,0.5
027,19,0,1,13,29,629,2316.212937497956,2316.9860563064576,"[72, 0, 182]",182,l,0.24871281560626812,colour,0.5
027,19,0,1,13,30,630,2318.983922453466,2319.6981157266564,"[92, 0, 162]",162,l,0.19098299415782094,colour,0.5
027,19,0,1,13,31,631,2321.7185236005753,2322.482045190569,"[1, 0, 253]",253,a,0.24030264635803178,colour,0.5
027,19,0,1,13,32,632,2324.5012963412883,2325.426111696841,"[48, 0, 206]",206,a,0.40164131026540417,colour,0.5
027,19,0,1,13,33,633,2327.4390629006084,2328.5220697034965,"[29, 0, 225]",225,a,0.5597591085534077,colour,0.5
027,19,0,1,13,34,634,2330.533906325494,2331.482051885934,"[19, 0, 235]",235,a,0.424791134064435,colour,0.5
027,19,0,1,13,35,635,2333.5029075617786,2334.058037414492,"[87, 0, 167]",167,l,0.031984951958293095,colour,0.5
027,19,0,1,13,36,636,2336.065511413821,2336.706008777226,"[7, 0, 247]",247,a,0.11716184159740806,colour,0.5
027,19,0,1,13,37,637,2338.722081597618,2339.5939755871077,"[50, 0, 204]",204,a,0.3486025783495279,colour,0.5
027,19,0,1,13,38,638,2341.6128836987045,2342.490024099374,"[35, 0, 219]",219,a,0.3542782807344338,colour,0.5
027,19,0,1,13,39,639,2344.5038177379174,2345.290024414455,"[9, 0, 245]",245,a,0.26301254515419714,colour,0.5
027,19,0,1,13,40,640,2347.3008681528445,2348.2900165375468,"[27, 0, 227]",227,a,0.46600781624147203,colour,0.5
027,19,0,1,13,41,641,2350.301004423265,2351.0580441098573,"[61, 0, 193]",193,l,0.23368841098272242,colour,0.5
027,19,0,1,13,42,642,2353.066877268793,2353.682002340225,"[90, 0, 164]",164,l,0.09187068173196167,colour,0.5
027,19,0,1,13,43,643,2355.6920233361016,2356.3620133993973,"[98, 0, 156]",156,l,0.14675654738675803,colour,0.5
027,19,0,1,13,44,644,2358.3797943261743,2359.050045508804,"[46, 0, 208]",208,a,0.14703381436993368,colour,0.5
027,19,0,1,13,45,645,2361.067514116381,2362.058191407952,"[54, 0, 200]",200,l,0.4674236895516515,colour,0.5
027,19,0,1,13,46,646,2364.068915417418,2364.737954738521,"[53, 0, 201]",201,l,0.1458168328681495,colour,0.5
027,19,0,1,13,47,647,2366.7566588383343,2367.745952945741,"[55, 0, 199]",199,l,0.4660468069196213,colour,0.5
027,19,0,1,13,48,648,2369.756911293065,2370.6819184511987,"[0, 0, 254]",254,a,0.40182720516168047,colour,0.5
027,19,0,1,13,49,649,2372.694621138682,2373.417902782472,"[79, 0, 175]",175,l,0.20018006600730587,colour,0.5
027,19,0,1,13,50,650,2375.430626737594,2376.2339014812023,"[30, 0, 224]",224,a,0.2800912460370455,colour,0.5
027,19,0,1,14,1,651,2410.546385702779,2411.329839401762,"[1, 0, 253]",253,a,0.25974678120110184,colour,0.5
027,19,0,1,14,2,652,2413.344369136874,2413.993807966617,"[82, 0, 172]",172,l,0.12636088267026935,colour,0.5
027,19,0,1,14,3,653,2416.000779419541,2417.2578645952453,"[94, 0, 160]",160,l,0.7339292472897796,colour,0.5
027,19,0,1,14,4,654,2419.267528373588,2420.049820623215,"[6, 0, 248]",248,a,0.25895160784421023,colour,0.5
027,19,0,1,14,5,655,2422.0661332953023,2423.3457755578856,"[52, 0, 202]",202,l,0.7563335222512251,colour,0.5
027,19,0,1,14,6,656,2425.3632370762643,2426.0417633392353,"[32, 0, 222]",222,a,0.1552395779726794,colour,0.5
027,19,0,1,14,7,657,2428.050993100216,2428.72201306856,"[18, 0, 236]",236,a,0.1477285572036635,colour,0.5
027,19,0,1,14,8,658,2430.7387759056437,2431.4818435418565,"[38, 0, 216]",216,a,0.21991682778752875,colour,0.5
027,19,0,1,14,9,659,2433.4888937638025,2434.1777572803257,"[61, 0, 193]",193,l,0.1656485113344388,colour,0.5
027,19,0,1,14,10,660,2436.192197218741,2436.841810521888,"[78, 0, 176]",176,l,0.1248433973378269,colour,0.5
027,19,0,1,14,11,661,2438.850256137186,2439.449762885517,"[47, 0, 207]",207,l,0.07629371237999294,colour,0.5
027,19,0,1,14,12,662,2441.4597858506313,2442.161754958215,"[93, 0, 161]",161,l,0.17877576388127636,colour,0.5
027,19,0,1,14,13,663,2444.179982899237,2444.905746948978,"[23, 0, 231]",231,a,0.20253447227878496,colour,0.5
027,19,0,1,14,14,664,2446.914428871358,2447.5137599647715,"[21, 0, 233]",233,a,0.07594831018650439,colour,0.5
027,19,0,1,14,15,665,2449.5142258835695,2450.35372847291,"[16, 0, 238]",238,a,0.31627301187836565,colour,0.5
027,19,0,1,14,16,666,2452.373767707759,2453.113703093535,"[72, 0, 182]",182,l,0.21651833802752662,colour,0.5
027,19,0,1,14,17,667,2455.1239785133803,2456.0337273228797,"[13, 0, 241]",241,a,0.38644361378101166,colour,0.5
027,19,0,1,14,18,668,2458.046147229543,2458.7856612010073,"[37, 0, 217]",217,a,0.21632850465539377,colour,0.5
027,19,0,1,14,19,669,2460.796399388899,2461.5457118337363,"[0, 0, 254]",254,a,0.2262727007328067,colour,0.5
027,19,0,1,14,20,670,2463.562111939449,2464.3216797180357,"[98, 0, 156]",156,l,0.23649770842166618,colour,0.5
027,19,0,1,14,21,671,2466.3280186556512,2466.961694227284,"[26, 0, 228]",228,a,0.11057675076881424,colour,0.5
027,19,0,1,14,22,672,2468.9700768273615,2469.5217680181086,"[96, 0, 158]",158,l,0.028551803829031996,colour,0.5
027,19,0,1,14,23,673,2471.532762599192,2472.161742749013,"[63, 0, 191]",191,l,0.10577183999703266,colour,0.5
027,19,0,1,14,24,674,2474.1744450426486,2474.937678731847,"[36, 0, 218]",218,a,0.24012108375609387,colour,0.5
027,19,0,1,14,25,675,2476.9558456268715,2477.569639501715,"[60, 0, 194]",194,l,0.09053554669662844,colour,0.5
027,19,0,1,14,26,676,2479.5810822785716,2480.5056719608547,"[64, 0, 190]",190,l,0.40131678186298814,colour,0.5
027,19,0,1,14,27,677,2482.5205707288696,2483.185609764827,"[83, 0, 171]",171,l,0.14181536617979873,colour,0.5
027,19,0,1,14,28,678,2485.19262847917,2485.7856422964396,"[73, 0, 181]",181,l,0.06998273776844144,colour,0.5
027,19,0,1,14,29,679,2487.8047741120827,2488.393639164584,"[84, 0, 170]",170,l,0.06570991178159602,colour,0.5
027,19,0,1,14,30,680,2490.41432115472,2491.2255996193853,"[9, 0, 245]",245,a,0.2881111147435149,colour,0.5
027,19,0,1,14,31,681,2493.2410883674165,2494.0016368204233,"[95, 0, 159]",159,l,0.2348758541047573,colour,0.5
027,19,0,1,14,32,682,2496.0094475573424,2496.713589114748,"[11, 0, 243]",243,a,0.18098326592007652,colour,0.5
027,19,0,1,14,33,683,2498.7284634643584,2499.6975812788005,"[87, 0, 167]",167,l,0.446223399208975,colour,0.5
027,19,0,1,14,34,684,2501.7027178071876,2502.505629819425,"[45, 0, 209]",209,a,0.28001602161384653,colour,0.5
027,19,0,1,14,35,685,2504.515457831192,2505.369582709245,"[76, 0, 178]",178,l,0.3308232269337168,colour,0.5
027,19,0,1,14,36,686,2507.3907554304315,2508.097616882398,"[31, 0, 223]",223,a,0.18407810106873512,colour,0.5
027,19,0,1,14,37,687,2510.1096709069243,2511.041548299778,"[56, 0, 198]",198,a,0.4087167382967891,colour,0.5
027,19,0,1,14,38,688,2513.062967174177,2513.937648405772,"[85, 0, 169]",169,l,0.3513382267265115,colour,0.5
027,19,0,1,14,39,689,2515.953861828879,2516.5935415697604,"[3, 0, 251]",251,a,0.11643204654683359,colour,0.5
027,19,0,1,14,40,690,2518.610292985337,2519.545565717184,"[68, 0, 186]",186,l,0.4120431543997256,colour,0.5
027,19,0,1,14,41,691,2521.5635849202954,2522.249632050167,"[25, 0, 229]",229,a,0.16272893725545146,colour,0.5
027,19,0,1,14,42,692,2524.2684889618977,2525.337543012807,"[4, 0, 250]",250,a,0.5458729164092802,colour,0.5
027,19,0,1,14,43,693,2527.346757413834,2528.0896107982844,"[17, 0, 237]",237,a,0.21966004074783996,colour,0.5
027,19,0,1,14,44,694,2530.096974520973,2530.7775149080117,"[77, 0, 177]",177,l,0.15730214498762507,colour,0.5
027,19,0,1,14,45,695,2532.7846868281194,2533.3855306807236,"[65, 0, 189]",189,l,0.0774854877818143,colour,0.5
027,19,0,1,14,46,696,2535.3942921598355,2536.089510761609,"[88, 0, 166]",166,l,0.17240610632870812,colour,0.5
027,19,0,1,14,47,697,2538.097607823962,2538.6814797077095,"[33, 0, 221]",221,a,0.059086617970024236,colour,0.5
027,19,0,1,14,48,698,2540.693092231828,2541.473487723255,"[62, 0, 192]",192,l,0.25711195718031377,colour,0.5
027,19,0,1,14,49,699,2543.4902690710587,2544.1774788318,"[24, 0, 230]",230,l,0.16405698309245054,colour,0.5
027,19,0,1,14,50,700,2546.1935437752836,2546.937448726283,"[12, 0, 242]",242,a,0.22067931198398583,colour,0.5
027,19,0,1,15,1,701,2554.50587479111,2555.233481642281,"[50, 0, 204]",204,l,0.2035423220077064,colour,0.5
027,19,0,1,15,2,702,2557.2437799051404,2558.0574564928975,"[89, 0, 165]",165,l,0.29048048713593744,colour,0.5
027,19,0,1,15,3,703,2560.0721563691186,2560.6494853034674,"[23, 0, 231]",231,a,0.0544293991260929,colour,0.5
027,19,0,1,15,4,704,2562.6660831194313,2563.2094909590814,"[55, 0, 199]",199,l,0.02015660070173908,colour,0.5
027,19,0,1,15,5,705,2565.2287625897443,2566.0734828395653,"[48, 0, 206]",206,l,0.3200425037648529,colour,0.5
027,19,0,1,15,6,706,2568.0775831613864,2568.6654242165096,"[53, 0, 201]",201,l,0.06465558832860552,colour,0.5
027,19,0,1,15,7,707,2570.671537874703,2571.2654579296504,"[43, 0, 211]",211,l,0.07063612686761189,colour,0.5
027,19,0,1,15,8,708,2573.283017515467,2574.289414348328,"[85, 0, 169]",169,l,0.4831967937934678,colour,0.5
027,19,0,1,15,9,709,2576.297769773082,2576.857467835638,"[61, 0, 193]",193,l,0.0372542061668355,colour,0.5
027,19,0,1,15,10,710,2578.8783097269043,2579.745405894835,"[82, 0, 172]",172,l,0.34413913130993024,colour,0.5
027,19,0,1,15,11,711,2581.753439154272,2582.345376986603,"[3, 0, 251]",251,a,0.06870864873053506,colour,0.5
027,19,0,1,15,12,712,2584.3630826889566,2584.9293544208485,"[86, 0, 168]",168,l,0.04300946528383065,colour,0.5
027,19,0,1,15,13,713,2586.9414793375036,2587.9773554794956,"[62, 0, 192]",192,l,0.5126508968387498,colour,0.5
027,19,0,1,15,14,714,2589.988573370778,2590.617379047195,"[68, 0, 186]",186,l,0.1056981909496244,colour,0.5
027,19,0,1,15,15,715,2592.629328308918,2593.553402054051,"[69, 0, 185]",185,l,0.40139318781439215,colour,0.5
027,19,0,1,15,16,716,2595.5671098343446,2596.1933756034123,"[99, 0, 155]",155,l,0.10311929293675348,colour,0.5
027,19,0,1,15,17,717,2598.2079167600314,2599.3374051670107,"[4, 0, 250]",250,a,0.6048724946158472,colour,0.5
027,19,0,1,15,18,718,2601.3502728755993,2602.0653593895986,"[41, 0, 213]",213,a,0.19191758868691977,colour,0.5
027,19,0,1,15,19,719,2604.0848885949817,2604.7373482169933,"[95, 0, 159]",159,l,0.12922925686871167,colour,0.5
027,19,0,1,15,20,720,2606.756937680693,2607.59333795181,"[12, 0, 242]",242,a,0.3124751631403342,colour,0.5
027,19,0,1,15,21,721,2609.603272695618,2610.569320093302,"[49, 0, 205]",205,l,0.44289343850687146,colour,0.5
027,19,0,1,15,22,722,2612.587914704156,2613.329287624714,"[92, 0, 162]",162,l,0.21819375528139062,colour,0.5
027,19,0,1,15,23,723,2615.3380081439245,2616.0893205344037,"[90, 0, 164]",164,l,0.22810250527982134,colour,0.5
027,19,0,1,15,24,724,2618.1039290385525,2619.081291213428,"[9, 0, 245]",245,a,0.4541932495776564,colour,0.5
027,19,0,1,15,25,725,2621.0785472942953,2621.6572921019397,"[6, 0, 248]",248,a,0.055802343296818435,colour,0.5
027,19,0,1,15,26,726,2623.672425995508,2624.4172537256673,"[93, 0, 161]",161,l,0.2219088965211995,colour,0.5
027,19,0,1,15,27,727,2626.4382618195814,2627.2412399978057,"[38, 0, 216]",216,a,0.2799947539897403,colour,0.5
027,19,0,1,15,28,728,2629.2518466414185,2629.9292532026448,"[13, 0, 241]",241,a,0.15421873136074282,colour,0.5
027,19,0,1,15,29,729,2631.9398330647964,2632.6572385390027,"[47, 0, 207]",207,a,0.19415108452085406,colour,0.5
027,19,0,1,15,30,730,2634.674429879611,2635.305248498553,"[40, 0, 214]",214,a,0.1076327582995873,colour,0.5
027,19,0,1,15,31,731,2637.3152781590325,2637.865258092628,"[14, 0, 240]",240,a,0.026821642110007815,colour,0.5
027,19,0,1,15,32,732,2639.8780056784453,2640.937202966903,"[8, 0, 246]",246,a,0.5337231875164434,colour,0.5
027,19,0,1,15,33,733,2642.942986976719,2643.6172022107203,"[60, 0, 194]",194,l,0.1510136195574887,colour,0.5
027,19,0,1,15,34,734,2645.619406955855,2646.3372023367556,"[24, 0, 230]",230,a,0.1946126710245153,colour,0.5
027,19,0,1,15,35,735,2648.3521940522187,2649.145198889819,"[91, 0, 163]",163,l,0.2698252784757642,colour,0.5
027,19,0,1,15,36,736,2651.139405821581,2651.9292276027118,"[65, 0, 189]",189,a,0.26663513280800544,colour,0.5
027,19,0,1,15,37,737,2653.9364743533806,2654.689264057015,"[63, 0, 191]",191,l,0.22959714761236683,colour,0.5
027,19,0,1,15,38,738,2656.702325143575,2657.5291790022166,"[25, 0, 229]",229,a,0.30370817019138485,colour,0.5
027,19,0,1,15,39,739,2659.5477436808433,2660.361191444579,"[35, 0, 219]",219,a,0.2902284262527246,colour,0.5
027,19,0,1,15,40,740,2662.3770397732296,2663.817212529466,"[36, 0, 218]",218,l,0.9170629076979822,colour,0.5
027,19,0,1,15,41,741,2665.830472507834,2666.825178441388,"[11, 0, 243]",243,a,0.47151140832284,colour,0.5
027,19,0,1,15,42,742,2668.846184566064,2669.577186362396,"[97, 0, 157]",157,l,0.207678877573926,colour,0.5
027,19,0,1,15,43,743,2671.5980361305556,2672.3371798875887,"[5, 0, 249]",249,a,0.21600752086669672,colour,0.5
027,19,0,1,15,44,744,2674.34822881929,2675.1931904961966,"[45, 0, 209]",209,l,0.3216612073156284,colour,0.5
027,19,0,1,15,45,745,2677.2079258184676,2678.0331912996335,"[79, 0, 175]",175,l,0.30211703581153415,colour,0.5
027,19,0,1,15,46,746,2680.051889491777,2680.6571798560763,"[19, 0, 235]",235,a,0.08221162954578176,colour,0.5
027,19,0,1,15,47,747,2682.677054463653,2683.697137415322,"[87, 0, 167]",167,l,0.4970286353054689,colour,0.5
027,19,0,1,15,48,748,2685.7085089062166,2686.4411309814604,"[15, 0, 239]",239,a,0.20997735783748794,colour,0.5
027,19,0,1,15,49,749,2688.4587291641074,2689.513108151048,"[98, 0, 156]",156,l,0.5311588617623784,colour,0.5
027,19,0,1,15,50,750,2691.5214084374893,2692.1451016100764,"[56, 0, 198]",198,l,0.10049037660064641,colour,0.5
027,19,0,1,16,1,751,2699.755714003826,2700.449087047251,"[83, 0, 171]",171,l,0.16936128950328566,colour,0.5
027,19,0,1,16,2,752,2702.4598945518956,2703.8810772767465,"[67, 0, 187]",187,l,0.8980504271457903,colour,0.5
027,19,0,1,16,3,753,2705.9009640935255,2706.8650698346464,"[84, 0, 170]",170,l,0.4410577262751758,colour,0.5
027,19,0,1,16,4,754,2708.8839125679515,2709.417612912439,"[62, 0, 192]",192,l,0.0075318945600884035,colour,0.5
027,19,0,1,16,5,755,2711.4525162569334,2712.3450339474803,"[30, 0, 224]",224,a,0.3693066238047322,colour,0.5
027,19,0,1,16,6,756,2714.3589874871395,2714.985046881353,"[77, 0, 177]",177,l,0.10284635824791621,colour,0.5
027,19,0,1,16,7,757,2716.999788505156,2717.56906370011,"[40, 0, 214]",214,a,0.04598142074246425,colour,0.5
027,19,0,1,16,8,758,2719.578105596971,2720.1290220943047,"[75, 0, 179]",179,l,0.027898020882275887,colour,0.5
027,19,0,1,16,9,759,2722.140801214933,2722.9769958988763,"[82, 0, 172]",172,l,0.31158507309737615,colour,0.5
027,19,0,1,16,10,760,2724.986204392233,2725.8570846243238,"[23, 0, 231]",231,a,0.3476620761503,colour,0.5
027,19,0,1,16,11,761,2727.8770017671777,2728.6170438849804,"[26, 0, 228]",228,a,0.21687476788065396,colour,0.5
027,19,0,1,16,12,762,2730.6270987515454,2731.440969898802,"[50, 0, 204]",204,l,0.2906703204935184,colour,0.5
027,19,0,1,16,13,763,2733.4583388635656,2734.193016022793,"[85, 0, 169]",169,l,0.21143655410560314,colour,0.5
027,19,0,1,16,14,764,2736.2085634537652,2737.07299289621,"[94, 0, 160]",160,l,0.34120892343344167,colour,0.5
027,19,0,1,16,15,765,2739.0837302964064,2739.6489768493775,"[24, 0, 230]",230,a,0.04194135723810177,colour,0.5
027,19,0,1,16,16,766,2741.6621375787654,2742.2649931923806,"[79, 0, 175]",175,l,0.07998916138603818,colour,0.5
027,19,0,1,16,17,767,2744.2734226600296,2745.528949784348,"[80, 0, 174]",174,l,0.7321884517587023,colour,0.5
027,19,0,1,16,18,768,2747.538197268368,2748.3130277278688,"[64, 0, 190]",190,a,0.2516048204997787,colour,0.5
027,19,0,1,16,19,769,2750.3210349935252,2750.920974971523,"[59, 0, 195]",195,l,0.07662769305170514,colour,0.5
027,19,0,1,16,20,770,2752.929454851357,2753.6409483160824,"[0, 0, 254]",254,a,0.18830366562178824,colour,0.5
027,19,0,1,16,21,771,2755.650315922874,2756.200938217895,"[4, 0, 250]",250,a,0.027446280510048382,colour,0.5
027,19,0,1,16,22,772,2758.213028082333,2758.9529414127755,"[2, 0, 252]",252,a,0.21672156211570837,colour,0.5
027,19,0,1,16,23,773,2760.9652069321455,2761.840931459519,"[3, 0, 251]",251,a,0.3495560774463229,colour,0.5
027,19,0,1,16,24,774,2763.858887647395,2764.62491172945,"[17, 0, 237]",237,a,0.242757089305087,colour,0.5
027,19,0,1,16,25,775,2766.640383148304,2767.4488846108434,"[76, 0, 178]",178,l,0.28528094352805056,colour,0.5
027,19,0,1,16,26,776,2769.4687103816395,2770.4088864855585,"[66, 0, 188]",188,l,0.4170556215685792,colour,0.5
027,19,0,1,16,27,777,2772.422078328702,2773.136900572601,"[57, 0, 197]",197,l,0.1916481986118015,colour,0.5
027,19,0,1,16,28,778,2775.1567109834286,2775.7929311885528,"[32, 0, 222]",222,a,0.1116558864741819,colour,0.5
027,19,0,1,16,29,779,2777.8144485242374,2778.688896993335,"[36, 0, 218]",218,a,0.35212788624630775,colour,0.5
027,19,0,1,16,30,780,2780.704278615507,2781.408959346896,"[9, 0, 245]",245,a,0.18139168331981637,colour,0.5
027,19,0,1,16,31,781,2783.4257879561337,2784.384833574819,"[29, 0, 225]",225,a,0.4358400657947641,colour,0.5
027,19,0,1,16,32,782,2786.3926884224056,2787.1688441708247,"[52, 0, 202]",202,l,0.2535771969851339,colour,0.5
027,19,0,1,16,33,783,2789.176488311263,2790.000852280893,"[96, 0, 158]",158,l,0.30119740740337875,colour,0.5
027,19,0,1,16,34,784,2792.0204693137493,2793.1288385624794,"[34, 0, 220]",220,a,0.5851841757830698,colour,0.5
027,19,0,1,16,35,785,2795.147359130453,2795.8408223644074,"[81, 0, 173]",173,l,0.16724752260779496,colour,0.5
027,19,0,1,16,36,786,2797.8506436808093,2798.4488495586265,"[46, 0, 208]",208,a,0.07497275575587992,colour,0.5
027,19,0,1,16,37,787,2800.451979052159,2801.0330400631065,"[65, 0, 189]",189,l,0.05793501476000529,colour,0.5
027,19,0,1,16,38,788,2803.0460160791117,2804.256809484097,"[49, 0, 205]",205,l,0.6880049340834375,colour,0.5
027,19,0,1,16,39,789,2806.2650120969483,2807.392801849812,"[6, 0, 248]",248,a,0.604563720014994,colour,0.5
027,19,0,1,16,40,790,2809.4071173331613,2810.040884670714,"[56, 0, 198]",198,l,0.11056454156641848,colour,0.5
027,19,0,1,16,41,791,2812.0479136250215,2812.6887733259646,"[39, 0, 215]",215,l,0.11760728046647273,colour,0.5
027,19,0,1,16,42,792,2814.705335302031,2815.2407701405464,"[86, 0, 168]",168,l,0.012107587463106029,colour,0.5
027,19,0,1,16,43,793,2817.252503181284,2818.192773020346,"[92, 0, 162]",162,l,0.4174167775781825,colour,0.5
027,19,0,1,16,44,794,2820.2059148451517,2820.856738434435,"[21, 0, 233]",233,a,0.12653850682545453,colour,0.5
027,19,0,1,16,45,795,2822.863643721372,2823.5927487594745,"[7, 0, 247]",247,a,0.20586443298088852,colour,0.5
027,19,0,1,16,46,796,2825.6138533454505,2826.5687620147364,"[61, 0, 193]",193,l,0.4317318670800887,colour,0.5
027,19,0,1,16,47,797,2828.584201532125,2829.2727539109765,"[33, 0, 221]",221,a,0.1652345800830517,colour,0.5
027,19,0,1,16,48,798,2831.2876136883133,2832.0007593334303,"[1, 0, 253]",253,a,0.18993930451688357,colour,0.5
027,19,0,1,16,49,799,2834.022248706111,2834.880749597578,"[14, 0, 240]",240,a,0.33530360931763425,colour,0.5
027,19,0,1,16,50,800,2836.8974285456497,2837.9207327567565,"[37, 0, 217]",217,l,0.5000750274921302,colour,0.5
