id,age,condition,counterbalance,block,trialinblock,trial,tstart,tend,trialstim,trialintensity,response,RT,trialtype,colourfreq
028,22,0,1,Practice,1,NA,5.907844752073288e-06,1.2652296517044306,"[25, 0, 229]",229,a,0.615827510599047,colour,0.5
028,22,0,1,Practice,2,NA,3.2820941605605185,4.641240852884948,"[50, 0, 204]",204,a,0.8358676047064364,colour,0.5
028,22,0,1,Practice,3,NA,6.657104597892612,7.465188691858202,"[41, 0, 213]",213,a,0.28484793566167355,colour,0.5
028,22,0,1,Practice,4,NA,9.472677289973944,10.313213945366442,"[4, 0, 250]",250,a,0.3171650138683617,colour,0.5
028,22,0,1,Practice,5,NA,12.332517545670271,13.129244680982083,"[8, 0, 246]",246,a,0.2739249956794083,colour,0.5
028,22,0,1,Practice,6,NA,15.132801902946085,15.809215615037829,"[79, 0, 175]",175,l,0.15321733243763447,colour,0.5
028,22,0,1,Practice,7,NA,17.82034965697676,18.673217253759503,"[59, 0, 195]",195,a,0.32955148769542575,colour,0.5
028,22,0,1,Practice,8,NA,20.679671216756105,21.42525540944189,"[43, 0, 211]",211,a,0.2223374005407095,colour,0.5
028,22,0,1,Practice,9,NA,23.44534118939191,24.24124479154125,"[94, 0, 160]",160,l,0.2729238383471966,colour,0.5
028,22,0,1,Practice,10,NA,26.257765472400934,27.017272139899433,"[71, 0, 183]",183,a,0.236234275624156,colour,0.5
028,22,0,1,1,1,1,5.8980855122208595,6.67203571414575,"[63, 0, 191]",191,a,0.2498011076822877,colour,0.5
028,22,0,1,1,2,2,8.680189912673086,9.560025363694876,"[77, 0, 177]",177,a,0.35649059107527137,colour,0.5
028,22,0,1,1,3,3,11.570751774124801,12.535986152477562,"[27, 0, 227]",227,a,0.4419714384712279,colour,0.5
028,22,0,1,1,4,4,14.555148755665869,15.528065110556781,"[73, 0, 181]",181,l,0.44958252226933837,colour,0.5
028,22,0,1,1,5,5,17.53948075277731,18.552023977506906,"[89, 0, 165]",165,l,0.48934408789500594,colour,0.5
028,22,0,1,1,6,6,20.570643860381097,21.360130127053708,"[18, 0, 236]",236,a,0.26621190551668406,colour,0.5
028,22,0,1,1,7,7,23.36770222056657,24.176015926990658,"[39, 0, 215]",215,a,0.2849885388277471,colour,0.5
028,22,0,1,1,8,8,26.19582207594067,26.95208581117913,"[57, 0, 197]",197,a,0.23307798942551017,colour,0.5
028,22,0,1,1,9,9,28.961426669731736,29.76806259015575,"[4, 0, 250]",250,a,0.2833528942428529,colour,0.5
028,22,0,1,1,10,10,31.789516198914498,32.64005419332534,"[54, 0, 200]",200,a,0.3276180950924754,colour,0.5
028,22,0,1,1,11,11,34.64964750735089,35.39206241676584,"[15, 0, 239]",239,a,0.21987428423017263,colour,0.5
028,22,0,1,1,12,12,37.39892519265413,38.03205556375906,"[42, 0, 212]",212,a,0.10981229273602366,colour,0.5
028,22,0,1,1,13,13,40.02702535595745,40.816042945254594,"[60, 0, 194]",194,a,0.2656203480437398,colour,0.5
028,22,0,1,1,14,14,42.823750915937126,43.6320441425778,"[99, 0, 155]",155,l,0.28507164074108005,colour,0.5
028,22,0,1,1,15,15,45.652034217491746,46.40809433395043,"[68, 0, 186]",186,a,0.23277551494538784,colour,0.5
028,22,0,1,1,16,16,48.41767740808427,49.19206517376006,"[5, 0, 249]",249,a,0.2509696502238512,colour,0.5
028,22,0,1,1,17,17,51.1989114084281,51.9600375732407,"[22, 0, 232]",232,a,0.23793096700683236,colour,0.5
028,22,0,1,1,18,18,53.980160374194384,54.75205390993506,"[48, 0, 206]",206,a,0.24857427552342415,colour,0.5
028,22,0,1,1,19,19,56.761393192689866,57.56800587614998,"[33, 0, 221]",221,a,0.2831859034486115,colour,0.5
028,22,0,1,1,20,20,59.589506746735424,60.33605980174616,"[94, 0, 160]",160,l,0.22336218925192952,colour,0.5
028,22,0,1,1,21,21,62.355112915858626,63.10409915493801,"[43, 0, 211]",211,a,0.2257697731256485,colour,0.5
028,22,0,1,1,22,22,65.12076477147639,65.92007514601573,"[44, 0, 210]",210,a,0.2760112010873854,colour,0.5
028,22,0,1,1,23,23,67.92740384256467,68.68002686044201,"[56, 0, 198]",198,a,0.22942073037847877,colour,0.5
028,22,0,1,1,24,24,70.6930470331572,71.49608516553417,"[91, 0, 163]",163,l,0.27964207250624895,colour,0.5
028,22,0,1,1,25,25,73.50553511921316,74.27206485858187,"[97, 0, 157]",157,l,0.24328058399260044,colour,0.5
028,22,0,1,1,26,26,76.28678566077724,77.03209534240887,"[53, 0, 201]",201,a,0.22195576317608356,colour,0.5
028,22,0,1,1,27,27,79.0525072272867,79.79210180137306,"[3, 0, 251]",251,a,0.216295400634408,colour,0.5
028,22,0,1,1,28,28,81.80400108685717,82.56008365284652,"[59, 0, 195]",195,a,0.23272707220166922,colour,0.5
028,22,0,1,1,29,29,84.56974077038467,85.31218285532668,"[10, 0, 244]",244,a,0.2191941114142537,colour,0.5
028,22,0,1,1,30,30,87.31970217311755,88.05604908894747,"[45, 0, 209]",209,a,0.2129796063527465,colour,0.5
028,22,0,1,1,31,31,90.06968838861212,90.85609910776839,"[90, 0, 164]",164,l,0.26362157659605145,colour,0.5
028,22,0,1,1,32,32,92.8611115925014,93.65610737819225,"[21, 0, 233]",233,a,0.271640685852617,colour,0.5
028,22,0,1,1,33,33,95.67364615248516,96.46409616153687,"[23, 0, 231]",231,a,0.26736272452399135,colour,0.5
028,22,0,1,1,34,34,98.46402251254767,99.2001000372693,"[6, 0, 248]",248,a,0.21282600658014417,colour,0.5
028,22,0,1,1,35,35,101.21686923503876,101.96817877469584,"[19, 0, 235]",235,a,0.22860034788027406,colour,0.5
028,22,0,1,1,36,36,103.97745976876467,104.72808755980805,"[13, 0, 241]",241,a,0.22607697313651443,colour,0.5
028,22,0,1,1,37,37,106.74433412356302,107.65612903982401,"[58, 0, 196]",196,a,0.38847408071160316,colour,0.5
028,22,0,1,1,38,38,109.66624971432611,110.50412081647664,"[66, 0, 188]",188,a,0.3146223407238722,colour,0.5
028,22,0,1,1,39,39,112.51392995845526,113.30411136429757,"[88, 0, 166]",166,l,0.26685978285968304,colour,0.5
028,22,0,1,1,40,40,115.31076343217865,116.13615117408335,"[37, 0, 217]",217,a,0.30210826033726335,colour,0.5
028,22,0,1,1,41,41,118.15451190620661,118.92013973696157,"[78, 0, 176]",176,l,0.24234204785898328,colour,0.5
028,22,0,1,1,42,42,120.93579828739166,121.84014832274988,"[61, 0, 193]",193,l,0.37924507493153214,colour,0.5
028,22,0,1,1,43,43,123.859441683162,124.47212511720136,"[75, 0, 179]",179,l,0.08789118798449636,colour,0.5
028,22,0,1,1,44,44,126.48591289715841,127.1681500240229,"[28, 0, 226]",226,a,0.1588816330768168,colour,0.5
028,22,0,1,1,45,45,129.1890475214459,129.93615786964074,"[71, 0, 183]",183,l,0.2238178695552051,colour,0.5
028,22,0,1,1,46,46,131.95466590020806,133.00813923263922,"[49, 0, 205]",205,a,0.5301339863799512,colour,0.5
028,22,0,1,1,47,47,135.0189924617298,135.72815057542175,"[36, 0, 218]",218,a,0.18583255214616656,colour,0.5
028,22,0,1,1,48,48,137.73782817274332,138.47214953554794,"[51, 0, 203]",203,a,0.21109741367399693,colour,0.5
028,22,0,1,1,49,49,140.4877308923751,141.264137909282,"[29, 0, 225]",225,a,0.25309287663549185,colour,0.5
028,22,0,1,1,50,50,143.2846403787844,144.00019731698558,"[95, 0, 159]",159,l,0.19068946735933423,colour,0.5
028,22,0,1,2,1,51,151.713525084313,152.4881042591296,"[39, 0, 215]",215,a,0.2505151513032615,colour,0.5
028,22,0,1,2,2,52,154.49853686010465,155.29615093767643,"[97, 0, 157]",157,l,0.27420935314148664,colour,0.5
028,22,0,1,2,3,53,157.31120138941333,158.05622198758647,"[45, 0, 209]",209,a,0.22180688893422484,colour,0.5
028,22,0,1,2,4,54,160.0766330845654,160.88816963741556,"[18, 0, 236]",236,a,0.2881916929036379,colour,0.5
028,22,0,1,2,5,55,162.90475412178785,163.71219900297,"[20, 0, 234]",234,a,0.2841626428999007,colour,0.5
028,22,0,1,2,6,56,165.73288303567097,166.51223011687398,"[13, 0, 241]",241,a,0.25593960005789995,colour,0.5
028,22,0,1,2,7,57,168.52775672869757,169.26415720768273,"[49, 0, 205]",205,a,0.21300008660182357,colour,0.5
028,22,0,1,2,8,58,171.27775594126433,172.06416429718956,"[42, 0, 212]",212,a,0.262114719953388,colour,0.5
028,22,0,1,2,9,59,174.07634163834155,174.86419659247622,"[30, 0, 224]",224,a,0.26443329406902194,colour,0.5
028,22,0,1,2,10,60,176.86074846610427,177.62418060237542,"[27, 0, 227]",227,a,0.24010027339681983,colour,0.5
028,22,0,1,2,11,61,179.64197183214128,180.456169212237,"[37, 0, 217]",217,a,0.2908426742069423,colour,0.5
028,22,0,1,2,12,62,182.4700794783421,183.24021882098168,"[87, 0, 167]",167,l,0.2468129936605692,colour,0.5
028,22,0,1,2,13,63,185.2514525060542,185.87217159103602,"[92, 0, 162]",162,l,0.10665836976841092,colour,0.5
028,22,0,1,2,14,64,187.8704654481262,188.62423219624907,"[90, 0, 164]",164,l,0.23043764242902398,colour,0.5
028,22,0,1,2,15,65,190.63619095273316,191.3281848402694,"[22, 0, 232]",232,a,0.16873409878462553,colour,0.5
028,22,0,1,2,16,66,193.33924090024084,194.07220624946058,"[52, 0, 202]",202,a,0.20964845223352313,colour,0.5
028,22,0,1,2,17,67,196.08922790316865,196.84822060121223,"[4, 0, 250]",250,a,0.23575575184077024,colour,0.5
028,22,0,1,2,18,68,198.8554776175879,199.5922400415875,"[12, 0, 242]",242,a,0.21345694875344634,colour,0.5
028,22,0,1,2,19,69,201.60517947608605,202.39219553675503,"[68, 0, 186]",186,l,0.2634230777621269,colour,0.5
028,22,0,1,2,20,70,204.40220869146287,205.14424511417747,"[98, 0, 156]",156,l,0.21870101522654295,colour,0.5
028,22,0,1,2,21,71,207.15223310980946,207.9123151875101,"[95, 0, 159]",159,l,0.23671831283718348,colour,0.5
028,22,0,1,2,22,72,209.93354548560455,210.7202086597681,"[36, 0, 218]",218,a,0.26337975449860096,colour,0.5
028,22,0,1,2,23,73,212.73034942056984,213.2802281160839,"[93, 0, 161]",161,l,0.02650429680943489,colour,0.5
028,22,0,1,2,24,74,215.29283435596153,216.09623719006777,"[60, 0, 194]",194,a,0.28051916835829616,colour,0.5
028,22,0,1,2,25,75,218.10539806075394,218.89622458722442,"[56, 0, 198]",198,a,0.27556694205850363,colour,0.5
028,22,0,1,2,26,76,220.90976542513818,221.69622301170602,"[80, 0, 174]",174,l,0.26310051744803786,colour,0.5
028,22,0,1,2,27,77,223.7066512806341,224.3602045639418,"[55, 0, 199]",199,a,0.130339574534446,colour,0.5
028,22,0,1,2,28,78,226.3789284224622,227.05623774137348,"[88, 0, 166]",166,l,0.153996754437685,colour,0.5
028,22,0,1,2,29,79,229.0669015306048,229.64827455813065,"[17, 0, 237]",237,a,0.05810299841687083,colour,0.5
028,22,0,1,2,30,80,231.66259324317798,232.25619914475828,"[99, 0, 155]",155,l,0.07025040779262781,colour,0.5
028,22,0,1,2,31,81,234.27202941244468,234.87222160957754,"[48, 0, 206]",206,a,0.07700369413942099,colour,0.5
028,22,0,1,2,32,82,236.88139350805432,237.64027080871165,"[61, 0, 193]",193,a,0.2356950994580984,colour,0.5
028,22,0,1,2,33,83,239.64694453869015,240.32023544143885,"[1, 0, 253]",253,a,0.14988223975524306,colour,0.5
028,22,0,1,2,34,84,242.33455491391942,243.19217466330156,"[51, 0, 203]",203,a,0.3344076154753566,colour,0.5
028,22,0,1,2,35,85,245.20634998800233,245.88028207281604,"[84, 0, 170]",170,l,0.15071168076246977,colour,0.5
028,22,0,1,2,36,86,247.89383275713772,248.47224917868152,"[6, 0, 248]",248,a,0.05512433731928468,colour,0.5
028,22,0,1,2,37,87,250.48756941547617,251.20025009242818,"[62, 0, 192]",192,a,0.18929564487189054,colour,0.5
028,22,0,1,2,38,88,253.22182146133855,253.82426055334508,"[44, 0, 210]",210,a,0.07903633639216423,colour,0.5
028,22,0,1,2,39,89,255.83128992607817,256.4882771577686,"[76, 0, 178]",178,l,0.1340543352998793,colour,0.5
028,22,0,1,2,40,90,258.50318779377267,259.22470402438194,"[34, 0, 220]",220,a,0.1981512843631208,colour,0.5
028,22,0,1,2,41,91,261.23748592007905,261.84832890937105,"[26, 0, 228]",228,a,0.08727324288338423,colour,0.5
028,22,0,1,2,42,92,263.8625751263462,264.7282821200788,"[70, 0, 184]",184,l,0.34241097094491124,colour,0.5
028,22,0,1,2,43,93,266.73879152117297,267.3682295810431,"[67, 0, 187]",187,a,0.10607705218717456,colour,0.5
028,22,0,1,2,44,94,269.3794888658449,270.01623947452754,"[7, 0, 247]",247,a,0.113463643938303,colour,0.5
028,22,0,1,2,45,95,272.0356860412285,272.74427347118035,"[11, 0, 243]",243,a,0.1858357028104365,colour,0.5
028,22,0,1,2,46,96,274.7544244718738,275.38428827980533,"[91, 0, 163]",163,l,0.10646577831357718,colour,0.5
028,22,0,1,2,47,97,277.39511866588145,278.144288437441,"[28, 0, 226]",226,a,0.22585760056972504,colour,0.5
028,22,0,1,2,48,98,280.16072010900825,280.7922557955608,"[54, 0, 200]",200,a,0.10815853113308549,colour,0.5
028,22,0,1,2,49,99,282.8013245058246,283.59228100162,"[0, 0, 254]",254,a,0.26759785134345293,colour,0.5
028,22,0,1,2,50,100,285.61377714574337,286.37628807500005,"[66, 0, 188]",188,a,0.23902901075780392,colour,0.5
028,22,0,1,3,1,101,294.0824698903598,294.74425299139693,"[59, 0, 195]",195,a,0.13759580347687006,colour,0.5
028,22,0,1,3,2,102,296.7550865281373,297.42426134087145,"[44, 0, 210]",210,a,0.14583192206919193,colour,0.5
028,22,0,1,3,3,103,299.44269178342074,300.1203252384439,"[57, 0, 197]",197,a,0.1543902074918151,colour,0.5
028,22,0,1,3,4,104,302.13016549451277,302.88024741457775,"[54, 0, 200]",200,a,0.22685639560222626,colour,0.5
028,22,0,1,3,5,105,304.89573818678036,305.640301134903,"[92, 0, 162]",162,l,0.22118736850097775,colour,0.5
028,22,0,1,3,6,106,307.6613833466545,308.4403176768683,"[35, 0, 219]",219,a,0.25559734739363194,colour,0.5
028,22,0,1,3,7,107,310.4582191836089,311.14430182846263,"[95, 0, 159]",159,l,0.16274014813825488,colour,0.5
028,22,0,1,3,8,108,313.1584409191273,313.7762825614773,"[34, 0, 220]",220,a,0.09443337330594659,colour,0.5
028,22,0,1,3,9,109,315.78564468724653,316.50430868100375,"[53, 0, 201]",201,a,0.19537190906703472,colour,0.5
028,22,0,1,3,10,110,318.52001606905833,319.1682792059146,"[21, 0, 233]",233,a,0.12498207995668054,colour,0.5
028,22,0,1,3,11,111,321.1762577490881,322.45631296606734,"[39, 0, 215]",215,a,0.756830086465925,colour,0.5
028,22,0,1,3,12,112,324.4731424227357,325.26435373723507,"[86, 0, 168]",168,l,0.26796609768643975,colour,0.5
028,22,0,1,3,13,113,327.2855753703043,327.888329539448,"[20, 0, 234]",234,a,0.07934708148241043,colour,0.5
028,22,0,1,3,14,114,329.89499972434714,330.57634518295527,"[14, 0, 240]",240,a,0.15797421103343368,colour,0.5
028,22,0,1,3,15,115,332.5824427152984,333.2003410710022,"[85, 0, 169]",169,l,0.09461336070671678,colour,0.5
028,22,0,1,3,16,116,335.2075212872587,335.9523221193813,"[1, 0, 253]",253,a,0.22165289521217346,colour,0.5
028,22,0,1,3,17,117,337.9731487245299,338.6323871826753,"[38, 0, 216]",216,a,0.13597433688119054,colour,0.5
028,22,0,1,3,18,118,340.64498081989586,341.2563944924623,"[97, 0, 157]",157,l,0.08809086820110679,colour,0.5
028,22,0,1,3,19,119,343.2699562041089,343.880330122076,"[25, 0, 229]",229,a,0.08708537789061666,colour,0.5
028,22,0,1,3,20,120,345.89498475799337,346.5523177869618,"[9, 0, 245]",245,a,0.13402715977281332,colour,0.5
028,22,0,1,3,21,121,348.56685584411025,349.17634833371267,"[29, 0, 225]",225,a,0.08622836787253618,colour,0.5
028,22,0,1,3,22,122,351.19184225657955,351.96837569819763,"[70, 0, 184]",184,a,0.253155498765409,colour,0.5
028,22,0,1,3,23,123,353.98870684439316,354.5443672067486,"[84, 0, 170]",170,l,0.03232180420309305,colour,0.5
028,22,0,1,3,24,124,356.55137806897983,357.1443431819789,"[96, 0, 158]",158,l,0.06964782206341624,colour,0.5
028,22,0,1,3,25,125,359.1606767857447,359.8803687193431,"[61, 0, 193]",193,a,0.1963699166662991,colour,0.5
028,22,0,1,3,26,126,361.8994135623798,362.6483568721451,"[80, 0, 174]",174,a,0.22566304029896855,colour,0.5
028,22,0,1,3,27,127,364.66504296893254,365.34440265316516,"[0, 0, 254]",254,a,0.1560435751453042,colour,0.5
028,22,0,1,3,28,128,367.35453199222684,368.06440808810294,"[11, 0, 243]",243,a,0.18728387681767344,colour,0.5
028,22,0,1,3,29,129,370.0732830259949,370.64035154739395,"[10, 0, 244]",244,a,0.043904437217861414,colour,0.5
028,22,0,1,3,30,130,372.65140248741955,373.3443577545695,"[74, 0, 180]",180,l,0.16963206883519888,colour,0.5
028,22,0,1,3,31,131,375.3545174198225,375.888418154791,"[51, 0, 203]",203,a,0.011203752364963293,colour,0.5
028,22,0,1,3,32,132,377.9014351768419,378.5203776201233,"[23, 0, 231]",231,a,0.09565429715439677,colour,0.5
028,22,0,1,3,33,133,380.54205060144886,381.07239332655445,"[75, 0, 179]",179,l,0.006983686704188585,colour,0.5
028,22,0,1,3,34,134,383.08888407517225,383.7683548242785,"[36, 0, 218]",218,a,0.1561577906832099,colour,0.5
028,22,0,1,3,35,135,385.77639362588525,386.53637290978804,"[49, 0, 205]",205,a,0.2366749900393188,colour,0.5
028,22,0,1,3,36,136,388.5576993059367,389.23239821055904,"[52, 0, 202]",202,a,0.15164273418486118,colour,0.5
028,22,0,1,3,37,137,391.24521594587713,391.85637086164206,"[76, 0, 178]",178,l,0.08794632647186518,colour,0.5
028,22,0,1,3,38,138,393.870104290545,394.4563921294175,"[42, 0, 212]",212,a,0.06304734805598855,colour,0.5
028,22,0,1,3,39,139,396.4653860088438,397.13637409126386,"[58, 0, 196]",196,a,0.15758154587820172,colour,0.5
028,22,0,1,3,40,140,399.14302694704384,399.76038140105084,"[17, 0, 237]",237,a,0.09415846830233932,colour,0.5
028,22,0,1,3,41,141,401.7679972117767,402.3924558693543,"[62, 0, 192]",192,a,0.10121698584407568,colour,0.5
028,22,0,1,3,42,142,404.41040621325374,405.0403625750914,"[78, 0, 176]",176,l,0.10530629428103566,colour,0.5
028,22,0,1,3,43,143,407.05239064851776,407.6324056936428,"[40, 0, 214]",214,a,0.056685151532292366,colour,0.5
028,22,0,1,3,44,144,409.6481122937985,410.4004592252895,"[77, 0, 177]",177,l,0.2290335795842111,colour,0.5
028,22,0,1,3,45,145,412.41577434167266,413.0323730041273,"[4, 0, 250]",250,a,0.09330027643591166,colour,0.5
028,22,0,1,3,46,146,415.0418780967593,415.69641796592623,"[13, 0, 241]",241,a,0.13123084930703044,colour,0.5
028,22,0,1,3,47,147,417.7137082228437,418.57642277050763,"[12, 0, 242]",242,a,0.33964065415784717,colour,0.5
028,22,0,1,3,48,148,420.58874544128776,421.20049900375307,"[50, 0, 204]",204,a,0.08841264108195901,colour,0.5
028,22,0,1,3,49,149,423.21380432136357,423.8004667083733,"[37, 0, 217]",217,a,0.0633427333086729,colour,0.5
028,22,0,1,3,50,150,425.80812229728326,426.5844403048977,"[66, 0, 188]",188,a,0.25305191706866026,colour,0.5
028,22,0,1,4,1,151,434.309558655601,434.8724756408483,"[30, 0, 224]",224,a,0.03868636442348361,colour,0.5
028,22,0,1,4,2,152,436.8886398905888,437.6084625804797,"[4, 0, 250]",250,a,0.1965601439587772,colour,0.5
028,22,0,1,4,3,153,439.6229561334476,440.2084842422046,"[68, 0, 186]",186,l,0.06234315037727356,colour,0.5
028,22,0,1,4,4,154,442.21667152410373,442.89648373797536,"[79, 0, 175]",175,l,0.15626609837636352,colour,0.5
028,22,0,1,4,5,155,444.9041338134557,445.60044937906787,"[45, 0, 209]",209,a,0.17287500109523535,colour,0.5
028,22,0,1,4,6,156,447.6085976702161,448.62443030113354,"[75, 0, 179]",179,l,0.493140768725425,colour,0.5
028,22,0,1,4,7,157,450.6274046301842,451.3684312305413,"[20, 0, 234]",234,a,0.21560341212898493,colour,0.5
028,22,0,1,4,8,158,453.3689101478085,454.02452206704766,"[87, 0, 167]",167,l,0.13231550250202417,colour,0.5
028,22,0,1,4,9,159,456.0408225879073,456.64046379365027,"[1, 0, 253]",253,a,0.07637669052928686,colour,0.5
028,22,0,1,4,10,160,458.65030483715236,459.20050372974947,"[40, 0, 214]",214,a,0.026882389560341835,colour,0.5
028,22,0,1,4,11,161,461.2129343142733,461.8564519942738,"[42, 0, 212]",212,a,0.12024331837892532,colour,0.5
028,22,0,1,4,12,162,463.86910588946193,464.5924609894864,"[74, 0, 180]",180,l,0.20011145854368806,colour,0.5
028,22,0,1,4,13,163,466.6034382805228,467.20049270195886,"[16, 0, 238]",238,a,0.08053610380738974,colour,0.5
028,22,0,1,4,14,164,469.22153789224103,469.7764712139033,"[70, 0, 184]",184,l,0.030456153210252523,colour,0.5
028,22,0,1,4,15,165,471.7852658070624,472.52843335736543,"[61, 0, 193]",193,a,0.21996093029156327,colour,0.5
028,22,0,1,4,16,166,474.5258698100224,475.07248627441004,"[96, 0, 158]",158,l,0.020783675834536552,colour,0.5
028,22,0,1,4,17,167,477.09100296953693,477.6804730882868,"[31, 0, 223]",223,a,0.06628791755065322,colour,0.5
028,22,0,1,4,18,168,479.7003288618289,480.2909265635535,"[62, 0, 192]",192,l,0.06732885399833322,colour,0.5
028,22,0,1,4,19,169,482.30972328362986,482.92846525879577,"[13, 0, 241]",241,a,0.09446094231680036,colour,0.5
028,22,0,1,4,20,170,484.93566634878516,485.5845178924501,"[0, 0, 254]",254,a,0.1253656866028905,colour,0.5
028,22,0,1,4,21,171,487.57943136431277,488.1444853609428,"[97, 0, 157]",157,l,0.04168117372319102,colour,0.5
028,22,0,1,4,22,172,490.15758745372295,490.76847967365757,"[80, 0, 174]",174,l,0.08761470764875412,colour,0.5
028,22,0,1,4,23,173,492.7795432168059,493.3204776570201,"[51, 0, 203]",203,a,0.017659685108810663,colour,0.5
028,22,0,1,4,24,174,495.3419395368546,495.8965908642858,"[33, 0, 221]",221,a,0.03150339098647237,colour,0.5
028,22,0,1,4,25,175,497.9044803981669,498.46448291884735,"[58, 0, 196]",196,a,0.036634817719459534,colour,0.5
028,22,0,1,4,26,176,500.48258134908974,501.0084893624298,"[3, 0, 251]",251,a,0.002589541021734476,colour,0.5
028,22,0,1,4,27,177,503.02953809686005,504.04059888329357,"[11, 0, 243]",243,a,0.48756705271080136,colour,0.5
028,22,0,1,4,28,178,506.0607173522003,506.6804766333662,"[52, 0, 202]",202,a,0.0964597137644887,colour,0.5
028,22,0,1,4,29,179,508.70133001962677,509.6164753884077,"[77, 0, 177]",177,l,0.3917615180835128,colour,0.5
028,22,0,1,4,30,180,511.62326884735376,512.2005194835365,"[18, 0, 236]",236,a,0.054055831395089626,colour,0.5
028,22,0,1,4,31,181,514.2169539122842,514.9205032573082,"[34, 0, 220]",220,a,0.18030255287885666,colour,0.5
028,22,0,1,4,32,182,516.9367726640776,517.4725114805624,"[71, 0, 183]",183,l,0.01244161231443286,colour,0.5
028,22,0,1,4,33,183,519.483688057866,520.0644935527816,"[35, 0, 219]",219,a,0.05750907817855477,colour,0.5
028,22,0,1,4,34,184,522.0774377132766,522.6165328901261,"[89, 0, 165]",165,l,0.013511693105101585,colour,0.5
028,22,0,1,4,35,185,524.6264668814838,525.3525056517683,"[17, 0, 237]",237,a,0.20271675335243344,colour,0.5
028,22,0,1,4,36,186,527.3609512969851,528.0085055101663,"[95, 0, 159]",159,l,0.1242014761082828,colour,0.5
028,22,0,1,4,37,187,530.0171409891918,530.5685592307709,"[12, 0, 242]",242,a,0.028110009152442217,colour,0.5
028,22,0,1,4,38,188,532.5807613842189,533.3445034776814,"[7, 0, 247]",247,a,0.24041062453761697,colour,0.5
028,22,0,1,4,39,189,535.3620394947939,536.2805475257337,"[69, 0, 185]",185,l,0.39547234028577805,colour,0.5
028,22,0,1,4,40,190,538.2995183258317,538.9285459974781,"[92, 0, 162]",162,l,0.1057533104903996,colour,0.5
028,22,0,1,4,41,191,540.9401892828755,541.5765484077856,"[91, 0, 163]",163,l,0.11309697292745113,colour,0.5
028,22,0,1,4,42,192,543.5978409331292,544.1845753942616,"[28, 0, 226]",226,a,0.07587650557979941,colour,0.5
028,22,0,1,4,43,193,546.1947933486663,546.9125404679216,"[63, 0, 191]",191,a,0.19437350844964385,colour,0.5
028,22,0,1,4,44,194,548.9291596105322,549.4565425789915,"[25, 0, 229]",229,a,0.003948311787098646,colour,0.5
028,22,0,1,4,45,195,551.4760474348441,552.1525084087625,"[24, 0, 230]",230,a,0.15308618173003197,colour,0.5
028,22,0,1,4,46,196,554.1636058227159,554.8086067284457,"[50, 0, 204]",204,a,0.12178601510822773,colour,0.5
028,22,0,1,4,47,197,556.8093164400198,557.4565410031937,"[93, 0, 161]",161,l,0.12118776235729456,colour,0.5
028,22,0,1,4,48,198,559.4681256054901,559.9925708728842,"[65, 0, 189]",189,a,0.0010956814512610435,colour,0.5
028,22,0,1,4,49,199,562.0150914117694,562.7285475726239,"[36, 0, 218]",218,a,0.190132568590343,colour,0.5
028,22,0,1,4,50,200,564.7494683070108,565.5285775051452,"[8, 0, 246]",246,a,0.25574897788465023,colour,0.5
028,22,0,1,5,1,201,574.4996868921444,575.056585507933,"[31, 0, 223]",223,a,0.03691799333319068,colour,0.5
028,22,0,1,5,2,202,577.0744736241177,577.7766220569611,"[39, 0, 215]",215,a,0.17847037874162197,colour,0.5
028,22,0,1,5,3,203,579.7936890032142,580.3765783398412,"[26, 0, 228]",228,a,0.05955117242410779,colour,0.5
028,22,0,1,5,4,204,582.3875134894624,582.9846069016494,"[58, 0, 196]",196,a,0.07384740794077516,colour,0.5
028,22,0,1,5,5,205,584.9969520214945,585.8885327642784,"[52, 0, 202]",202,a,0.36822327971458435,colour,0.5
028,22,0,1,5,6,206,587.9031235971488,588.7685903445818,"[63, 0, 191]",191,a,0.3547147368080914,colour,0.5
028,22,0,1,5,7,207,590.7812017044052,591.4966267044656,"[67, 0, 187]",187,a,0.20436106296256185,colour,0.5
028,22,0,1,5,8,208,593.5038167666644,594.0966270980425,"[22, 0, 232]",232,a,0.06937409890815616,colour,0.5
028,22,0,1,5,9,209,596.1132998038083,596.7685871939175,"[60, 0, 194]",194,a,0.13197364378720522,colour,0.5
028,22,0,1,5,10,210,598.773219616618,599.5686529660597,"[34, 0, 220]",220,a,0.2725689820945263,colour,0.5
028,22,0,1,5,11,211,601.5856092413887,602.1525915102102,"[6, 0, 248]",248,a,0.043650405947119,colour,0.5
028,22,0,1,5,12,212,604.1543705151416,604.8086102730595,"[37, 0, 217]",217,a,0.13096106424927711,colour,0.5
028,22,0,1,5,13,213,606.8263254906051,607.7446090285666,"[56, 0, 198]",198,a,0.3949067764915526,colour,0.5
028,22,0,1,5,14,214,609.7638295274228,610.488620985765,"[88, 0, 166]",166,l,0.2015564814209938,colour,0.5
028,22,0,1,5,15,215,612.4982209950686,613.1607736721635,"[79, 0, 175]",175,l,0.139220813754946,colour,0.5
028,22,0,1,5,16,216,615.1700448198244,615.904611942824,"[2, 0, 252]",252,a,0.21125889103859663,colour,0.5
028,22,0,1,5,17,217,617.9202047213912,618.5607756413519,"[15, 0, 239]",239,a,0.11785030690953135,colour,0.5
028,22,0,1,5,18,218,620.5699309981428,621.4966385196894,"[4, 0, 250]",250,a,0.403335880022496,colour,0.5
028,22,0,1,5,19,219,623.5077130906284,624.1607134137303,"[53, 0, 201]",201,a,0.14257599273696542,colour,0.5
028,22,0,1,5,20,220,626.166842059698,626.7526025380939,"[77, 0, 177]",177,l,0.062368357088416815,colour,0.5
028,22,0,1,5,21,221,628.7606567000039,629.5846120216884,"[96, 0, 158]",158,l,0.3006778098642826,colour,0.5
028,22,0,1,5,22,222,631.6044646445662,632.2566071697511,"[54, 0, 200]",200,a,0.1366879870183766,colour,0.5
028,22,0,1,5,23,223,634.2685513538308,634.9846439235844,"[25, 0, 229]",229,a,0.1927488916553557,colour,0.5
028,22,0,1,5,24,224,637.0029022553936,637.6166317458265,"[62, 0, 192]",192,a,0.09037951054051518,colour,0.5
028,22,0,1,5,25,225,639.6279083597474,640.1686746277846,"[92, 0, 162]",162,l,0.01755492202937603,colour,0.5
028,22,0,1,5,26,226,642.1798189096153,642.9446448688395,"[38, 0, 216]",216,a,0.24141178233549,colour,0.5
028,22,0,1,5,27,227,644.9611805155873,645.7286472157575,"[44, 0, 210]",210,a,0.24201082251966,colour,0.5
028,22,0,1,5,28,228,647.7447094595991,648.408642962575,"[27, 0, 227]",227,a,0.1406524465419352,colour,0.5
028,22,0,1,5,29,229,650.4171618632972,651.2086264207028,"[50, 0, 204]",204,a,0.26813111919909716,colour,0.5
028,22,0,1,5,30,230,653.2303301221691,654.0486573772505,"[13, 0, 241]",241,a,0.2950745550915599,colour,0.5
028,22,0,1,5,31,231,656.0584440696985,656.6967038982548,"[21, 0, 233]",233,a,0.11523398431017995,colour,0.5
028,22,0,1,5,32,232,658.7145565683022,659.3766925553791,"[94, 0, 160]",160,l,0.13875804422423244,colour,0.5
028,22,0,1,5,33,233,661.377303017769,662.0967086246237,"[41, 0, 213]",213,a,0.19606468547135592,colour,0.5
028,22,0,1,5,34,234,664.1117448979057,664.8246307689697,"[78, 0, 176]",176,l,0.18824328714981675,colour,0.5
028,22,0,1,5,35,235,666.8224319238216,667.5287133823149,"[71, 0, 183]",183,l,0.18299922021105886,colour,0.5
028,22,0,1,5,36,236,669.5412018620409,670.2486814018339,"[95, 0, 159]",159,l,0.18410829221829772,colour,0.5
028,22,0,1,5,37,237,672.2599241454154,673.0006612683646,"[23, 0, 231]",231,a,0.2173249153420329,colour,0.5
028,22,0,1,5,38,238,675.0100375730544,675.8006301545538,"[12, 0, 242]",242,a,0.26729695266112685,colour,0.5
028,22,0,1,5,39,239,677.8067867634818,678.4967239843681,"[5, 0, 249]",249,a,0.16662662522867322,colour,0.5
028,22,0,1,5,40,240,680.5119040119462,681.1046753525734,"[90, 0, 164]",164,l,0.06945680687204003,colour,0.5
028,22,0,1,5,41,241,683.1125707938336,683.7933861352503,"[7, 0, 247]",247,a,0.15764574287459254,colour,0.5
028,22,0,1,5,42,242,685.7999909417704,686.5607000230812,"[83, 0, 171]",171,l,0.23740596929565072,colour,0.5
028,22,0,1,5,43,243,688.5811827997677,689.2566894837655,"[36, 0, 218]",218,a,0.1522890361957252,colour,0.5
028,22,0,1,5,44,244,691.2687061354518,692.0086776209064,"[59, 0, 195]",195,a,0.21662465622648597,colour,0.5
028,22,0,1,5,45,245,694.0186903816648,694.5766819217242,"[47, 0, 207]",207,a,0.03472938807681203,colour,0.5
028,22,0,1,5,46,246,696.5968114184216,697.3126995819621,"[66, 0, 188]",188,l,0.19250549422577024,colour,0.5
028,22,0,1,5,47,247,699.3188810031861,699.9846888217144,"[86, 0, 168]",168,l,0.1424204232171178,colour,0.5
028,22,0,1,5,48,248,702.0062668863684,702.5606630011462,"[18, 0, 236]",236,a,0.031019747257232666,colour,0.5
028,22,0,1,5,49,249,704.5688341353089,705.1207340513356,"[24, 0, 230]",230,a,0.028607831336557865,colour,0.5
028,22,0,1,5,50,250,707.1312312432565,707.6567292618565,"[72, 0, 182]",182,l,0.002164974343031645,colour,0.5
028,22,0,1,6,1,251,723.2867281590588,724.1127110035159,"[65, 0, 189]",189,a,0.30175419244915247,colour,0.5
028,22,0,1,6,2,252,726.1312785046175,726.7526895781048,"[10, 0, 244]",244,a,0.09811189956963062,colour,0.5
028,22,0,1,6,3,253,728.7719321325421,729.5687506399117,"[61, 0, 193]",193,a,0.2735146074555814,colour,0.5
028,22,0,1,6,4,254,731.5720471357927,732.3927528299391,"[28, 0, 226]",226,a,0.2974510253407061,colour,0.5
028,22,0,1,6,5,255,734.4002599385567,735.1928741345182,"[68, 0, 186]",186,l,0.2693784311413765,colour,0.5
028,22,0,1,6,6,256,737.2126944619231,737.944733878132,"[73, 0, 181]",181,l,0.208753633312881,colour,0.5
028,22,0,1,6,7,257,739.9625731571577,740.6327325860038,"[94, 0, 160]",160,l,0.14677872881293297,colour,0.5
028,22,0,1,6,8,258,742.6502481233329,743.1927622822113,"[72, 0, 182]",182,a,0.019283120520412922,colour,0.5
028,22,0,1,6,9,259,745.2063866155222,745.816716816742,"[60, 0, 194]",194,a,0.0870633227750659,colour,0.5
028,22,0,1,6,10,260,747.8333635283634,748.5527904029004,"[96, 0, 158]",158,l,0.19685355992987752,colour,0.5
028,22,0,1,6,11,261,750.5676919803955,751.0967972399667,"[51, 0, 203]",203,a,0.005753310397267342,colour,0.5
028,22,0,1,6,12,262,753.1023808023892,753.6327479463071,"[43, 0, 211]",211,a,0.007054579444229603,colour,0.5
028,22,0,1,6,13,263,755.6648046914488,756.2088138917461,"[46, 0, 208]",208,a,0.020641103386878967,colour,0.5
028,22,0,1,6,14,264,758.2187474891543,758.7527411719784,"[54, 0, 200]",200,a,0.011348294094204903,colour,0.5
028,22,0,1,6,15,265,760.7603278378956,761.4888116074726,"[74, 0, 180]",180,a,0.20513457711786032,colour,0.5
028,22,0,1,6,16,266,763.4946440807544,764.072791505605,"[25, 0, 229]",229,a,0.054944743402302265,colour,0.5
028,22,0,1,6,17,267,766.0895516453311,766.7047549095005,"[66, 0, 188]",188,l,0.09194898931309581,colour,0.5
028,22,0,1,6,18,268,768.7145538111217,769.3287724591792,"[62, 0, 192]",192,a,0.09101754194125533,colour,0.5
028,22,0,1,6,19,269,771.3394626360387,771.9047777522355,"[83, 0, 171]",171,l,0.041967499535530806,colour,0.5
028,22,0,1,6,20,270,773.9176514144056,774.67276511807,"[87, 0, 167]",167,l,0.23183500999584794,colour,0.5
028,22,0,1,6,21,271,776.6707876143046,777.3367703007534,"[6, 0, 248]",248,a,0.14266815269365907,colour,0.5
028,22,0,1,6,22,272,779.342651611194,780.3527746489272,"[1, 0, 253]",253,a,0.4868183499202132,colour,0.5
028,22,0,1,6,23,273,782.3739553219639,783.2488531190902,"[27, 0, 227]",227,a,0.35163879580795765,colour,0.5
028,22,0,1,6,24,274,785.2626334154047,786.1607992723584,"[93, 0, 161]",161,l,0.37540704058483243,colour,0.5
028,22,0,1,6,25,275,788.1703721061349,788.7207628018223,"[47, 0, 207]",207,a,0.027169503271579742,colour,0.5
028,22,0,1,6,26,276,790.7329472326674,791.2967818798497,"[84, 0, 170]",170,l,0.04060124605894089,colour,0.5
028,22,0,1,6,27,277,793.3110781153664,793.8408111664467,"[23, 0, 231]",231,a,0.006369680166244507,colour,0.5
028,22,0,1,6,28,278,795.8580096573569,796.5367888114415,"[57, 0, 197]",197,a,0.1556753283366561,colour,0.5
028,22,0,1,6,29,279,798.5454459525645,799.088817121461,"[37, 0, 217]",217,a,0.02001094911247492,colour,0.5
028,22,0,1,6,30,280,801.1080328943208,801.9367675441317,"[91, 0, 163]",163,l,0.30588091677054763,colour,0.5
028,22,0,1,6,31,281,803.9516935399733,804.84083479736,"[86, 0, 168]",168,l,0.3655116460286081,colour,0.5
028,22,0,1,6,32,282,806.8579060756601,807.6008475576527,"[32, 0, 222]",222,a,0.21970374835655093,colour,0.5
028,22,0,1,6,33,283,809.607908832375,810.2408056524582,"[13, 0, 241]",241,a,0.10968626197427511,colour,0.5
028,22,0,1,6,34,284,812.2485006260686,812.8808452733792,"[95, 0, 159]",159,l,0.10888438997790217,colour,0.5
028,22,0,1,6,35,285,814.8892078171484,815.5207714666612,"[30, 0, 224]",224,a,0.10831685736775398,colour,0.5
028,22,0,1,6,36,286,817.5297960662283,818.0808070702478,"[81, 0, 173]",173,l,0.027728371787816286,colour,0.5
028,22,0,1,6,37,287,820.0923073892482,820.7527557443827,"[36, 0, 218]",218,a,0.13738942751660943,colour,0.5
028,22,0,1,6,38,288,822.7641276693903,823.3607807615772,"[48, 0, 206]",206,a,0.07329090312123299,colour,0.5
028,22,0,1,6,39,289,825.3656526431441,826.0327967829071,"[92, 0, 162]",162,l,0.14388435054570436,colour,0.5
028,22,0,1,6,40,290,828.0531098125502,828.7288098745048,"[5, 0, 249]",249,a,0.1523489006794989,colour,0.5
028,22,0,1,6,41,291,830.7406559907831,831.5128086772747,"[31, 0, 223]",223,a,0.24897442338988185,colour,0.5
028,22,0,1,6,42,292,833.5219179540873,834.0648956699297,"[17, 0, 237]",237,a,0.019681299105286598,colour,0.5
028,22,0,1,6,43,293,836.0843792585656,836.6088828151114,"[24, 0, 230]",230,a,0.0012169857509434223,colour,0.5
028,22,0,1,6,44,294,838.6312702340074,839.4248335999437,"[29, 0, 225]",225,a,0.27050089417025447,colour,0.5
028,22,0,1,6,45,295,841.4437571386807,842.4008384994231,"[53, 0, 201]",201,a,0.4337345319800079,colour,0.5
028,22,0,1,6,46,296,844.412706670817,845.0330236386508,"[70, 0, 184]",184,a,0.09692563395947218,colour,0.5
028,22,0,1,6,47,297,847.0407670554705,847.7528538121842,"[12, 0, 242]",242,a,0.1872696983627975,colour,0.5
028,22,0,1,6,48,298,849.7572621363215,850.3607976967469,"[18, 0, 236]",236,a,0.08028207300230861,colour,0.5
028,22,0,1,6,49,299,852.3803179129027,853.1608733152971,"[42, 0, 212]",212,a,0.2572455946356058,colour,0.5
028,22,0,1,6,50,300,855.1652733688243,855.7768516694196,"[38, 0, 216]",216,a,0.08850913308560848,colour,0.5
028,22,0,1,7,1,301,863.4436563136987,864.0888856505044,"[25, 0, 229]",229,a,0.12104518990963697,colour,0.5
028,22,0,1,7,2,302,866.1030452214181,866.7528360891156,"[23, 0, 231]",231,a,0.1264720014296472,colour,0.5
028,22,0,1,7,3,303,868.7594653139822,869.7208837131038,"[3, 0, 251]",251,a,0.43814837001264095,colour,0.5
028,22,0,1,7,4,304,871.7281241877936,872.512846486643,"[33, 0, 221]",221,a,0.2612927621230483,colour,0.5
028,22,0,1,7,5,305,874.5147302546538,875.2968476521783,"[34, 0, 220]",220,a,0.258886753115803,colour,0.5
028,22,0,1,7,6,306,877.3115794821642,877.8968614367768,"[22, 0, 232]",232,a,0.061926066875457764,colour,0.5
028,22,0,1,7,7,307,879.9065776313655,880.5849416712299,"[75, 0, 179]",179,l,0.155082983430475,colour,0.5
028,22,0,1,7,8,308,882.5989251928404,883.6409391663037,"[13, 0, 241]",241,a,0.5186108243651688,colour,0.5
028,22,0,1,7,9,309,885.6615180419758,886.3049388355576,"[56, 0, 198]",198,a,0.12001843191683292,colour,0.5
028,22,0,1,7,10,310,888.3054181467742,888.9128984743729,"[26, 0, 228]",228,a,0.08420242136344314,colour,0.5
028,22,0,1,7,11,311,890.9323627641425,891.4569399701431,"[15, 0, 239]",239,a,0.0012272261083126068,colour,0.5
028,22,0,1,7,12,312,893.4792131735012,894.0969236646779,"[43, 0, 211]",211,a,0.09441919438540936,colour,0.5
028,22,0,1,7,13,313,896.0970745077357,896.8648688886315,"[9, 0, 245]",245,a,0.24437311477959156,colour,0.5
028,22,0,1,7,14,314,898.8803931376897,899.7369073596783,"[44, 0, 210]",210,a,0.3331291899085045,colour,0.5
028,22,0,1,7,15,315,901.7554307500832,902.5449556135572,"[72, 0, 182]",182,l,0.2662757085636258,colour,0.5
028,22,0,1,7,16,316,904.5523343286477,905.6329484139569,"[84, 0, 170]",170,l,0.5573334223590791,colour,0.5
028,22,0,1,7,17,317,907.6460209684446,908.7128839017823,"[5, 0, 249]",249,a,0.5435558827593923,colour,0.5
028,22,0,1,7,18,318,910.7242499194108,911.496902002953,"[60, 0, 194]",194,a,0.24950020853430033,colour,0.5
028,22,0,1,7,19,319,913.4950710106641,914.5689156618901,"[18, 0, 236]",236,a,0.5505470531061292,colour,0.5
028,22,0,1,7,20,320,916.5888513862155,917.3608981277794,"[51, 0, 203]",203,a,0.24871566658839583,colour,0.5
028,22,0,1,7,21,321,919.3700719950721,920.1849066191353,"[59, 0, 195]",195,a,0.2915626256726682,colour,0.5
028,22,0,1,7,22,322,922.199061463587,922.8329180879518,"[96, 0, 158]",158,l,0.1105409087613225,colour,0.5
028,22,0,1,7,23,323,924.8396682236344,925.6248977966607,"[87, 0, 167]",167,l,0.26241364888846874,colour,0.5
028,22,0,1,7,24,324,927.6365887378342,928.2809638213366,"[4, 0, 250]",250,a,0.13348877150565386,colour,0.5
028,22,0,1,7,25,325,930.296130457893,931.0809181351215,"[91, 0, 163]",163,l,0.26150465151295066,colour,0.5
028,22,0,1,7,26,326,933.0929855932482,933.8169267368503,"[61, 0, 193]",193,a,0.20063960691913962,colour,0.5
028,22,0,1,7,27,327,935.8149413564242,936.5929013099521,"[24, 0, 230]",230,a,0.25460485368967056,colour,0.5
028,22,0,1,7,28,328,938.611770497635,939.4010310904123,"[46, 0, 208]",208,a,0.2659629941917956,colour,0.5
028,22,0,1,7,29,329,941.4086728948168,942.1849247361533,"[52, 0, 202]",202,a,0.253086575306952,colour,0.5
028,22,0,1,7,30,330,944.195990642067,944.8649267838337,"[11, 0, 243]",243,a,0.14559246320277452,colour,0.5
028,22,0,1,7,31,331,946.8834379650652,947.5769757311791,"[90, 0, 164]",164,l,0.17026340449228883,colour,0.5
028,22,0,1,7,32,332,949.586663174443,950.4010247886181,"[19, 0, 235]",235,a,0.2910844958387315,colour,0.5
028,22,0,1,7,33,333,952.4146873252466,953.1768989311531,"[53, 0, 201]",201,a,0.2388584753498435,colour,0.5
028,22,0,1,7,34,334,955.1931171379983,955.841023449786,"[16, 0, 238]",238,a,0.12465597502887249,colour,0.5
028,22,0,1,7,35,335,957.8369802208617,958.52098414395,"[31, 0, 223]",223,a,0.1610682695172727,colour,0.5
028,22,0,1,7,36,336,960.5400809748098,961.2329385676421,"[97, 0, 157]",157,l,0.1695753545500338,colour,0.5
028,22,0,1,7,37,337,963.2432624674402,964.144947736524,"[73, 0, 181]",181,a,0.3784057879820466,colour,0.5
028,22,0,1,7,38,338,966.1651418241672,966.8489476419054,"[62, 0, 192]",192,a,0.1604684409685433,colour,0.5
028,22,0,1,7,39,339,968.8682354888879,969.5929375439882,"[63, 0, 191]",191,a,0.20141233364120126,colour,0.5
028,22,0,1,7,40,340,971.602615928743,972.3449461613782,"[58, 0, 196]",196,a,0.21937921922653913,colour,0.5
028,22,0,1,7,41,341,974.3525883597322,975.1369498949498,"[69, 0, 185]",185,a,0.26105369720607996,colour,0.5
028,22,0,1,7,42,342,977.1495013902895,977.8329751957208,"[82, 0, 172]",172,l,0.15969571424648166,colour,0.5
028,22,0,1,7,43,343,979.8544693705626,980.481038258411,"[32, 0, 222]",222,a,0.10328940628096461,colour,0.5
028,22,0,1,7,44,344,982.4950556503609,983.4729829151183,"[29, 0, 225]",225,a,0.45521295303478837,colour,0.5
028,22,0,1,7,45,345,985.4794939858839,986.2169830566272,"[78, 0, 176]",176,l,0.21416232781484723,colour,0.5
028,22,0,1,7,46,346,988.2294183676131,988.8890183768235,"[99, 0, 155]",155,l,0.13674863893538713,colour,0.5
028,22,0,1,7,47,347,990.9012922104448,991.6090076644905,"[14, 0, 240]",240,a,0.1843402679078281,colour,0.5
028,22,0,1,7,48,348,993.6201023212634,994.4809984797612,"[74, 0, 180]",180,a,0.3376332186162472,colour,0.5
028,22,0,1,7,49,349,996.4950895211659,997.3930395501666,"[7, 0, 247]",247,a,0.37521681236103177,colour,0.5
028,22,0,1,7,50,350,999.4014462046325,1000.3130296249874,"[71, 0, 183]",183,a,0.38836459163576365,colour,0.5
028,22,0,1,8,1,351,1015.0410525943153,1015.8330110358074,"[31, 0, 223]",223,a,0.26794325467199087,colour,0.5
028,22,0,1,8,2,352,1017.8544362876564,1018.4169598198496,"[42, 0, 212]",212,a,0.03954967577010393,colour,0.5
028,22,0,1,8,3,353,1020.4324462595396,1021.2490441342816,"[74, 0, 180]",180,a,0.2931143809109926,colour,0.5
028,22,0,1,8,4,354,1023.2484324909747,1023.9530223784968,"[27, 0, 227]",227,a,0.18137420946732163,colour,0.5
028,22,0,1,8,5,355,1025.9671106631868,1026.6010184870102,"[12, 0, 242]",242,a,0.11054681614041328,colour,0.5
028,22,0,1,8,6,356,1028.6077398722991,1029.2650697501376,"[71, 0, 183]",183,a,0.1340251904912293,colour,0.5
028,22,0,1,8,7,357,1031.281573889777,1032.3130737361498,"[21, 0, 233]",233,a,0.5081301741302013,colour,0.5
028,22,0,1,8,8,358,1034.328511338681,1034.936989279464,"[14, 0, 240]",240,a,0.08518940070644021,colour,0.5
028,22,0,1,8,9,359,1036.9534686063416,1037.6090088458732,"[32, 0, 222]",222,a,0.13224224699661136,colour,0.5
028,22,0,1,8,10,360,1039.6253849850036,1040.3290284592658,"[1, 0, 253]",253,a,0.18049593130126595,colour,0.5
028,22,0,1,8,11,361,1042.3444199822843,1042.968990886584,"[95, 0, 159]",159,l,0.10128078889101744,colour,0.5
028,22,0,1,8,12,362,1044.9850188652053,1045.7051176419482,"[53, 0, 201]",201,a,0.1967507661320269,colour,0.5
028,22,0,1,8,13,363,1047.7194197853096,1048.5050636851229,"[79, 0, 175]",175,l,0.26232976000756025,colour,0.5
028,22,0,1,8,14,364,1050.51633990556,1051.1290485453792,"[62, 0, 192]",192,a,0.08948075259104371,colour,0.5
028,22,0,1,8,15,365,1053.1286901454441,1053.7850866070949,"[98, 0, 156]",156,l,0.13296889420598745,colour,0.5
028,22,0,1,8,16,366,1055.8008030531928,1056.4010102162138,"[7, 0, 247]",247,a,0.077009208034724,colour,0.5
028,22,0,1,8,17,367,1058.4130914593115,1059.0970752956346,"[4, 0, 250]",250,a,0.16073113679885864,colour,0.5
028,22,0,1,8,18,368,1061.1161870928481,1061.7530231662095,"[13, 0, 241]",241,a,0.11356643820181489,colour,0.5
028,22,0,1,8,19,369,1063.7724008099176,1064.4011200997047,"[94, 0, 160]",160,l,0.10535985790193081,colour,0.5
028,22,0,1,8,20,370,1066.413050499279,1067.04105535103,"[96, 0, 158]",158,l,0.10461391182616353,colour,0.5
028,22,0,1,8,21,371,1069.0538852959871,1069.7130398652516,"[54, 0, 200]",200,a,0.13579316763207316,colour,0.5
028,22,0,1,8,22,372,1071.725585846696,1072.3211003285833,"[56, 0, 198]",198,a,0.07203847076743841,colour,0.5
028,22,0,1,8,23,373,1074.327008814551,1074.9851082684472,"[35, 0, 219]",219,a,0.13487826194614172,colour,0.5
028,22,0,1,8,24,374,1076.9873780058697,1077.7770379590802,"[19, 0, 235]",235,a,0.2663643239066005,colour,0.5
028,22,0,1,8,25,375,1079.786133844871,1080.7531062676571,"[70, 0, 184]",184,a,0.4441458648070693,colour,0.5
028,22,0,1,8,26,376,1082.7603451670147,1083.6011567274109,"[18, 0, 236]",236,a,0.31677904445677996,colour,0.5
028,22,0,1,8,27,377,1085.620583995711,1086.5610580295324,"[61, 0, 193]",193,a,0.41713468777015805,colour,0.5
028,22,0,1,8,28,378,1088.573687506374,1089.3930560918525,"[69, 0, 185]",185,l,0.2960449932143092,colour,0.5
028,22,0,1,8,29,379,1091.4018242973834,1092.065032728482,"[37, 0, 217]",217,a,0.1399191035889089,colour,0.5
028,22,0,1,8,30,380,1094.0736796297133,1094.8650610856712,"[48, 0, 206]",206,a,0.26831110706552863,colour,0.5
028,22,0,1,8,31,381,1096.8862496358342,1097.5770548945293,"[46, 0, 208]",208,a,0.16751002334058285,colour,0.5
028,22,0,1,8,32,382,1099.5893247895874,1100.2970961695537,"[66, 0, 188]",188,a,0.18448756635189056,colour,0.5
028,22,0,1,8,33,383,1102.3080738540739,1102.9051066143438,"[38, 0, 216]",216,a,0.0737473713234067,colour,0.5
028,22,0,1,8,34,384,1104.9174277093261,1105.593095870223,"[57, 0, 197]",197,a,0.15232211910188198,colour,0.5
028,22,0,1,8,35,385,1107.6049805833027,1108.3370979810134,"[91, 0, 163]",163,l,0.2091718981973827,colour,0.5
028,22,0,1,8,36,386,1110.3549801893532,1110.9050971618854,"[34, 0, 220]",220,a,0.026970217004418373,colour,0.5
028,22,0,1,8,37,387,1112.917426921893,1113.6411104896106,"[16, 0, 238]",238,a,0.20042771706357598,colour,0.5
028,22,0,1,8,38,388,1115.6517597064376,1116.4090962796472,"[83, 0, 171]",171,l,0.2340563042089343,colour,0.5
028,22,0,1,8,39,389,1118.41740604816,1119.2730711367913,"[30, 0, 224]",224,a,0.3322981735691428,colour,0.5
028,22,0,1,8,40,390,1121.2923806449398,1122.361086386256,"[36, 0, 218]",218,a,0.5454731276258826,colour,0.5
028,22,0,1,8,41,391,1124.3705280693248,1125.1691598463804,"[10, 0, 244]",244,a,0.2752857352606952,colour,0.5
028,22,0,1,8,42,392,1127.1830516019836,1128.025138830766,"[68, 0, 186]",186,l,0.31874118745326996,colour,0.5
028,22,0,1,8,43,393,1130.042425149586,1130.6491906451993,"[93, 0, 161]",161,l,0.08347419882193208,colour,0.5
028,22,0,1,8,44,394,1132.6673792665824,1133.5531157199293,"[76, 0, 178]",178,l,0.3624002584256232,colour,0.5
028,22,0,1,8,45,395,1135.57366426941,1136.3611454633065,"[8, 0, 246]",246,a,0.26421274011954665,colour,0.5
028,22,0,1,8,46,396,1138.370572573971,1139.1211149008013,"[85, 0, 169]",169,l,0.22725063608959317,colour,0.5
028,22,0,1,8,47,397,1141.1361381770112,1141.769144486636,"[86, 0, 168]",168,l,0.10966814495623112,colour,0.5
028,22,0,1,8,48,398,1143.7767697493546,1145.0331465187483,"[41, 0, 213]",213,a,0.7325502349995077,colour,0.5
028,22,0,1,8,49,399,1147.045166715514,1147.8890857244842,"[82, 0, 172]",172,l,0.32070214953273535,colour,0.5
028,22,0,1,8,50,400,1149.9044638569467,1150.481178861577,"[97, 0, 157]",157,l,0.0533496649004519,colour,0.5
028,22,0,1,9,1,401,1157.8107850938104,1158.729109197855,"[28, 0, 226]",226,a,0.39419076358899474,colour,0.5
028,22,0,1,9,2,402,1160.735253204126,1161.4091305444017,"[45, 0, 209]",209,a,0.1504288986325264,colour,0.5
028,22,0,1,9,3,403,1163.422834828496,1164.1371594211087,"[90, 0, 164]",164,l,0.19103487115353346,colour,0.5
028,22,0,1,9,4,404,1166.1571699762717,1166.8012110781856,"[97, 0, 157]",157,l,0.12099044537171721,colour,0.5
028,22,0,1,9,5,405,1168.8134904257022,1169.377239214722,"[58, 0, 196]",196,a,0.04054807685315609,colour,0.5
028,22,0,1,9,6,406,1171.3915000041015,1172.1851456840523,"[68, 0, 186]",186,a,0.2696033180691302,colour,0.5
028,22,0,1,9,7,407,1174.204895118717,1174.8171626506373,"[15, 0, 239]",239,a,0.08945987885817885,colour,0.5
028,22,0,1,9,8,408,1176.8298819246702,1177.4011854780838,"[7, 0, 247]",247,a,0.047977597918361425,colour,0.5
028,22,0,1,9,9,409,1179.4080195031129,1180.0171346878633,"[66, 0, 188]",188,a,0.08582782605662942,colour,0.5
028,22,0,1,9,10,410,1182.0330181247555,1182.609154568985,"[87, 0, 167]",167,l,0.05562491621822119,colour,0.5
028,22,0,1,9,11,411,1184.6239517773502,1185.1771616269834,"[23, 0, 231]",231,a,0.029934700578451157,colour,0.5
028,22,0,1,9,12,412,1187.188380739186,1187.9692350714467,"[10, 0, 244]",244,a,0.25748584140092134,colour,0.5
028,22,0,1,9,13,413,1189.985237450339,1190.6411660220474,"[0, 0, 254]",254,a,0.13258725684136152,colour,0.5
028,22,0,1,9,14,414,1192.6571357115172,1193.4011835088022,"[80, 0, 174]",174,l,0.2207372016273439,colour,0.5
028,22,0,1,9,15,415,1195.4228068655357,1196.1452588755637,"[34, 0, 220]",220,a,0.19917095312848687,colour,0.5
028,22,0,1,9,16,416,1198.1571270469576,1198.785179161001,"[69, 0, 185]",185,l,0.1047135554254055,colour,0.5
028,22,0,1,9,17,417,1200.7977223857306,1201.3851894009858,"[12, 0, 242]",242,a,0.06418241420760751,colour,0.5
028,22,0,1,9,18,418,1203.379468780011,1204.1531696771272,"[38, 0, 216]",216,a,0.25045725610107183,colour,0.5
028,22,0,1,9,19,419,1206.1482154815458,1206.809210495092,"[31, 0, 223]",223,a,0.1376249478198588,colour,0.5
028,22,0,1,9,20,420,1208.8200589981861,1209.609186864458,"[52, 0, 202]",202,a,0.26584484009072185,colour,0.5
028,22,0,1,9,21,421,1211.6169031057507,1212.3851897944696,"[32, 0, 222]",222,a,0.24499027198180556,colour,0.5
028,22,0,1,9,22,422,1214.398110324517,1215.4011921733618,"[43, 0, 211]",211,a,0.4796983920969069,colour,0.5
028,22,0,1,9,23,423,1217.41382086277,1218.2091880459338,"[74, 0, 180]",180,l,0.2721010926179588,colour,0.5
028,22,0,1,9,24,424,1220.2263034353964,1220.937147999648,"[1, 0, 253]",253,a,0.18778603104874492,colour,0.5
028,22,0,1,9,25,425,1222.9450012999587,1223.761198632419,"[53, 0, 201]",201,a,0.2928469590842724,colour,0.5
028,22,0,1,9,26,426,1225.7637940812856,1226.9772281870246,"[82, 0, 172]",172,l,0.6901483228430152,colour,0.5
028,22,0,1,9,27,427,1228.9982324168086,1229.5612104479223,"[91, 0, 163]",163,l,0.039710759185254574,colour,0.5
028,22,0,1,9,28,428,1231.5763593614101,1232.3132037054747,"[94, 0, 160]",160,l,0.2137499707750976,colour,0.5
028,22,0,1,9,29,429,1234.3263317919336,1235.225190424826,"[17, 0, 237]",237,a,0.37570951459929347,colour,0.5
028,22,0,1,9,30,430,1237.2325163641945,1238.041199105326,"[11, 0, 243]",243,a,0.2838739533908665,colour,0.5
028,22,0,1,9,31,431,1240.06234748289,1241.0892184511758,"[33, 0, 221]",221,a,0.5036162990145385,colour,0.5
028,22,0,1,9,32,432,1243.109134876635,1243.953228360042,"[54, 0, 200]",200,a,0.3209187649190426,colour,0.5
028,22,0,1,9,33,433,1245.9685446582735,1246.8572251149453,"[5, 0, 249]",249,a,0.36538561526685953,colour,0.5
028,22,0,1,9,34,434,1248.8748166644946,1249.753266169224,"[36, 0, 218]",218,a,0.355154269374907,colour,0.5
028,22,0,1,9,35,435,1251.765579781495,1252.577279387042,"[19, 0, 235]",235,a,0.2885339455679059,colour,0.5
028,22,0,1,9,36,436,1254.5935188615695,1255.3051991681568,"[67, 0, 187]",187,l,0.18850361928343773,colour,0.5
028,22,0,1,9,37,437,1257.3122486276552,1258.153224421665,"[21, 0, 233]",233,a,0.31798382056877017,colour,0.5
028,22,0,1,9,38,438,1260.1717040953226,1260.961213992443,"[81, 0, 173]",173,l,0.2663009143434465,colour,0.5
028,22,0,1,9,39,439,1262.9684973969124,1263.537227556575,"[98, 0, 156]",156,l,0.045499909203499556,colour,0.5
028,22,0,1,9,40,440,1265.5466113444418,1266.1132777486928,"[96, 0, 158]",158,l,0.04343851702287793,colour,0.5
028,22,0,1,9,41,441,1268.1270576515235,1268.905301568564,"[24, 0, 230]",230,a,0.2551589962095022,colour,0.5
028,22,0,1,9,42,442,1270.923865525052,1271.8092668154277,"[57, 0, 197]",197,a,0.36212259670719504,colour,0.5
028,22,0,1,9,43,443,1273.8301064171828,1274.8652406795882,"[18, 0, 236]",236,a,0.5118295745924115,colour,0.5
028,22,0,1,9,44,444,1276.876930044964,1277.6652599782683,"[62, 0, 192]",192,l,0.2650508456863463,colour,0.5
028,22,0,1,9,45,445,1279.6738623743877,1280.505270454567,"[76, 0, 178]",178,l,0.30816719587892294,colour,0.5
028,22,0,1,9,46,446,1282.5176498391666,1283.241300323978,"[86, 0, 168]",168,l,0.20037927431985736,colour,0.5
028,22,0,1,9,47,447,1285.2520472141914,1285.8812651140615,"[93, 0, 161]",161,l,0.10596362454816699,colour,0.5
028,22,0,1,9,48,448,1287.8927067499608,1288.85726765031,"[49, 0, 205]",205,a,0.44140469329431653,colour,0.5
028,22,0,1,9,49,449,1290.8770127529278,1291.5853280350566,"[9, 0, 245]",245,a,0.18501138221472502,colour,0.5
028,22,0,1,9,50,450,1293.5957846604288,1294.7052763621323,"[70, 0, 184]",184,l,0.5860952478833497,colour,0.5
028,22,0,1,10,1,451,1302.313752727583,1303.217329641804,"[63, 0, 191]",191,l,0.37946090288460255,colour,0.5
028,22,0,1,10,2,452,1305.2364453775808,1306.0813084370457,"[20, 0, 234]",234,a,0.321582003030926,colour,0.5
028,22,0,1,10,3,453,1308.0957464575768,1309.1132970470935,"[55, 0, 199]",199,l,0.4941939143463969,colour,0.5
028,22,0,1,10,4,454,1311.1146416389383,1311.8333032699302,"[45, 0, 209]",209,a,0.19530928786844015,colour,0.5
028,22,0,1,10,5,455,1313.850148086436,1314.553283892572,"[64, 0, 190]",190,a,0.17979961074888706,colour,0.5
028,22,0,1,10,6,456,1316.568923145067,1317.201354438439,"[16, 0, 238]",238,a,0.10919395368546247,colour,0.5
028,22,0,1,10,7,457,1319.2114841714501,1320.017317826394,"[92, 0, 162]",162,l,0.28249352145940065,colour,0.5
028,22,0,1,10,8,458,1322.0137554844841,1322.585312280804,"[6, 0, 248]",248,a,0.048193031921982765,colour,0.5
028,22,0,1,10,9,459,1324.5950300507247,1325.249313131906,"[57, 0, 197]",197,a,0.13096854742616415,colour,0.5
028,22,0,1,10,10,460,1327.2668530875817,1328.0573082165793,"[80, 0, 174]",174,l,0.26709687849506736,colour,0.5
028,22,0,1,10,11,461,1330.0657487418503,1330.8972804895602,"[27, 0, 227]",227,a,0.30820224806666374,colour,0.5
028,22,0,1,10,12,462,1332.9095736215822,1333.8013268690556,"[72, 0, 182]",182,l,0.3684780984185636,colour,0.5
028,22,0,1,10,13,463,1335.8157294434495,1336.665315904189,"[88, 0, 166]",166,l,0.32626129360869527,colour,0.5
028,22,0,1,10,14,464,1338.6750474586152,1339.3933506887406,"[96, 0, 158]",158,l,0.19500996405258775,colour,0.5
028,22,0,1,10,15,465,1341.4094424708746,1342.0333174481057,"[38, 0, 216]",216,a,0.10082156397402287,colour,0.5
028,22,0,1,10,16,466,1344.0500712865032,1344.633289879188,"[39, 0, 215]",215,a,0.05983868055045605,colour,0.5
028,22,0,1,10,17,467,1346.645021385979,1347.4493974149227,"[85, 0, 169]",169,l,0.28078147023916245,colour,0.5
028,22,0,1,10,18,468,1349.457515773829,1350.1133399764076,"[52, 0, 202]",202,a,0.13277827249839902,colour,0.5
028,22,0,1,10,19,469,1352.129402613733,1352.8334871958941,"[56, 0, 198]",198,a,0.18075665784999728,colour,0.5
028,22,0,1,10,20,470,1354.8504820680246,1355.7373224738985,"[74, 0, 180]",180,l,0.3635790413245559,colour,0.5
028,22,0,1,10,21,471,1357.7567064189352,1358.3452919586562,"[24, 0, 230]",230,a,0.06522610737010837,colour,0.5
028,22,0,1,10,22,472,1360.366047277581,1361.1694083637558,"[79, 0, 175]",175,l,0.2799543924629688,colour,0.5
028,22,0,1,10,23,473,1363.1786003480665,1363.7613778328523,"[32, 0, 222]",222,a,0.0594369568862021,colour,0.5
028,22,0,1,10,24,474,1365.7723937206902,1366.6973072714172,"[71, 0, 183]",183,l,0.40170653723180294,colour,0.5
028,22,0,1,10,25,475,1368.7098276526667,1369.5293963118456,"[89, 0, 165]",165,l,0.29638055013492703,colour,0.5
028,22,0,1,10,26,476,1371.5378955202177,1372.0973407481797,"[10, 0, 244]",244,a,0.03609603550285101,colour,0.5
028,22,0,1,10,27,477,1374.115962994285,1374.9373472859152,"[81, 0, 173]",173,l,0.29801265010610223,colour,0.5
028,22,0,1,10,28,478,1376.9441253850237,1377.497348625213,"[31, 0, 223]",223,a,0.029838208109140396,colour,0.5
028,22,0,1,10,29,479,1379.506786763668,1380.233358014375,"[22, 0, 232]",232,a,0.20336896320804954,colour,0.5
028,22,0,1,10,30,480,1382.2475045882165,1382.8013922474347,"[30, 0, 224]",224,a,0.030603057704865932,colour,0.5
028,22,0,1,10,31,481,1384.8100048839115,1386.1134305610321,"[77, 0, 177]",177,l,0.7802895558997989,colour,0.5
028,22,0,1,10,32,482,1388.1225449577905,1388.6973568960093,"[37, 0, 217]",217,a,0.05152261070907116,colour,0.5
028,22,0,1,10,33,483,1390.704597370699,1391.4013264751993,"[49, 0, 205]",205,a,0.17341063218191266,colour,0.5
028,22,0,1,10,34,484,1393.407752869185,1394.1853835671209,"[91, 0, 163]",163,l,0.25432601012289524,colour,0.5
028,22,0,1,10,35,485,1396.2048191064969,1396.7613766514696,"[51, 0, 203]",203,a,0.03325167624279857,colour,0.5
028,22,0,1,10,36,486,1398.7828212017193,1399.5373264122754,"[48, 0, 206]",206,a,0.22960190009325743,colour,0.5
028,22,0,1,10,37,487,1401.5500106341206,1402.4813241907395,"[0, 0, 254]",254,a,0.40786826610565186,colour,0.5
028,22,0,1,10,38,488,1404.4875371200033,1405.32943018293,"[76, 0, 178]",178,l,0.31850172905251384,colour,0.5
028,22,0,1,10,39,489,1407.3469784092158,1407.8893948942423,"[41, 0, 213]",213,a,0.019483982119709253,colour,0.5
028,22,0,1,10,40,490,1409.9094357755966,1410.9694690159522,"[29, 0, 225]",225,a,0.5368376486003399,colour,0.5
028,22,0,1,10,41,491,1412.9875973784365,1413.897381708026,"[23, 0, 231]",231,a,0.3864288358017802,colour,0.5
028,22,0,1,10,42,492,1415.9094468033873,1416.8254074342549,"[97, 0, 157]",157,l,0.39277567295357585,colour,0.5
028,22,0,1,10,43,493,1418.8486664355733,1419.5534323728643,"[73, 0, 181]",181,a,0.18146479409188032,colour,0.5
028,22,0,1,10,44,494,1421.5673304293305,1422.3533788095228,"[98, 0, 156]",156,l,0.26272203074768186,colour,0.5
028,22,0,1,10,45,495,1424.3642237680033,1425.137379187625,"[12, 0, 242]",242,a,0.2501650215126574,colour,0.5
028,22,0,1,10,46,496,1427.1454534353688,1427.7614609343,"[35, 0, 219]",219,a,0.09278985112905502,colour,0.5
028,22,0,1,10,47,497,1429.7705005002208,1430.4574011643417,"[4, 0, 250]",250,a,0.16364048141986132,colour,0.5
028,22,0,1,10,48,498,1432.4735760479234,1433.1374922217801,"[2, 0, 252]",252,a,0.14053980633616447,colour,0.5
028,22,0,1,10,49,499,1435.1453837249428,1436.1133939330466,"[46, 0, 208]",208,a,0.44459524378180504,colour,0.5
028,22,0,1,10,50,500,1438.1298614447005,1438.9053882146254,"[54, 0, 200]",200,a,0.2504891576245427,colour,0.5
028,22,0,1,11,1,501,1446.3371688737534,1447.1695395144634,"[0, 0, 254]",254,a,0.3082471461966634,colour,0.5
028,22,0,1,11,2,502,1449.1817905050702,1449.7934810519218,"[28, 0, 226]",226,a,0.088356320746243,colour,0.5
028,22,0,1,11,3,503,1451.794401471503,1452.5694560194388,"[17, 0, 237]",237,a,0.25186643889173865,colour,0.5
028,22,0,1,11,4,504,1454.5912719666958,1455.1854658811353,"[61, 0, 193]",193,a,0.07087977463379502,colour,0.5
028,22,0,1,11,5,505,1457.200743188616,1457.7374382647686,"[34, 0, 220]",220,a,0.013488062657415867,colour,0.5
028,22,0,1,11,6,506,1459.7474407851696,1460.3294920166954,"[22, 0, 232]",232,a,0.05863154074177146,colour,0.5
028,22,0,1,11,7,507,1462.3412495176308,1463.385448158253,"[39, 0, 215]",215,a,0.5209494852460921,colour,0.5
028,22,0,1,11,8,508,1465.4037242131308,1465.993420005776,"[69, 0, 185]",185,a,0.06633714819326997,colour,0.5
028,22,0,1,11,9,509,1468.0129579450004,1468.6094475910068,"[27, 0, 227]",227,a,0.07305105030536652,colour,0.5
028,22,0,1,11,10,510,1470.622476034332,1471.2094712215476,"[14, 0, 240]",240,a,0.06369522586464882,colour,0.5
028,22,0,1,11,11,511,1473.2162761022337,1473.8254755698144,"[53, 0, 201]",201,a,0.08592983242124319,colour,0.5
028,22,0,1,11,12,512,1475.8411750807427,1476.5934203998186,"[32, 0, 222]",222,a,0.22941403510048985,colour,0.5
028,22,0,1,11,13,513,1478.6067816438153,1479.3133490346372,"[91, 0, 163]",163,l,0.18322410667315125,colour,0.5
028,22,0,1,11,14,514,1481.3282951172441,1482.033529731445,"[75, 0, 179]",179,a,0.18198860995471478,colour,0.5
028,22,0,1,11,15,515,1484.046935480088,1484.70549809793,"[72, 0, 182]",182,a,0.13517364719882607,colour,0.5
028,22,0,1,11,16,516,1486.718833741732,1487.5214303717948,"[99, 0, 155]",155,l,0.27916866866871715,colour,0.5
028,22,0,1,11,17,517,1489.5314494338818,1490.2014942537062,"[29, 0, 225]",225,a,0.14669287065044045,colour,0.5
028,22,0,1,11,18,518,1492.2190259387717,1492.873484281823,"[96, 0, 158]",158,l,0.13124227104708552,colour,0.5
028,22,0,1,11,19,519,1494.8909119912423,1495.5374701661058,"[94, 0, 160]",160,l,0.12328341975808144,colour,0.5
028,22,0,1,11,20,520,1497.547085929662,1498.3374804062769,"[36, 0, 218]",218,a,0.2669495800510049,colour,0.5
028,22,0,1,11,21,521,1500.344037163537,1500.9856198751368,"[97, 0, 157]",157,l,0.11834497796371579,colour,0.5
028,22,0,1,11,22,522,1503.0002304003574,1503.9214618797414,"[7, 0, 247]",247,a,0.3978917393833399,colour,0.5
028,22,0,1,11,23,523,1505.937802966684,1506.5054717101157,"[38, 0, 216]",216,a,0.044393200892955065,colour,0.5
028,22,0,1,11,24,524,1508.5159456650726,1509.1294987122528,"[71, 0, 183]",183,a,0.09037951054051518,colour,0.5
028,22,0,1,11,25,525,1511.1409301082604,1511.9854469764978,"[11, 0, 243]",243,a,0.321473300922662,colour,0.5
028,22,0,1,11,26,526,1514.001671090722,1514.7295258874074,"[2, 0, 252]",252,a,0.20455207815393806,colour,0.5
028,22,0,1,11,27,527,1516.7378108436242,1517.449502965901,"[31, 0, 223]",223,a,0.1878494406118989,colour,0.5
028,22,0,1,11,28,528,1519.4594928831793,1520.0894953249954,"[20, 0, 234]",234,a,0.10668081883341074,colour,0.5
028,22,0,1,11,29,529,1522.100141784642,1522.833469866775,"[82, 0, 172]",172,l,0.21001866832375526,colour,0.5
028,22,0,1,11,30,530,1524.8521531592123,1525.53748473851,"[19, 0, 235]",235,a,0.16203398117795587,colour,0.5
028,22,0,1,11,31,531,1527.555273605045,1528.1776846549474,"[70, 0, 184]",184,a,0.09905319288372993,colour,0.5
028,22,0,1,11,32,532,1530.1865958268754,1530.921496144496,"[9, 0, 245]",245,a,0.21157396864145994,colour,0.5
028,22,0,1,11,33,533,1532.9366037040018,1533.6736406385899,"[24, 0, 230]",230,a,0.21378384111449122,colour,0.5
028,22,0,1,11,34,534,1535.679457752034,1536.2974927728064,"[83, 0, 171]",171,l,0.09459327440708876,colour,0.5
028,22,0,1,11,35,535,1538.304891968146,1538.94552314654,"[63, 0, 191]",191,a,0.1177526330575347,colour,0.5
028,22,0,1,11,36,536,1540.9602640345693,1541.7615593960509,"[79, 0, 175]",175,l,0.27809386141598225,colour,0.5
028,22,0,1,11,37,537,1543.7731211553328,1544.521507171914,"[51, 0, 203]",203,a,0.22517230780795217,colour,0.5
028,22,0,1,11,38,538,1546.5407016770914,1547.2494876058772,"[46, 0, 208]",208,a,0.18548754276707768,colour,0.5
028,22,0,1,11,39,539,1549.2593589755706,1550.1375583875924,"[74, 0, 180]",180,l,0.35489826928824186,colour,0.5
028,22,0,1,11,40,540,1552.149972430896,1552.85749923205,"[67, 0, 187]",187,l,0.18421778129413724,colour,0.5
028,22,0,1,11,41,541,1554.8687628493644,1555.7695505423471,"[84, 0, 170]",170,l,0.3774318052455783,colour,0.5
028,22,0,1,11,42,542,1557.7750135879032,1558.3455069987103,"[43, 0, 211]",211,a,0.04722574492916465,colour,0.5
028,22,0,1,11,43,543,1560.3531358060427,1561.0574933243915,"[62, 0, 192]",192,a,0.19348814152181149,colour,0.5
028,22,0,1,11,44,544,1563.0751167754643,1563.729500287678,"[55, 0, 199]",199,a,0.13105361815541983,colour,0.5
028,22,0,1,11,45,545,1565.73770844331,1566.369563145563,"[18, 0, 236]",236,a,0.10744369961321354,colour,0.5
028,22,0,1,11,46,546,1568.3794640535489,1569.257533102762,"[33, 0, 221]",221,a,0.3547805091366172,colour,0.5
028,22,0,1,11,47,547,1571.270131465979,1571.937539089471,"[73, 0, 181]",181,a,0.14406315749511123,colour,0.5
028,22,0,1,11,48,548,1573.9575543706305,1574.6816396620125,"[59, 0, 195]",195,a,0.20419289031997323,colour,0.5
028,22,0,1,11,49,549,1576.688856112305,1577.3695536931045,"[76, 0, 178]",178,a,0.1567930649034679,colour,0.5
028,22,0,1,11,50,550,1579.377015903592,1580.0575531888753,"[40, 0, 214]",214,a,0.1578158843331039,colour,0.5
028,22,0,1,12,1,551,1587.5343946185894,1588.0975817823783,"[82, 0, 172]",172,l,0.039040038362145424,colour,0.5
028,22,0,1,12,2,552,1590.1112391985953,1590.8015891709365,"[37, 0, 217]",217,a,0.16748836170881987,colour,0.5
028,22,0,1,12,3,553,1592.8143411343917,1593.6976050194353,"[79, 0, 175]",175,a,0.3599497452378273,colour,0.5
028,22,0,1,12,4,554,1595.70498373406,1596.3935519442894,"[46, 0, 208]",208,a,0.16519302409142256,colour,0.5
028,22,0,1,12,5,555,1598.4082022481598,1599.0415571117774,"[83, 0, 171]",171,l,0.11005411436781287,colour,0.5
028,22,0,1,12,6,556,1601.0488483929075,1601.5935964491218,"[36, 0, 218]",218,a,0.021354359574615955,colour,0.5
028,22,0,1,12,7,557,1603.6113266325556,1604.3455696203746,"[57, 0, 197]",197,a,0.2109654755331576,colour,0.5
028,22,0,1,12,8,558,1606.361312060617,1607.0656400402077,"[49, 0, 205]",205,a,0.18102604895830154,colour,0.5
028,22,0,1,12,9,559,1609.0821666284464,1609.6179704298265,"[7, 0, 247]",247,a,0.012581427581608295,colour,0.5
028,22,0,1,12,10,560,1611.6290249149315,1612.2335840822197,"[44, 0, 210]",210,a,0.08117255987599492,colour,0.5
028,22,0,1,12,11,561,1614.2416488779709,1614.8896272638813,"[97, 0, 157]",157,l,0.1246784245595336,colour,0.5
028,22,0,1,12,12,562,1616.8978681089357,1617.5615716055036,"[21, 0, 233]",233,a,0.14030704274773598,colour,0.5
028,22,0,1,12,13,563,1619.5697919703089,1620.1616042945534,"[55, 0, 199]",199,a,0.06848912592977285,colour,0.5
028,22,0,1,12,14,564,1622.1791324350052,1622.769581262488,"[64, 0, 190]",190,a,0.06707206601276994,colour,0.5
028,22,0,1,12,15,565,1624.7884642346762,1625.3615656974725,"[25, 0, 229]",229,a,0.04970185784623027,colour,0.5
028,22,0,1,12,16,566,1627.382249336224,1628.0735685648397,"[31, 0, 223]",223,a,0.16796097764745355,colour,0.5
028,22,0,1,12,17,567,1630.085355998017,1631.0495549533516,"[43, 0, 211]",211,a,0.44009357783943415,colour,0.5
028,22,0,1,12,18,568,1633.0706072328612,1633.6416287915781,"[29, 0, 225]",225,a,0.047688120510429144,colour,0.5
028,22,0,1,12,19,569,1635.6488015251234,1636.4016856630333,"[18, 0, 236]",236,a,0.22952628135681152,colour,0.5
028,22,0,1,12,20,570,1638.4144175401889,1639.0895614912733,"[61, 0, 193]",193,a,0.1518833739683032,colour,0.5
028,22,0,1,12,21,571,1641.1018786481582,1641.7856100290082,"[75, 0, 179]",179,a,0.16050979495048523,colour,0.5
028,22,0,1,12,22,572,1643.8049699496478,1644.537671027705,"[65, 0, 189]",189,a,0.20934637216851115,colour,0.5
028,22,0,1,12,23,573,1646.555013666395,1647.281644388102,"[76, 0, 178]",178,a,0.2033071294426918,colour,0.5
028,22,0,1,12,24,574,1649.2792576779611,1649.9375989539549,"[15, 0, 239]",239,a,0.13496569590643048,colour,0.5
028,22,0,1,12,25,575,1651.9511653920636,1652.601608469151,"[8, 0, 246]",246,a,0.127178561873734,colour,0.5
028,22,0,1,12,26,576,1654.6152666737325,1655.2656609141268,"[1, 0, 253]",253,a,0.1270722239278257,colour,0.5
028,22,0,1,12,27,577,1657.2871070397086,1657.8496632613242,"[71, 0, 183]",183,l,0.03930549090728164,colour,0.5
028,22,0,1,12,28,578,1659.866038219072,1660.6336029870436,"[91, 0, 163]",163,l,0.2442494467832148,colour,0.5
028,22,0,1,12,29,579,1662.6471922681667,1663.4016880262643,"[9, 0, 245]",245,a,0.23114420287311077,colour,0.5
028,22,0,1,12,30,580,1665.4129126528278,1665.9616913348436,"[63, 0, 191]",191,l,0.025438548531383276,colour,0.5
028,22,0,1,12,31,581,1667.9752959758043,1668.601669515483,"[24, 0, 230]",230,a,0.10307003371417522,colour,0.5
028,22,0,1,12,32,582,1670.6160492463969,1671.9776665382087,"[87, 0, 167]",167,l,0.8383791642263532,colour,0.5
028,22,0,1,12,33,583,1673.991752853617,1674.5216784952208,"[74, 0, 180]",180,l,0.007392105646431446,colour,0.5
028,22,0,1,12,34,584,1676.537996739149,1677.4817030713893,"[45, 0, 209]",209,a,0.42042724462226033,colour,0.5
028,22,0,1,12,35,585,1679.491165628191,1680.3456775341183,"[60, 0, 194]",194,a,0.33127732295542955,colour,0.5
028,22,0,1,12,36,586,1682.3666400164366,1682.9776389687322,"[88, 0, 166]",166,l,0.0876714214682579,colour,0.5
028,22,0,1,12,37,587,1684.9915901948698,1685.5536355976947,"[81, 0, 173]",173,l,0.03877301048487425,colour,0.5
028,22,0,1,12,38,588,1687.5700389118865,1688.4976526745595,"[23, 0, 231]",231,a,0.40497940173372626,colour,0.5
028,22,0,1,12,39,589,1690.5075390106067,1691.265600655228,"[48, 0, 206]",206,a,0.23469354771077633,colour,0.5
028,22,0,1,12,40,590,1693.2607969092205,1693.9456361802295,"[26, 0, 228]",228,a,0.1617657714523375,colour,0.5
028,22,0,1,12,41,591,1695.9639016012661,1696.5457413373515,"[12, 0, 242]",242,a,0.05852441443130374,colour,0.5
028,22,0,1,12,42,592,1698.5577130909078,1699.5857096719556,"[47, 0, 207]",207,a,0.5046970136463642,colour,0.5
028,22,0,1,12,43,593,1701.6045276597142,1702.2096968959086,"[68, 0, 186]",186,a,0.08182398229837418,colour,0.5
028,22,0,1,12,44,594,1704.2294774446636,1704.9616767624393,"[73, 0, 181]",181,a,0.2068864069879055,colour,0.5
028,22,0,1,12,45,595,1706.9815443512052,1707.62568076374,"[10, 0, 244]",244,a,0.12083054333925247,colour,0.5
028,22,0,1,12,46,596,1709.630068608094,1710.3456861986779,"[99, 0, 155]",155,l,0.20190306613221765,colour,0.5
028,22,0,1,12,47,597,1712.3562834276818,1712.9537698989734,"[58, 0, 196]",196,a,0.07415342656895518,colour,0.5
028,22,0,1,12,48,598,1714.9658578373492,1715.5377017478459,"[77, 0, 177]",177,l,0.04864713689312339,colour,0.5
028,22,0,1,12,49,599,1717.5458555528894,1718.5456842295825,"[96, 0, 158]",158,l,0.4767973185516894,colour,0.5
028,22,0,1,12,50,600,1720.561473537702,1721.2497695996426,"[27, 0, 227]",227,a,0.1649484452791512,colour,0.5
028,22,0,1,13,1,601,1728.6107338937,1729.265773553867,"[83, 0, 171]",171,l,0.130998479668051,colour,0.5
028,22,0,1,13,2,602,1731.2849621511996,1732.0417367056943,"[30, 0, 224]",224,a,0.23353288229554892,colour,0.5
028,22,0,1,13,3,603,1734.050435594283,1737.6497554215603,"[85, 0, 169]",169,l,3.0759214041754603,colour,0.5
028,22,0,1,13,4,604,1739.659865855705,1740.3537025512196,"[27, 0, 227]",227,a,0.17058163229376078,colour,0.5
028,22,0,1,13,5,605,1742.36298236344,1743.1217359970324,"[48, 0, 206]",206,a,0.23544579511508346,colour,0.5
028,22,0,1,13,6,606,1745.1286184652708,1745.6657058126293,"[19, 0, 235]",235,a,0.01372003834694624,colour,0.5
028,22,0,1,13,7,607,1747.675477932673,1748.2817247328348,"[67, 0, 187]",187,l,0.0829212386161089,colour,0.5
028,22,0,1,13,8,608,1750.3007325544022,1750.8737272848375,"[82, 0, 172]",172,l,0.04951714398339391,colour,0.5
028,22,0,1,13,9,609,1752.8945338036865,1753.665743228048,"[36, 0, 218]",218,a,0.24818279221653938,colour,0.5
028,22,0,1,13,10,610,1755.6757544130087,1756.3297235984355,"[31, 0, 223]",223,a,0.12836482794955373,colour,0.5
028,22,0,1,13,11,611,1758.3499180800281,1759.105752128642,"[55, 0, 199]",199,a,0.23245807504281402,colour,0.5
028,22,0,1,13,12,612,1761.115603018552,1761.8897485686466,"[56, 0, 198]",198,a,0.25076918257400393,colour,0.5
028,22,0,1,13,13,613,1763.8968291417696,1764.6257583517581,"[72, 0, 182]",182,l,0.20552291022613645,colour,0.5
028,22,0,1,13,14,614,1766.6469126371667,1767.4176888298243,"[14, 0, 240]",240,a,0.24747347459197044,colour,0.5
028,22,0,1,13,15,615,1769.4280564463697,1769.9617382022552,"[91, 0, 163]",163,l,0.015222562476992607,colour,0.5
028,22,0,1,13,16,616,1771.9679538886994,1772.625758745242,"[43, 0, 211]",211,a,0.13446747977286577,colour,0.5
028,22,0,1,13,17,617,1774.639787165448,1775.2417457643896,"[46, 0, 208]",208,a,0.07857750542461872,colour,0.5
028,22,0,1,13,18,618,1777.236824257765,1778.4337557996623,"[52, 0, 202]",202,a,0.6736591495573521,colour,0.5
028,22,0,1,13,19,619,1780.4555713534355,1781.161754350178,"[73, 0, 181]",181,a,0.18276763847097754,colour,0.5
028,22,0,1,13,20,620,1783.1638889983296,1783.8177451496013,"[69, 0, 185]",185,a,0.13975093141198158,colour,0.5
028,22,0,1,13,21,621,1785.8266055155545,1786.64972430747,"[4, 0, 250]",250,a,0.2999862153083086,colour,0.5
028,22,0,1,13,22,622,1788.6701984200627,1789.3698274167255,"[66, 0, 188]",188,a,0.1763010723516345,colour,0.5
028,22,0,1,13,23,623,1791.3889738721773,1791.9857557523064,"[3, 0, 251]",251,a,0.0735146077349782,colour,0.5
028,22,0,1,13,24,624,1793.9983690814115,1794.641834773589,"[70, 0, 184]",184,a,0.12016297364607453,colour,0.5
028,22,0,1,13,25,625,1796.6545536536723,1797.2098162313923,"[34, 0, 220]",220,a,0.03188542230054736,colour,0.5
028,22,0,1,13,26,626,1799.2170740352012,1799.7617716793902,"[39, 0, 215]",215,a,0.02138980571180582,colour,0.5
028,22,0,1,13,27,627,1801.7795270690694,1802.4418158689514,"[81, 0, 173]",173,a,0.13896363228559494,colour,0.5
028,22,0,1,13,28,628,1804.451352075208,1805.4577505062334,"[64, 0, 190]",190,a,0.4830642049200833,colour,0.5
028,22,0,1,13,29,629,1807.465078020934,1808.1298287557438,"[1, 0, 253]",253,a,0.14148228103294969,colour,0.5
028,22,0,1,13,30,630,1810.1369175994769,1810.7858065585606,"[33, 0, 221]",221,a,0.12554567446932197,colour,0.5
028,22,0,1,13,31,631,1812.793149039615,1813.4818243761547,"[10, 0, 244]",244,a,0.165472655557096,colour,0.5
028,22,0,1,13,32,632,1815.4963328950107,1816.1857439368032,"[75, 0, 179]",179,a,0.16601143730804324,colour,0.5
028,22,0,1,13,33,633,1818.1994738210924,1818.8257552008145,"[87, 0, 167]",167,a,0.10293218772858381,colour,0.5
028,22,0,1,13,34,634,1820.8400502549484,1821.4817857788876,"[37, 0, 217]",217,a,0.11870298441499472,colour,0.5
028,22,0,1,13,35,635,1823.4962281319313,1824.1377864247188,"[35, 0, 219]",219,a,0.11820791941136122,colour,0.5
028,22,0,1,13,36,636,1826.1525143161416,1826.7458055345342,"[13, 0, 241]",241,a,0.06996486894786358,colour,0.5
028,22,0,1,13,37,637,1828.7637117672712,1829.3298236355186,"[32, 0, 222]",222,a,0.04281742079183459,colour,0.5
028,22,0,1,13,38,638,1831.3418068103492,1832.4577713799663,"[77, 0, 177]",177,l,0.5925964727066457,colour,0.5
028,22,0,1,13,39,639,1834.4666959424503,1835.1618027933873,"[90, 0, 164]",164,l,0.17190771410241723,colour,0.5
028,22,0,1,13,40,640,1837.1700148875825,1837.8817948373035,"[97, 0, 157]",157,l,0.1885481239296496,colour,0.5
028,22,0,1,13,41,641,1839.888731656596,1840.5057796980254,"[60, 0, 194]",194,a,0.09373980900272727,colour,0.5
028,22,0,1,13,42,642,1842.5137314596213,1843.0818239822984,"[86, 0, 168]",168,l,0.044809102546423674,colour,0.5
028,22,0,1,13,43,643,1845.0794991059229,1845.609819775913,"[44, 0, 210]",210,a,0.007328302599489689,colour,0.5
028,22,0,1,13,44,644,1847.6263959892094,1848.6338255102746,"[17, 0, 237]",237,a,0.48420399660244584,colour,0.5
028,22,0,1,13,45,645,1850.6419352046214,1851.4177640546113,"[29, 0, 225]",225,a,0.25244184862822294,colour,0.5
028,22,0,1,13,46,646,1853.4392432630993,1854.2818251638673,"[92, 0, 162]",162,l,0.31898182816803455,colour,0.5
028,22,0,1,13,47,647,1856.2998369475827,1856.8499196553603,"[6, 0, 248]",248,a,0.02666222956031561,colour,0.5
028,22,0,1,13,48,648,1858.8623210950755,1859.4418981829658,"[5, 0, 249]",249,a,0.0561152552254498,colour,0.5
028,22,0,1,13,49,649,1861.4436945170164,1862.1059971014038,"[59, 0, 195]",195,a,0.13897899212315679,colour,0.5
028,22,0,1,13,50,650,1864.115639646072,1864.8258469668217,"[95, 0, 159]",159,l,0.1868730946443975,colour,0.5
028,22,0,1,14,1,651,1872.3022642238066,1873.2978535364382,"[43, 0, 211]",211,a,0.47132442705333233,colour,0.5
028,22,0,1,14,2,652,1875.3187581230886,1875.8658357816748,"[52, 0, 202]",202,a,0.023830866441130638,colour,0.5
028,22,0,1,14,3,653,1877.8811642890796,1878.577840224374,"[96, 0, 158]",158,l,0.1732621523551643,colour,0.5
028,22,0,1,14,4,654,1880.5843473570421,1881.2658290863037,"[2, 0, 252]",252,a,0.1580360447987914,colour,0.5
028,22,0,1,14,5,655,1883.2719608834013,1883.94585909741,"[20, 0, 234]",234,a,0.14961796859279275,colour,0.5
028,22,0,1,14,6,656,1885.960406607017,1886.7698459271342,"[75, 0, 179]",179,l,0.2861830755136907,colour,0.5
028,22,0,1,14,7,657,1888.7895280141383,1889.3778685815632,"[98, 0, 156]",156,l,0.06508038425818086,colour,0.5
028,22,0,1,14,8,658,1891.3987940419465,1891.953838034533,"[17, 0, 237]",237,a,0.03170937253162265,colour,0.5
028,22,0,1,14,9,659,1893.9633907824755,1894.641900151968,"[45, 0, 209]",209,a,0.15531653445214033,colour,0.5
028,22,0,1,14,10,660,1896.6507546100765,1897.2418458014727,"[41, 0, 213]",213,a,0.06770103937014937,colour,0.5
028,22,0,1,14,11,661,1899.2602073210292,1900.089877750259,"[54, 0, 200]",200,a,0.306426000315696,colour,0.5
028,22,0,1,14,12,662,1902.103964459151,1902.6738816727884,"[57, 0, 197]",197,a,0.04669444588944316,colour,0.5
028,22,0,1,14,13,663,1904.6820575329475,1905.6578863831237,"[76, 0, 178]",178,l,0.45248595951125026,colour,0.5
028,22,0,1,14,14,664,1907.6664155237377,1908.4258272745647,"[80, 0, 174]",174,l,0.23610706301406026,colour,0.5
028,22,0,1,14,15,665,1910.4339137319475,1911.6579198599793,"[31, 0, 223]",223,a,0.7006226712837815,colour,0.5
028,22,0,1,14,16,666,1913.6683536428027,1914.3458756390028,"[39, 0, 215]",215,a,0.15431695198640227,colour,0.5
028,22,0,1,14,17,667,1916.3558781598695,1917.0578840202652,"[11, 0, 243]",243,a,0.1787232286296785,colour,0.5
028,22,0,1,14,18,668,1919.0745917782187,1919.9459201437421,"[47, 0, 207]",207,a,0.34804258262738585,colour,0.5
028,22,0,1,14,19,669,1921.968287870288,1922.7778733074665,"[84, 0, 170]",170,l,0.28637133445590734,colour,0.5
028,22,0,1,14,20,670,1924.7964207227342,1925.6018817988224,"[86, 0, 168]",168,l,0.2821721425279975,colour,0.5
028,22,0,1,14,21,671,1927.5997250950895,1928.36989515787,"[94, 0, 160]",160,l,0.24685789225623012,colour,0.5
028,22,0,1,14,22,672,1930.3808882026933,1930.9618827439845,"[60, 0, 194]",194,a,0.057613447308540344,colour,0.5
028,22,0,1,14,23,673,1932.9747201721184,1933.7619611197151,"[71, 0, 183]",183,l,0.26396855525672436,colour,0.5
028,22,0,1,14,24,674,1935.765257221181,1936.2979437271133,"[42, 0, 212]",212,a,0.009442470502108335,colour,0.5
028,22,0,1,14,25,675,1938.3119957782328,1939.0819287453778,"[99, 0, 155]",155,l,0.24658180586993694,colour,0.5
028,22,0,1,14,26,676,1941.0950532876886,1941.7458717008121,"[50, 0, 204]",204,a,0.12758619338274002,colour,0.5
028,22,0,1,14,27,677,1943.7669546999969,1944.4979271856137,"[82, 0, 172]",172,l,0.20763668417930603,colour,0.5
028,22,0,1,14,28,678,1946.5173323987983,1947.2019310295582,"[27, 0, 227]",227,a,0.16441005701199174,colour,0.5
028,22,0,1,14,29,679,1949.2204032200389,1949.8099418682978,"[64, 0, 190]",190,a,0.06622884050011635,colour,0.5
028,22,0,1,14,30,680,1951.829799217172,1952.5859290445223,"[81, 0, 173]",173,l,0.23272549686953425,colour,0.5
028,22,0,1,14,31,681,1954.5938276369125,1955.4819752192125,"[87, 0, 167]",167,l,0.36497640842571855,colour,0.5
028,22,0,1,14,32,682,1957.500157144852,1958.1139437430538,"[16, 0, 238]",238,a,0.09055595379322767,colour,0.5
028,22,0,1,14,33,683,1960.1251120492816,1961.1619252795354,"[21, 0, 233]",233,a,0.5136345736682415,colour,0.5
028,22,0,1,14,34,684,1963.1731766876765,1963.7699755029753,"[53, 0, 201]",201,a,0.07352090952917933,colour,0.5
028,22,0,1,14,35,685,1965.7825616565533,1966.3939363388345,"[56, 0, 198]",198,a,0.08802864048629999,colour,0.5
028,22,0,1,14,36,686,1968.4075949368998,1969.1860019061714,"[79, 0, 175]",175,l,0.2551822327077389,colour,0.5
028,22,0,1,14,37,687,1971.204861247912,1971.89793900121,"[46, 0, 208]",208,a,0.16975416103377938,colour,0.5
028,22,0,1,14,38,688,1973.9079887834378,1974.8019302417524,"[22, 0, 232]",232,a,0.3706064447760582,colour,0.5
028,22,0,1,14,39,689,1976.8142257370055,1977.5220175972208,"[14, 0, 240]",240,a,0.18443360924720764,colour,0.5
028,22,0,1,14,40,690,1979.53311186051,1980.1219849078916,"[8, 0, 246]",246,a,0.06555969547480345,colour,0.5
028,22,0,1,14,41,691,1982.13803179143,1982.825935188681,"[65, 0, 189]",189,a,0.16455144807696342,colour,0.5
028,22,0,1,14,42,692,1984.8289240901358,1985.5459504700266,"[19, 0, 235]",235,a,0.19374296022579074,colour,0.5
028,22,0,1,14,43,693,1987.5633576991968,1988.250029932242,"[28, 0, 226]",226,a,0.16342347161844373,colour,0.5
028,22,0,1,14,44,694,1990.2666246565059,1991.0579478233121,"[48, 0, 206]",206,a,0.2681803503073752,colour,0.5
028,22,0,1,14,45,695,1993.0789689887315,1993.7860109647736,"[35, 0, 219]",219,a,0.18383259931579232,colour,0.5
028,22,0,1,14,46,696,1995.7853426071815,1996.4179263194092,"[6, 0, 248]",248,a,0.10936015704646707,colour,0.5
028,22,0,1,14,47,697,1998.425932825543,1999.3219734863378,"[92, 0, 162]",162,l,0.3728245887905359,colour,0.5
028,22,0,1,14,48,698,2001.332176080905,2002.9380258838646,"[3, 0, 251]",251,a,1.08251478895545,colour,0.5
028,22,0,1,14,49,699,2004.9487207862549,2005.5379805914126,"[62, 0, 192]",192,a,0.06588264973834157,colour,0.5
028,22,0,1,14,50,700,2007.5455818297341,2008.1699975579977,"[7, 0, 247]",247,a,0.10127566894516349,colour,0.5
028,22,0,1,15,1,701,2015.54474490555,2016.257988783531,"[48, 0, 206]",206,a,0.1891321986913681,colour,0.5
028,22,0,1,15,2,702,2018.2642607893795,2018.9060100982897,"[22, 0, 232]",232,a,0.11841705208644271,colour,0.5
028,22,0,1,15,3,703,2020.920539884828,2021.6579710603692,"[96, 0, 158]",158,l,0.2140859216451645,colour,0.5
028,22,0,1,15,4,704,2023.6653481996618,2024.2500748308375,"[21, 0, 233]",233,a,0.06138255866244435,colour,0.5
028,22,0,1,15,5,705,2026.259147873614,2026.8099910989404,"[38, 0, 216]",216,a,0.027444802224636078,colour,0.5
028,22,0,1,15,6,706,2028.8216757383198,2029.570040881168,"[80, 0, 174]",174,l,0.22512386459857225,colour,0.5
028,22,0,1,15,7,707,2031.5872425227426,2032.3380144620314,"[74, 0, 180]",180,l,0.2272301558405161,colour,0.5
028,22,0,1,15,8,708,2034.3530093813315,2034.9619902642444,"[4, 0, 250]",250,a,0.08592786313965917,colour,0.5
028,22,0,1,15,9,709,2036.9779438059777,2037.5779894920997,"[6, 0, 248]",248,a,0.07675675256177783,colour,0.5
028,22,0,1,15,10,710,2039.5779871293344,2040.170005435124,"[2, 0, 252]",252,a,0.06875260919332504,colour,0.5
028,22,0,1,15,11,711,2042.1874902523123,2042.9699967703782,"[78, 0, 176]",176,l,0.25924200285226107,colour,0.5
028,22,0,1,15,12,712,2044.9718076768331,2045.8180385655724,"[75, 0, 179]",179,l,0.3228261643089354,colour,0.5
028,22,0,1,15,13,713,2047.8312942585908,2048.562013894785,"[12, 0, 242]",242,a,0.20769064128398895,colour,0.5
028,22,0,1,15,14,714,2050.5812434521504,2051.4740427560173,"[79, 0, 175]",175,l,0.3694674405269325,colour,0.5
028,22,0,1,15,15,715,2053.4760411335155,2054.1139980936423,"[31, 0, 223]",223,a,0.1145530235953629,colour,0.5
028,22,0,1,15,16,716,2056.132352917921,2056.7940867878497,"[27, 0, 227]",227,a,0.1383291450329125,colour,0.5
028,22,0,1,15,17,717,2058.804316557944,2059.5300284358673,"[73, 0, 181]",181,l,0.2024662671610713,colour,0.5
028,22,0,1,15,18,718,2061.5386300440878,2062.106034122873,"[15, 0, 239]",239,a,0.04410844948142767,colour,0.5
028,22,0,1,15,19,719,2064.116786133498,2064.7380199758336,"[44, 0, 210]",210,a,0.09788622567430139,colour,0.5
028,22,0,1,15,20,720,2066.7573554781266,2067.602033429779,"[82, 0, 172]",172,l,0.3212850424461067,colour,0.5
028,22,0,1,15,21,721,2069.616765259765,2070.306017975323,"[61, 0, 193]",193,a,0.1660264036618173,colour,0.5
028,22,0,1,15,22,722,2072.3198396256194,2073.0420261831023,"[95, 0, 159]",159,l,0.1989311007782817,colour,0.5
028,22,0,1,15,23,723,2075.054238576442,2075.7141186110675,"[59, 0, 195]",195,a,0.13695974135771394,colour,0.5
028,22,0,1,15,24,724,2077.7261297488585,2078.3220912464894,"[7, 0, 247]",247,a,0.07259064400568604,colour,0.5
028,22,0,1,15,25,725,2080.3354249210097,2080.9220242924057,"[17, 0, 237]",237,a,0.06329153291881084,colour,0.5
028,22,0,1,15,26,726,2082.9291702443734,2083.610056477599,"[76, 0, 178]",178,l,0.15735272085294127,colour,0.5
028,22,0,1,15,27,727,2085.6167061827146,2086.2980031981133,"[9, 0, 245]",245,a,0.15799981076270342,colour,0.5
028,22,0,1,15,28,728,2088.3042704779655,2088.906051058322,"[23, 0, 231]",231,a,0.0785428467206657,colour,0.5
028,22,0,1,15,29,729,2090.9136054287665,2091.626116751693,"[66, 0, 188]",188,a,0.18919166922569275,colour,0.5
028,22,0,1,15,30,730,2093.632428142708,2094.3700664811768,"[49, 0, 205]",205,a,0.21442817384377122,colour,0.5
028,22,0,1,15,31,731,2096.382314715069,2097.1620749412104,"[86, 0, 168]",168,l,0.25643151393160224,colour,0.5
028,22,0,1,15,32,732,2099.1791635486297,2099.778108039871,"[3, 0, 251]",251,a,0.07559057278558612,colour,0.5
028,22,0,1,15,33,733,2101.7885839641094,2102.3301123250276,"[32, 0, 222]",222,a,0.018253999296575785,colour,0.5
028,22,0,1,15,34,734,2104.3510007639416,2105.2181905903853,"[89, 0, 165]",165,l,0.3439079816453159,colour,0.5
028,22,0,1,15,35,735,2107.213658204302,2107.898069757968,"[85, 0, 169]",169,l,0.16107929684221745,colour,0.5
028,22,0,1,15,36,736,2109.916918859817,2111.026037194766,"[18, 0, 236]",236,a,0.5857801702804863,colour,0.5
028,22,0,1,15,37,737,2113.029377801344,2113.64206556743,"[29, 0, 225]",225,a,0.08925783541053534,colour,0.5
028,22,0,1,15,38,738,2115.6544449520297,2116.2660689391196,"[19, 0, 235]",235,a,0.0883303270675242,colour,0.5
028,22,0,1,15,39,739,2118.281464006286,2118.8341055349447,"[26, 0, 228]",228,a,0.02940891496837139,colour,0.5
028,22,0,1,15,40,740,2120.8439481542446,2121.626161650289,"[91, 0, 163]",163,l,0.25932037830352783,colour,0.5
028,22,0,1,15,41,741,2123.6419458384626,2124.1701192567125,"[50, 0, 204]",204,a,0.00493647251278162,colour,0.5
028,22,0,1,15,42,742,2126.197418335825,2127.098084330559,"[99, 0, 155]",155,l,0.37743771309033036,colour,0.5
028,22,0,1,15,43,743,2129.105313383974,2129.818079525605,"[63, 0, 191]",191,a,0.18944058055058122,colour,0.5
028,22,0,1,15,44,744,2131.8240533899516,2132.602079115808,"[92, 0, 162]",162,l,0.2546619614586234,colour,0.5
028,22,0,1,15,45,745,2134.620888439007,2135.386061376892,"[88, 0, 166]",166,l,0.24186194874346256,colour,0.5
028,22,0,1,15,46,746,2137.402317787055,2138.2021720637567,"[20, 0, 234]",234,a,0.2767618726938963,colour,0.5
028,22,0,1,15,47,747,2140.2156920279376,2141.066145345103,"[94, 0, 160]",160,l,0.3271494172513485,colour,0.5
028,22,0,1,15,48,748,2143.075058880262,2143.698113474995,"[70, 0, 184]",184,a,0.09990783967077732,colour,0.5
028,22,0,1,15,49,749,2145.7156664277427,2146.4740990758874,"[46, 0, 208]",208,a,0.23513977602124214,colour,0.5
028,22,0,1,15,50,750,2148.4813470342197,2149.3541093948297,"[55, 0, 199]",199,a,0.34948603017255664,colour,0.5
028,22,0,1,16,1,751,2168.026037194766,2168.746108402498,"[19, 0, 235]",235,a,0.19327625213190913,colour,0.5
028,22,0,1,16,2,752,2170.7637527273037,2171.6101395790465,"[90, 0, 164]",164,l,0.3230502624064684,colour,0.5
028,22,0,1,16,3,753,2173.623168416787,2174.4342248705216,"[37, 0, 217]",217,a,0.287748615257442,colour,0.5
028,22,0,1,16,4,754,2176.4512713365257,2177.2741041961126,"[55, 0, 199]",199,a,0.299501390196383,colour,0.5
028,22,0,1,16,5,755,2179.2950918846764,2180.226149835158,"[76, 0, 178]",178,l,0.40795845724642277,colour,0.5
028,22,0,1,16,6,756,2182.2325655953027,2183.098148527555,"[5, 0, 249]",249,a,0.34230699576437473,colour,0.5
028,22,0,1,16,7,757,2185.107514985837,2185.746139910072,"[68, 0, 186]",186,a,0.11528794141486287,colour,0.5
028,22,0,1,16,8,758,2187.763786204625,2188.4101612409577,"[32, 0, 222]",222,a,0.12310933973640203,colour,0.5
028,22,0,1,16,9,759,2190.420049545821,2191.4021850605495,"[77, 0, 177]",177,l,0.4588485499843955,colour,0.5
028,22,0,1,16,10,760,2193.4200523030013,2194.1061999322847,"[13, 0, 241]",241,a,0.16287366207689047,colour,0.5
028,22,0,1,16,11,761,2196.1232708166353,2196.8501858958043,"[88, 0, 166]",166,l,0.20362653909251094,colour,0.5
028,22,0,1,16,12,762,2198.857629201375,2199.6581809804775,"[61, 0, 193]",193,a,0.2772104637697339,colour,0.5
028,22,0,1,16,13,763,2201.6701696692035,2202.2501500556245,"[39, 0, 215]",215,a,0.05672650504857302,colour,0.5
028,22,0,1,16,14,764,2204.2638578843325,2204.890186131932,"[28, 0, 226]",226,a,0.10304285818710923,colour,0.5
028,22,0,1,16,15,765,2206.904509149026,2207.482161508873,"[65, 0, 189]",189,a,0.054405567701905966,colour,0.5
028,22,0,1,16,16,766,2209.4982115430757,2210.114182020072,"[40, 0, 214]",214,a,0.0925436969846487,colour,0.5
028,22,0,1,16,17,767,2212.123297204729,2212.8181531750597,"[36, 0, 218]",218,a,0.1716265077702701,colour,0.5
028,22,0,1,16,18,768,2214.826353847515,2215.57817617571,"[91, 0, 163]",163,l,0.22853457601740956,colour,0.5
028,22,0,1,16,19,769,2217.591959229205,2218.2502177972347,"[56, 0, 198]",198,a,0.13492985581979156,colour,0.5
028,22,0,1,16,20,770,2220.265943695791,2220.978201775346,"[54, 0, 200]",200,a,0.18891715817153454,colour,0.5
028,22,0,1,16,21,771,2222.984706151299,2223.578191929497,"[41, 0, 213]",213,a,0.07043197099119425,colour,0.5
028,22,0,1,16,22,772,2225.5939863570966,2226.2582046110183,"[93, 0, 161]",161,l,0.14088245248422027,colour,0.5
028,22,0,1,16,23,773,2228.266080360394,2228.8421671800315,"[43, 0, 211]",211,a,0.05286956578493118,colour,0.5
028,22,0,1,16,24,774,2230.859682323411,2231.562159618363,"[69, 0, 185]",185,a,0.17913716100156307,colour,0.5
028,22,0,1,16,25,775,2233.578457382042,2234.4581668018363,"[60, 0, 194]",194,a,0.3563704676926136,colour,0.5
028,22,0,1,16,26,776,2236.4694548374973,2237.2341843042523,"[22, 0, 232]",232,a,0.2414444712921977,colour,0.5
028,22,0,1,16,27,777,2239.252356777899,2240.1781726307236,"[6, 0, 248]",248,a,0.4025726052932441,colour,0.5
028,22,0,1,16,28,778,2242.1898891716264,2242.8741995068267,"[97, 0, 157]",157,l,0.16103754937648773,colour,0.5
028,22,0,1,16,29,779,2244.892910368275,2245.802181122359,"[11, 0, 243]",243,a,0.38591447239741683,colour,0.5
028,22,0,1,16,30,780,2247.814896063879,2248.6822119210847,"[33, 0, 221]",221,a,0.3440198344178498,colour,0.5
028,22,0,1,16,31,781,2250.689825762529,2251.4342138431966,"[31, 0, 223]",223,a,0.22103495011106133,colour,0.5
028,22,0,1,16,32,782,2253.455654454883,2254.07426331006,"[23, 0, 231]",231,a,0.09521752130240202,colour,0.5
028,22,0,1,16,33,783,2256.080710971728,2256.690244421363,"[86, 0, 168]",168,l,0.0862327003851533,colour,0.5
028,22,0,1,16,34,784,2258.7056883256882,2260.010297117755,"[70, 0, 184]",184,a,0.781296621542424,colour,0.5
028,22,0,1,16,35,785,2262.0181456916034,2262.6342221135274,"[7, 0, 247]",247,a,0.09272841131314635,colour,0.5
028,22,0,1,16,36,786,2264.643178184051,2265.2342500770465,"[72, 0, 182]",182,l,0.06783967325463891,colour,0.5
028,22,0,1,16,37,787,2267.2525722119026,2267.7942084865645,"[73, 0, 181]",181,a,0.01834812853485346,colour,0.5
028,22,0,1,16,38,788,2269.8180767684244,2270.6662410497665,"[20, 0, 234]",234,a,0.32484305184334517,colour,0.5
028,22,0,1,16,39,789,2272.6660468834452,2273.706195599865,"[75, 0, 179]",179,l,0.516816065646708,colour,0.5
028,22,0,1,16,40,790,2275.726582672447,2276.498205635231,"[53, 0, 201]",201,a,0.24844273086637259,colour,0.5
028,22,0,1,16,41,791,2278.507697730791,2279.3222054620273,"[44, 0, 210]",210,a,0.29124124674126506,colour,0.5
028,22,0,1,16,42,792,2281.3357805646956,2281.8822883274406,"[87, 0, 167]",167,l,0.023153844755142927,colour,0.5
028,22,0,1,16,43,793,2283.898305672221,2284.8182287933305,"[52, 0, 202]",202,a,0.3966200090944767,colour,0.5
028,22,0,1,16,44,794,2286.835808527656,2287.3622789536603,"[99, 0, 155]",155,l,0.00347884651273489,colour,0.5
028,22,0,1,16,45,795,2289.3827172261663,2290.1702905800194,"[83, 0, 171]",171,l,0.26314029609784484,colour,0.5
028,22,0,1,16,46,796,2292.181626270991,2292.938249194529,"[25, 0, 229]",229,a,0.23327373107895255,colour,0.5
028,22,0,1,16,47,797,2294.9472730066627,2295.474274731707,"[14, 0, 240]",240,a,0.003687585238367319,colour,0.5
028,22,0,1,16,48,798,2297.481782234274,2299.226331792306,"[29, 0, 225]",225,a,1.2212389628402889,colour,0.5
028,22,0,1,16,49,799,2301.24751128396,2301.9864339558408,"[35, 0, 219]",219,a,0.21558371977880597,colour,0.5
028,22,0,1,16,50,800,2303.9974549636245,2304.7062322278507,"[49, 0, 205]",205,a,0.1854737582616508,colour,0.5
