id,age,condition,counterbalance,block,trialinblock,trial,tstart,tend,trialstim,trialintensity,response,RT,trialtype,colourfreq
06,18,1,2,Practice,1,NA,5.907844752073288e-06,0.7121470747515559,"[84, 0, 170]",170,a,0.1575856297276914,colour,0.5
06,18,1,2,Practice,2,NA,2.719897174742073,12.416115151252598,"[24, 0, 230]",230,l,9.174191355705261,colour,0.5
06,18,1,2,Practice,3,NA,14.423788451589644,15.05612698243931,"[50, 0, 204]",204,a,0.11030088271945715,colour,0.5
06,18,1,2,Practice,4,NA,17.065383937209845,17.976120728068054,"[14, 0, 240]",240,a,0.38876964105293155,colour,0.5
06,18,1,2,Practice,5,NA,19.987760056741536,20.960184540599585,"[33, 0, 221]",221,a,0.45054870611056685,colour,0.5
06,18,1,2,Practice,6,NA,22.972081838175654,23.70413900585845,"[4, 0, 250]",250,a,0.20999155612662435,colour,0.5
06,18,1,2,Practice,7,NA,25.722203536424786,26.288162488490343,"[72, 0, 182]",182,l,0.04387128492817283,colour,0.5
06,18,1,2,Practice,8,NA,28.300552093423903,33.92013395531103,"[0, 0, 254]",254,a,5.097352410200983,colour,0.5
06,18,1,2,Practice,9,NA,35.92616176698357,36.840091860853136,"[54, 0, 200]",200,a,0.39166755927726626,colour,0.5
06,18,1,2,Practice,10,NA,38.84808535780758,40.76017658505589,"[69, 0, 185]",185,l,1.389710932970047,colour,0.5
06,18,1,2,1,1,1,5.884303428698331,6.776002889499068,"[4, 0, 250]",250,a,0.36860630521550775,colour,0.5
06,18,1,2,1,2,2,8.791636209469289,10.58402427053079,"[66, 0, 188]",188,a,1.2818322028033435,colour,0.5
06,18,1,2,1,3,3,12.59281884972006,13.344016929157078,"[25, 0, 229]",229,a,0.22896862775087357,colour,0.5
06,18,1,2,1,4,4,15.35867508687079,16.0239938814193,"[50, 0, 204]",204,a,0.14308146620169282,colour,0.5
06,18,1,2,1,5,5,18.030775907915086,18.816030237823725,"[40, 0, 214]",214,a,0.2629728903993964,colour,0.5
06,18,1,2,1,6,6,20.834138879552484,21.55200144648552,"[42, 0, 212]",212,a,0.19584342930465937,colour,0.5
06,18,1,2,1,7,7,23.56872493168339,24.175998320803046,"[23, 0, 231]",231,a,0.08502030652016401,colour,0.5
06,18,1,2,1,8,8,26.193967934697866,27.432023375760764,"[74, 0, 180]",180,l,0.7157948757521808,colour,0.5
06,18,1,2,1,9,9,29.444226691499352,30.07202378520742,"[2, 0, 252]",252,a,0.10553219588473439,colour,0.5
06,18,1,2,1,10,10,32.085033303592354,33.18400796549395,"[60, 0, 194]",194,a,0.5766467489302158,colour,0.5
06,18,1,2,1,11,11,35.1946614976041,35.93597680097446,"[7, 0, 247]",247,a,0.21904055960476398,colour,0.5
06,18,1,2,1,12,12,37.944976180326194,38.78399559855461,"[87, 0, 167]",167,l,0.31689512357115746,colour,0.5
06,18,1,2,1,13,13,40.788754045031965,41.527982358820736,"[55, 0, 199]",199,a,0.21683226572349668,colour,0.5
06,18,1,2,1,14,14,43.53907109098509,44.28799904230982,"[57, 0, 197]",197,a,0.2266378477215767,colour,0.5
06,18,1,2,1,15,15,46.30500373383984,47.023999395314604,"[48, 0, 206]",206,a,0.19681977294385433,colour,0.5
06,18,1,2,1,16,16,49.0395204690285,49.799965262878686,"[93, 0, 161]",161,l,0.23820707155391574,colour,0.5
06,18,1,2,1,17,17,51.8053448041901,52.73597160214558,"[27, 0, 227]",227,a,0.4196022627875209,colour,0.5
06,18,1,2,1,18,18,54.74773420440033,55.40801137732342,"[96, 0, 158]",158,l,0.13812609668821096,colour,0.5
06,18,1,2,1,19,19,57.41980903223157,58.22398923384026,"[68, 0, 186]",186,a,0.28194169187918305,colour,0.5
06,18,1,2,1,20,20,60.232504970394075,61.3759664981626,"[69, 0, 185]",185,a,0.6212868206202984,colour,0.5
06,18,1,2,1,21,21,63.388919696677476,64.16799773462117,"[91, 0, 163]",163,l,0.256712316069752,colour,0.5
06,18,1,2,1,22,22,66.18608825933188,66.93597640702501,"[36, 0, 218]",218,a,0.22768114553764462,colour,0.5
06,18,1,2,1,23,23,68.95195316104218,69.6159687191248,"[34, 0, 220]",220,a,0.14177980506792665,colour,0.5
06,18,1,2,1,24,24,71.62400790210813,72.20799751440063,"[8, 0, 246]",246,a,0.06179285002872348,colour,0.5
06,18,1,2,1,25,25,74.2179866284132,75.03199210437015,"[70, 0, 184]",184,a,0.2918713353574276,colour,0.5
06,18,1,2,1,26,26,77.0463135233149,77.655981102027,"[17, 0, 237]",237,a,0.08744245953857899,colour,0.5
06,18,1,2,1,27,27,79.67161836009473,80.29595945589244,"[85, 0, 169]",169,l,0.10213488107547164,colour,0.5
06,18,1,2,1,28,28,82.31234423397109,82.95996044203639,"[5, 0, 249]",249,a,0.12540290411561728,colour,0.5
06,18,1,2,1,29,29,84.96884875698015,85.96797402529046,"[58, 0, 196]",196,a,0.47692535538226366,colour,0.5
06,18,1,2,1,30,30,87.98466285225004,88.69599899835885,"[32, 0, 222]",222,a,0.18914529168978333,colour,0.5
06,18,1,2,1,31,31,90.70374043378979,91.39995210850611,"[83, 0, 171]",171,l,0.17391842044889927,colour,0.5
06,18,1,2,1,32,32,93.40706969192252,94.07997120218351,"[18, 0, 236]",236,a,0.15066260658204556,colour,0.5
06,18,1,2,1,33,33,96.0948373102583,96.75994894187897,"[54, 0, 200]",200,a,0.14293495565652847,colour,0.5
06,18,1,2,1,34,34,98.76695388555527,99.43994952505454,"[80, 0, 174]",174,l,0.15104936342686415,colour,0.5
06,18,1,2,1,35,35,101.45470220549032,102.42395386658609,"[11, 0, 243]",243,a,0.4471060987561941,colour,0.5
06,18,1,2,1,36,36,104.43928983295336,105.16797252837569,"[97, 0, 157]",157,l,0.20658715162426233,colour,0.5
06,18,1,2,1,37,37,107.17385934339836,107.79995108442381,"[20, 0, 234]",234,a,0.10386189538985491,colour,0.5
06,18,1,2,1,38,38,109.81461002957076,110.69594307197258,"[35, 0, 219]",219,a,0.3591654244810343,colour,0.5
06,18,1,2,1,39,39,112.70542806340382,113.45597865991294,"[21, 0, 233]",233,a,0.22828609263524413,colour,0.5
06,18,1,2,1,40,40,115.47132919868454,116.2639449024573,"[64, 0, 190]",190,a,0.27030905848369,colour,0.5
06,18,1,2,1,41,41,118.28408381994814,118.99194782041013,"[61, 0, 193]",193,a,0.18624894879758358,colour,0.5
06,18,1,2,1,42,42,121.00294990604743,121.71193991182372,"[53, 0, 201]",201,a,0.18667469592764974,colour,0.5
06,18,1,2,1,43,43,123.71428329497576,124.31194487446919,"[99, 0, 155]",155,l,0.07541637402027845,colour,0.5
06,18,1,2,1,44,44,126.32382366107777,127.28790373168886,"[0, 0, 254]",254,a,0.44187385588884354,colour,0.5
06,18,1,2,1,45,45,129.30849163327366,129.9679216435179,"[16, 0, 238]",238,a,0.13723167264834046,colour,0.5
06,18,1,2,1,46,46,131.98062002379447,132.70395389804617,"[6, 0, 248]",248,a,0.20110599789768457,colour,0.5
06,18,1,2,1,47,47,134.70917393174022,135.44800209859386,"[92, 0, 162]",162,l,0.21670032758265734,colour,0.5
06,18,1,2,1,48,48,137.45934092253447,138.13594891689718,"[38, 0, 216]",216,a,0.15433758264407516,colour,0.5
06,18,1,2,1,49,49,140.14701165491715,140.8799254372716,"[84, 0, 170]",170,l,0.21070047887042165,colour,0.5
06,18,1,2,1,50,50,142.89723969157785,143.79990342911333,"[28, 0, 226]",226,a,0.380426409188658,colour,0.5
06,18,1,2,2,1,51,151.67843031929806,152.2639401764609,"[2, 0, 252]",252,a,0.06246829545125365,colour,0.5
06,18,1,2,2,2,52,154.2732097338885,154.9998983880505,"[42, 0, 212]",212,a,0.20460098702460527,colour,0.5
06,18,1,2,2,3,53,157.00774025404826,157.75992491748184,"[19, 0, 235]",235,a,0.23053967952728271,colour,0.5
06,18,1,2,2,4,54,159.76953436387703,160.45590540440753,"[62, 0, 192]",192,a,0.1639824751764536,colour,0.5
06,18,1,2,2,5,55,162.47300501307473,163.19194041611627,"[49, 0, 205]",205,a,0.19670988991856575,colour,0.5
06,18,1,2,2,6,56,165.2076406897977,165.79991091229022,"[55, 0, 199]",199,a,0.07009590929374099,colour,0.5
06,18,1,2,2,7,57,167.8171467911452,168.49592723930255,"[58, 0, 196]",196,a,0.15672625787556171,colour,0.5
06,18,1,2,2,8,58,170.5049943602644,171.25592147372663,"[60, 0, 194]",194,a,0.2287421664223075,colour,0.5
06,18,1,2,2,9,59,173.27071196306497,173.84791757911444,"[39, 0, 215]",215,a,0.05500294594094157,colour,0.5
06,18,1,2,2,10,60,175.86462964303792,176.52791501116008,"[45, 0, 209]",209,a,0.1409818734973669,colour,0.5
06,18,1,2,2,11,61,178.53671943675727,179.39193576853722,"[66, 0, 188]",188,a,0.33285927399992943,colour,0.5
06,18,1,2,2,12,62,181.41196125838906,182.10391230788082,"[82, 0, 172]",172,l,0.16966449050232768,colour,0.5
06,18,1,2,2,13,63,184.1153610148467,184.83992802072316,"[68, 0, 186]",186,a,0.20234424946829677,colour,0.5
06,18,1,2,2,14,64,186.84998290706426,187.64789505116642,"[56, 0, 198]",198,a,0.2759056091308594,colour,0.5
06,18,1,2,2,15,65,189.6531064203009,190.64791986346245,"[89, 0, 165]",165,l,0.4725390928797424,colour,0.5
06,18,1,2,2,16,66,192.65334942331538,193.2639114256017,"[34, 0, 220]",220,a,0.08829198451712728,colour,0.5
06,18,1,2,2,17,67,195.27854437706992,195.99993462162092,"[53, 0, 201]",201,a,0.19914622092619538,colour,0.5
06,18,1,2,2,18,68,198.01315799867734,198.7199239563197,"[57, 0, 197]",197,a,0.1845719525590539,colour,0.5
06,18,1,2,2,19,69,200.73200360452756,201.38387019792572,"[30, 0, 224]",224,a,0.1295658559538424,colour,0.5
06,18,1,2,2,20,70,203.40415523201227,203.9999133539386,"[26, 0, 228]",228,a,0.07348652882501483,colour,0.5
06,18,1,2,2,21,71,206.01380036119372,206.70387867372483,"[77, 0, 177]",177,l,0.16786422114819288,colour,0.5
06,18,1,2,2,22,72,208.71714931167662,209.46388708613813,"[10, 0, 244]",244,a,0.22480095038190484,colour,0.5
06,18,1,2,2,23,73,211.47697419207543,212.05589067470282,"[7, 0, 247]",247,a,0.056671671103686094,colour,0.5
06,18,1,2,2,24,74,214.07102144742385,214.7678636694327,"[9, 0, 245]",245,a,0.17463482590392232,colour,0.5
06,18,1,2,2,25,75,216.77412385027856,217.33590134000406,"[94, 0, 160]",160,l,0.039304247591644526,colour,0.5
06,18,1,2,2,26,76,219.35263191489503,219.9998621540144,"[50, 0, 204]",204,a,0.12497597513720393,colour,0.5
06,18,1,2,2,27,77,222.00911910878494,222.66386038344353,"[28, 0, 226]",226,a,0.13255593413487077,colour,0.5
06,18,1,2,2,28,78,224.68111359141767,225.31186177302152,"[78, 0, 176]",176,l,0.10840372694656253,colour,0.5
06,18,1,2,2,29,79,227.32196707138792,227.9358747950755,"[38, 0, 216]",216,a,0.09165188437327743,colour,0.5
06,18,1,2,2,30,80,229.94722425285727,230.60787794273347,"[59, 0, 195]",195,a,0.13854475505650043,colour,0.5
06,18,1,2,2,31,81,232.6192537881434,233.3278983910568,"[51, 0, 203]",203,a,0.18673337902873755,colour,0.5
06,18,1,2,2,32,82,235.33820061245933,235.94385844562203,"[12, 0, 242]",242,a,0.08327478170394897,colour,0.5
06,18,1,2,2,33,83,237.963440858759,238.6639033127576,"[79, 0, 175]",175,l,0.1790313282981515,colour,0.5
06,18,1,2,2,34,84,240.68240501219407,241.24787756428123,"[92, 0, 162]",162,l,0.04328642366454005,colour,0.5
06,18,1,2,2,35,85,243.26079334737733,243.97588993422687,"[16, 0, 238]",238,a,0.19283602153882384,colour,0.5
06,18,1,2,2,36,86,245.99541169498116,246.63986295741051,"[67, 0, 187]",187,a,0.1222907337360084,colour,0.5
06,18,1,2,2,37,87,248.65177758410573,249.34386175405234,"[23, 0, 231]",231,a,0.1698665334843099,colour,0.5
06,18,1,2,2,38,88,251.35409977845848,252.0318940365687,"[73, 0, 181]",181,a,0.15552384639158845,colour,0.5
06,18,1,2,2,39,89,254.04185400623828,254.59188937349245,"[14, 0, 240]",240,a,0.028514050878584385,colour,0.5
06,18,1,2,2,40,90,256.6045570336282,257.34385899687186,"[40, 0, 214]",214,a,0.21785941580310464,colour,0.5
06,18,1,2,2,41,91,259.3547890088521,260.159864816349,"[37, 0, 217]",217,a,0.28276719292625785,colour,0.5
06,18,1,2,2,42,92,262.1675802581012,262.8558716913685,"[27, 0, 227]",227,a,0.16622936632484198,colour,0.5
06,18,1,2,2,43,93,264.8710642978549,265.4238451649435,"[5, 0, 249]",249,a,0.03052817890420556,colour,0.5
06,18,1,2,2,44,94,267.43371966993436,268.15987426880747,"[87, 0, 167]",167,l,0.2041937503963709,colour,0.5
06,18,1,2,2,45,95,270.16826751921326,270.7678447649814,"[41, 0, 213]",213,a,0.07741711102426052,colour,0.5
06,18,1,2,2,46,96,272.77790477126837,273.38387728715315,"[91, 0, 163]",163,l,0.08367295982316136,colour,0.5
06,18,1,2,2,47,97,275.40306309750304,275.975884814281,"[96, 0, 158]",158,l,0.050475293304771185,colour,0.5
06,18,1,2,2,48,98,277.98138762963936,278.59986908594146,"[93, 0, 161]",161,l,0.09628981398418546,colour,0.5
06,18,1,2,2,49,99,280.60657549416646,281.3278751540929,"[33, 0, 221]",221,a,0.19910014094784856,colour,0.5
06,18,1,2,2,50,100,283.34120250632986,284.0318526830524,"[11, 0, 243]",243,a,0.16846719896420836,colour,0.5
06,18,1,2,3,1,101,291.41912925383076,292.0879162559286,"[72, 0, 182]",182,a,0.14565131114795804,colour,0.5
06,18,1,2,3,2,102,294.1077794809826,295.0479160826653,"[41, 0, 213]",213,a,0.41867633117362857,colour,0.5
06,18,1,2,3,3,103,297.061165059451,297.79185794480145,"[7, 0, 247]",247,a,0.20853196317330003,colour,0.5
06,18,1,2,3,4,104,299.81122137932107,300.5118307378143,"[19, 0, 235]",235,a,0.1783369779586792,colour,0.5
06,18,1,2,3,5,105,302.5268587167375,303.16782483644783,"[29, 0, 225]",225,a,0.1186972837895155,colour,0.5
06,18,1,2,3,6,106,305.1833478794433,305.7198290396482,"[91, 0, 163]",163,l,0.014388767071068287,colour,0.5
06,18,1,2,3,7,107,307.7304250700399,308.40781799936667,"[42, 0, 212]",212,a,0.15523515781387687,colour,0.5
06,18,1,2,3,8,108,310.4181741778739,311.14383646892384,"[6, 0, 248]",248,a,0.2035435102880001,colour,0.5
06,18,1,2,3,9,109,313.1526873684488,313.8718319036998,"[17, 0, 237]",237,a,0.19691193290054798,colour,0.5
06,18,1,2,3,10,110,315.88735888525844,316.67982610920444,"[37, 0, 217]",217,a,0.27026809891685843,colour,0.5
06,18,1,2,3,11,111,318.70002370979637,319.40779870096594,"[58, 0, 196]",196,a,0.18573025334626436,colour,0.5
06,18,1,2,3,12,112,321.41896895878017,321.9839043049142,"[88, 0, 166]",166,l,0.04269210994243622,colour,0.5
06,18,1,2,3,13,113,323.9972643465735,324.7678124695085,"[56, 0, 198]",198,a,0.24825605005025864,colour,0.5
06,18,1,2,3,14,114,326.7787633552216,327.31184759456664,"[77, 0, 177]",177,l,0.010863452218472958,colour,0.5
06,18,1,2,3,15,115,329.32582321669906,329.87180827278644,"[30, 0, 224]",224,a,0.03624406456947327,colour,0.5
06,18,1,2,3,16,116,331.8927770233713,332.70384125830606,"[73, 0, 181]",181,a,0.28872962668538094,colour,0.5
06,18,1,2,3,17,117,334.7212169524282,335.56782066170126,"[76, 0, 178]",178,l,0.3243585037998855,colour,0.5
06,18,1,2,3,18,118,337.5808258475736,338.1838039532304,"[78, 0, 176]",176,l,0.08069784799590707,colour,0.5
06,18,1,2,3,19,119,340.1838819347322,340.7198503073305,"[81, 0, 173]",173,l,0.013875192031264305,colour,0.5
06,18,1,2,3,20,120,342.7310075680725,343.911820655223,"[24, 0, 230]",230,a,0.6585828475654125,colour,0.5
06,18,1,2,3,21,121,345.918769672513,346.59980607032776,"[10, 0, 244]",244,a,0.15882466919720173,colour,0.5
06,18,1,2,3,22,122,348.606459309347,349.20781673910096,"[32, 0, 222]",222,a,0.07934735016897321,colour,0.5
06,18,1,2,3,23,123,351.2160599338822,351.75979928066954,"[39, 0, 215]",215,a,0.021658768877387047,colour,0.5
06,18,1,2,3,24,124,353.77859439561144,354.3038233774714,"[75, 0, 179]",179,l,0.002821906004101038,colour,0.5
06,18,1,2,3,25,125,356.310193835292,356.85582758067176,"[71, 0, 183]",183,l,0.02336333366110921,colour,0.5
06,18,1,2,3,26,126,358.87298508454114,359.57583188125864,"[43, 0, 211]",211,a,0.18060671165585518,colour,0.5
06,18,1,2,3,27,127,361.591888979543,362.1598360654898,"[59, 0, 195]",195,a,0.04578970791772008,colour,0.5
06,18,1,2,3,28,128,364.1701957886107,364.9277674765326,"[50, 0, 204]",204,a,0.23529891297221184,colour,0.5
06,18,1,2,3,29,129,366.9360543885268,367.56779191084206,"[61, 0, 193]",193,a,0.1094919228926301,colour,0.5
06,18,1,2,3,30,130,369.5768901454285,370.1838134052232,"[33, 0, 221]",221,a,0.08462764229625463,colour,0.5
06,18,1,2,3,31,131,372.202069345396,372.839772451669,"[16, 0, 238]",238,a,0.11540551949292421,colour,0.5
06,18,1,2,3,32,132,374.85851557925344,375.45577189093456,"[25, 0, 229]",229,a,0.07501110667362809,colour,0.5
06,18,1,2,3,33,133,377.46811305265874,378.08783906186,"[55, 0, 199]",199,a,0.09753948682919145,colour,0.5
06,18,1,2,3,34,134,380.0933060371317,380.7437748713419,"[84, 0, 170]",170,l,0.1282350500114262,colour,0.5
06,18,1,2,3,35,135,382.7497774772346,383.3358005154878,"[98, 0, 156]",156,l,0.06395230675116181,colour,0.5
06,18,1,2,3,36,136,385.3438054337166,386.29574914230034,"[28, 0, 226]",226,a,0.42978593660518527,colour,0.5
06,18,1,2,3,37,137,388.3126833355054,388.99979283707216,"[49, 0, 205]",205,a,0.16483515175059438,colour,0.5
06,18,1,2,3,38,138,391.0160559169017,391.6797835738398,"[96, 0, 158]",158,l,0.1416163593530655,colour,0.5
06,18,1,2,3,39,139,393.68820045515895,394.42371874069795,"[52, 0, 202]",202,a,0.21327386796474457,colour,0.5
06,18,1,2,3,40,140,396.43830836890265,397.1277671614662,"[46, 0, 208]",208,a,0.16714072600007057,colour,0.5
06,18,1,2,3,41,141,399.1417455407791,399.90377005096525,"[65, 0, 189]",189,a,0.24062213487923145,colour,0.5
06,18,1,2,3,42,142,401.9231732641347,402.66381194023415,"[60, 0, 194]",194,a,0.2184501849114895,colour,0.5
06,18,1,2,3,43,143,404.6733796391636,405.2477783150971,"[15, 0, 239]",239,a,0.05221924278885126,colour,0.5
06,18,1,2,3,44,144,407.2673630914651,407.87179173110053,"[89, 0, 165]",165,l,0.08234254829585552,colour,0.5
06,18,1,2,3,45,145,409.8769211806357,410.43981207255274,"[26, 0, 228]",228,a,0.04056928073987365,colour,0.5
06,18,1,2,3,46,146,412.45532723888755,413.0077780634165,"[99, 0, 155]",155,l,0.030224523972719908,colour,0.5
06,18,1,2,3,47,147,415.0182535769418,415.99974833242595,"[1, 0, 253]",253,a,0.4593417099677026,colour,0.5
06,18,1,2,3,48,148,418.0184851582162,418.687821181491,"[38, 0, 216]",216,a,0.14719361159950495,colour,0.5
06,18,1,2,3,49,149,420.7061751889996,421.2957798624411,"[40, 0, 214]",214,a,0.06731141870841384,colour,0.5
06,18,1,2,3,50,150,423.315739186015,423.8398236515932,"[90, 0, 164]",164,l,0.0018443805165588856,colour,0.5
06,18,1,2,4,1,151,431.3312346599996,432.01576013863087,"[85, 0, 169]",169,l,0.16136891394853592,colour,0.5
06,18,1,2,4,2,152,434.03535200376064,434.6077755424194,"[93, 0, 161]",161,l,0.05016297334805131,colour,0.5
06,18,1,2,4,3,153,436.6136844130233,437.24776177387685,"[99, 0, 155]",155,l,0.11183569999411702,colour,0.5
06,18,1,2,4,4,154,439.25462453905493,439.8317651702091,"[10, 0, 244]",244,a,0.0549970380961895,colour,0.5
06,18,1,2,4,5,155,441.8484862926416,442.5517710465938,"[66, 0, 188]",188,l,0.18109074840322137,colour,0.5
06,18,1,2,4,6,156,444.56745517253876,445.1037717051804,"[0, 0, 254]",254,a,0.014207991771399975,colour,0.5
06,18,1,2,4,7,157,447.1145449662581,447.84773522848263,"[60, 0, 194]",194,a,0.21101004164665937,colour,0.5
06,18,1,2,4,8,158,449.86475291708484,450.95173418242484,"[45, 0, 209]",209,a,0.5647317278198898,colour,0.5
06,18,1,2,4,9,159,452.9588202582672,453.57577398605645,"[20, 0, 234]",234,a,0.09476799331605434,colour,0.5
06,18,1,2,4,10,160,455.5846142517403,456.14374864147976,"[8, 0, 246]",246,a,0.03712037205696106,colour,0.5
06,18,1,2,4,11,161,458.16293248254806,458.85589098976925,"[27, 0, 227]",227,a,0.17069636657834053,colour,0.5
06,18,1,2,4,12,162,460.8662483501248,461.6077062259428,"[3, 0, 251]",251,a,0.2193071935325861,colour,0.5
06,18,1,2,4,13,163,463.61643227608874,464.35168550303206,"[51, 0, 203]",203,a,0.21310372650623322,colour,0.5
06,18,1,2,4,14,164,466.36666306946427,467.103700812906,"[12, 0, 242]",242,a,0.21485791634768248,colour,0.5
06,18,1,2,4,15,165,469.1169249773957,469.82372795650735,"[55, 0, 199]",199,a,0.18478266010060906,colour,0.5
06,18,1,2,4,16,166,471.83588086022064,472.44775397563353,"[96, 0, 158]",158,l,0.08959719026461244,colour,0.5
06,18,1,2,4,17,167,474.46107857069,475.07173312688246,"[1, 0, 253]",253,a,0.08840186754241586,colour,0.5
06,18,1,2,4,18,168,477.08627076772973,478.03972211806104,"[62, 0, 192]",192,a,0.4312089020386338,colour,0.5
06,18,1,2,4,19,169,480.05534716742113,480.7517211069353,"[81, 0, 173]",173,l,0.1741633927449584,colour,0.5
06,18,1,2,4,20,170,482.75864019198343,483.4877439090051,"[40, 0, 214]",214,a,0.20692310249432921,colour,0.5
06,18,1,2,4,21,171,485.4931100597605,486.143733675126,"[90, 0, 164]",164,l,0.12825828744098544,colour,0.5
06,18,1,2,4,22,172,488.1496433331631,488.7277299826965,"[7, 0, 247]",247,a,0.05650389287620783,colour,0.5
06,18,1,2,4,23,173,490.7436555363238,491.4156984621659,"[59, 0, 195]",195,a,0.147164860740304,colour,0.5
06,18,1,2,4,24,174,493.43405562080443,494.0557197458111,"[67, 0, 187]",187,a,0.09960520919412374,colour,0.5
06,18,1,2,4,25,175,496.0749051622115,496.6637154482305,"[70, 0, 184]",184,a,0.06661431165412068,colour,0.5
06,18,1,2,4,26,176,498.668813389726,499.2396981725469,"[42, 0, 212]",212,a,0.049062174279242754,colour,0.5
06,18,1,2,4,27,177,501.2471249247901,502.0157097261399,"[80, 0, 174]",174,a,0.24630218045786023,colour,0.5
06,18,1,2,4,28,178,504.02864480763674,505.0396917918697,"[36, 0, 218]",218,a,0.4888478587381542,colour,0.5
06,18,1,2,4,29,179,507.0601438167505,507.9836841453798,"[95, 0, 159]",159,l,0.4013427784666419,colour,0.5
06,18,1,2,4,30,180,509.9978145491332,510.65570619748905,"[86, 0, 168]",168,l,0.13565904600545764,colour,0.5
06,18,1,2,4,31,181,512.6699500288814,513.2957341764122,"[24, 0, 230]",230,a,0.10395484324544668,colour,0.5
06,18,1,2,4,32,182,515.3107664873824,516.0077300141566,"[74, 0, 180]",180,l,0.17469587223604321,colour,0.5
06,18,1,2,4,33,183,518.0091545549221,518.5837320368737,"[23, 0, 231]",231,a,0.05239529209211469,colour,0.5
06,18,1,2,4,34,184,520.6031191023067,522.0317325596698,"[69, 0, 185]",185,l,0.9063331997022033,colour,0.5
06,18,1,2,4,35,185,524.0408430038951,524.887692078948,"[44, 0, 210]",210,a,0.3245959929190576,colour,0.5
06,18,1,2,4,36,186,526.9004991604015,527.5196694531478,"[2, 0, 252]",252,a,0.09721732093021274,colour,0.5
06,18,1,2,4,37,187,529.5256370063871,530.7676899833605,"[75, 0, 179]",179,l,0.7197479070164263,colour,0.5
06,18,1,2,4,38,188,532.775896945037,533.319704820402,"[57, 0, 197]",197,a,0.021743839606642723,colour,0.5
06,18,1,2,4,39,189,535.3399366852827,535.8797037019394,"[47, 0, 207]",207,a,0.01752141723409295,colour,0.5
06,18,1,2,4,40,190,537.8870568051934,538.4636846492067,"[63, 0, 191]",191,a,0.05430111242458224,colour,0.5
06,18,1,2,4,41,191,540.4810150512494,541.0156967295334,"[38, 0, 216]",216,a,0.012393150012940168,colour,0.5
06,18,1,2,4,42,192,543.0157597446814,543.9757044329308,"[50, 0, 204]",204,a,0.43778258422389627,colour,0.5
06,18,1,2,4,43,193,545.9847534368746,546.535682046786,"[25, 0, 229]",229,a,0.028918924275785685,colour,0.5
06,18,1,2,4,44,194,548.5474084150046,549.103714203462,"[77, 0, 177]",177,l,0.03405231237411499,colour,0.5
06,18,1,2,4,45,195,551.1100866305642,551.6557243145071,"[30, 0, 224]",224,a,0.02335466956719756,colour,0.5
06,18,1,2,4,46,196,553.6656799516641,554.3597006616183,"[76, 0, 178]",178,l,0.17234461195766926,colour,0.5
06,18,1,2,4,47,197,556.3598853750154,557.2476668567397,"[9, 0, 245]",245,a,0.36554297152906656,colour,0.5
06,18,1,2,4,48,198,559.266304039862,560.215657423716,"[22, 0, 232]",232,a,0.42773833218961954,colour,0.5
06,18,1,2,4,49,199,562.2353126979433,562.9916481035762,"[43, 0, 211]",211,a,0.23405948001891375,colour,0.5
06,18,1,2,4,50,200,565.0012185592204,565.7196199074388,"[29, 0, 225]",225,a,0.196394813247025,colour,0.5
06,18,1,2,5,1,201,573.2197510581464,573.8716956330463,"[89, 0, 165]",165,l,0.12879943195730448,colour,0.4
06,18,1,2,5,2,202,575.8769948296249,576.607666447293,"[36, 0, 218]",218,a,0.2085039997473359,colour,0.4
06,18,1,2,5,3,203,578.6271527619101,579.3516650232486,"[61, 0, 193]",193,a,0.20218946831300855,colour,0.4
06,18,1,2,5,4,204,581.3618293986656,581.9436930301599,"[90, 0, 164]",164,l,0.059611336793750525,colour,0.4
06,18,1,2,5,5,205,583.9557455033064,584.6636500693858,"[38, 0, 216]",216,a,0.18563651759177446,colour,0.4
06,18,1,2,5,6,206,586.6631175898947,587.231704281643,"[16, 0, 238]",238,a,0.04756792262196541,colour,0.4
06,18,1,2,5,7,207,589.2283479268663,590.3116400376894,"[70, 0, 184]",184,l,0.561120948754251,colour,0.4
06,18,1,2,5,8,208,592.3223242894746,593.0156770371832,"[98, 0, 156]",156,l,0.1710153822787106,colour,0.4
06,18,1,2,5,9,209,595.0257004154846,595.5756684355438,"[44, 0, 210]",210,a,0.027761805336922407,colour,0.4
06,18,1,2,5,10,210,597.5883991108276,598.2876812084578,"[76, 0, 178]",178,l,0.17710502771660686,colour,0.4
06,18,1,2,5,11,211,600.2969917263836,600.9196447981521,"[58, 0, 196]",196,a,0.1004267712123692,colour,0.4
06,18,1,2,5,12,212,602.9288793038577,603.6316800205968,"[83, 0, 171]",171,l,0.18060907442122698,colour,0.4
06,18,1,2,5,13,213,605.6478068297729,606.2396910833195,"[42, 0, 212]",212,a,0.06971387891098857,colour,0.4
06,18,1,2,5,14,214,608.257450777106,608.7996517615393,"[20, 0, 234]",234,a,0.020015643443912268,colour,0.4
06,18,1,2,5,15,215,610.8200112325139,611.671608120203,"[26, 0, 228]",228,a,0.3292693686671555,colour,0.4
06,18,1,2,5,16,216,613.6797437956557,614.2076560496353,"[63, 0, 191]",191,a,0.005767085589468479,colour,0.4
06,18,1,2,5,17,217,616.226735915523,616.9196286508814,"[10, 0, 244]",244,a,0.17063177609816194,colour,0.4
06,18,1,2,5,18,218,618.9300202755257,619.5356765328906,"[62, 0, 192]",192,a,0.0958924232982099,colour,0.4
06,18,1,2,5,19,219,621.5429193591699,622.0956458761357,"[49, 0, 205]",205,a,0.03046004381030798,colour,0.4
06,18,1,2,5,20,220,624.1055739438161,624.8155966135673,"[3, 0, 251]",251,a,0.18776879971846938,colour,0.4
06,18,1,2,5,21,221,626.8246523127891,627.3596837259829,"[87, 0, 167]",167,l,0.012840558309108019,colour,0.4
06,18,1,2,5,22,222,629.3717165067792,629.9516558069736,"[96, 0, 158]",158,l,0.057759867049753666,colour,0.4
06,18,1,2,5,23,223,631.9656341867521,632.5276558608748,"[54, 0, 200]",200,a,0.039830819703638554,colour,0.4
06,18,1,2,5,24,224,634.5439043678343,635.1436714474112,"[14, 0, 240]",240,a,0.07746476633474231,colour,0.4
06,18,1,2,5,25,225,637.1534825433046,638.1836176640354,"[77, 0, 177]",177,l,0.5078249308280647,colour,0.4
06,18,1,2,5,26,226,640.2006385033019,640.7676234235987,"[43, 0, 211]",211,a,0.04487953055649996,colour,0.4
06,18,1,2,5,27,227,642.7790043889545,643.3036682023667,"[97, 0, 157]",157,l,0.0024233339354395866,colour,0.4
06,18,1,2,5,28,228,645.3104427461512,646.0556240412407,"[86, 0, 168]",168,l,0.22297350550070405,colour,0.4
06,18,1,2,5,29,229,648.0606440012343,649.2956172041595,"[78, 0, 176]",176,l,0.7127583236433566,colour,0.4
06,18,1,2,5,30,230,651.3109145732597,652.5676087723114,"[94, 0, 160]",160,l,0.7344474182464182,colour,0.4
06,18,1,2,5,31,231,654.5768279177137,655.1436568754725,"[92, 0, 162]",162,l,0.05492890300229192,colour,0.4
06,18,1,2,5,32,232,657.1609467109665,657.9916701586917,"[65, 0, 189]",189,a,0.3084731223061681,colour,0.4
06,18,1,2,5,33,233,660.0049384343438,660.5996288396418,"[85, 0, 169]",169,l,0.0724511076696217,colour,0.4
06,18,1,2,5,34,234,662.614457138814,663.1836259346455,"[57, 0, 197]",197,a,0.0554515365511179,colour,0.4
06,18,1,2,5,35,235,665.1997807067819,665.7356163533404,"[41, 0, 213]",213,a,0.013727499637752771,colour,0.4
06,18,1,2,5,36,236,667.7468649866059,668.3676161766052,"[35, 0, 219]",219,a,0.09853355400264263,colour,0.4
06,18,1,2,5,37,237,670.3881158567965,671.1436257613823,"[69, 0, 185]",185,l,0.23327887756749988,colour,0.4
06,18,1,2,5,38,238,673.1539508262649,673.8155922815204,"[2, 0, 252]",252,a,0.13944311765953898,colour,0.4
06,18,1,2,5,39,239,675.8258232166991,676.3676476846449,"[60, 0, 194]",194,a,0.01790423598140478,colour,0.4
06,18,1,2,5,40,240,678.3704814058729,679.0556630319916,"[74, 0, 180]",180,l,0.1633208142593503,colour,0.4
06,18,1,2,5,41,241,681.0653768475167,681.6716364771128,"[88, 0, 166]",166,l,0.08401954406872392,colour,0.4
06,18,1,2,5,42,242,683.682635018602,684.6156756980345,"[13, 0, 241]",241,a,0.41118104942142963,colour,0.4
06,18,1,2,5,43,243,686.6205755351111,687.2556804399937,"[82, 0, 172]",172,l,0.11302669020369649,colour,0.4
06,18,1,2,5,44,244,689.2632166817784,690.1436182782054,"[17, 0, 237]",237,a,0.357997277751565,colour,0.4
06,18,1,2,5,45,245,692.1543245860375,692.8636312438175,"[50, 0, 204]",204,a,0.18795193824917078,colour,0.4
06,18,1,2,5,46,246,694.8729031644762,695.4557667709887,"[39, 0, 215]",215,a,0.057466058526188135,colour,0.4
06,18,1,2,5,47,247,697.4651572392322,698.1116647711024,"[84, 0, 170]",170,l,0.12424932979047298,colour,0.4
06,18,1,2,5,48,248,700.1227487768047,700.719729790464,"[33, 0, 221]",221,a,0.07536123553290963,colour,0.4
06,18,1,2,5,49,249,702.7324132043868,703.3036725344136,"[53, 0, 201]",201,a,0.04973525647073984,colour,0.4
06,18,1,2,5,50,250,705.3978182510473,705.935660936404,"[18, 0, 236]",236,a,0.025021818932145834,colour,0.4
06,18,1,2,6,1,251,714.6441543027759,715.6235849116929,"[26, 0, 228]",228,a,0.45657336711883545,colour,0.28
06,18,1,2,6,2,252,717.6294859051704,718.3755549290217,"[82, 0, 172]",172,l,0.22381751704961061,colour,0.28
06,18,1,2,6,3,253,720.3953622281551,720.9435764518566,"[28, 0, 226]",226,a,0.0258646490983665,colour,0.28
06,18,1,2,6,4,254,722.9581483569928,723.6235856995918,"[54, 0, 200]",200,a,0.14327878318727016,colour,0.28
06,18,1,2,6,5,255,725.6301830122247,726.4155901544727,"[7, 0, 247]",247,a,0.2630796227604151,colour,0.28
06,18,1,2,6,6,256,728.4272216060199,728.9756004577503,"[12, 0, 242]",242,a,0.026028095744550228,colour,0.28
06,18,1,2,6,7,257,730.989988042973,731.6075821644627,"[65, 0, 189]",189,a,0.1078318627551198,colour,0.28
06,18,1,2,6,8,258,733.6183782685548,734.1996121406555,"[99, 0, 155]",155,l,0.05911075882613659,colour,0.28
06,18,1,2,6,9,259,736.2123144594952,737.1355471936986,"[72, 0, 182]",182,a,0.4007539786398411,colour,0.28
06,18,1,2,6,10,260,739.1433020201512,739.7835690635256,"[57, 0, 197]",197,a,0.1180210504680872,colour,0.28
06,18,1,2,6,11,261,741.799771097023,742.3515878291801,"[52, 0, 202]",202,a,0.03036079416051507,colour,0.28
06,18,1,2,6,12,262,744.3624351336621,745.1275718137622,"[39, 0, 215]",215,a,0.2429568530060351,colour,0.28
06,18,1,2,6,13,263,747.1315492638387,748.2395678092726,"[83, 0, 171]",171,l,0.585817844606936,colour,0.28
06,18,1,2,6,14,264,750.2567249191925,751.0956025528722,"[61, 0, 193]",193,a,0.31712237279862165,colour,0.28
06,18,1,2,6,15,265,753.1007666606456,753.7195907626301,"[63, 0, 191]",191,a,0.09680850896984339,colour,0.28
06,18,1,2,6,16,266,755.7259517679922,756.3675862443633,"[79, 0, 175]",175,l,0.11932467995211482,colour,0.28
06,18,1,2,6,17,267,758.382466530893,758.9995880373754,"[73, 0, 181]",181,l,0.094865667168051,colour,0.28
06,18,1,2,6,18,268,761.0076532140374,761.5675993203185,"[20, 0, 234]",234,a,0.0376898730173707,colour,0.28
06,18,1,2,6,19,269,763.5859745955095,764.1595887304284,"[76, 0, 178]",178,l,0.051337421871721745,colour,0.28
06,18,1,2,6,20,270,766.1799265397713,766.7355639715679,"[87, 0, 167]",167,l,0.03342255251482129,colour,0.28
06,18,1,2,6,21,271,768.7429989948869,769.2955821515061,"[80, 0, 174]",174,l,0.030599464662373066,colour,0.28
06,18,1,2,6,22,272,771.3054216043092,771.9275642521679,"[56, 0, 198]",198,a,0.09995573153719306,colour,0.28
06,18,1,2,6,23,273,773.9461214840412,774.8955016494729,"[19, 0, 235]",235,a,0.42707588290795684,colour,0.28
06,18,1,2,6,24,274,776.9151458963752,777.5195422410034,"[84, 0, 170]",170,l,0.08214956382289529,colour,0.28
06,18,1,2,6,25,275,779.5246795671992,780.1035980191082,"[51, 0, 203]",203,a,0.056635831482708454,colour,0.28
06,18,1,2,6,26,276,782.1186657762155,782.6560586895794,"[50, 0, 204]",204,a,0.015162280295044184,colour,0.28
06,18,1,2,6,27,277,784.6658020438626,785.583491790574,"[23, 0, 231]",231,a,0.39610383938997984,colour,0.28
06,18,1,2,6,28,278,787.603424333036,788.1675778948702,"[0, 0, 254]",254,a,0.04174963664263487,colour,0.28
06,18,1,2,6,29,279,790.1817118437029,790.8635233300738,"[71, 0, 183]",183,l,0.1594615182839334,colour,0.28
06,18,1,2,6,30,280,792.86948694475,793.439561586827,"[66, 0, 188]",188,l,0.0478121074847877,colour,0.28
06,18,1,2,6,31,281,795.4478815817274,796.0315777785145,"[95, 0, 159]",159,l,0.061451385263353586,colour,0.28
06,18,1,2,6,32,282,798.0418158029206,798.607562078163,"[29, 0, 225]",225,a,0.043531395960599184,colour,0.28
06,18,1,2,6,33,283,800.6201458489522,801.1995408544317,"[64, 0, 190]",190,a,0.05712695699185133,colour,0.28
06,18,1,2,6,34,284,803.2141170920804,804.1835231408477,"[94, 0, 160]",160,l,0.4471978647634387,colour,0.28
06,18,1,2,6,35,285,806.1987122027203,806.7355651534162,"[62, 0, 192]",192,a,0.014644373208284378,colour,0.28
06,18,1,2,6,36,286,808.7459296025336,809.3595218556002,"[53, 0, 201]",201,a,0.09130214946344495,colour,0.28
06,18,1,2,6,37,287,811.3712045070715,812.2875063410029,"[22, 0, 232]",232,a,0.394836837425828,colour,0.28
06,18,1,2,6,38,288,814.2932671252638,814.8955331570469,"[70, 0, 184]",184,a,0.07999010663479567,colour,0.28
06,18,1,2,6,39,289,816.90290674055,817.5355186006054,"[69, 0, 185]",185,a,0.11077428516000509,colour,0.28
06,18,1,2,6,40,290,819.5436790883541,820.2155514787883,"[2, 0, 252]",252,a,0.1495834682136774,colour,0.28
06,18,1,2,6,41,291,822.2314534019679,822.7595543083735,"[86, 0, 168]",168,l,0.005947467405349016,colour,0.28
06,18,1,2,6,42,292,824.7784876632504,825.6794633772224,"[92, 0, 162]",162,l,0.3790026563219726,colour,0.28
06,18,1,2,6,43,293,827.6850012447685,828.3435084740631,"[77, 0, 177]",177,l,0.13652708241716027,colour,0.28
06,18,1,2,6,44,294,830.3570114816539,830.9755594977178,"[75, 0, 179]",179,l,0.09640166629105806,colour,0.28
06,18,1,2,6,45,295,832.9822540907189,833.535552077461,"[25, 0, 229]",229,a,0.031110676936805248,colour,0.28
06,18,1,2,6,46,296,835.5449244291522,836.423500943929,"[81, 0, 173]",173,l,0.3566207862459123,colour,0.28
06,18,1,2,6,47,297,838.4357909057289,839.1435544751585,"[90, 0, 164]",164,l,0.18549867160618305,colour,0.28
06,18,1,2,6,48,298,841.1548397364095,841.7915408988483,"[78, 0, 176]",176,l,0.11447289260104299,colour,0.28
06,18,1,2,6,49,299,843.81117411796,844.535513874609,"[96, 0, 158]",158,l,0.20203823130577803,colour,0.28
06,18,1,2,6,50,300,846.5457459916361,847.1515389136039,"[3, 0, 251]",251,a,0.08348470134660602,colour,0.28
06,18,1,2,7,1,301,855.8269929392263,856.5995150180534,"[64, 0, 190]",190,a,0.24941474478691816,colour,0.14
06,18,1,2,7,2,302,858.6093048462644,859.223500077147,"[51, 0, 203]",203,a,0.09202643157914281,colour,0.14
06,18,1,2,7,3,303,861.2276512132958,862.1676590270363,"[78, 0, 176]",176,l,0.4177570943720639,colour,0.14
06,18,1,2,7,4,304,864.1809887425043,864.8155221766792,"[63, 0, 191]",191,a,0.11105706635862589,colour,0.14
06,18,1,2,7,5,305,866.8230068245903,867.4314802619629,"[56, 0, 198]",198,a,0.08685838524252176,colour,0.14
06,18,1,2,7,6,306,869.4482490397058,870.0395307089202,"[55, 0, 199]",199,a,0.06952325720340014,colour,0.14
06,18,1,2,7,7,307,872.0578559660353,872.7354808701202,"[82, 0, 172]",172,l,0.1554541359655559,colour,0.14
06,18,1,2,7,8,308,874.7455928642303,875.2795140258968,"[80, 0, 174]",174,l,0.011656263843178749,colour,0.14
06,18,1,2,7,9,309,877.2926204302348,878.1275166757405,"[69, 0, 185]",185,a,0.3126632492057979,colour,0.14
06,18,1,2,7,10,310,880.1366361780092,881.0475013628602,"[81, 0, 173]",173,l,0.3886006814427674,colour,0.14
06,18,1,2,7,11,311,883.0586842237972,883.6395159792155,"[53, 0, 201]",201,a,0.058547559194266796,colour,0.14
06,18,1,2,7,12,312,885.6527192699723,886.2634781952947,"[77, 0, 177]",177,a,0.08859288319945335,colour,0.14
06,18,1,2,7,13,313,888.2685725921765,888.9275102950633,"[85, 0, 169]",169,l,0.1367157343775034,colour,0.14
06,18,1,2,7,14,314,890.9407021645457,891.5114821842872,"[58, 0, 196]",196,a,0.0484895221889019,colour,0.14
06,18,1,2,7,15,315,893.5190629302524,894.1114788758568,"[37, 0, 217]",217,a,0.07019003853201866,colour,0.14
06,18,1,2,7,16,316,896.12564905826,896.711500773672,"[91, 0, 163]",163,l,0.06386566068977118,colour,0.14
06,18,1,2,7,17,317,898.7196238455363,899.263521912042,"[89, 0, 165]",165,l,0.021692245732992887,colour,0.14
06,18,1,2,7,18,318,901.282303636428,901.8475052225403,"[75, 0, 179]",179,a,0.04299615928903222,colour,0.14
06,18,1,2,7,19,319,903.8607309623621,904.7194682764821,"[74, 0, 180]",180,a,0.33653188729658723,colour,0.14
06,18,1,2,7,20,320,906.7365627652034,907.3194980514236,"[40, 0, 214]",214,a,0.07020382303744555,colour,0.14
06,18,1,2,7,21,321,909.3368331794627,910.0394732076675,"[30, 0, 224]",224,a,0.18031053990125656,colour,0.14
06,18,1,2,7,22,322,912.0557591300458,912.6875017723069,"[57, 0, 197]",197,a,0.10937652597203851,colour,0.14
06,18,1,2,7,23,323,914.6966476622038,915.6954413121566,"[5, 0, 249]",249,a,0.47725697327405214,colour,0.14
06,18,1,2,7,24,324,917.7126122070476,918.3035004236735,"[88, 0, 166]",166,l,0.06875013746321201,colour,0.14
06,18,1,2,7,25,325,920.3151661399752,921.7194552798755,"[66, 0, 188]",188,a,0.8820313313044608,colour,0.14
06,18,1,2,7,26,326,923.7373559707776,924.2714819321409,"[19, 0, 235]",235,a,0.011871303897351027,colour,0.14
06,18,1,2,7,27,327,926.284479635302,926.8154985462315,"[52, 0, 202]",202,a,0.009095871821045876,colour,0.14
06,18,1,2,7,28,328,928.8315312257037,929.3994905208237,"[60, 0, 194]",194,a,0.04576095752418041,colour,0.14
06,18,1,2,7,29,329,931.4098136164248,932.6314551346004,"[71, 0, 183]",183,l,0.6994152176193893,colour,0.14
06,18,1,2,7,30,330,934.6444433857687,935.3354767742567,"[86, 0, 168]",168,l,0.16879172809422016,colour,0.14
06,18,1,2,7,31,331,937.347783671692,938.2234579357319,"[48, 0, 206]",206,a,0.35343260364606977,colour,0.14
06,18,1,2,7,32,332,940.238663145341,940.7754637142643,"[61, 0, 193]",193,a,0.014539216179400682,colour,0.14
06,18,1,2,7,33,333,942.7856993759051,943.3354618079029,"[59, 0, 195]",195,a,0.0274770543910563,colour,0.14
06,18,1,2,7,34,334,945.3483945266344,946.3674511555582,"[68, 0, 186]",186,l,0.4968098481185734,colour,0.14
06,18,1,2,7,35,335,948.3798872339539,948.9274839074351,"[87, 0, 167]",167,l,0.0253727356903255,colour,0.14
06,18,1,2,7,36,336,950.942635553889,951.5114743071608,"[62, 0, 192]",192,a,0.04667389253154397,colour,0.14
06,18,1,2,7,37,337,953.5116609903052,954.6715206867084,"[67, 0, 187]",187,a,0.6375924358144403,colour,0.14
06,18,1,2,7,38,338,956.6837590546347,957.2314679743722,"[83, 0, 171]",171,l,0.025591714307665825,colour,0.14
06,18,1,2,7,39,339,959.2465369128622,959.783451303374,"[95, 0, 159]",159,l,0.014745591208338737,colour,0.14
06,18,1,2,7,40,340,961.7935376972891,962.7274393243715,"[73, 0, 181]",181,l,0.41161506762728095,colour,0.14
06,18,1,2,7,41,341,964.7469350909814,965.7994323894382,"[96, 0, 158]",158,l,0.5302572129294276,colour,0.14
06,18,1,2,7,42,342,967.8097287034616,968.375462769065,"[9, 0, 245]",245,a,0.043542029801756144,colour,0.14
06,18,1,2,7,43,343,970.382058900781,970.9514655796811,"[54, 0, 200]",200,a,0.04719534469768405,colour,0.14
06,18,1,2,7,44,344,972.960293635726,973.511471550446,"[65, 0, 189]",189,a,0.02894413098692894,colour,0.14
06,18,1,2,7,45,345,975.522978940513,976.1514416337013,"[72, 0, 182]",182,a,0.10619779583066702,colour,0.14
06,18,1,2,7,46,346,978.16381706018,978.8874270203523,"[92, 0, 162]",162,l,0.20129504380747676,colour,0.14
06,18,1,2,7,47,347,980.898443678394,981.7193855689839,"[99, 0, 155]",155,l,0.2990027032792568,colour,0.14
06,18,1,2,7,48,348,983.7268008999527,984.2634651982225,"[84, 0, 170]",170,l,0.01440255157649517,colour,0.14
06,18,1,2,7,49,349,986.2738261031918,986.8154658568092,"[70, 0, 184]",184,a,0.01939297327771783,colour,0.14
06,18,1,2,7,50,350,988.8209399213083,989.4474467756227,"[93, 0, 161]",161,l,0.10315021593123674,colour,0.14
06,18,1,2,8,1,351,1001.4785645422526,1002.1034633237869,"[95, 0, 159]",159,l,0.10207344125956297,colour,0.06
06,18,1,2,8,2,352,1004.1203140211292,1004.6714285267517,"[74, 0, 180]",180,a,0.028927589301019907,colour,0.06
06,18,1,2,8,3,353,1006.6840548329055,1007.6314334734343,"[53, 0, 201]",201,a,0.4253520197235048,colour,0.06
06,18,1,2,8,4,354,1009.6373884235509,1010.1754524502903,"[62, 0, 192]",192,a,0.015749504324048758,colour,0.06
06,18,1,2,8,5,355,1012.1844455283135,1012.831406770274,"[80, 0, 174]",174,l,0.12487318133935332,colour,0.06
06,18,1,2,8,6,356,1014.8409717124887,1015.8794303727336,"[94, 0, 160]",160,l,0.5162922241725028,colour,0.06
06,18,1,2,8,7,357,1017.8773642573506,1018.4234060267918,"[85, 0, 169]",169,l,0.023807198274880648,colour,0.06
06,18,1,2,8,8,358,1020.4411940779537,1021.0234129587188,"[63, 0, 191]",191,a,0.0599327152594924,colour,0.06
06,18,1,2,8,9,359,1023.0352043118328,1023.6234116195701,"[88, 0, 166]",166,l,0.06594201643019915,colour,0.06
06,18,1,2,8,10,360,1025.6291523175314,1026.2233811360784,"[61, 0, 193]",193,a,0.07198203774169087,colour,0.06
06,18,1,2,8,11,361,1028.2387781483121,1028.7915405048989,"[84, 0, 170]",170,l,0.0301240929402411,colour,0.06
06,18,1,2,8,12,362,1030.8014906281605,1031.9833828532137,"[75, 0, 179]",179,a,0.6598837212659419,colour,0.06
06,18,1,2,8,13,363,1033.9892082279548,1034.6553852129728,"[52, 0, 202]",202,a,0.14387821638956666,colour,0.06
06,18,1,2,8,14,364,1036.6613531601615,1037.2873830674216,"[68, 0, 186]",186,l,0.10436562448740005,colour,0.06
06,18,1,2,8,15,365,1039.3020786400884,1039.8633921793662,"[0, 0, 254]",254,a,0.03909865999594331,colour,0.06
06,18,1,2,8,16,366,1041.88040041551,1042.4154231641442,"[50, 0, 204]",204,a,0.012661358807235956,colour,0.06
06,18,1,2,8,17,367,1044.4274961166084,1044.9914299128577,"[66, 0, 188]",188,a,0.04171025240793824,colour,0.06
06,18,1,2,8,18,368,1047.0058332518674,1047.6953897187486,"[79, 0, 175]",175,l,0.16730495961382985,colour,0.06
06,18,1,2,8,19,369,1049.709088861011,1050.2473852569237,"[98, 0, 156]",156,l,0.01620282093062997,colour,0.06
06,18,1,2,8,20,370,1052.2464664145373,1053.1513766492717,"[91, 0, 163]",163,l,0.3826177679002285,colour,0.06
06,18,1,2,8,21,371,1055.168602288235,1055.8953819205053,"[54, 0, 200]",200,a,0.20461162086576223,colour,0.06
06,18,1,2,8,22,372,1057.9032111833803,1058.5034233089536,"[67, 0, 187]",187,a,0.07802205858752131,colour,0.06
06,18,1,2,8,23,373,1060.5127881770022,1061.079402094707,"[78, 0, 176]",176,l,0.04437383217737079,colour,0.06
06,18,1,2,8,24,374,1063.0911123156548,1063.7513627070002,"[77, 0, 177]",177,l,0.1379878567531705,colour,0.06
06,18,1,2,8,25,375,1065.7632103799842,1066.319407466799,"[64, 0, 190]",190,a,0.03401450300589204,colour,0.06
06,18,1,2,8,26,376,1068.32596972771,1068.8793882313184,"[76, 0, 178]",178,l,0.031207562889903784,colour,0.06
06,18,1,2,8,27,377,1070.8885750812478,1071.7513264729641,"[86, 0, 168]",168,l,0.340435687918216,colour,0.06
06,18,1,2,8,28,378,1073.7637885459699,1074.3754025106318,"[99, 0, 155]",155,l,0.08939711656421423,colour,0.06
06,18,1,2,8,29,379,1076.3890776289627,1077.4073438085616,"[73, 0, 181]",181,a,0.4960796576924622,colour,0.06
06,18,1,2,8,30,380,1079.4204679364339,1080.0473576090299,"[56, 0, 198]",198,a,0.10463225794956088,colour,0.06
06,18,1,2,8,31,381,1082.0614159391262,1082.607399025932,"[87, 0, 167]",167,l,0.023750484455376863,colour,0.06
06,18,1,2,8,32,382,1084.624024443794,1085.2073898101225,"[92, 0, 162]",162,l,0.061171754729002714,colour,0.06
06,18,1,2,8,33,383,1087.2179897790775,1087.9353978475556,"[59, 0, 195]",195,a,0.195378297008574,colour,0.06
06,18,1,2,8,34,384,1089.9526309696957,1090.5673783724196,"[57, 0, 197]",197,a,0.09249156340956688,colour,0.06
06,18,1,2,8,35,385,1092.577765665017,1093.1274036415853,"[51, 0, 203]",203,a,0.027357324957847595,colour,0.06
06,18,1,2,8,36,386,1095.140543129295,1095.6953743584454,"[96, 0, 158]",158,l,0.03272308222949505,colour,0.06
06,18,1,2,8,37,387,1097.7032134677283,1098.6793680666015,"[30, 0, 224]",224,a,0.45392632903531194,colour,0.06
06,18,1,2,8,38,388,1100.6878164554946,1101.2553854491562,"[83, 0, 171]",171,l,0.045262742321938276,colour,0.06
06,18,1,2,8,39,389,1103.2662552027032,1104.1353301848285,"[69, 0, 185]",185,a,0.34759265603497624,colour,0.06
06,18,1,2,8,40,390,1106.1425182665698,1106.7113440227695,"[93, 0, 161]",161,l,0.046555344481021166,colour,0.06
06,18,1,2,8,41,391,1108.7159988880157,1109.38338813046,"[65, 0, 189]",189,a,0.145071963313967,colour,0.06
06,18,1,2,8,42,392,1111.4054761915468,1111.9833907298744,"[82, 0, 172]",172,l,0.05575519148260355,colour,0.06
06,18,1,2,8,43,393,1113.999458462,1114.5353646068834,"[71, 0, 183]",183,a,0.013690084218978882,colour,0.06
06,18,1,2,8,44,394,1116.546508871019,1117.0713652749546,"[97, 0, 157]",157,l,0.0026344354264438152,colour,0.06
06,18,1,2,8,45,395,1119.076436040923,1120.2073653913103,"[38, 0, 216]",216,a,0.6087432219646871,colour,0.06
06,18,1,2,8,46,396,1122.217236745637,1122.7993284142576,"[89, 0, 165]",165,l,0.060062290634959936,colour,0.06
06,18,1,2,8,47,397,1124.811204050202,1125.3754025106318,"[55, 0, 199]",199,a,0.04221083037555218,colour,0.06
06,18,1,2,8,48,398,1127.3896400406957,1127.9753428823315,"[81, 0, 173]",173,l,0.06307245511561632,colour,0.06
06,18,1,2,8,49,399,1129.983395062387,1130.5515268621966,"[60, 0, 194]",194,a,0.04609927162528038,colour,0.06
06,18,1,2,8,50,400,1132.5619366033934,1133.1434323829599,"[90, 0, 164]",164,l,0.05997052462771535,colour,0.06
06,18,1,2,9,1,401,1140.596721468959,1141.1273796171881,"[52, 0, 202]",202,a,0.00821247510612011,colour,0.06
06,18,1,2,9,2,402,1143.1474452791736,1143.8313536010683,"[69, 0, 185]",185,l,0.1618927288800478,colour,0.06
06,18,1,2,9,3,403,1145.8518682476133,1146.3913662675768,"[89, 0, 165]",165,a,0.017189011443406343,colour,0.06
06,18,1,2,9,4,404,1148.3989434689283,1148.9353852444328,"[80, 0, 174]",174,l,0.014141431543976068,colour,0.06
06,18,1,2,9,5,405,1150.9459895459004,1151.5833295262419,"[57, 0, 197]",197,a,0.11560519924387336,colour,0.06
06,18,1,2,9,6,406,1153.604732688982,1154.3193932883441,"[74, 0, 180]",180,l,0.19283365830779076,colour,0.06
06,18,1,2,9,7,407,1156.3274702806957,1156.9033309128135,"[88, 0, 166]",166,l,0.053998245391994715,colour,0.06
06,18,1,2,9,8,408,1158.9214238002896,1159.8473240532912,"[86, 0, 168]",168,l,0.4036487461999059,colour,0.06
06,18,1,2,9,9,409,1161.8591855107807,1162.4473672187887,"[55, 0, 199]",199,a,0.0659380778670311,colour,0.06
06,18,1,2,9,10,410,1164.4531437568367,1165.3913127044216,"[76, 0, 178]",178,l,0.4159103510901332,colour,0.06
06,18,1,2,9,11,411,1167.4064340246841,1168.0473438245244,"[59, 0, 195]",195,a,0.11859409604221582,colour,0.06
06,18,1,2,9,12,412,1170.0629342151806,1170.7593329669908,"[68, 0, 186]",186,a,0.17417638935148716,colour,0.06
06,18,1,2,9,13,413,1172.76625126414,1173.463347516954,"[91, 0, 163]",163,l,0.17485577333718538,colour,0.06
06,18,1,2,9,14,414,1175.4696498396806,1176.079329233151,"[82, 0, 172]",172,l,0.0884160459972918,colour,0.06
06,18,1,2,9,15,415,1178.0947699625976,1178.6713095852174,"[51, 0, 203]",203,a,0.05430505098775029,colour,0.06
06,18,1,2,9,16,416,1180.6888664485887,1181.3112887269817,"[64, 0, 190]",190,a,0.10030034696683288,colour,0.06
06,18,1,2,9,17,417,1183.3296691221185,1183.927305889316,"[83, 0, 171]",171,l,0.07537305075675249,colour,0.06
06,18,1,2,9,18,418,1185.9392882576212,1186.567304329481,"[87, 0, 167]",167,l,0.10586657095700502,colour,0.06
06,18,1,2,9,19,419,1188.5799790788442,1189.1513514430262,"[92, 0, 162]",162,l,0.04916614945977926,colour,0.06
06,18,1,2,9,20,420,1191.158594663255,1191.6873162710108,"[61, 0, 193]",193,a,0.006729645188897848,colour,0.06
06,18,1,2,9,21,421,1193.7079258342274,1194.2633301089518,"[22, 0, 232]",232,a,0.03319097077473998,colour,0.06
06,18,1,2,9,22,422,1196.27267016517,1196.9113058988005,"[67, 0, 187]",187,a,0.11638343892991543,colour,0.06
06,18,1,2,9,23,423,1198.9291211250238,1199.663357442245,"[63, 0, 191]",191,a,0.2125767609104514,colour,0.06
06,18,1,2,9,24,424,1201.682811461389,1202.2393456804566,"[98, 0, 156]",156,l,0.03494004113599658,colour,0.06
06,18,1,2,9,25,425,1204.2448067478836,1204.8152984725311,"[60, 0, 194]",194,a,0.04828866105526686,colour,0.06
06,18,1,2,9,26,426,1206.8230505418032,1207.4713055677712,"[75, 0, 179]",179,a,0.1258920608088374,colour,0.06
06,18,1,2,9,27,427,1209.4795743627474,1210.1113044018857,"[85, 0, 169]",169,l,0.10947341192513704,colour,0.06
06,18,1,2,9,28,428,1212.1203585257754,1213.0792929995805,"[71, 0, 183]",183,a,0.4366424004547298,colour,0.06
06,18,1,2,9,29,429,1215.0893305568025,1215.8633256191388,"[62, 0, 192]",192,a,0.2516703004948795,colour,0.06
06,18,1,2,9,30,430,1217.8708524089307,1218.51929845009,"[66, 0, 188]",188,l,0.1261839005164802,colour,0.06
06,18,1,2,9,31,431,1220.5272561069578,1221.9432700397447,"[15, 0, 239]",239,a,0.8936887765303254,colour,0.06
06,18,1,2,9,32,432,1223.936757009942,1224.6713103726506,"[81, 0, 173]",173,l,0.22158519830554724,colour,0.06
06,18,1,2,9,33,433,1226.6684447498992,1227.2713031261228,"[33, 0, 221]",221,a,0.0810956321656704,colour,0.06
06,18,1,2,9,34,434,1229.278037497308,1229.8312996444292,"[50, 0, 204]",204,a,0.031012609601020813,colour,0.06
06,18,1,2,9,35,435,1231.8407558850013,1232.535303561017,"[79, 0, 175]",175,l,0.17234697518870234,colour,0.06
06,18,1,2,9,36,436,1234.5441406755708,1235.2553574861959,"[93, 0, 161]",161,l,0.1890665222890675,colour,0.06
06,18,1,2,9,37,437,1237.262964620255,1237.8313146103173,"[84, 0, 170]",170,l,0.046042950823903084,colour,0.06
06,18,1,2,9,38,438,1239.8339667688124,1240.4232996883802,"[65, 0, 189]",189,a,0.06730944942682981,colour,0.06
06,18,1,2,9,39,439,1242.4435780271888,1243.6072792969644,"[78, 0, 176]",176,l,0.6415427103638649,colour,0.06
06,18,1,2,9,40,440,1245.6156682148576,1246.2393043264747,"[96, 0, 158]",158,l,0.10139996465295553,colour,0.06
06,18,1,2,9,41,441,1248.2564185070805,1249.639280459378,"[73, 0, 181]",181,a,0.8605572762899101,colour,0.06
06,18,1,2,9,42,442,1251.647370448336,1252.6232879520394,"[70, 0, 184]",184,a,0.4536510305479169,colour,0.06
06,18,1,2,9,43,443,1254.6319541377015,1255.2552925017662,"[97, 0, 157]",157,l,0.10108764516189694,colour,0.06
06,18,1,2,9,44,444,1257.2727997405455,1257.8553856853396,"[54, 0, 200]",200,a,0.06029111472889781,colour,0.06
06,18,1,2,9,45,445,1259.866735143587,1260.4232776332647,"[90, 0, 164]",164,l,0.034380386117845774,colour,0.06
06,18,1,2,9,46,446,1262.429455500096,1263.2392507633194,"[56, 0, 198]",198,a,0.2874831040389836,colour,0.06
06,18,1,2,9,47,447,1265.2578450171277,1265.791431015823,"[95, 0, 159]",159,l,0.012180079240351915,colour,0.06
06,18,1,2,9,48,448,1267.8049533213489,1268.4072831566446,"[99, 0, 155]",155,l,0.08010235289111733,colour,0.06
06,18,1,2,9,49,449,1270.4145901799202,1271.0392841617577,"[58, 0, 196]",196,a,0.1025807149708271,colour,0.06
06,18,1,2,9,50,450,1273.05538458284,1273.6232580197975,"[72, 0, 182]",182,a,0.04572866251692176,colour,0.06
06,18,1,2,10,1,451,1281.0876953084953,1282.071275478229,"[77, 0, 177]",177,l,0.4605890205129981,colour,0.06
06,18,1,2,10,2,452,1284.088842581492,1285.0472760829143,"[75, 0, 179]",179,l,0.4363383515737951,colour,0.06
06,18,1,2,10,3,453,1287.0577925569378,1287.7032918431796,"[51, 0, 203]",203,a,0.12340216711163521,colour,0.06
06,18,1,2,10,4,454,1289.7142608459108,1290.2952485643327,"[79, 0, 175]",175,l,0.05901505472138524,colour,0.06
06,18,1,2,10,5,455,1292.3082092455588,1293.1672588796355,"[59, 0, 195]",195,a,0.3368587791919708,colour,0.06
06,18,1,2,10,6,456,1295.1834093192592,1296.4312660098076,"[69, 0, 185]",185,a,0.725738303270191,colour,0.06
06,18,1,2,10,7,457,1298.449299427215,1299.1512313201092,"[97, 0, 157]",157,l,0.1797910570167005,colour,0.06
06,18,1,2,10,8,458,1301.1682600360364,1301.8792492039502,"[83, 0, 171]",171,l,0.1889987806789577,colour,0.06
06,18,1,2,10,9,459,1303.887181260623,1304.4872772013769,"[61, 0, 193]",193,a,0.0777440033853054,colour,0.06
06,18,1,2,10,10,460,1306.4908761656843,1307.4152770470828,"[68, 0, 186]",186,a,0.4018992823548615,colour,0.06
06,18,1,2,10,11,461,1309.428657174576,1309.9592582150362,"[90, 0, 164]",164,l,0.00823807530105114,colour,0.06
06,18,1,2,10,12,462,1311.9757253066637,1312.551272437442,"[63, 0, 191]",191,a,0.053239697590470314,colour,0.06
06,18,1,2,10,13,463,1314.5697032450698,1315.16734119365,"[89, 0, 165]",165,l,0.07533996785059571,colour,0.06
06,18,1,2,10,14,464,1317.1696782754734,1318.135214787908,"[52, 0, 202]",202,a,0.44325192272663116,colour,0.06
06,18,1,2,10,15,465,1320.1543497918174,1320.7512398269027,"[88, 0, 166]",166,l,0.07469248492270708,colour,0.06
06,18,1,2,10,16,466,1322.7639059117064,1323.3272162498906,"[56, 0, 198]",198,a,0.041156898718327284,colour,0.06
06,18,1,2,10,17,467,1325.3422095701098,1325.9112381571904,"[5, 0, 249]",249,a,0.04680740600451827,colour,0.06
06,18,1,2,10,18,468,1327.9205321334302,1328.5352310929447,"[86, 0, 168]",168,l,0.09235371742397547,colour,0.06
06,18,1,2,10,19,469,1330.5458046747372,1331.111237842124,"[71, 0, 183]",183,a,0.04320804821327329,colour,0.06
06,18,1,2,10,20,470,1333.1240917914547,1333.7432246687822,"[57, 0, 197]",197,a,0.09694556752219796,colour,0.06
06,18,1,2,10,21,471,1335.7492666589096,1336.2872424642555,"[91, 0, 163]",163,l,0.01574989827349782,colour,0.06
06,18,1,2,10,22,472,1338.2963477880694,1338.8392509995028,"[82, 0, 172]",172,l,0.020641464740037918,colour,0.06
06,18,1,2,10,23,473,1340.8590988647193,1341.815214977134,"[81, 0, 173]",173,l,0.43391107907518744,colour,0.06
06,18,1,2,10,24,474,1343.828587227501,1344.3592473450117,"[64, 0, 190]",190,a,0.008939514867961407,colour,0.06
06,18,1,2,10,25,475,1346.3750992491841,1346.9352217982523,"[80, 0, 174]",174,a,0.037844260688871145,colour,0.06
06,18,1,2,10,26,476,1348.9534958554432,1349.5112545411102,"[93, 0, 161]",161,l,0.03557373909279704,colour,0.06
06,18,1,2,10,27,477,1351.5317168058828,1352.0552782444283,"[96, 0, 158]",158,l,0.0012331316247582436,colour,0.06
06,18,1,2,10,28,478,1354.0631933659315,1354.6872410462238,"[85, 0, 169]",169,l,0.1017508814111352,colour,0.06
06,18,1,2,10,29,479,1356.7040208517574,1357.2632600045763,"[98, 0, 156]",156,l,0.03699158411473036,colour,0.06
06,18,1,2,10,30,480,1359.2823891011067,1359.8792165145278,"[60, 0, 194]",194,a,0.07456842344254255,colour,0.06
06,18,1,2,10,31,481,1361.8919727900065,1362.4552476820536,"[29, 0, 225]",225,a,0.041003298945724964,colour,0.06
06,18,1,2,10,32,482,1364.4703217409551,1365.0472036153078,"[58, 0, 196]",196,a,0.054666601587086916,colour,0.06
06,18,1,2,10,33,483,1367.0642870757729,1368.039180580061,"[94, 0, 160]",160,l,0.45265735732391477,colour,0.06
06,18,1,2,10,34,484,1370.0489329928532,1370.6152365598828,"[53, 0, 201]",201,a,0.04411665117368102,colour,0.06
06,18,1,2,10,35,485,1372.62715276191,1373.167240763083,"[99, 0, 155]",155,l,0.017863275948911905,colour,0.06
06,18,1,2,10,36,486,1375.1742732757702,1376.1431893799454,"[67, 0, 187]",187,a,0.4467287943698466,colour,0.06
06,18,1,2,10,37,487,1378.1588817769662,1378.6873343880288,"[0, 0, 254]",254,a,0.0067662731744349,colour,0.06
06,18,1,2,10,38,488,1380.7060558539815,1381.455229171086,"[76, 0, 178]",178,l,0.2270277552306652,colour,0.06
06,18,1,2,10,39,489,1383.4719306011684,1384.023195949383,"[72, 0, 182]",182,l,0.029124511871486902,colour,0.06
06,18,1,2,10,40,490,1386.0344666382298,1386.6951920078136,"[50, 0, 204]",204,a,0.13863415783271194,colour,0.06
06,18,1,2,10,41,491,1388.706488690339,1389.3032219749875,"[84, 0, 170]",170,l,0.07440418982878327,colour,0.06
06,18,1,2,10,42,492,1391.3161444533616,1392.5671649081632,"[70, 0, 184]",184,l,0.7287984862923622,colour,0.06
06,18,1,2,10,43,493,1394.5820538592525,1395.1672222521156,"[92, 0, 162]",162,l,0.06291688606142998,colour,0.06
06,18,1,2,10,44,494,1397.1760010775179,1397.7831925465725,"[54, 0, 200]",200,a,0.08496004808694124,colour,0.06
06,18,1,2,10,45,495,1399.8011605851352,1400.3672183924355,"[87, 0, 167]",167,l,0.04402803536504507,colour,0.06
06,18,1,2,10,46,496,1402.3795784590766,1402.9912144793198,"[62, 0, 192]",192,a,0.08949203323572874,colour,0.06
06,18,1,2,10,47,497,1405.0048222495243,1405.5992026985623,"[78, 0, 176]",176,l,0.07218329282477498,colour,0.06
06,18,1,2,10,48,498,1407.6142964493483,1408.4711669338867,"[95, 0, 159]",159,l,0.3346311869099736,colour,0.06
06,18,1,2,10,49,499,1410.4895103080198,1411.2231590067968,"[74, 0, 180]",180,l,0.21131133381277323,colour,0.06
06,18,1,2,10,50,500,1413.2396670584567,1413.9991847388446,"[65, 0, 189]",189,a,0.23712872108444571,colour,0.06
06,18,1,2,11,1,501,1421.895932123065,1422.471172447782,"[69, 0, 185]",185,a,0.052263747435063124,colour,0.06
06,18,1,2,11,2,502,1424.4906567931175,1425.0791728761978,"[56, 0, 198]",198,a,0.06636815750971437,colour,0.06
06,18,1,2,11,3,503,1427.0845949533395,1427.9592716055922,"[78, 0, 176]",176,l,0.3526472747325897,colour,0.06
06,18,1,2,11,4,504,1429.9754594606347,1430.5191846289672,"[82, 0, 172]",172,l,0.021487052086740732,colour,0.06
06,18,1,2,11,5,505,1432.5381829682738,1433.07116205059,"[54, 0, 200]",200,a,0.010720486287027597,colour,0.06
06,18,1,2,11,6,506,1435.085221562069,1435.623174130451,"[21, 0, 233]",233,a,0.015905861277133226,colour,0.06
06,18,1,2,11,7,507,1437.6322999340482,1438.3351585469209,"[83, 0, 171]",171,l,0.18065357953310013,colour,0.06
06,18,1,2,11,8,508,1440.3511167895049,1441.079154365696,"[74, 0, 180]",180,a,0.20581363840028644,colour,0.06
06,18,1,2,11,9,509,1443.0858320230618,1443.7271994720213,"[63, 0, 191]",191,a,0.11910058185458183,colour,0.06
06,18,1,2,11,10,510,1445.7423385153525,1446.2791946167126,"[33, 0, 221]",221,a,0.014582145027816296,colour,0.06
06,18,1,2,11,11,511,1448.2895153490826,1448.8391623841599,"[97, 0, 157]",157,l,0.027557005174458027,colour,0.06
06,18,1,2,11,12,512,1450.8520781677216,1451.3831868753769,"[53, 0, 201]",201,a,0.009086025413125753,colour,0.06
06,18,1,2,11,13,513,1453.399936354719,1454.5351338130422,"[68, 0, 186]",186,a,0.6137375817634165,colour,0.06
06,18,1,2,11,14,514,1456.5400553117506,1457.1591913397424,"[84, 0, 170]",170,l,0.09687585663050413,colour,0.06
06,18,1,2,11,15,515,1459.1652715331875,1460.0791437318549,"[73, 0, 181]",181,l,0.39135799650102854,colour,0.06
06,18,1,2,11,16,516,1462.0876291422173,1462.6951770419255,"[95, 0, 159]",159,l,0.0852160481736064,colour,0.06
06,18,1,2,11,17,517,1464.712866237387,1465.8631519330665,"[70, 0, 184]",184,l,0.6280680596828461,colour,0.06
06,18,1,2,11,18,518,1467.8697512154467,1468.527133227326,"[77, 0, 177]",177,l,0.13506748946383595,colour,0.06
06,18,1,2,11,19,519,1470.5418205293827,1472.8871580236591,"[99, 0, 155]",155,l,1.8231190703809261,colour,0.06
06,18,1,2,11,20,520,1474.901550335344,1476.0551687553525,"[66, 0, 188]",188,a,0.6315969191491604,colour,0.06
06,18,1,2,11,21,521,1478.073650368955,1478.671108723618,"[65, 0, 189]",189,a,0.07512571569532156,colour,0.06
06,18,1,2,11,22,522,1480.6833147965372,1481.2791646844707,"[90, 0, 164]",164,l,0.07364682434126735,colour,0.06
06,18,1,2,11,23,523,1483.2928563440219,1484.2551133017987,"[81, 0, 173]",173,l,0.439995211083442,colour,0.06
06,18,1,2,11,24,524,1486.2618315252475,1487.391154378187,"[87, 0, 167]",167,l,0.6070362934842706,colour,0.06
06,18,1,2,11,25,525,1489.4026582236402,1490.2951296227984,"[57, 0, 197]",197,a,0.3702419474720955,colour,0.06
06,18,1,2,11,26,526,1492.2999869245104,1493.3431536187418,"[94, 0, 160]",160,l,0.520851384382695,colour,0.06
06,18,1,2,11,27,527,1495.3627057056874,1496.2071208129637,"[61, 0, 193]",193,a,0.32221204321831465,colour,0.06
06,18,1,2,11,28,528,1498.2222397704609,1498.8711607898585,"[64, 0, 190]",190,a,0.12662697723135352,colour,0.06
06,18,1,2,11,29,529,1500.879787591286,1501.4631537450477,"[96, 0, 158]",158,l,0.061128825414925814,colour,0.06
06,18,1,2,11,30,530,1503.4736780957319,1504.311144579202,"[62, 0, 192]",192,a,0.3151716534048319,colour,0.06
06,18,1,2,11,31,531,1506.317631221842,1507.4631399605423,"[80, 0, 174]",174,l,0.6234450964257121,colour,0.06
06,18,1,2,11,32,532,1509.4741503167897,1510.111151590012,"[72, 0, 182]",182,a,0.11474779713898897,colour,0.06
06,18,1,2,11,33,533,1512.130647356622,1512.863144843839,"[59, 0, 195]",195,a,0.21028103260323405,colour,0.06
06,18,1,2,11,34,534,1514.8808568827808,1515.4471183083951,"[79, 0, 175]",175,l,0.04402449121698737,colour,0.06
06,18,1,2,11,35,535,1517.4591900794767,1518.0871380162425,"[58, 0, 196]",196,a,0.10566295264288783,colour,0.06
06,18,1,2,11,36,536,1520.087381019257,1520.7431210870855,"[55, 0, 199]",199,a,0.13341412413865328,colour,0.06
06,18,1,2,11,37,537,1522.7604420371354,1524.6631337376311,"[71, 0, 183]",183,l,1.3805433814413846,colour,0.06
06,18,1,2,11,38,538,1526.6825877567753,1527.503123986069,"[60, 0, 194]",194,a,0.29829929443076253,colour,0.06
06,18,1,2,11,39,539,1529.5109221353196,1530.1030911393464,"[88, 0, 166]",166,l,0.06986708519980311,colour,0.06
06,18,1,2,11,40,540,1532.120499522891,1532.6951081189327,"[91, 0, 163]",163,l,0.05234133545309305,colour,0.06
06,18,1,2,11,41,541,1534.7144341380335,1535.327132360544,"[85, 0, 169]",169,l,0.0904616815969348,colour,0.06
06,18,1,2,11,42,542,1537.3396038855426,1537.9351359400898,"[67, 0, 187]",187,a,0.07318563060835004,colour,0.06
06,18,1,2,11,43,543,1539.9492568918504,1540.8551257471554,"[76, 0, 178]",178,l,0.38359293015673757,colour,0.06
06,18,1,2,11,44,544,1542.8620755523443,1543.7030669571832,"[86, 0, 168]",168,l,0.31868751626461744,colour,0.06
06,18,1,2,11,45,545,1545.7217293460853,1546.3111134655774,"[50, 0, 204]",204,a,0.06709204660728574,colour,0.06
06,18,1,2,11,46,546,1548.3312496258877,1548.8711418854073,"[98, 0, 156]",156,l,0.017665171064436436,colour,0.06
06,18,1,2,11,47,547,1550.8783295736648,1551.4391228421591,"[92, 0, 162]",162,l,0.03852246329188347,colour,0.06
06,18,1,2,11,48,548,1553.456634413451,1554.0310905911028,"[7, 0, 247]",247,a,0.05213417252525687,colour,0.06
06,18,1,2,11,49,549,1556.0506407087669,1556.5910981371999,"[93, 0, 161]",161,l,0.018348100129514933,colour,0.06
06,18,1,2,11,50,550,1558.5977726439014,1559.2791012753733,"[52, 0, 202]",202,a,0.1682946947403252,colour,0.06
06,18,1,2,12,1,551,1567.4146075090393,1568.391083091963,"[55, 0, 199]",199,a,0.4533662796020508,colour,0.06
06,18,1,2,12,2,552,1570.4000801085494,1571.0470720706508,"[81, 0, 173]",173,l,0.12485230760648847,colour,0.06
06,18,1,2,12,3,553,1573.0564251239412,1573.9670634535141,"[96, 0, 158]",158,l,0.3882942693307996,colour,0.06
06,18,1,2,12,4,554,1575.9801619811915,1576.5190928624943,"[61, 0, 193]",193,a,0.016702611465007067,colour,0.06
06,18,1,2,12,5,555,1578.5271501624957,1579.1030919267796,"[71, 0, 183]",183,a,0.05361857730895281,colour,0.06
06,18,1,2,12,6,556,1581.121648765169,1581.6470793965273,"[97, 0, 157]",157,l,0.015660101547837257,colour,0.06
06,18,1,2,12,7,557,1583.6562556126155,1584.351153023541,"[90, 0, 164]",164,l,0.17309646401554346,colour,0.06
06,18,1,2,12,8,558,1586.3596230736002,1587.0391128384508,"[77, 0, 177]",177,l,0.15725125465542078,colour,0.06
06,18,1,2,12,9,559,1589.0474009322934,1589.6230981182307,"[95, 0, 159]",159,l,0.053501999005675316,colour,0.06
06,18,1,2,12,10,560,1591.6413516951725,1592.2391085848212,"[57, 0, 197]",197,a,0.07556997379288077,colour,0.06
06,18,1,2,12,11,561,1594.2510618087836,1596.1270704483613,"[69, 0, 185]",185,l,1.3540355819277465,colour,0.06
06,18,1,2,12,12,562,1598.1419940576889,1599.1750822351314,"[75, 0, 179]",179,l,0.5108823566697538,colour,0.06
06,18,1,2,12,13,563,1601.1890834574588,1602.6151121044531,"[74, 0, 180]",180,l,0.9037460261024535,colour,0.06
06,18,1,2,12,14,564,1604.6269455989823,1605.1590578262694,"[50, 0, 204]",204,a,0.009960757102817297,colour,0.06
06,18,1,2,12,15,565,1607.1740141250193,1607.7910600127652,"[86, 0, 168]",168,l,0.09490032540634274,colour,0.06
06,18,1,2,12,16,566,1609.7991629987955,1610.8150594076142,"[53, 0, 201]",201,a,0.4936236343346536,colour,0.06
06,18,1,2,12,17,567,1612.830601749476,1613.903083971236,"[68, 0, 186]",186,a,0.5501858163625002,colour,0.06
06,18,1,2,12,18,568,1615.9089727555402,1616.5030491552316,"[92, 0, 162]",162,l,0.07188278809189796,colour,0.06
06,18,1,2,12,19,569,1618.518532420043,1622.167054867372,"[65, 0, 189]",189,a,3.1264363559894264,colour,0.06
06,18,1,2,12,20,570,1624.1753126350231,1624.7430950934067,"[64, 0, 190]",190,a,0.04562586825340986,colour,0.06
06,18,1,2,12,21,571,1626.7448154124431,1627.903051675763,"[42, 0, 212]",212,a,0.6359126828610897,colour,0.06
06,18,1,2,12,22,572,1629.91885631904,1630.6470148055814,"[70, 0, 184]",184,a,0.2060708198696375,colour,0.06
06,18,1,2,12,23,573,1632.65344000794,1633.5510605485179,"[72, 0, 182]",182,l,0.3753450089134276,colour,0.06
06,18,1,2,12,24,574,1635.559978401754,1636.3990675304085,"[99, 0, 155]",155,l,0.3169002435170114,colour,0.06
06,18,1,2,12,25,575,1638.419545548968,1639.2390443882905,"[80, 0, 174]",174,l,0.2972252769395709,colour,0.06
06,18,1,2,12,26,576,1641.2479334906675,1641.9510563737713,"[87, 0, 167]",167,l,0.18090957961976528,colour,0.06
06,18,1,2,12,27,577,1643.9668582598679,1644.5670613264665,"[54, 0, 200]",200,a,0.07805868610739708,colour,0.06
06,18,1,2,12,28,578,1646.5763998073526,1647.2070337734185,"[89, 0, 165]",165,l,0.1083485884591937,colour,0.06
06,18,1,2,12,29,579,1649.2172343824059,1649.7910265359096,"[19, 0, 235]",235,a,0.051610357128083706,colour,0.06
06,18,1,2,12,30,580,1651.8112615514547,1652.3990214504302,"[94, 0, 160]",160,l,0.06556353019550443,colour,0.06
06,18,1,2,12,31,581,1654.4051922284998,1655.1030281237327,"[58, 0, 196]",196,a,0.17556036403402686,colour,0.06
06,18,1,2,12,32,582,1657.1085183359683,1657.7030319049954,"[51, 0, 203]",203,a,0.07222307147458196,colour,0.06
06,18,1,2,12,33,583,1659.7181158098392,1660.3110413919203,"[59, 0, 195]",195,a,0.07090801978483796,colour,0.06
06,18,1,2,12,34,584,1662.3277054065838,1663.279031170532,"[66, 0, 188]",188,a,0.429075438529253,colour,0.06
06,18,1,2,12,35,585,1665.2966671972536,1665.8390607722104,"[83, 0, 171]",171,l,0.020110166631639004,colour,0.06
06,18,1,2,12,36,586,1667.8594233938493,1668.8630719827488,"[52, 0, 202]",202,a,0.48139078030362725,colour,0.06
06,18,1,2,12,37,587,1670.875259150751,1671.607053623069,"[76, 0, 178]",178,l,0.20952799916267395,colour,0.06
06,18,1,2,12,38,588,1673.6254277168773,1674.1590487677604,"[98, 0, 156]",156,a,0.011347882449626923,colour,0.06
06,18,1,2,12,39,589,1676.1601889515296,1676.7430568905547,"[60, 0, 194]",194,a,0.060619976837188005,colour,0.06
06,18,1,2,12,40,590,1678.7540983608924,1679.2950500659645,"[82, 0, 172]",172,l,0.018658450804650784,colour,0.06
06,18,1,2,12,41,591,1681.3011271082796,1682.2070325915702,"[88, 0, 166]",166,l,0.3838087576441467,colour,0.06
06,18,1,2,12,42,592,1684.2232744037174,1684.8310105614364,"[67, 0, 187]",187,a,0.08544211555272341,colour,0.06
06,18,1,2,12,43,593,1686.8484721141867,1687.4950265139341,"[79, 0, 175]",175,l,0.12432100996375084,colour,0.06
06,18,1,2,12,44,594,1689.5049561574124,1690.1270223991014,"[56, 0, 198]",198,a,0.09974738722667098,colour,0.06
06,18,1,2,12,45,595,1692.145578449592,1692.7350287348963,"[91, 0, 163]",163,l,0.066973892506212,colour,0.06
06,18,1,2,12,46,596,1694.7553763906471,1695.3430185299367,"[63, 0, 191]",191,a,0.06532131554558873,colour,0.06
06,18,1,2,12,47,597,1697.3493102183565,1697.8950054035522,"[84, 0, 170]",170,l,0.023433831986039877,colour,0.06
06,18,1,2,12,48,598,1699.9120412091725,1700.7909800619818,"[6, 0, 248]",248,a,0.3567227921448648,colour,0.06
06,18,1,2,12,49,599,1702.8027599933557,1703.4469997608103,"[85, 0, 169]",169,l,0.12189846346154809,colour,0.06
06,18,1,2,12,50,600,1705.459348011762,1706.2790024201386,"[62, 0, 192]",192,a,0.297451738268137,colour,0.06
06,18,1,2,13,1,601,1714.9905260363594,1715.5910170050338,"[99, 0, 155]",155,l,0.07754904963076115,colour,0.06
06,18,1,2,13,2,602,1717.6009564944543,1718.2709919875488,"[88, 0, 166]",166,l,0.14846652140840888,colour,0.06
06,18,1,2,13,3,603,1720.288699300494,1721.1429810356349,"[62, 0, 192]",192,a,0.3321326281875372,colour,0.06
06,18,1,2,13,4,604,1723.148250693921,1723.7350228275172,"[98, 0, 156]",156,l,0.06448714947327971,colour,0.06
06,18,1,2,13,5,605,1725.7421561647207,1726.271029796917,"[67, 0, 187]",187,a,0.006579983979463577,colour,0.06
06,18,1,2,13,6,606,1728.2892727400176,1728.8470125212334,"[57, 0, 197]",197,a,0.03543707448989153,colour,0.06
06,18,1,2,13,7,607,1730.8675496168435,1731.4310226133093,"[61, 0, 193]",193,a,0.041318769566714764,colour,0.06
06,18,1,2,13,8,608,1733.4466000068933,1734.1109676635824,"[59, 0, 195]",195,a,0.14281010627746582,colour,0.06
06,18,1,2,13,9,609,1736.1180348349735,1736.7429576413706,"[92, 0, 162]",162,l,0.10277842544019222,colour,0.06
06,18,1,2,13,10,610,1738.7589521179907,1739.3030408057384,"[60, 0, 194]",194,a,0.02190098399296403,colour,0.06
06,18,1,2,13,11,611,1741.3119610222057,1742.2229798068292,"[19, 0, 235]",235,a,0.38877751817926764,colour,0.06
06,18,1,2,13,12,612,1744.2341201324016,1744.85499617178,"[69, 0, 185]",185,a,0.09882184909656644,colour,0.06
06,18,1,2,13,13,613,1746.8748542773537,1747.486988118384,"[55, 0, 199]",199,a,0.08996504219248891,colour,0.06
06,18,1,2,13,14,614,1749.5001122462563,1750.1669599507004,"[78, 0, 176]",176,l,0.14462928054854274,colour,0.06
06,18,1,2,13,15,615,1752.1722047966905,1752.846998736728,"[79, 0, 175]",175,l,0.15258024213835597,colour,0.06
06,18,1,2,13,16,616,1754.8598822243512,1755.4150147456676,"[87, 0, 167]",167,l,0.03283769125118852,colour,0.06
06,18,1,2,13,17,617,1757.4225832829252,1758.0229966635816,"[84, 0, 170]",170,l,0.0781736895442009,colour,0.06
06,18,1,2,13,18,618,1760.0321705164388,1760.6390280043706,"[75, 0, 179]",179,l,0.08458353159949183,colour,0.06
06,18,1,2,13,19,619,1762.6580239804462,1763.2549719111994,"[56, 0, 198]",198,l,0.07577949995175004,colour,0.06
06,18,1,2,13,20,620,1765.2670657378621,1766.3110008258373,"[64, 0, 190]",190,a,0.5217985841445625,colour,0.06
06,18,1,2,13,21,621,1768.329789638985,1768.9269947507419,"[95, 0, 159]",159,l,0.074966995511204,colour,0.06
06,18,1,2,13,22,622,1770.9394643064588,1772.3669895678759,"[81, 0, 173]",173,l,0.905443502124399,colour,0.06
06,18,1,2,13,23,623,1774.3772275927477,1774.9029922052287,"[80, 0, 174]",174,l,0.003676945809274912,colour,0.06
06,18,1,2,13,24,624,1776.924153546337,1777.6789596481249,"[85, 0, 169]",169,l,0.23257349943742156,colour,0.06
06,18,1,2,13,25,625,1779.6900657094084,1782.4629859668203,"[71, 0, 183]",183,l,2.2507081353105605,colour,0.06
06,18,1,2,13,26,626,1784.4716300969012,1785.1670186338015,"[50, 0, 204]",204,a,0.17386800795793533,colour,0.06
06,18,1,2,13,27,627,1787.168944934383,1787.7110159494914,"[65, 0, 189]",189,a,0.02034135442227125,colour,0.06
06,18,1,2,13,28,628,1789.716108771041,1790.2950110752136,"[91, 0, 163]",163,l,0.05689655710011721,colour,0.06
06,18,1,2,13,29,629,1792.3115829299204,1793.7911309050396,"[74, 0, 180]",180,l,0.9580172062851489,colour,0.06
06,18,1,2,13,30,630,1795.7963005267084,1796.6629336639307,"[82, 0, 172]",172,l,0.3425533976405859,colour,0.06
06,18,1,2,13,31,631,1798.6608604588546,1799.2549778185785,"[22, 0, 232]",232,a,0.07234910177066922,colour,0.06
06,18,1,2,13,32,632,1801.2704886528663,1801.9909671437927,"[54, 0, 200]",200,a,0.19820256577804685,colour,0.06
06,18,1,2,13,33,633,1804.0050896708854,1804.5589358913712,"[58, 0, 196]",196,a,0.0316325225867331,colour,0.06
06,18,1,2,13,34,634,1806.567758040037,1807.0949420733377,"[97, 0, 157]",157,l,0.005104637239128351,colour,0.06
06,18,1,2,13,35,635,1809.11474700924,1810.1829556091689,"[76, 0, 178]",178,l,0.5458302744664252,colour,0.06
06,18,1,2,13,36,636,1812.1932357749902,1812.7429800904356,"[51, 0, 203]",203,l,0.027525891549885273,colour,0.06
06,18,1,2,13,37,637,1814.7559057199396,1815.4309391179122,"[83, 0, 171]",171,l,0.15283466689288616,colour,0.06
06,18,1,2,13,38,638,1817.443658765871,1818.0549375675619,"[89, 0, 165]",165,l,0.08908361475914717,colour,0.06
06,18,1,2,13,39,639,1820.0689072823152,1820.7910029049963,"[86, 0, 168]",168,l,0.20008396776393056,colour,0.06
06,18,1,2,13,40,640,1822.8034500116482,1823.4069523257203,"[94, 0, 160]",160,l,0.0812177243642509,colour,0.06
06,18,1,2,13,41,641,1825.413025429938,1827.014958661981,"[77, 0, 177]",177,l,1.079636039212346,colour,0.06
06,18,1,2,13,42,642,1829.013419906143,1829.6629316946492,"[29, 0, 225]",225,a,0.12723310617730021,colour,0.06
06,18,1,2,13,43,643,1831.6699567241594,1832.3589216340333,"[53, 0, 201]",201,a,0.17650126153603196,colour,0.06
06,18,1,2,13,44,644,1834.3795910621993,1835.142937712837,"[63, 0, 191]",191,a,0.24111483618617058,colour,0.06
06,18,1,2,13,45,645,1837.16108613275,1837.742950945627,"[90, 0, 164]",164,l,0.05963339237496257,colour,0.06
06,18,1,2,13,46,646,1839.7550290185027,1840.5349699733779,"[66, 0, 188]",188,a,0.25768038956448436,colour,0.06
06,18,1,2,13,47,647,1842.552194824908,1843.1829055906273,"[93, 0, 161]",161,l,0.10875582508742809,colour,0.06
06,18,1,2,13,48,648,1845.1928978553042,1845.7989077866077,"[96, 0, 158]",158,l,0.08364696614444256,colour,0.06
06,18,1,2,13,49,649,1847.8181672459468,1848.366920644883,"[70, 0, 184]",184,a,0.026727565564215183,colour,0.06
06,18,1,2,13,50,650,1850.380862396676,1850.9989456743933,"[68, 0, 186]",186,a,0.09584358613938093,colour,0.06
06,18,1,2,14,1,651,1865.146878534928,1865.9269045600668,"[72, 0, 182]",182,l,0.2570116389542818,colour,0.06
06,18,1,2,14,2,652,1867.9447761066258,1868.5589173808694,"[53, 0, 201]",201,a,0.09189567528665066,colour,0.06
06,18,1,2,14,3,653,1870.569963183254,1871.1029052441008,"[51, 0, 203]",203,a,0.010675587691366673,colour,0.06
06,18,1,2,14,4,654,1873.1170679433271,1874.1749262721278,"[59, 0, 195]",195,a,0.5357202496379614,colour,0.06
06,18,1,2,14,5,655,1876.1954448567703,1876.7988833682612,"[83, 0, 171]",171,l,0.08123544743284583,colour,0.06
06,18,1,2,14,6,656,1878.8050506012514,1879.3349435068667,"[18, 0, 236]",236,a,0.007638247683644295,colour,0.06
06,18,1,2,14,7,657,1881.3520687152632,1882.0389316692017,"[88, 0, 166]",166,l,0.16485051158815622,colour,0.06
06,18,1,2,14,8,658,1884.055431844201,1884.6869303020649,"[87, 0, 167]",167,l,0.10923119727522135,colour,0.06
06,18,1,2,14,9,659,1886.6972250407562,1887.3109232378192,"[86, 0, 168]",168,l,0.09245966235175729,colour,0.06
06,18,1,2,14,10,660,1889.3214916992001,1889.910906538833,"[62, 0, 192]",192,a,0.06722556008026004,colour,0.06
06,18,1,2,14,11,661,1891.9205632470548,1892.5909012141638,"[75, 0, 179]",179,l,0.1480998508632183,colour,0.06
06,18,1,2,14,12,662,1894.6082682437263,1895.2708856491372,"[69, 0, 185]",185,l,0.14040213217958808,colour,0.06
06,18,1,2,14,13,663,1897.280419871211,1897.982918114867,"[77, 0, 177]",177,l,0.1803644965402782,colour,0.06
06,18,1,2,14,14,664,1899.999233182054,1900.942903763149,"[47, 0, 207]",207,a,0.42140804650262,colour,0.06
06,18,1,2,14,15,665,1902.9526951666921,1903.49491584301,"[80, 0, 174]",174,l,0.020034154411405325,colour,0.06
06,18,1,2,14,16,666,1905.5153722004034,1906.1188827850856,"[74, 0, 180]",180,l,0.08204401284456253,colour,0.06
06,18,1,2,14,17,667,1908.1249566772021,1909.2468771957792,"[91, 0, 163]",163,l,0.5996918547898531,colour,0.06
06,18,1,2,14,18,668,1911.2658117325045,1911.9828921211883,"[94, 0, 160]",160,l,0.19480367610231042,colour,0.06
06,18,1,2,14,19,669,1914.0004332307726,1914.5668856715783,"[67, 0, 187]",187,a,0.04434114322066307,colour,0.06
06,18,1,2,14,20,670,1916.578752642963,1917.2308701160364,"[58, 0, 196]",196,a,0.12995970156043768,colour,0.06
06,18,1,2,14,21,671,1919.2507743011229,1919.8228823691607,"[93, 0, 161]",161,l,0.04996250569820404,colour,0.06
06,18,1,2,14,22,672,1921.816500884015,1922.4788977354765,"[81, 0, 173]",173,l,0.14015282783657312,colour,0.06
06,18,1,2,14,23,673,1924.48861273285,1925.0469046863727,"[97, 0, 157]",157,l,0.03608140628784895,colour,0.06
06,18,1,2,14,24,674,1927.0668352590874,1927.9588746088557,"[50, 0, 204]",204,a,0.36974924616515636,colour,0.06
06,18,1,2,14,25,675,1929.9732625880279,1930.5828687264584,"[54, 0, 200]",200,a,0.08728964673355222,colour,0.06
06,18,1,2,14,26,676,1932.5985619109124,1933.238857705146,"[56, 0, 198]",198,a,0.11807185644283891,colour,0.06
06,18,1,2,14,27,677,1935.2550085387193,1936.0868465704843,"[68, 0, 186]",186,a,0.30953611247241497,colour,0.06
06,18,1,2,14,28,678,1938.0989730861038,1939.4308508965187,"[55, 0, 199]",199,a,0.8096641125157475,colour,0.06
06,18,1,2,14,29,679,1941.443035307806,1942.1828539967537,"[85, 0, 169]",169,l,0.21759160049259663,colour,0.06
06,18,1,2,14,30,680,1944.1931629138999,1944.8228780371137,"[78, 0, 176]",176,l,0.10734900739043951,colour,0.06
06,18,1,2,14,31,681,1946.834034116473,1947.398922201246,"[61, 0, 193]",193,a,0.04272479936480522,colour,0.06
06,18,1,2,14,32,682,1949.412420088891,1950.342853508424,"[66, 0, 188]",188,a,0.4179863133467734,colour,0.06
06,18,1,2,14,33,683,1952.3571056108922,1952.9748533316888,"[64, 0, 190]",190,a,0.09536073124036193,colour,0.06
06,18,1,2,14,34,684,1954.9824021765962,1955.5668616467156,"[76, 0, 178]",178,l,0.062214658595621586,colour,0.06
06,18,1,2,14,35,685,1957.5763041027822,1958.1348449666984,"[63, 0, 191]",191,a,0.0363137754611671,colour,0.06
06,18,1,2,14,36,686,1960.1546794408932,1960.6788879684173,"[90, 0, 164]",164,l,0.0019385097548365593,colour,0.06
06,18,1,2,14,37,687,1962.7015601024032,1963.270878166426,"[96, 0, 158]",158,l,0.047153203282505274,colour,0.06
06,18,1,2,14,38,688,1965.2800264190882,1965.9188452912495,"[95, 0, 159]",159,l,0.11653940193355083,colour,0.06
06,18,1,2,14,39,689,1967.936530154664,1968.5268520209938,"[82, 0, 172]",172,l,0.06808335660025477,colour,0.06
06,18,1,2,14,40,690,1970.5460787913762,1971.6308474303223,"[73, 0, 181]",181,l,0.5624820799566805,colour,0.06
06,18,1,2,14,41,691,1973.6400453080423,1974.2868667352013,"[9, 0, 245]",245,a,0.12455180333927274,colour,0.06
06,18,1,2,14,42,692,1976.2965305326506,1976.8388571538962,"[92, 0, 162]",162,l,0.02009756350889802,colour,0.06
06,18,1,2,14,43,693,1978.859281215351,1979.6468714457005,"[79, 0, 175]",175,l,0.2639126069843769,colour,0.06
06,18,1,2,14,44,694,1981.6576931499876,1982.3428416932002,"[70, 0, 184]",184,l,0.16221095668151975,colour,0.06
06,18,1,2,14,45,695,1984.3622287586331,1985.0148168774322,"[84, 0, 170]",170,l,0.13041144283488393,colour,0.06
06,18,1,2,14,46,696,1987.034238601569,1987.5588716943748,"[99, 0, 155]",155,l,0.0024662627838552,colour,0.06
06,18,1,2,14,47,697,1989.5813354845159,1990.3828387153335,"[89, 0, 165]",165,l,0.27925054263323545,colour,0.06
06,18,1,2,14,48,698,1992.3940676567145,1993.2627869956195,"[57, 0, 197]",197,a,0.3464363245293498,colour,0.06
06,18,1,2,14,49,699,1995.2692149551585,1996.3188619902357,"[65, 0, 189]",189,l,0.5275199837051332,colour,0.06
06,18,1,2,14,50,700,1998.3319967514835,1999.60682440456,"[60, 0, 194]",194,a,0.7526048966683447,colour,0.06
06,18,1,2,15,1,701,2007.5038746562786,2008.1988079072908,"[88, 0, 166]",166,l,0.17188735678792,colour,0.06
06,18,1,2,15,2,702,2010.2080837665126,2011.0547863310203,"[95, 0, 159]",159,l,0.3246991806663573,colour,0.06
06,18,1,2,15,3,703,2013.0675823846832,2013.9587875693105,"[92, 0, 162]",162,l,0.3691190928220749,colour,0.06
06,18,1,2,15,4,704,2015.9740073508583,2017.0388213926926,"[51, 0, 203]",203,a,0.542584196664393,colour,0.06
06,18,1,2,15,5,705,2019.0408918405883,2019.654815318063,"[96, 0, 158]",158,l,0.09173065377399325,colour,0.06
06,18,1,2,15,6,706,2021.6661478402093,2022.5748468730599,"[38, 0, 216]",216,a,0.3869859129190445,colour,0.06
06,18,1,2,15,7,707,2024.588180132676,2025.1428321618587,"[81, 0, 173]",173,l,0.03227921761572361,colour,0.06
06,18,1,2,15,8,708,2027.150884735398,2028.0387973678298,"[56, 0, 198]",198,a,0.3657517097890377,colour,0.06
06,18,1,2,15,9,709,2030.0577791659161,2030.8068378744647,"[61, 0, 193]",193,a,0.22681586630642414,colour,0.06
06,18,1,2,15,10,710,2032.8235901105218,2033.5667281332426,"[90, 0, 164]",164,l,0.2208561897277832,colour,0.06
06,18,1,2,15,11,711,2035.5737110213377,2036.3828355646692,"[69, 0, 185]",185,a,0.28675409499555826,colour,0.06
06,18,1,2,15,12,712,2038.4021564642899,2039.0228233714588,"[70, 0, 184]",184,l,0.09866194799542427,colour,0.06
06,18,1,2,15,13,713,2041.0429642577656,2041.7671326915734,"[82, 0, 172]",172,l,0.20182791771367192,colour,0.06
06,18,1,2,15,14,714,2043.7774995039217,2044.4628205513582,"[52, 0, 202]",202,a,0.16306166350841522,colour,0.06
06,18,1,2,15,15,715,2046.4808669653721,2047.3987973523326,"[58, 0, 196]",196,a,0.39557884354144335,colour,0.06
06,18,1,2,15,16,716,2049.4186515188776,2051.198829962872,"[72, 0, 182]",182,a,1.2581596998497844,colour,0.06
06,18,1,2,15,17,717,2053.216434875503,2054.6627840022556,"[77, 0, 177]",177,l,0.9241732386872172,colour,0.06
06,18,1,2,15,18,718,2056.669801943004,2057.9028185191564,"[67, 0, 187]",187,a,0.7112246877513826,colour,0.06
06,18,1,2,15,19,719,2059.9120494797826,2060.6627666731365,"[93, 0, 161]",161,l,0.2284912862814963,colour,0.06
06,18,1,2,15,20,720,2062.677896264475,2063.4388219439425,"[10, 0, 244]",244,a,0.23868953296914697,colour,0.06
06,18,1,2,15,21,721,2065.4594385963865,2066.183062341064,"[57, 0, 197]",197,a,0.2015069331973791,colour,0.06
06,18,1,2,15,22,722,2068.1939947162755,2069.382800906431,"[80, 0, 174]",174,l,0.6665791017003357,colour,0.06
06,18,1,2,15,23,723,2071.3973932913505,2072.150807541795,"[63, 0, 191]",191,a,0.23121945746243,colour,0.06
06,18,1,2,15,24,724,2074.1634125807323,2075.00679147942,"[53, 0, 201]",201,a,0.3211482660844922,colour,0.06
06,18,1,2,15,25,725,2077.0230305343866,2077.942797818687,"[50, 0, 204]",204,a,0.3977052173577249,colour,0.06
06,18,1,2,15,26,726,2079.9484156365506,2081.4387935870327,"[64, 0, 190]",190,l,0.9683599942363799,colour,0.06
06,18,1,2,15,27,727,2083.4487196858972,2084.334804872982,"[73, 0, 181]",181,l,0.3638982712291181,colour,0.06
06,18,1,2,15,28,728,2086.355164343957,2087.294782250654,"[54, 0, 200]",200,a,0.41737270122393966,colour,0.06
06,18,1,2,15,29,729,2089.3085538609885,2090.2147952946834,"[24, 0, 230]",230,a,0.38402852369472384,colour,0.06
06,18,1,2,15,30,730,2092.2306050579064,2093.0627916431986,"[74, 0, 180]",180,l,0.30985630955547094,colour,0.06
06,18,1,2,15,31,731,2095.074534553103,2095.7267709677108,"[65, 0, 189]",189,l,0.12996757868677378,colour,0.06
06,18,1,2,15,32,732,2097.746713356115,2098.270773797296,"[89, 0, 165]",165,l,0.0018632854335010052,colour,0.06
06,18,1,2,15,33,733,2100.2737859305926,2101.4307666132227,"[91, 0, 163]",163,l,0.6346133849583566,colour,0.06
06,18,1,2,15,34,734,2103.445941102691,2104.046756206546,"[86, 0, 168]",168,l,0.07876603351905942,colour,0.06
06,18,1,2,15,35,735,2106.055492890533,2107.1587896170095,"[59, 0, 195]",195,a,0.5810479768551886,colour,0.06
06,18,1,2,15,36,736,2109.165210880805,2109.7987490668893,"[87, 0, 167]",167,l,0.11134024197235703,colour,0.06
06,18,1,2,15,37,737,2111.8060588468798,2112.654785385821,"[98, 0, 156]",156,l,0.3265285948291421,colour,0.06
06,18,1,2,15,38,738,2114.6655586468987,2115.5587369990535,"[99, 0, 155]",155,l,0.37147389724850655,colour,0.06
06,18,1,2,15,39,739,2117.5719938529655,2118.214754334651,"[62, 0, 192]",192,a,0.12041287636384368,colour,0.06
06,18,1,2,15,40,740,2120.2285389420576,2121.0227623251267,"[75, 0, 179]",179,l,0.2719364301301539,colour,0.06
06,18,1,2,15,41,741,2123.042058018502,2123.9827582133003,"[71, 0, 183]",183,a,0.4192513460293412,colour,0.06
06,18,1,2,15,42,742,2125.994572803378,2127.534753751941,"[66, 0, 188]",188,a,1.0178628819994628,colour,0.06
06,18,1,2,15,43,743,2129.5417330954224,2130.3427684376948,"[76, 0, 178]",178,l,0.2788023459725082,colour,0.06
06,18,1,2,15,44,744,2132.354508196935,2133.1987362271175,"[97, 0, 157]",157,l,0.3218441912904382,colour,0.06
06,18,1,2,15,45,745,2135.214059196878,2135.974746993277,"[94, 0, 160]",160,l,0.23842565575614572,colour,0.06
06,18,1,2,15,46,746,2137.979901649058,2138.5747586512007,"[55, 0, 199]",199,a,0.072635427583009,colour,0.06
06,18,1,2,15,47,747,2140.589576710481,2141.158770712558,"[84, 0, 170]",170,l,0.046964944805949926,colour,0.06
06,18,1,2,15,48,748,2143.167811445426,2143.750779027585,"[60, 0, 194]",194,a,0.060848407447338104,colour,0.06
06,18,1,2,15,49,749,2145.7618689406663,2146.3107731826603,"[79, 0, 175]",175,l,0.026638162788003683,colour,0.06
06,18,1,2,15,50,750,2148.324553063605,2148.8547480488196,"[83, 0, 171]",171,l,0.00803445652127266,colour,0.06
06,18,1,2,16,1,751,2156.6212883959524,2157.2787798969075,"[80, 0, 174]",174,l,0.13443103432655334,colour,0.06
06,18,1,2,16,2,752,2159.2941591865383,2160.0227186083794,"[52, 0, 202]",202,a,0.20625435234978795,colour,0.06
06,18,1,2,16,3,753,2162.0287980139256,2162.6387274996378,"[89, 0, 165]",165,l,0.08843376906588674,colour,0.06
06,18,1,2,16,4,754,2164.6539945430122,2165.2467271406204,"[60, 0, 194]",194,a,0.07049802597612143,colour,0.06
06,18,1,2,16,5,755,2167.2635522382334,2167.8307380201295,"[63, 0, 191]",191,a,0.04493821365758777,colour,0.06
06,18,1,2,16,6,756,2169.832805317361,2170.718711304944,"[26, 0, 228]",228,a,0.36370213609188795,colour,0.06
06,18,1,2,16,7,757,2172.73926179111,2173.286733615212,"[82, 0, 172]",172,l,0.025214015506207943,colour,0.06
06,18,1,2,16,8,758,2175.3019380369224,2176.1747147766873,"[61, 0, 193]",193,a,0.35069419257342815,colour,0.06
06,18,1,2,16,9,759,2178.1927860029973,2178.758714234922,"[98, 0, 156]",156,l,0.04363222047686577,colour,0.06
06,18,1,2,16,10,760,2180.7711255014874,2181.3187280828133,"[88, 0, 166]",166,l,0.025316415820270777,colour,0.06
06,18,1,2,16,11,761,2183.333828922827,2183.926770258695,"[70, 0, 184]",184,l,0.07072527520358562,colour,0.06
06,18,1,2,16,12,762,2185.9434429383837,2186.542751186993,"[77, 0, 177]",177,l,0.07704492658376694,colour,0.06
06,18,1,2,16,13,763,2188.553030959796,2189.1187236714177,"[81, 0, 173]",173,l,0.04350894642993808,colour,0.06
06,18,1,2,16,14,764,2191.1313909380697,2191.7107063862495,"[58, 0, 196]",196,a,0.0571092339232564,colour,0.06
06,18,1,2,16,15,765,2193.725286956411,2194.8067197203636,"[62, 0, 192]",192,a,0.5591875589452684,colour,0.06
06,18,1,2,16,16,766,2196.810037084855,2197.3987410324626,"[48, 0, 206]",206,a,0.066261425614357,colour,0.06
06,18,1,2,16,17,767,2199.4040705552325,2200.3987410324626,"[69, 0, 185]",185,l,0.47236304404214025,colour,0.06
06,18,1,2,16,18,768,2202.404360819608,2203.878700576257,"[65, 0, 189]",189,l,0.9521414190530777,colour,0.06
06,18,1,2,16,19,769,2205.888987437822,2206.5507041178644,"[78, 0, 176]",176,l,0.13936434825882316,colour,0.06
06,18,1,2,16,20,770,2208.561105588451,2209.206726179458,"[37, 0, 217]",217,a,0.12341161910444498,colour,0.06
06,18,1,2,16,21,771,2211.208906510379,2211.990706811659,"[53, 0, 201]",201,a,0.2595027144998312,colour,0.06
06,18,1,2,16,22,772,2214.0067489440553,2214.678719402291,"[97, 0, 157]",157,l,0.149758730083704,colour,0.06
06,18,1,2,16,23,773,2216.6944941128604,2217.63070210116,"[72, 0, 182]",182,l,0.41395687544718385,colour,0.06
06,18,1,2,16,24,774,2219.6504893144593,2221.966725533828,"[66, 0, 188]",188,a,1.7946893027983606,colour,0.06
06,18,1,2,16,25,775,2223.979564516805,2224.5666970191523,"[83, 0, 171]",171,l,0.06474630022421479,colour,0.06
06,18,1,2,16,26,776,2226.573704325594,2228.214681473095,"[71, 0, 183]",183,l,1.1188162248581648,colour,0.06
06,18,1,2,16,27,777,2230.230054067448,2231.0227831988595,"[51, 0, 203]",203,a,0.2703157542273402,colour,0.06
06,18,1,2,16,28,778,2233.042925660964,2233.6626780577935,"[57, 0, 197]",197,a,0.09746898850426078,colour,0.06
06,18,1,2,16,29,779,2235.6559677110054,2236.630691073835,"[68, 0, 186]",186,l,0.45300118485465646,colour,0.06
06,18,1,2,16,30,780,2238.6403761389665,2239.3186792456545,"[99, 0, 155]",155,l,0.16532391449436545,colour,0.06
06,18,1,2,16,31,781,2241.3345279996283,2242.1026728749275,"[87, 0, 167]",167,l,0.2571144327521324,colour,0.06
06,18,1,2,16,32,782,2244.120389245916,2244.974704064429,"[64, 0, 190]",190,a,0.33216571155935526,colour,0.06
06,18,1,2,16,33,783,2246.9916004482657,2247.630657990463,"[55, 0, 199]",199,a,0.11694545671343803,colour,0.06
06,18,1,2,16,34,784,2249.640183154028,2250.286708015483,"[54, 0, 200]",200,a,0.12424972373992205,colour,0.06
06,18,1,2,16,35,785,2252.2992004142143,2252.93467041431,"[76, 0, 178]",178,l,0.11315153958275914,colour,0.06
06,18,1,2,16,36,786,2254.9400712233037,2255.862640721258,"[94, 0, 160]",160,l,0.40029317885637283,colour,0.06
06,18,1,2,16,37,787,2257.8778057582676,2259.60665229382,"[73, 0, 181]",181,l,1.2073653913103044,colour,0.06
06,18,1,2,16,38,788,2261.612480819691,2262.4066648185253,"[59, 0, 195]",195,a,0.2714905967004597,colour,0.06
06,18,1,2,16,39,789,2264.425686394796,2265.014671942219,"[86, 0, 168]",168,l,0.06676121614873409,colour,0.06
06,18,1,2,16,40,790,2267.035378391389,2267.5906944451854,"[85, 0, 169]",169,a,0.03341428190469742,colour,0.06
06,18,1,2,16,41,791,2269.597960114479,2270.4946618126705,"[75, 0, 179]",179,l,0.37447382183745503,colour,0.06
06,18,1,2,16,42,792,2272.494635818526,2273.0227442081086,"[95, 0, 159]",159,l,0.005930531769990921,colour,0.06
06,18,1,2,16,43,793,2275.041677169502,2275.8786852164194,"[50, 0, 204]",204,a,0.31493140757083893,colour,0.06
06,18,1,2,16,44,794,2277.8776608230546,2278.686636099126,"[90, 0, 164]",164,l,0.2867548828944564,colour,0.06
06,18,1,2,16,45,795,2280.707957735751,2281.254689129535,"[92, 0, 162]",162,l,0.024618126917630434,colour,0.06
06,18,1,2,16,46,796,2283.270440209657,2283.8386610182934,"[91, 0, 163]",163,l,0.045809400267899036,colour,0.06
06,18,1,2,16,47,797,2285.8489675722085,2286.4227037997916,"[96, 0, 158]",158,l,0.05160169256851077,colour,0.06
06,18,1,2,16,48,798,2288.4429411785677,2289.030655784998,"[84, 0, 170]",170,l,0.06551075493916869,colour,0.06
06,18,1,2,16,49,799,2291.0368151413277,2291.6706463485025,"[79, 0, 175]",175,l,0.11148399580270052,colour,0.06
06,18,1,2,16,50,800,2293.6776315998286,2294.358647123445,"[74, 0, 180]",180,l,0.1587742567062378,colour,0.06
