id,age,condition,counterbalance,block,trialinblock,trial,tstart,tend,trialstim,trialintensity,response,RT,trialtype,colourfreq
24,23,0,1,Practice,1,NA,5.5138953030109406e-06,1.2774333809502423,"[89, 0, 165]",165,l,0.7539384653791785,colour,0.5
24,23,0,1,Practice,2,NA,3.2976601575501263,3.8295719674788415,"[38, 0, 216]",216,a,0.008546075783669949,colour,0.5
24,23,0,1,Practice,3,NA,5.844527108594775,6.429455388803035,"[46, 0, 208]",208,a,0.06207572855055332,colour,0.5
24,23,0,1,Practice,4,NA,8.438280308619142,9.013424259610474,"[88, 0, 166]",166,l,0.051875497214496136,colour,0.5
24,23,0,1,Practice,5,NA,11.032365127466619,11.605429962277412,"[93, 0, 161]",161,l,0.05017368635162711,colour,0.5
24,23,0,1,Practice,6,NA,13.625809157732874,24.869413089938462,"[39, 0, 215]",215,l,10.720284672454,colour,0.5
24,23,0,1,Practice,7,NA,26.875809945631772,27.453434342052788,"[53, 0, 201]",201,a,0.05434294603765011,colour,0.5
24,23,0,1,Practice,8,NA,29.469509582500905,34.64545619254932,"[20, 0, 234]",234,a,4.652652556542307,colour,0.5
24,23,0,1,Practice,9,NA,36.656980142463,37.69341370416805,"[43, 0, 211]",211,a,0.5135636809282005,colour,0.5
24,23,0,1,Practice,10,NA,39.70385772688314,42.99745102506131,"[50, 0, 204]",204,a,2.7703157858923078,colour,0.5
24,23,0,1,1,1,1,5.760313658975065,10.31200916878879,"[40, 0, 214]",214,a,4.027508999686688,colour,0.5
24,23,0,1,1,2,2,12.323570927605033,13.248067788779736,"[22, 0, 232]",232,a,0.4011433366686106,colour,0.5
24,23,0,1,1,3,3,15.261083235498518,15.968077949713916,"[34, 0, 220]",220,a,0.18358802050352097,colour,0.5
24,23,0,1,1,4,4,17.979824816808105,18.776065945625305,"[73, 0, 181]",181,l,0.2730423859320581,colour,0.5
24,23,0,1,1,5,5,20.792463352438062,21.920081053394824,"[21, 0, 233]",233,a,0.6044181706383824,colour,0.5
24,23,0,1,1,6,6,23.933012610767037,24.832052412908524,"[98, 0, 156]",156,l,0.37582609290257096,colour,0.5
24,23,0,1,1,7,7,26.839199546258897,27.392043905798346,"[61, 0, 193]",193,a,0.029540853574872017,colour,0.5
24,23,0,1,1,8,8,29.401715201325715,30.248100871685892,"[83, 0, 171]",171,l,0.3230534135363996,colour,0.5
24,23,0,1,1,9,9,32.261141918599606,33.18405512254685,"[46, 0, 208]",208,a,0.3996443566866219,colour,0.5
24,23,0,1,1,10,10,35.19861287251115,35.904231880791485,"[39, 0, 215]",215,a,0.18233401328325272,colour,0.5
24,23,0,1,1,11,11,37.9173241276294,38.72016809368506,"[43, 0, 211]",211,a,0.2795546385459602,colour,0.5
24,23,0,1,1,12,12,40.72983938921243,41.52806195989251,"[58, 0, 196]",196,a,0.2755535515025258,colour,0.5
24,23,0,1,1,13,13,43.5423554382287,44.520110591780394,"[70, 0, 184]",184,a,0.4544544043019414,colour,0.5
24,23,0,1,1,14,14,46.52670240169391,47.4640859211795,"[9, 0, 245]",245,a,0.41405717050656676,colour,0.5
24,23,0,1,1,15,15,49.47978149354458,50.34405843075365,"[94, 0, 160]",160,l,0.3411636590026319,colour,0.5
24,23,0,1,1,16,16,52.354810441378504,53.26410167524591,"[1, 0, 253]",253,a,0.38595976447686553,colour,0.5
24,23,0,1,1,17,17,55.27670437050983,56.112093451898545,"[2, 0, 252]",252,a,0.31211590114980936,colour,0.5
24,23,0,1,1,18,18,58.120433152187616,58.87207943061367,"[84, 0, 170]",170,l,0.22835773834958673,colour,0.5
24,23,0,1,1,19,19,60.885988909285516,62.63207604363561,"[69, 0, 185]",185,a,1.2226946190930903,colour,0.5
24,23,0,1,1,20,20,64.65170141682029,65.7521456759423,"[13, 0, 241]",241,a,0.577092703897506,colour,0.5
24,23,0,1,1,21,21,67.76105409068987,68.68811686197296,"[50, 0, 204]",204,a,0.40384354861453176,colour,0.5
24,23,0,1,1,22,22,70.69859042298049,71.56012618821114,"[33, 0, 221]",221,a,0.33826061617583036,colour,0.5
24,23,0,1,1,23,23,73.57359101390466,74.4320992808789,"[78, 0, 176]",176,l,0.3352327239699662,colour,0.5
24,23,0,1,1,24,24,76.44851913675666,77.33608697680756,"[38, 0, 216]",216,a,0.36423361394554377,colour,0.5
24,23,0,1,1,25,25,79.34910045424476,80.26412451826036,"[88, 0, 166]",166,l,0.3916843240149319,colour,0.5
24,23,0,1,1,26,26,82.27099517127499,83.10412396676838,"[0, 0, 254]",254,a,0.3097886615432799,colour,0.5
24,23,0,1,1,27,27,85.11479130061343,85.9921738752164,"[16, 0, 238]",238,a,0.35411609010770917,colour,0.5
24,23,0,1,1,28,28,88.0053535560146,88.8321296069771,"[91, 0, 163]",163,l,0.30345403449609876,colour,0.5
24,23,0,1,1,29,29,90.84908273117617,91.64809299493209,"[18, 0, 236]",236,a,0.27571148378774524,colour,0.5
24,23,0,1,1,30,30,93.66157357441261,94.53609997360036,"[74, 0, 180]",180,l,0.35116184689104557,colour,0.5
24,23,0,1,1,31,31,96.55219451291487,97.44011327018961,"[62, 0, 192]",192,a,0.3645577500574291,colour,0.5
24,23,0,1,1,32,32,99.45846061129123,100.27209991076961,"[12, 0, 242]",242,a,0.2903208271600306,colour,0.5
24,23,0,1,1,33,33,102.2865044544451,103.2001606891863,"[37, 0, 217]",217,a,0.39018967654556036,colour,0.5
24,23,0,1,1,34,34,105.20842004520819,106.00813253689557,"[57, 0, 197]",197,a,0.2763120997697115,colour,0.5
24,23,0,1,1,35,35,108.02097035897896,108.94414704618976,"[75, 0, 179]",179,l,0.3999677044339478,colour,0.5
24,23,0,1,1,36,36,110.95846651913598,111.80013784626499,"[56, 0, 198]",198,a,0.3183756982907653,colour,0.5
24,23,0,1,1,37,37,113.81783494679257,114.69612021744251,"[4, 0, 250]",250,a,0.3550526574254036,colour,0.5
24,23,0,1,1,38,38,116.7084700637497,117.53614408476278,"[36, 0, 218]",218,a,0.3043827242217958,colour,0.5
24,23,0,1,1,39,39,119.55218663578853,120.43219025898725,"[71, 0, 183]",183,l,0.3566099260933697,colour,0.5
24,23,0,1,1,40,40,122.442852078937,123.16013288358226,"[51, 0, 203]",203,a,0.19392846152186394,colour,0.5
24,23,0,1,1,41,41,125.17716202046722,126.14416083088145,"[31, 0, 223]",223,a,0.44431836949661374,colour,0.5
24,23,0,1,1,42,42,128.16162792500108,129.0801670695655,"[76, 0, 178]",178,l,0.39566532522439957,colour,0.5
24,23,0,1,1,43,43,131.09907800517976,131.9925354262814,"[92, 0, 162]",162,l,0.3701747888699174,colour,0.5
24,23,0,1,1,44,44,134.00545319914818,134.80015399400145,"[11, 0, 243]",243,a,0.27139413822442293,colour,0.5
24,23,0,1,1,45,45,136.81789008527994,137.62416130350903,"[49, 0, 205]",205,a,0.28277275850996375,colour,0.5
24,23,0,1,1,46,46,139.63047151267529,140.54414940951392,"[48, 0, 206]",206,a,0.39045749232172966,colour,0.5
24,23,0,1,1,47,47,142.55235441448167,143.45625822152942,"[20, 0, 234]",234,a,0.3806593781337142,colour,0.5
24,23,0,1,1,48,48,145.4742176234722,146.2801623432897,"[86, 0, 168]",168,l,0.28263924457132816,colour,0.5
24,23,0,1,1,49,49,148.28662182064727,148.98415515944362,"[53, 0, 201]",201,a,0.17406638665124774,colour,0.5
24,23,0,1,1,50,50,151.00557371601462,151.75216654967517,"[82, 0, 172]",172,l,0.22338188160210848,colour,0.5
24,23,0,1,2,1,51,160.285918016918,161.06418477697298,"[9, 0, 245]",245,a,0.25409994274377823,colour,0.5
24,23,0,1,2,2,52,163.08368963282555,163.7201854228042,"[17, 0, 237]",237,a,0.1132194590754807,colour,0.5
24,23,0,1,2,3,53,165.73987420508638,166.7601943234913,"[7, 0, 247]",247,a,0.4969358737580478,colour,0.5
24,23,0,1,2,4,54,168.7711503468454,169.58417012589052,"[90, 0, 164]",164,l,0.29025466134771705,colour,0.5
24,23,0,1,2,5,55,171.59920679265633,172.36822130996734,"[29, 0, 225]",225,a,0.24561058031395078,colour,0.5
24,23,0,1,2,6,56,174.38041716208681,175.1442632311955,"[95, 0, 159]",159,l,0.24078911123797297,colour,0.5
24,23,0,1,2,7,57,177.16177955595776,177.9202334722504,"[35, 0, 219]",219,a,0.23550684144720435,colour,0.5
24,23,0,1,2,8,58,179.92744795279577,180.6721767107956,"[53, 0, 201]",201,a,0.22151662409305573,colour,0.5
24,23,0,1,2,9,59,182.69294817745686,183.34420572966337,"[56, 0, 198]",198,a,0.1279705879278481,colour,0.5
24,23,0,1,2,10,60,185.36482910998166,186.0001776246354,"[10, 0, 244]",244,a,0.11198199354112148,colour,0.5
24,23,0,1,2,11,61,188.02107236534357,188.72821752913296,"[24, 0, 230]",230,a,0.18386174412444234,colour,0.5
24,23,0,1,2,12,62,190.73982930649072,191.40822548465803,"[23, 0, 231]",231,a,0.1450977921485901,colour,0.5
24,23,0,1,2,13,63,193.4273416143842,194.2161933942698,"[66, 0, 188]",188,a,0.26548762153834105,colour,0.5
24,23,0,1,2,14,64,196.22422707593068,196.88819484366104,"[93, 0, 161]",161,l,0.14096831111237407,colour,0.5
24,23,0,1,2,15,65,198.89603357110173,199.63222176674753,"[61, 0, 193]",193,a,0.21296070190146565,colour,0.5
24,23,0,1,2,16,66,201.6461469992064,202.4482269026339,"[50, 0, 204]",204,a,0.2789815915748477,colour,0.5
24,23,0,1,2,17,67,204.45877253776416,205.48825037572533,"[76, 0, 178]",178,l,0.5063787382096052,colour,0.5
24,23,0,1,2,18,68,207.5054260236211,208.26422849390656,"[11, 0, 243]",243,a,0.2354442197829485,colour,0.5
24,23,0,1,2,19,69,210.2710518850945,211.20026033231989,"[92, 0, 162]",162,l,0.40628815395757556,colour,0.5
24,23,0,1,2,20,70,213.20862681465223,214.03220286220312,"[21, 0, 233]",233,a,0.30033713253214955,colour,0.5
24,23,0,1,2,21,71,216.05227761436254,216.7842772519216,"[82, 0, 172]",172,l,0.2086823470890522,colour,0.5
24,23,0,1,2,22,72,218.80239182990044,219.59221995528787,"[33, 0, 221]",221,a,0.2665632162243128,colour,0.5
24,23,0,1,2,23,73,221.5991882821545,222.24023378733546,"[89, 0, 165]",165,l,0.11822446109727025,colour,0.5
24,23,0,1,2,24,74,224.25547840539366,225.04824659507722,"[32, 0, 222]",222,a,0.26943081291392446,colour,0.5
24,23,0,1,2,25,75,227.0679156850092,227.84821626869962,"[18, 0, 236]",236,a,0.2569769914261997,colour,0.5
24,23,0,1,2,26,76,229.86481926357374,230.60824163258076,"[45, 0, 209]",209,a,0.22019526921212673,colour,0.5
24,23,0,1,2,27,77,232.61483383597806,233.41625207755715,"[20, 0, 234]",234,a,0.27815490774810314,colour,0.5
24,23,0,1,2,28,78,235.4273518542759,236.28826534189284,"[60, 0, 194]",194,a,0.3376091937534511,colour,0.5
24,23,0,1,2,29,79,238.30233314679936,239.12025592150167,"[22, 0, 232]",232,a,0.29465786553919315,colour,0.5
24,23,0,1,2,30,80,241.13042503921315,241.92822658782825,"[98, 0, 156]",156,l,0.27470402466133237,colour,0.5
24,23,0,1,2,31,81,243.9429367557168,244.72827818151563,"[5, 0, 249]",249,a,0.2619938086718321,colour,0.5
24,23,0,1,2,32,82,246.739630414173,247.4723078617826,"[6, 0, 248]",248,a,0.20915417512878776,colour,0.5
24,23,0,1,2,33,83,249.48980094958097,250.27225390495732,"[31, 0, 223]",223,a,0.2592199477367103,colour,0.5
24,23,0,1,2,34,84,252.28665923606604,253.12032248126343,"[63, 0, 191]",191,a,0.3103329576551914,colour,0.5
24,23,0,1,2,35,85,255.13039746973664,256.0162398680113,"[75, 0, 179]",179,l,0.36274054180830717,colour,0.5
24,23,0,1,2,36,86,258.0366734145209,258.792256582994,"[15, 0, 239]",239,a,0.23221349623054266,colour,0.5
24,23,0,1,2,37,87,260.80227761436254,261.48833544692025,"[1, 0, 253]",253,a,0.16272045578807592,colour,0.5
24,23,0,1,2,38,88,263.5054279929027,264.25629996927455,"[91, 0, 163]",163,l,0.22754208277910948,colour,0.5
24,23,0,1,2,39,89,266.2710566110909,267.0242763068527,"[12, 0, 242]",242,a,0.23029664531350136,colour,0.5
24,23,0,1,2,40,90,269.0366178820841,269.7122746212408,"[47, 0, 207]",207,a,0.15229100547730923,colour,0.5
24,23,0,1,2,41,91,271.724157365039,272.4563106028363,"[30, 0, 224]",224,a,0.20882334373891354,colour,0.5
24,23,0,1,2,42,92,274.4741034079343,275.216297369916,"[78, 0, 176]",176,l,0.21882744040340185,colour,0.5
24,23,0,1,2,43,93,277.22414554981515,277.9602979053743,"[79, 0, 175]",175,l,0.21284451708197594,colour,0.5
24,23,0,1,2,44,94,279.97407111292705,280.7043240410276,"[84, 0, 170]",170,l,0.20685686822980642,colour,0.5
24,23,0,1,2,45,95,282.72414358053356,283.4082948016003,"[99, 0, 155]",155,l,0.16083274874836206,colour,0.5
24,23,0,1,2,46,96,285.4272703281604,286.10428111162037,"[54, 0, 200]",200,a,0.15444298274815083,colour,0.5
24,23,0,1,2,47,97,288.114797601942,288.9923912785016,"[73, 0, 181]",181,l,0.3543165582232177,colour,0.5
24,23,0,1,2,48,98,291.0054102698341,291.74432742828503,"[58, 0, 196]",196,a,0.21564594795927405,colour,0.5
24,23,0,1,2,49,99,293.75539884809405,294.92828684626147,"[68, 0, 186]",186,l,0.6496242703869939,colour,0.5
24,23,0,1,2,50,100,296.94287492195144,297.96826345147565,"[19, 0, 235]",235,a,0.5021019587293267,colour,0.5
24,23,0,1,3,1,101,305.6139524076134,306.3043197086081,"[36, 0, 218]",218,a,0.16623711120337248,colour,0.5
24,23,0,1,3,2,102,308.31787236221135,309.1043358561583,"[63, 0, 191]",191,a,0.2630957909859717,colour,0.5
24,23,0,1,3,3,103,311.11486179893836,311.87232282804325,"[43, 0, 211]",211,a,0.2341693383641541,colour,0.5
24,23,0,1,3,4,104,313.8803714760579,314.6484147673473,"[16, 0, 238]",238,a,0.24494616081938148,colour,0.5
24,23,0,1,3,5,105,316.66165864514187,317.5043390071951,"[17, 0, 237]",237,a,0.3193760681897402,colour,0.5
24,23,0,1,3,6,106,319.5209479094483,320.3923325953074,"[21, 0, 233]",233,a,0.3480512471869588,colour,0.5
24,23,0,1,3,7,107,322.4116645529866,323.6643690969795,"[64, 0, 190]",190,l,0.7294605090282857,colour,0.5
24,23,0,1,3,8,108,325.6773108942434,326.4483986198902,"[83, 0, 171]",171,l,0.24830212770029902,colour,0.5
24,23,0,1,3,9,109,328.4584795157425,329.2883488377556,"[78, 0, 176]",176,l,0.30662528658285737,colour,0.5
24,23,0,1,3,10,110,331.30228667287156,332.08838979760185,"[52, 0, 202]",202,a,0.26279568020254374,colour,0.5
24,23,0,1,3,11,111,334.09919064538553,334.880339180585,"[37, 0, 217]",217,a,0.257980118971318,colour,0.5
24,23,0,1,3,12,112,336.8960217558779,337.68834529304877,"[41, 0, 213]",213,a,0.26911888644099236,colour,0.5
24,23,0,1,3,13,113,339.70848463568836,340.4643639768474,"[97, 0, 157]",157,l,0.23261285666376352,colour,0.5
24,23,0,1,3,14,114,342.4741104976274,343.49636519001797,"[75, 0, 179]",179,l,0.498938977252692,colour,0.5
24,23,0,1,3,15,115,345.5053106267005,346.30440989974886,"[45, 0, 209]",209,a,0.2757567763328552,colour,0.5
24,23,0,1,3,16,116,348.31783140217885,349.0725516527891,"[96, 0, 158]",158,l,0.23145534191280603,colour,0.5
24,23,0,1,3,17,117,351.08339227875695,351.8723771786317,"[95, 0, 159]",159,l,0.26559514133259654,colour,0.5
24,23,0,1,3,18,118,353.88028798019513,354.66435649385676,"[54, 0, 200]",200,a,0.26094341976568103,colour,0.5
24,23,0,1,3,19,119,356.6772589064203,357.5443412126042,"[91, 0, 163]",163,l,0.343857963103801,colour,0.5
24,23,0,1,3,20,120,359.5522850975394,360.40039502782747,"[51, 0, 203]",203,a,0.32483281195163727,colour,0.5
24,23,0,1,3,21,121,362.41168936528265,363.2484214627184,"[40, 0, 214]",214,a,0.31355147156864405,colour,0.5
24,23,0,1,3,22,122,365.2553500114009,366.12040006928146,"[79, 0, 175]",175,l,0.3417851491831243,colour,0.5
24,23,0,1,3,23,123,368.130248202011,369.28038762370124,"[28, 0, 226]",226,a,0.6270060576498508,colour,0.5
24,23,0,1,3,24,124,371.286550140474,372.1764271026477,"[80, 0, 174]",174,l,0.3666215054690838,colour,0.5
24,23,0,1,3,25,125,374.19279969716445,374.96041684690863,"[92, 0, 162]",162,l,0.24429670814424753,colour,0.5
24,23,0,1,3,26,126,376.9740230636671,377.73644183250144,"[48, 0, 206]",206,a,0.23912274604663253,colour,0.5
24,23,0,1,3,27,127,379.75529920496047,380.73641268815845,"[53, 0, 201]",201,a,0.4577406602911651,colour,0.5
24,23,0,1,3,28,128,382.75528817716986,383.4884055512957,"[1, 0, 253]",253,a,0.2098623109050095,colour,0.5
24,23,0,1,3,29,129,385.5052905404009,386.288366954308,"[84, 0, 170]",170,l,0.25984892016276717,colour,0.5
24,23,0,1,3,30,130,388.3021066850051,389.0484242197126,"[99, 0, 155]",155,l,0.2229057210497558,colour,0.5
24,23,0,1,3,31,131,391.06778729101643,391.72041464131325,"[12, 0, 242]",242,a,0.12934983801096678,colour,0.5
24,23,0,1,3,32,132,393.7396268695593,394.5123825352639,"[32, 0, 222]",222,a,0.24947736598551273,colour,0.5
24,23,0,1,3,33,133,396.5208415710367,397.2963687349111,"[72, 0, 182]",182,l,0.252143707126379,colour,0.5
24,23,0,1,3,34,134,399.31773845432326,400.18442573212087,"[9, 0, 245]",245,a,0.3434062213636935,colour,0.5
24,23,0,1,3,35,135,402.19275834364817,403.0484639983624,"[88, 0, 166]",166,l,0.3324135704897344,colour,0.5
24,23,0,1,3,36,136,405.06776720518246,406.04847305687144,"[65, 0, 189]",189,a,0.457388561218977,colour,0.5
24,23,0,1,3,37,137,408.0677223065868,409.0724449204281,"[27, 0, 227]",227,a,0.48135018488392234,colour,0.5
24,23,0,1,3,38,138,411.08330760197714,411.8324372009374,"[10, 0, 244]",244,a,0.2257504747249186,colour,0.5
24,23,0,1,3,39,139,413.8490264113061,414.528411695268,"[23, 0, 231]",231,a,0.15615030750632286,colour,0.5
24,23,0,1,3,40,140,416.5364796416834,417.304547351785,"[76, 0, 178]",178,l,0.24474608711898327,colour,0.5
24,23,0,1,3,41,141,419.31772270053625,420.1124443691224,"[18, 0, 236]",236,a,0.27147330110892653,colour,0.5
24,23,0,1,3,42,142,422.13019660813734,423.00841807574034,"[69, 0, 185]",185,l,0.3549805833026767,colour,0.5
24,23,0,1,3,43,143,425.02087465440854,425.9044024166651,"[57, 0, 197]",197,a,0.36027033627033234,colour,0.5
24,23,0,1,3,44,144,427.9114802326076,428.6164391543716,"[22, 0, 232]",232,a,0.1824088441208005,colour,0.5
24,23,0,1,3,45,145,430.6302072419785,431.3046580227092,"[0, 0, 254]",254,a,0.15128945326432586,colour,0.5
24,23,0,1,3,46,146,433.317682527937,434.2004737970419,"[61, 0, 193]",193,l,0.3595574740320444,colour,0.5
24,23,0,1,3,47,147,436.2083593928255,436.97647515218705,"[15, 0, 239]",239,a,0.2448721183463931,colour,0.5
24,23,0,1,3,48,148,438.9895591279492,439.7525304639712,"[35, 0, 219]",219,a,0.23970248829573393,colour,0.5
24,23,0,1,3,49,149,441.7708092755638,442.3284806185402,"[2, 0, 252]",252,a,0.034255984239280224,colour,0.5
24,23,0,1,3,50,150,444.34892046637833,445.12051467830315,"[20, 0, 234]",234,a,0.2483962569385767,colour,0.5
24,23,0,1,4,1,151,455.7543126195669,456.75255527626723,"[62, 0, 192]",192,a,0.47418454103171825,colour,0.5
24,23,0,1,4,2,152,458.77079194644466,459.5044670072384,"[96, 0, 158]",158,l,0.21033847145736217,colour,0.5
24,23,0,1,4,3,153,461.52075019851327,462.30473285354674,"[8, 0, 246]",246,a,0.26067284727469087,colour,0.5
24,23,0,1,4,4,154,464.3177018263377,465.14442746527493,"[28, 0, 226]",226,a,0.30346309300512075,colour,0.5
24,23,0,1,4,5,155,467.1614057957195,467.8964656209573,"[26, 0, 228]",228,a,0.21214898442849517,colour,0.5
24,23,0,1,4,6,156,469.91141446027905,470.9525166791864,"[63, 0, 191]",191,a,0.5178384915925562,colour,0.5
24,23,0,1,4,7,157,472.97385213384405,473.99252833705395,"[58, 0, 196]",196,a,0.49540184158831835,colour,0.5
24,23,0,1,4,8,158,476.005116853863,476.80050333589315,"[45, 0, 209]",209,a,0.2721133017912507,colour,0.5
24,23,0,1,4,9,159,478.8176797712222,479.56050703767687,"[85, 0, 169]",169,l,0.21955448063090444,colour,0.5
24,23,0,1,4,10,160,481.5676218755543,482.3684883378446,"[3, 0, 251]",251,a,0.2782265874557197,colour,0.5
24,23,0,1,4,11,161,484.3800985403359,485.18448441522196,"[49, 0, 205]",205,a,0.28119737235829234,colour,0.5
24,23,0,1,4,12,162,487.19263979559764,488.00053208647296,"[12, 0, 242]",242,a,0.2844655108638108,colour,0.5
24,23,0,1,4,13,163,490.02067418629304,490.7764936629683,"[83, 0, 171]",171,l,0.23237024759873748,colour,0.5
24,23,0,1,4,14,164,492.7863453403115,493.55254976218566,"[29, 0, 225]",225,a,0.24290209729224443,colour,0.5
24,23,0,1,4,15,165,495.5676136049442,496.5045422320254,"[59, 0, 195]",195,a,0.4143344387412071,colour,0.5
24,23,0,1,4,16,166,498.5206391341053,499.2724811541848,"[52, 0, 202]",202,a,0.22839791094884276,colour,0.5
24,23,0,1,4,17,167,501.28639535885304,502.04050278430805,"[81, 0, 173]",173,l,0.23089450411498547,colour,0.5
24,23,0,1,4,18,168,504.0519156693481,504.82449331646785,"[16, 0, 238]",238,a,0.24916386418044567,colour,0.5
24,23,0,1,4,19,169,506.8331650295295,507.60052696662024,"[89, 0, 165]",165,l,0.24383196933194995,colour,0.5
24,23,0,1,4,20,170,509.6152304392308,510.4885032256134,"[73, 0, 181]",181,l,0.35093341628089547,colour,0.5
24,23,0,1,4,21,171,512.5051089772023,513.3685285104439,"[33, 0, 221]",221,a,0.3401735289953649,colour,0.5
24,23,0,1,4,22,172,515.3800946017727,516.2405004212633,"[14, 0, 240]",240,a,0.3371381536126137,colour,0.5
24,23,0,1,4,23,173,518.2550518694334,519.096508549992,"[40, 0, 214]",214,a,0.3181519932113588,colour,0.5
24,23,0,1,4,24,174,521.1144691342488,521.9364898819476,"[24, 0, 230]",230,a,0.29903271282091737,colour,0.5
24,23,0,1,4,25,175,523.9581813742407,524.800530904904,"[43, 0, 211]",211,a,0.31900782184675336,colour,0.5
24,23,0,1,4,26,176,526.8176195123233,527.6004875819199,"[55, 0, 199]",199,a,0.25966381281614304,colour,0.5
24,23,0,1,4,27,177,529.6144510172307,530.4485510382801,"[90, 0, 164]",164,l,0.3109965892508626,colour,0.5
24,23,0,1,4,28,178,532.4582113064826,533.2565894462168,"[77, 0, 177]",177,l,0.2751703383401036,colour,0.5
24,23,0,1,4,29,179,535.2706958479248,536.0645459340885,"[21, 0, 233]",233,a,0.27075413754209876,colour,0.5
24,23,0,1,4,30,180,538.0831890539266,538.864560900256,"[99, 0, 155]",155,l,0.25802068458870053,colour,0.5
24,23,0,1,4,31,181,540.8800398572348,541.6405563475564,"[51, 0, 203]",203,a,0.2373283812776208,colour,0.5
24,23,0,1,4,32,182,543.6612632232718,544.4165624282323,"[41, 0, 213]",213,a,0.23199451761320233,colour,0.5
24,23,0,1,4,33,183,546.4269178356044,547.4005730464123,"[64, 0, 190]",190,a,0.4503402831032872,colour,0.5
24,23,0,1,4,34,184,549.4112604660913,550.2085630111396,"[72, 0, 182]",182,a,0.274015580303967,colour,0.5
24,23,0,1,4,35,185,552.2237808476202,553.0245622391813,"[13, 0, 241]",241,a,0.27751766378059983,colour,0.5
24,23,0,1,4,36,186,555.036308712326,555.808618937619,"[48, 0, 206]",206,a,0.24908588221296668,colour,0.5
24,23,0,1,4,37,187,557.8174359798431,558.5045568044297,"[6, 0, 248]",248,a,0.16375272767618299,colour,0.5
24,23,0,1,4,38,188,560.5206143218093,561.1526328637265,"[32, 0, 222]",222,a,0.1087237005122006,colour,0.5
24,23,0,1,4,39,189,563.161223444622,563.8885512747802,"[95, 0, 159]",159,l,0.20403535198420286,colour,0.5
24,23,0,1,4,40,190,565.8956097923219,567.0165222561918,"[47, 0, 207]",207,a,0.5976566132158041,colour,0.5
24,23,0,1,4,41,191,569.0362972910516,569.8085480453447,"[34, 0, 220]",220,a,0.2490811562165618,colour,0.5
24,23,0,1,4,42,192,571.8174804844894,572.584597449284,"[7, 0, 247]",247,a,0.24380676308646798,colour,0.5
24,23,0,1,4,43,193,574.5987117276527,575.384539947845,"[79, 0, 175]",175,l,0.26245500333607197,colour,0.5
24,23,0,1,4,44,194,577.3955987645313,578.1286385511048,"[36, 0, 218]",218,a,0.20973588665947318,colour,0.5
24,23,0,1,4,45,195,580.1456712326035,580.8805747008882,"[71, 0, 183]",183,l,0.2117102392949164,colour,0.5
24,23,0,1,4,46,196,582.8956011277623,583.6811241167597,"[92, 0, 162]",162,l,0.2622498092241585,colour,0.5
24,23,0,1,4,47,197,585.6923893094063,586.5046210014261,"[60, 0, 194]",194,a,0.288863989058882,colour,0.5
24,23,0,1,4,48,198,588.520511134062,589.3206474045292,"[46, 0, 208]",208,a,0.27666971227154136,colour,0.5
24,23,0,1,4,49,199,591.3338010916486,592.0965936211869,"[84, 0, 170]",170,l,0.24018495064228773,colour,0.5
24,23,0,1,4,50,200,594.1143537368625,594.8966223718598,"[94, 0, 160]",160,l,0.259252636693418,colour,0.5
24,23,0,1,5,1,201,620.8166664037853,621.616726662498,"[25, 0, 229]",229,a,0.27600765647366643,colour,0.5
24,23,0,1,5,2,202,623.6298901955597,624.2326526348479,"[28, 0, 226]",226,a,0.0795250996015966,colour,0.5
24,23,0,1,5,3,203,626.2393712634221,627.0006218836643,"[73, 0, 181]",181,l,0.23820941615849733,colour,0.5
24,23,0,1,5,4,204,629.0205087708309,629.7766252076253,"[99, 0, 155]",155,l,0.2327384939417243,colour,0.5
24,23,0,1,5,5,205,631.7861807122827,632.6086382358335,"[53, 0, 201]",201,a,0.2991418084129691,colour,0.5
24,23,0,1,5,6,206,634.6299374569207,635.2726658685133,"[93, 0, 161]",161,l,0.11946783494204283,colour,0.5
24,23,0,1,5,7,207,637.2862464846112,638.04864319833,"[33, 0, 221]",221,a,0.23922947840765119,colour,0.5
24,23,0,1,5,8,208,640.0673690261319,640.8406398426741,"[77, 0, 177]",177,l,0.24997597513720393,colour,0.5
24,23,0,1,5,9,209,642.8486530445516,643.7286306740716,"[76, 0, 178]",178,l,0.35658668959513307,colour,0.5
24,23,0,1,5,10,210,645.7392050600611,646.5046603861265,"[30, 0, 224]",224,a,0.24211401073262095,colour,0.5
24,23,0,1,5,11,211,648.520442604553,649.2566788494587,"[95, 0, 159]",159,l,0.21285593882203102,colour,0.5
24,23,0,1,5,12,212,651.2704835645854,652.064634943381,"[7, 0, 247]",247,a,0.27084472216665745,colour,0.5
24,23,0,1,5,13,213,654.0829492015764,654.8806530763395,"[13, 0, 241]",241,a,0.2743452303111553,colour,0.5
24,23,0,1,5,14,214,656.8954810043797,657.6967172888108,"[24, 0, 230]",230,a,0.2779359291307628,colour,0.5
24,23,0,1,5,15,215,659.7079580631107,660.488756862469,"[86, 0, 168]",168,l,0.25749056739732623,colour,0.5
24,23,0,1,5,16,216,662.5048612477258,663.4486747062765,"[70, 0, 184]",184,a,0.4205056200735271,colour,0.5
24,23,0,1,5,17,217,665.4580143829808,666.2486936110072,"[16, 0, 238]",238,a,0.2674737898632884,colour,0.5
24,23,0,1,5,18,218,668.2548517952673,669.040635116864,"[0, 0, 254]",254,a,0.2624601232819259,colour,0.5
24,23,0,1,5,19,219,671.0516454908065,671.8406284213997,"[14, 0, 240]",240,a,0.26549904281273484,colour,0.5
24,23,0,1,5,20,220,673.8485912107863,674.6807050639763,"[41, 0, 213]",213,a,0.3088131039403379,colour,0.5
24,23,0,1,5,21,221,676.6924605956301,677.4567635264248,"[92, 0, 162]",162,l,0.24169023195281625,colour,0.5
24,23,0,1,5,22,222,679.4735390259884,680.2407052214257,"[66, 0, 188]",188,a,0.24380361242219806,colour,0.5
24,23,0,1,5,23,223,682.2547482135706,683.0406894674525,"[56, 0, 198]",198,a,0.26260111993178725,colour,0.5
24,23,0,1,5,24,224,685.0516462782398,685.8887076317333,"[68, 0, 186]",186,a,0.3137519396841526,colour,0.5
24,23,0,1,5,25,225,687.8953581242822,688.6726926499978,"[31, 0, 223]",223,a,0.25393255800008774,colour,0.5
24,23,0,1,5,26,226,690.6922786384821,691.4727190374397,"[5, 0, 249]",249,a,0.25729837035760283,colour,0.5
24,23,0,1,5,27,227,693.4891731585376,694.2327463706024,"[57, 0, 197]",197,a,0.22023662319406867,colour,0.5
24,23,0,1,5,28,228,696.2392086046748,696.9847120586783,"[49, 0, 205]",205,a,0.2222649329341948,colour,0.5
24,23,0,1,5,29,229,699.0047490014695,699.8167341453955,"[20, 0, 234]",234,a,0.2886087764054537,colour,0.5
24,23,0,1,5,30,230,701.832887367811,702.6811800426804,"[1, 0, 253]",253,a,0.3249513600021601,colour,0.5
24,23,0,1,5,31,231,704.692238072399,705.5367301283404,"[29, 0, 225]",225,a,0.3212212393991649,colour,0.5
24,23,0,1,5,32,232,707.5516128013842,708.2967421011999,"[3, 0, 251]",251,a,0.22179467976093292,colour,0.5
24,23,0,1,5,33,233,710.3179393159226,711.1207186910324,"[15, 0, 239]",239,a,0.2801324110478163,colour,0.5
24,23,0,1,5,34,234,713.1297432905994,713.912709034048,"[48, 0, 206]",206,a,0.26032350584864616,colour,0.5
24,23,0,1,5,35,235,715.9266043337993,716.696679873392,"[82, 0, 172]",172,l,0.2467054734006524,colour,0.5
24,23,0,1,5,36,236,718.7078997739591,719.4967929073609,"[98, 0, 156]",156,l,0.26571014476940036,colour,0.5
24,23,0,1,5,37,237,721.5047360043973,722.2327507026494,"[87, 0, 167]",167,l,0.20474663842469454,colour,0.5
24,23,0,1,5,38,238,724.2392023028806,725.0487664723769,"[54, 0, 200]",200,a,0.28638275573030114,colour,0.5
24,23,0,1,5,39,239,727.0672587491572,727.9127417230047,"[96, 0, 158]",158,l,0.32222239719703794,colour,0.5
24,23,0,1,5,40,240,729.9266181183048,730.7288023913279,"[22, 0, 232]",232,a,0.27892015175893903,colour,0.5
24,23,0,1,5,41,241,732.7391723706387,734.2887608008459,"[71, 0, 183]",183,l,1.026407016441226,colour,0.5
24,23,0,1,5,42,242,736.3015899583697,736.9847782249562,"[63, 0, 191]",191,a,0.1601439118385315,colour,0.5
24,23,0,1,5,43,243,739.0046131242998,739.7767071276903,"[58, 0, 196]",196,a,0.24866801081225276,colour,0.5
24,23,0,1,5,44,244,741.7859656722285,742.6087823836133,"[62, 0, 192]",192,a,0.29945688555017114,colour,0.5
24,23,0,1,5,45,245,744.6296826382168,745.3767311521806,"[35, 0, 219]",219,a,0.2236496969126165,colour,0.5
24,23,0,1,5,46,246,747.3952848692425,748.1687557599507,"[12, 0, 242]",242,a,0.25009885570034385,colour,0.5
24,23,0,1,5,47,247,750.1764889368787,751.0007841484621,"[74, 0, 180]",180,l,0.3009810717776418,colour,0.5
24,23,0,1,5,48,248,753.0202665552497,753.7847372647375,"[32, 0, 222]",222,a,0.24109237268567085,colour,0.5
24,23,0,1,5,49,249,755.801608862821,756.544753964059,"[44, 0, 210]",210,a,0.2199321798980236,colour,0.5
24,23,0,1,5,50,250,758.5514792874455,759.3527896148153,"[59, 0, 195]",195,a,0.277866218239069,colour,0.5
24,23,0,1,6,1,251,768.7225709510967,769.4727714192122,"[96, 0, 158]",158,l,0.22600726271048188,colour,0.5
24,23,0,1,6,2,252,771.4890951765701,772.1527722855099,"[41, 0, 213]",213,a,0.14052799064666033,colour,0.5
24,23,0,1,6,3,253,774.1609599613585,774.8968070857227,"[0, 0, 254]",254,a,0.2128854771144688,colour,0.5
24,23,0,1,6,4,254,776.9109453889541,777.6407772954553,"[42, 0, 212]",212,a,0.20659220358356833,colour,0.5
24,23,0,1,6,5,255,779.6608614996076,780.4248016979545,"[61, 0, 193]",193,a,0.2406205446459353,colour,0.5
24,23,0,1,6,6,256,782.4421746628359,783.0007904497907,"[29, 0, 225]",225,a,0.03547415183857083,colour,0.5
24,23,0,1,6,7,257,785.0203240569681,785.7607496473938,"[36, 0, 218]",218,a,0.21718194941058755,colour,0.5
24,23,0,1,6,8,258,787.7702370164916,788.5368199250661,"[62, 0, 192]",192,a,0.24331209156662226,colour,0.5
24,23,0,1,6,9,259,790.5514946472831,791.208809165284,"[92, 0, 162]",162,l,0.1339889564551413,colour,0.5
24,23,0,1,6,10,260,793.2234059059992,793.888858474791,"[44, 0, 210]",210,a,0.1422065645456314,colour,0.5
24,23,0,1,6,11,261,795.8952628136612,796.4647822421975,"[17, 0, 237]",237,a,0.04622655641287565,colour,0.5
24,23,0,1,6,12,262,798.4733424964361,799.1127960737795,"[63, 0, 191]",191,a,0.11611344339326024,colour,0.5
24,23,0,1,6,13,263,801.1296093827114,801.7848562062718,"[46, 0, 208]",208,a,0.13194095436483622,colour,0.5
24,23,0,1,6,14,264,803.8014690475538,804.4727934747934,"[95, 0, 159]",159,l,0.14797917380928993,colour,0.5
24,23,0,1,6,15,265,806.4889553613029,807.0328471953981,"[16, 0, 238]",238,a,0.020660795737057924,colour,0.5
24,23,0,1,6,16,266,809.0514651089907,809.6648503774777,"[39, 0, 215]",215,a,0.09001756552606821,colour,0.5
24,23,0,1,6,17,267,811.6764274965972,812.4727934747934,"[24, 0, 230]",230,a,0.2730116657912731,colour,0.5
24,23,0,1,6,18,268,814.4889553613029,815.136873094365,"[48, 0, 206]",206,a,0.12468551332131028,colour,0.5
24,23,0,1,6,19,269,817.145250604488,817.7688317722641,"[87, 0, 167]",167,l,0.10027766181156039,colour,0.5
24,23,0,1,6,20,270,819.785858545918,820.4168767179362,"[35, 0, 219]",219,a,0.10777019849047065,colour,0.5
24,23,0,1,6,21,271,822.4264865736477,823.6168038565665,"[68, 0, 186]",186,l,0.6670405585318804,colour,0.5
24,23,0,1,6,22,272,825.6295837829821,826.2648232020438,"[26, 0, 228]",228,a,0.11195206083357334,colour,0.5
24,23,0,1,6,23,273,828.2858203426003,829.0089025069028,"[13, 0, 241]",241,a,0.19977393187582493,colour,0.5
24,23,0,1,6,24,274,831.020272069145,831.808902900666,"[59, 0, 195]",195,a,0.26538482727482915,colour,0.5
24,23,0,1,6,25,275,833.8171311430633,834.4807987995446,"[64, 0, 190]",190,a,0.14037320902571082,colour,0.5
24,23,0,1,6,26,276,836.4889691458084,837.0968240210786,"[80, 0, 174]",174,l,0.08466873550787568,colour,0.5
24,23,0,1,6,27,277,839.1139484690502,839.6568379634991,"[82, 0, 172]",172,l,0.01970059797167778,colour,0.5
24,23,0,1,6,28,278,841.6764030782506,842.3288205079734,"[5, 0, 249]",249,a,0.1290422435849905,colour,0.5
24,23,0,1,6,29,279,844.3482536841184,845.2808937164955,"[51, 0, 203]",203,a,0.4095755908638239,colour,0.5
24,23,0,1,6,30,280,847.3014288749546,848.0248418706469,"[76, 0, 178]",178,l,0.20035524992272258,colour,0.5
24,23,0,1,6,31,281,850.0357892289758,850.7128728739917,"[4, 0, 250]",250,a,0.15379195427522063,colour,0.5
24,23,0,1,6,32,282,852.723274754826,853.3369372915477,"[37, 0, 217]",217,a,0.0906449630856514,colour,0.5
24,23,0,1,6,33,283,855.3483344228007,855.9129035938531,"[97, 0, 157]",157,l,0.041472040582448244,colour,0.5
24,23,0,1,6,34,284,857.9263577857055,859.1128638153896,"[89, 0, 165]",165,l,0.6630950034596026,colour,0.5
24,23,0,1,6,35,285,861.1296243490651,861.7928824052215,"[83, 0, 171]",171,l,0.14007191639393568,colour,0.5
24,23,0,1,6,36,286,863.8014048505574,864.4568785298616,"[73, 0, 181]",181,l,0.13216899195685983,colour,0.5
24,23,0,1,6,37,287,866.4732999610715,867.3769335895777,"[57, 0, 197]",197,a,0.38033878710120916,colour,0.5
24,23,0,1,6,38,288,869.3952155518346,869.9449288318865,"[1, 0, 253]",253,a,0.026449946220964193,colour,0.5
24,23,0,1,6,39,289,871.9576292010024,872.7449024440721,"[56, 0, 198]",198,a,0.2639149921014905,colour,0.5
24,23,0,1,6,40,290,874.7544941827655,875.5529219470918,"[67, 0, 187]",187,l,0.27504785219207406,colour,0.5
24,23,0,1,6,41,291,877.5669610011391,878.1688396492973,"[45, 0, 209]",209,a,0.07912889029830694,colour,0.5
24,23,0,1,6,42,292,880.1763554224744,880.7928670449182,"[25, 0, 229]",229,a,0.09317621449008584,colour,0.5
24,23,0,1,6,43,293,882.8013528627343,883.4569663573056,"[88, 0, 166]",166,l,0.13225721335038543,colour,0.5
24,23,0,1,6,44,294,885.473252305761,886.1448918101378,"[91, 0, 163]",163,l,0.1483785337768495,colour,0.5
24,23,0,1,6,45,295,888.1607803674415,888.8968767966144,"[70, 0, 184]",184,l,0.21310524363070726,colour,0.5
24,23,0,1,6,46,296,890.9107134132646,891.544917804189,"[40, 0, 214]",214,a,0.11085204780101776,colour,0.5
24,23,0,1,6,47,297,893.5513197793625,894.2009058468975,"[47, 0, 207]",207,a,0.126901688054204,colour,0.5
24,23,0,1,6,48,298,896.207549250219,896.8408915107138,"[31, 0, 223]",223,a,0.11005214508622885,colour,0.5
24,23,0,1,6,49,299,898.8482926748693,899.6008833977394,"[93, 0, 161]",161,l,0.22960386937484145,colour,0.5
24,23,0,1,6,50,300,901.613797232043,902.7449087454006,"[30, 0, 224]",224,a,0.6078119459562004,colour,0.5
24,23,0,1,7,1,301,921.9879876803607,922.5689349598251,"[31, 0, 223]",223,a,0.056917520705610514,colour,0.5
24,23,0,1,7,2,302,924.582618764136,925.1769300447777,"[94, 0, 160]",160,l,0.07105858065187931,colour,0.5
24,23,0,1,7,3,303,927.1919946749695,927.7370105469599,"[47, 0, 207]",207,a,0.021784046199172735,colour,0.5
24,23,0,1,7,4,304,929.7543787858449,930.4009672868997,"[89, 0, 165]",165,l,0.12331098923459649,colour,0.5
24,23,0,1,7,5,305,932.4106452781707,933.072934077587,"[4, 0, 250]",250,a,0.1389699336141348,colour,0.5
24,23,0,1,7,6,306,935.0825171517208,935.8569632065482,"[52, 0, 202]",202,l,0.25118035776540637,colour,0.5
24,23,0,1,7,7,307,937.8637397303246,938.4569356376305,"[12, 0, 242]",242,a,0.06986758904531598,colour,0.5
24,23,0,1,7,8,308,940.4731585704722,941.440934440121,"[60, 0, 194]",194,a,0.4445156869478524,colour,0.5
24,23,0,1,7,9,309,943.4575212872587,944.1209597252309,"[81, 0, 173]",173,l,0.14020700613036752,colour,0.5
24,23,0,1,7,10,310,946.129390404094,946.872945105657,"[48, 0, 206]",206,a,0.2203177553601563,colour,0.5
24,23,0,1,7,11,311,948.8793911919929,949.6089438609779,"[68, 0, 186]",186,l,0.20625231368467212,colour,0.5
24,23,0,1,7,12,312,951.6293305396102,952.2809433410875,"[25, 0, 229]",229,a,0.12824509851634502,colour,0.5
24,23,0,1,7,13,313,954.3012713366188,955.112964246422,"[63, 0, 191]",191,l,0.2884008255787194,colour,0.5
24,23,0,1,7,14,314,957.1293533826247,957.7929970142432,"[19, 0, 235]",235,a,0.1403011349029839,colour,0.5
24,23,0,1,7,15,315,959.8011823273264,960.6169602135196,"[20, 0, 234]",234,a,0.29236331582069397,colour,0.5
24,23,0,1,7,16,316,962.629425062798,963.2649661684409,"[71, 0, 183]",183,l,0.11231321841478348,colour,0.5
24,23,0,1,7,17,317,965.2856127857231,965.8889892320149,"[14, 0, 240]",240,a,0.08005364192649722,colour,0.5
24,23,0,1,7,18,318,967.9105865950696,968.8009873731062,"[27, 0, 227]",227,a,0.36706812772899866,colour,0.5
24,23,0,1,7,19,319,970.816859388724,971.5209888694808,"[77, 0, 177]",177,l,0.18088938388973475,colour,0.5
24,23,0,1,7,20,320,973.5355942747556,974.1289654439315,"[86, 0, 168]",168,l,0.07002355204895139,colour,0.5
24,23,0,1,7,21,321,976.1449705795385,976.7690357845277,"[30, 0, 224]",224,a,0.10094247478991747,colour,0.5
24,23,0,1,7,22,322,978.7856053025462,979.5530003225431,"[29, 0, 225]",225,a,0.24409112008288503,colour,0.5
24,23,0,1,7,23,323,981.5667719547637,982.2730041826144,"[70, 0, 184]",184,l,0.18348837783560157,colour,0.5
24,23,0,1,7,24,324,984.2855615857989,984.9209987157956,"[88, 0, 166]",166,l,0.11213047336786985,colour,0.5
24,23,0,1,7,25,325,986.9417926315218,987.7850243789144,"[66, 0, 188]",188,a,0.3198581365868449,colour,0.5
24,23,0,1,7,26,326,989.8012059577741,990.3610080108047,"[41, 0, 213]",213,a,0.036523752845823765,colour,0.5
24,23,0,1,7,27,327,992.3793002134189,993.0170504041016,"[84, 0, 170]",170,l,0.11437500454485416,colour,0.5
24,23,0,1,7,28,328,995.0355288963765,995.6810122639872,"[79, 0, 175]",175,l,0.12214284017682076,colour,0.5
24,23,0,1,7,29,329,997.6917843609117,998.3129953602329,"[9, 0, 245]",245,a,0.09817452123388648,colour,0.5
24,23,0,1,7,30,330,1000.3325218781829,1000.9610143122263,"[2, 0, 252]",252,a,0.10536497784778476,colour,0.5
24,23,0,1,7,31,331,1002.9730758625083,1003.6010330594145,"[75, 0, 179]",179,l,0.10475097084417939,colour,0.5
24,23,0,1,7,32,332,1005.6136428439058,1006.3210432203487,"[73, 0, 181]",181,l,0.18403464276343584,colour,0.5
24,23,0,1,7,33,333,1008.3324494101107,1008.9289934067056,"[26, 0, 228]",228,a,0.07349137077108026,colour,0.5
24,23,0,1,7,34,334,1010.9417800288647,1011.641030932311,"[34, 0, 220]",220,l,0.1759824501350522,colour,0.5
24,23,0,1,7,35,335,1013.660516096279,1014.4090163288638,"[97, 0, 157]",157,l,0.2251742770895362,colour,0.5
24,23,0,1,7,36,336,1016.4261403824203,1017.0410053324886,"[3, 0, 251]",251,a,0.09155514230951667,colour,0.5
24,23,0,1,7,37,337,1019.0512461303733,1019.7451005489565,"[78, 0, 176]",176,l,0.17065882682800293,colour,0.5
24,23,0,1,7,38,338,1021.7543000164442,1022.4890664261766,"[65, 0, 189]",189,a,0.21150071313604712,colour,0.5
24,23,0,1,7,39,339,1024.50429371465,1025.2410900094546,"[18, 0, 236]",236,a,0.21348609309643507,colour,0.5
24,23,0,1,7,40,340,1027.2543287673034,1028.033043331001,"[16, 0, 238]",238,a,0.2560668122023344,colour,0.5
24,23,0,1,7,41,341,1030.0510996193625,1030.6972103845328,"[17, 0, 237]",237,a,0.12240632344037294,colour,0.5
24,23,0,1,7,42,342,1032.707416917663,1033.3770218109712,"[87, 0, 167]",167,l,0.1463195038959384,colour,0.5
24,23,0,1,7,43,343,1035.394884326961,1035.9530263165943,"[54, 0, 200]",200,a,0.03482154803350568,colour,0.5
24,23,0,1,7,44,344,1037.9730093022808,1038.6811524736695,"[0, 0, 254]",254,a,0.1848782622255385,colour,0.5
24,23,0,1,7,45,345,1040.6917544286698,1041.417078761384,"[62, 0, 192]",192,l,0.20207438990473747,colour,0.5
24,23,0,1,7,46,346,1043.4261301425286,1043.993047032971,"[44, 0, 210]",210,a,0.04357715044170618,colour,0.5
24,23,0,1,7,47,347,1046.0041972221807,1046.6490768236108,"[36, 0, 218]",218,a,0.12153631681576371,colour,0.5
24,23,0,1,7,48,348,1048.660513733048,1049.2970772646368,"[55, 0, 199]",199,a,0.11334470240399241,colour,0.5
24,23,0,1,7,49,349,1051.3167254808359,1052.4490535864606,"[37, 0, 217]",217,a,0.6090056947432458,colour,0.5
24,23,0,1,7,50,350,1054.4572869483382,1055.4650323344395,"[67, 0, 187]",187,a,0.4843572028912604,colour,0.5
24,23,0,1,8,1,351,1063.0190672925673,1063.72107748501,"[20, 0, 234]",234,a,0.17791032884269953,colour,0.5
24,23,0,1,8,2,352,1065.738574905321,1066.4730967362411,"[86, 0, 168]",168,l,0.21113404165953398,colour,0.5
24,23,0,1,8,3,353,1068.4885205547325,1069.2730581392534,"[53, 0, 201]",201,a,0.2611143491230905,colour,0.5
24,23,0,1,8,4,354,1071.2854635179974,1072.3130536493845,"[39, 0, 215]",215,a,0.5042834747582674,colour,0.5
24,23,0,1,8,5,355,1074.3323131394573,1075.1050975555554,"[61, 0, 193]",193,a,0.24972233828157187,colour,0.5
24,23,0,1,8,6,356,1077.1135735269636,1077.8890542169102,"[76, 0, 178]",178,l,0.2521996330469847,colour,0.5
24,23,0,1,8,7,357,1079.9104743488133,1081.2810449535027,"[6, 0, 248]",248,a,0.8472966374829412,colour,0.5
24,23,0,1,8,8,358,1083.300917268265,1084.2171110566705,"[70, 0, 184]",184,l,0.39272132189944386,colour,0.5
24,23,0,1,8,9,359,1086.2385130715556,1087.1371653284878,"[65, 0, 189]",189,a,0.37531291088089347,colour,0.5
24,23,0,1,8,10,360,1089.145511330571,1089.8972056587227,"[10, 0, 244]",244,a,0.2291084104217589,colour,0.5
24,23,0,1,8,11,361,1091.9104133024812,1092.7531401384622,"[16, 0, 238]",238,a,0.3194355391897261,colour,0.5
24,23,0,1,8,12,362,1094.76972383447,1095.5931474636309,"[60, 0, 194]",194,a,0.3000452923588455,colour,0.5
24,23,0,1,8,13,363,1097.6135183884762,1098.3370995563455,"[14, 0, 240]",240,a,0.2002670280635357,colour,0.5
24,23,0,1,8,14,364,1100.3478688960895,1101.0491292052902,"[97, 0, 157]",157,l,0.17802966479212046,colour,0.5
24,23,0,1,8,15,365,1103.0666597085074,1103.7450891272165,"[58, 0, 196]",196,a,0.15510306973010302,colour,0.5
24,23,0,1,8,16,366,1105.7542086439207,1106.3850779421628,"[94, 0, 160]",160,l,0.10764928767457604,colour,0.5
24,23,0,1,8,17,367,1108.3947602654807,1109.121107023675,"[31, 0, 223]",223,a,0.2029885076917708,colour,0.5
24,23,0,1,8,18,368,1111.1291548837908,1111.6891274722293,"[11, 0, 243]",243,a,0.036688774824142456,colour,0.5
24,23,0,1,8,19,369,1113.7072180253454,1114.6011760258116,"[18, 0, 236]",236,a,0.3705442175269127,colour,0.5
24,23,0,1,8,20,370,1116.6135065732524,1117.2730967365205,"[33, 0, 221]",221,a,0.13634179579094052,colour,0.5
24,23,0,1,8,21,371,1119.285362299066,1120.0571691882797,"[89, 0, 165]",165,l,0.24848132766783237,colour,0.5
24,23,0,1,8,22,372,1122.066595511511,1122.9051018878818,"[90, 0, 164]",164,a,0.3151760888285935,colour,0.5
24,23,0,1,8,23,373,1124.9260328621604,1126.049191433005,"[71, 0, 183]",183,l,0.5998881477862597,colour,0.5
24,23,0,1,8,24,374,1128.0666439547203,1128.881107968744,"[83, 0, 171]",171,l,0.29119752952829003,colour,0.5
24,23,0,1,8,25,375,1130.8947370285168,1131.6971485507675,"[7, 0, 247]",247,a,0.2790958071127534,colour,0.5
24,23,0,1,8,26,376,1133.7071841545403,1134.5610899305902,"[9, 0, 245]",245,a,0.33056446071714163,colour,0.5
24,23,0,1,8,27,377,1136.5822308254428,1137.3611324662343,"[75, 0, 179]",179,l,0.2558151441626251,colour,0.5
24,23,0,1,8,28,378,1139.3791202255525,1140.1611742139794,"[93, 0, 161]",161,l,0.2587079470977187,colour,0.5
24,23,0,1,8,29,379,1142.1759221917018,1142.9371511503123,"[38, 0, 216]",216,a,0.23789276368916035,colour,0.5
24,23,0,1,8,30,380,1144.957213299349,1145.7211645254865,"[87, 0, 167]",167,l,0.24070364655926824,colour,0.5
24,23,0,1,8,31,381,1147.738483926747,1148.5451690782793,"[44, 0, 210]",210,a,0.28347774408757687,colour,0.5
24,23,0,1,8,32,382,1150.5665234373882,1151.3133324929513,"[73, 0, 181]",181,l,0.2232597889378667,colour,0.5
24,23,0,1,8,33,383,1153.3265925184824,1154.1771710789762,"[50, 0, 204]",204,a,0.32723133778199553,colour,0.5
24,23,0,1,8,34,384,1156.1861208477058,1156.9611903615296,"[56, 0, 198]",198,a,0.2520188572816551,colour,0.5
24,23,0,1,8,35,385,1158.9672867120244,1159.6411865018308,"[36, 0, 218]",218,a,0.15094680711627007,colour,0.5
24,23,0,1,8,36,386,1161.6548612476327,1162.3051838078536,"[64, 0, 190]",190,a,0.12713405722752213,colour,0.5
24,23,0,1,8,37,387,1164.311084416695,1165.0651563964784,"[21, 0, 233]",233,a,0.230827156919986,colour,0.5
24,23,0,1,8,38,388,1167.0766634107567,1167.7131509296596,"[82, 0, 172]",172,l,0.11311115138232708,colour,0.5
24,23,0,1,8,39,389,1169.7329090293497,1170.5771588697098,"[19, 0, 235]",235,a,0.32130237203091383,colour,0.5
24,23,0,1,8,40,390,1172.59232905088,1174.1451675025746,"[81, 0, 173]",173,l,1.029542034957558,colour,0.5
24,23,0,1,8,41,391,1176.1548348600045,1176.809203799814,"[29, 0, 225]",225,a,0.13151087425649166,colour,0.5
24,23,0,1,8,42,392,1178.8266165428795,1179.5932262330316,"[23, 0, 231]",231,a,0.24323411006480455,colour,0.5
24,23,0,1,8,43,393,1181.6079525491223,1182.3532200893387,"[24, 0, 230]",230,a,0.22200223710387945,colour,0.5
24,23,0,1,8,44,394,1184.3735090936534,1185.0411648405716,"[34, 0, 220]",220,a,0.144454640801996,colour,0.5
24,23,0,1,8,45,395,1187.0609961953014,1187.5932187498547,"[46, 0, 208]",208,a,0.008953707292675972,colour,0.5
24,23,0,1,8,46,396,1189.6077398718335,1190.4332067770883,"[27, 0, 227]",227,a,0.30197120178490877,colour,0.5
24,23,0,1,8,47,397,1192.4516742415726,1194.697208415717,"[8, 0, 246]",246,a,1.7223047115840018,colour,0.5
24,23,0,1,8,48,398,1196.7172154258005,1197.5451820748858,"[79, 0, 175]",175,l,0.3046269090846181,colour,0.5
24,23,0,1,8,49,399,1199.5609256965108,1200.4891700074077,"[67, 0, 187]",187,l,0.4056422454304993,colour,0.5
24,23,0,1,8,50,400,1202.4985120478086,1203.1452533612028,"[25, 0, 229]",229,a,0.1236126753501594,colour,0.5
24,23,0,1,9,1,401,1210.8726863483898,1211.665281245485,"[19, 0, 235]",235,a,0.2681508115492761,colour,0.5
24,23,0,1,9,2,402,1213.6859751245938,1214.2971977815032,"[69, 0, 185]",185,l,0.08794238790869713,colour,0.5
24,23,0,1,9,3,403,1216.311004859861,1216.9211897314526,"[14, 0, 240]",240,a,0.08691326715052128,colour,0.5
24,23,0,1,9,4,404,1218.9360546814278,1219.5532728647813,"[81, 0, 173]",173,l,0.09408481884747744,colour,0.5
24,23,0,1,9,5,405,1221.5610343981534,1222.217186675407,"[28, 0, 226]",226,a,0.13365615624934435,colour,0.5
24,23,0,1,9,6,406,1224.2328688567504,1225.0252317786217,"[26, 0, 228]",228,a,0.2693532253615558,colour,0.5
24,23,0,1,9,7,407,1227.0452671460807,1227.6651953868568,"[87, 0, 167]",167,l,0.09659007657319307,colour,0.5
24,23,0,1,9,8,408,1229.6859920597635,1230.4332363158464,"[12, 0, 242]",242,a,0.22392105776816607,colour,0.5
24,23,0,1,9,9,409,1232.4515911396593,1233.1772455158643,"[75, 0, 179]",179,l,0.20235992828384042,colour,0.5
24,23,0,1,9,10,410,1235.1859597642906,1235.9532007905655,"[3, 0, 251]",251,a,0.2439205846749246,colour,0.5
24,23,0,1,9,11,411,1237.967209912371,1238.7452261857688,"[37, 0, 217]",217,a,0.2547037089243531,colour,0.5
24,23,0,1,9,12,412,1240.7640433860943,1241.5213232454844,"[6, 0, 248]",248,a,0.23399486439302564,colour,0.5
24,23,0,1,9,13,413,1243.529756681528,1244.3132545114495,"[48, 0, 206]",206,a,0.26029672427102923,colour,0.5
24,23,0,1,9,14,414,1246.326477121096,1246.9852969208732,"[34, 0, 220]",220,a,0.13552220119163394,colour,0.5
24,23,0,1,9,15,415,1248.9984959000722,1249.6733153210953,"[67, 0, 187]",187,l,0.15167069667950273,colour,0.5
24,23,0,1,9,16,416,1251.6859479490668,1252.3372941166162,"[39, 0, 215]",215,a,0.1280588093213737,colour,0.5
24,23,0,1,9,17,417,1254.3577524749562,1255.1293462933972,"[56, 0, 198]",198,a,0.24823202285915613,colour,0.5
24,23,0,1,9,18,418,1257.1389628443867,1257.8972060526721,"[58, 0, 196]",196,a,0.23484793584793806,colour,0.5
24,23,0,1,9,19,419,1259.9046576288529,1260.633222925011,"[21, 0, 233]",233,a,0.20520901447162032,colour,0.5
24,23,0,1,9,20,420,1262.654536718037,1263.1852953452617,"[80, 0, 174]",174,l,0.007383441086858511,colour,0.5
24,23,0,1,9,21,421,1265.2015237919986,1265.7452632072382,"[83, 0, 171]",171,l,0.02035753382369876,colour,0.5
24,23,0,1,9,22,422,1267.7640654412098,1268.4812706275843,"[71, 0, 183]",183,l,0.19394972966983914,colour,0.5
24,23,0,1,9,23,423,1270.4983533276245,1271.1773030175827,"[90, 0, 164]",164,l,0.15571038099005818,colour,0.5
24,23,0,1,9,24,424,1273.1859314073808,1273.8172670197673,"[84, 0, 170]",170,l,0.10807464178651571,colour,0.5
24,23,0,1,9,25,425,1275.8264211951755,1276.5213752333075,"[77, 0, 177]",177,l,0.17159933224320412,colour,0.5
24,23,0,1,9,26,426,1278.5296353767626,1279.225301489234,"[43, 0, 211]",211,a,0.17234724666923285,colour,0.5
24,23,0,1,9,27,427,1281.2327428259887,1281.993310910184,"[10, 0, 244]",244,a,0.2374843447469175,colour,0.5
24,23,0,1,9,28,428,1284.013962647412,1284.8893082477152,"[62, 0, 192]",192,l,0.3520133434794843,colour,0.5
24,23,0,1,9,29,429,1286.9047092227265,1287.6653115716763,"[73, 0, 181]",181,l,0.23732680594548583,colour,0.5
24,23,0,1,9,30,430,1289.6857911981642,1290.6333013004623,"[1, 0, 253]",253,a,0.4240915928967297,colour,0.5
24,23,0,1,9,31,431,1292.6545965829864,1293.385290618986,"[0, 0, 254]",254,a,0.2073566592298448,colour,0.5
24,23,0,1,9,32,432,1295.4046631427482,1295.9453073181212,"[89, 0, 165]",165,l,0.017372176982462406,colour,0.5
24,23,0,1,9,33,433,1297.967028742656,1298.737310658209,"[32, 0, 222]",222,a,0.2468523783609271,colour,0.5
24,23,0,1,9,34,434,1300.748335604556,1301.657291281037,"[29, 0, 225]",225,a,0.3857939555309713,colour,0.5
24,23,0,1,9,35,435,1303.6701708505861,1304.4654183043167,"[9, 0, 245]",245,a,0.2718998370692134,colour,0.5
24,23,0,1,9,36,436,1306.4827164383605,1307.2572956131771,"[65, 0, 189]",189,l,0.2514615645632148,colour,0.5
24,23,0,1,9,37,437,1309.2639338965528,1309.9532827106304,"[53, 0, 201]",201,a,0.16603388637304306,colour,0.5
24,23,0,1,9,38,438,1311.9670472536236,1312.817305223085,"[13, 0, 241]",241,a,0.3270048759877682,colour,0.5
24,23,0,1,9,39,439,1314.826423164457,1315.5853457576595,"[4, 0, 250]",250,a,0.23558954894542694,colour,0.5
24,23,0,1,9,40,440,1317.5921585150063,1318.38528549904,"[41, 0, 213]",213,a,0.26995974872261286,colour,0.5
24,23,0,1,9,41,441,1320.4046206073835,1321.417328460142,"[57, 0, 197]",197,l,0.4893728387542069,colour,0.5
24,23,0,1,9,42,442,1323.4358723303303,1324.425402707886,"[17, 0, 237]",237,a,0.46630445914343,colour,0.5
24,23,0,1,9,43,443,1326.4357683551498,1327.1773364944384,"[46, 0, 208]",208,a,0.21821382734924555,colour,0.5
24,23,0,1,9,44,444,1329.185792379547,1329.8733212291263,"[94, 0, 160]",160,l,0.16421313397586346,colour,0.5
24,23,0,1,9,45,445,1331.8888986473903,1332.6493206145242,"[93, 0, 161]",161,l,0.23744377819821239,colour,0.5
24,23,0,1,9,46,446,1334.6701381611638,1335.473363764584,"[97, 0, 157]",157,l,0.2798949219286442,colour,0.5
24,23,0,1,9,47,447,1337.4826262472197,1338.2733531305566,"[59, 0, 195]",195,a,0.2675667372532189,colour,0.5
24,23,0,1,9,48,448,1340.2795613333583,1341.1693351082504,"[85, 0, 169]",169,l,0.36651792423799634,colour,0.5
24,23,0,1,9,49,449,1343.1858230996877,1344.1933554150164,"[72, 0, 182]",182,a,0.4843804403208196,colour,0.5
24,23,0,1,9,50,450,1346.2013571951538,1346.9693441665731,"[38, 0, 216]",216,a,0.24471339769661427,colour,0.5
24,23,0,1,10,1,451,1356.2318007447757,1356.9933691993356,"[52, 0, 202]",202,a,0.23766472609713674,colour,0.5
24,23,0,1,10,2,452,1359.0138720627874,1359.7533500585705,"[94, 0, 160]",160,l,0.21619536355137825,colour,0.5
24,23,0,1,10,3,453,1361.7638563090004,1362.3533319416456,"[31, 0, 223]",223,a,0.06610714225098491,colour,0.5
24,23,0,1,10,4,454,1364.3732956289314,1365.065342291724,"[0, 0, 254]",254,a,0.16886170441284776,colour,0.5
24,23,0,1,10,5,455,1367.076420801226,1367.7773550050333,"[40, 0, 214]",214,a,0.1776314852759242,colour,0.5
24,23,0,1,10,6,456,1369.795122210402,1370.4973576832563,"[74, 0, 180]",180,l,0.1789898620918393,colour,0.5
24,23,0,1,10,7,457,1372.5138338594697,1373.1853390624747,"[33, 0, 221]",221,a,0.1482611675746739,colour,0.5
24,23,0,1,10,8,458,1375.2013867334463,1375.8574133734219,"[38, 0, 216]",216,a,0.1328464080579579,colour,0.5
24,23,0,1,10,9,459,1377.8732483671047,1378.505389789585,"[53, 0, 201]",201,a,0.10893204575404525,colour,0.5
24,23,0,1,10,10,460,1380.5137984133326,1381.1294290008955,"[7, 0, 247]",247,a,0.09228454623371363,colour,0.5
24,23,0,1,10,11,461,1383.138843508903,1383.7454026290216,"[25, 0, 229]",229,a,0.08351200819015503,colour,0.5
24,23,0,1,10,12,462,1385.7638291334733,1386.4653513501398,"[96, 0, 158]",158,l,0.17822579992935061,colour,0.5
24,23,0,1,10,13,463,1388.482567958068,1389.1454238970764,"[19, 0, 235]",235,a,0.13967885775491595,colour,0.5
24,23,0,1,10,14,464,1391.154487093445,1391.7854020777158,"[75, 0, 179]",179,l,0.10784896789118648,colour,0.5
24,23,0,1,10,15,465,1393.7950812503695,1394.4893811093643,"[1, 0, 253]",253,a,0.1710707899183035,colour,0.5
24,23,0,1,10,16,466,1396.4983769580722,1397.2653982178308,"[29, 0, 225]",225,a,0.24378431355580688,colour,0.5
24,23,0,1,10,17,467,1399.2794022196904,1400.2494131685235,"[62, 0, 192]",192,a,0.44664167053997517,colour,0.5
24,23,0,1,10,18,468,1402.2638255888596,1403.0093577937223,"[57, 0, 197]",197,a,0.2222468159161508,colour,0.5
24,23,0,1,10,19,469,1405.0293844966218,1405.7693784311414,"[3, 0, 251]",251,a,0.21662505017593503,colour,0.5
24,23,0,1,10,20,470,1407.779383708723,1408.529382920824,"[84, 0, 170]",170,l,0.22663859836757183,colour,0.5
24,23,0,1,10,21,471,1410.5449910596944,1411.2893921369687,"[60, 0, 194]",194,a,0.2209530295804143,colour,0.5
24,23,0,1,10,22,472,1413.310611013323,1414.0494017470628,"[90, 0, 164]",164,l,0.21552070463076234,colour,0.5
24,23,0,1,10,23,473,1416.060724440962,1416.94540420454,"[70, 0, 184]",184,l,0.361396343447268,colour,0.5
24,23,0,1,10,24,474,1418.966895622667,1419.7373890336603,"[27, 0, 227]",227,a,0.24725528340786695,colour,0.5
24,23,0,1,10,25,475,1421.7481548287906,1422.5693993051536,"[95, 0, 159]",159,l,0.2979712965898216,colour,0.5
24,23,0,1,10,26,476,1424.5762963457964,1425.297444329597,"[93, 0, 161]",161,l,0.19791103806346655,colour,0.5
24,23,0,1,10,27,477,1427.310650004074,1428.0734165399335,"[79, 0, 175]",175,l,0.2395929992198944,colour,0.5
24,23,0,1,10,28,478,1430.0920297275297,1430.8334816819988,"[17, 0, 237]",237,a,0.21827054116874933,colour,0.5
24,23,0,1,10,29,479,1432.8419084227644,1433.5694902837276,"[21, 0, 233]",233,a,0.20432679820805788,colour,0.5
24,23,0,1,10,30,480,1435.5762014286593,1436.401424542535,"[48, 0, 206]",206,a,0.3018305986188352,colour,0.5
24,23,0,1,10,31,481,1438.419961717911,1439.1294506625272,"[59, 0, 195]",195,a,0.1861488106660545,colour,0.5
24,23,0,1,10,32,482,1441.138651705347,1441.929485321045,"[34, 0, 220]",220,a,0.26744937105104327,colour,0.5
24,23,0,1,10,33,483,1443.9512351024896,1444.6574633917771,"[26, 0, 228]",228,a,0.182903909124434,colour,0.5
24,23,0,1,10,34,484,1446.6699408441782,1447.3294514501467,"[67, 0, 187]",187,l,0.136148810852319,colour,0.5
24,23,0,1,10,35,485,1449.3418910931796,1450.033418272622,"[10, 0, 244]",244,a,0.16823233803734183,colour,0.5
24,23,0,1,10,36,486,1452.0448902347125,1452.7455085739493,"[16, 0, 238]",238,a,0.1772234607487917,colour,0.5
24,23,0,1,10,37,487,1454.7637365795672,1455.5694524743594,"[76, 0, 178]",178,l,0.28247461654245853,colour,0.5
24,23,0,1,10,38,488,1457.5761604686268,1458.2254936862737,"[41, 0, 213]",213,a,0.1259103761985898,colour,0.5
24,23,0,1,10,39,489,1460.2325057303533,1461.145463281311,"[56, 0, 198]",198,l,0.38986672228202224,colour,0.5
24,23,0,1,10,40,490,1463.1543212840334,1463.9215213502757,"[44, 0, 210]",210,a,0.24427386512979865,colour,0.5
24,23,0,1,10,41,491,1465.9355663117021,1466.6894307341427,"[63, 0, 191]",191,l,0.23054870730265975,colour,0.5
24,23,0,1,10,42,492,1468.7012685793452,1469.6014517182484,"[65, 0, 189]",189,l,0.37695288797840476,colour,0.5
24,23,0,1,10,43,493,1471.6229490437545,1472.3774518915452,"[83, 0, 171]",171,l,0.2309992676600814,colour,0.5
24,23,0,1,10,44,494,1474.388681244105,1475.2815081169829,"[85, 0, 169]",169,l,0.36956393299624324,colour,0.5
24,23,0,1,10,45,495,1477.294958370272,1478.0414866129868,"[98, 0, 156]",156,l,0.22359258960932493,colour,0.5
24,23,0,1,10,46,496,1480.0605452409945,1480.8495230516419,"[32, 0, 222]",222,a,0.26564358454197645,colour,0.5
24,23,0,1,10,47,497,1482.8573751701042,1483.6814994523302,"[86, 0, 168]",168,l,0.3008396807126701,colour,0.5
24,23,0,1,10,48,498,1485.7011732687242,1486.5614365157671,"[14, 0, 240]",240,a,0.3369380794465542,colour,0.5
24,23,0,1,10,49,499,1488.5761262038723,1489.4014462041669,"[22, 0, 232]",232,a,0.3019688385538757,colour,0.5
24,23,0,1,10,50,500,1491.4199057915248,1492.2415011851117,"[13, 0, 241]",241,a,0.2982784966006875,colour,0.5
24,23,0,1,11,1,501,1509.0284404461272,1510.1454857308418,"[26, 0, 228]",228,a,0.5928871314972639,colour,0.5
24,23,0,1,11,2,502,1512.1542952903546,1512.9376859939657,"[66, 0, 188]",188,l,0.2604924659244716,colour,0.5
24,23,0,1,11,3,503,1514.9511476685293,1515.889496112708,"[52, 0, 202]",202,a,0.41510362131521106,colour,0.5
24,23,0,1,11,4,504,1517.9042110070586,1518.625643741805,"[41, 0, 213]",213,a,0.19805991183966398,colour,0.5
24,23,0,1,11,5,505,1520.6387478043325,1521.433524611406,"[75, 0, 179]",179,l,0.27162138745188713,colour,0.5
24,23,0,1,11,6,506,1523.4511527884752,1524.2095228154212,"[31, 0, 223]",223,a,0.23514962242916226,colour,0.5
24,23,0,1,11,7,507,1526.2167991301976,1527.0815329290926,"[74, 0, 180]",180,l,0.341728828381747,colour,0.5
24,23,0,1,11,8,508,1529.0918154749088,1529.9455003030598,"[82, 0, 172]",172,l,0.3305171993561089,colour,0.5
24,23,0,1,11,9,509,1531.9666939731687,1532.6655006180517,"[96, 0, 158]",158,l,0.17569179134443402,colour,0.5
24,23,0,1,11,10,510,1534.6854520961642,1535.3455129060894,"[98, 0, 156]",156,l,0.13672106992453337,colour,0.5
24,23,0,1,11,11,511,1537.3573448439129,1538.0335021619685,"[42, 0, 212]",212,a,0.15285735670477152,colour,0.5
24,23,0,1,11,12,512,1540.0448543946259,1540.8575256196782,"[18, 0, 236]",236,l,0.28941734367981553,colour,0.5
24,23,0,1,11,13,513,1542.8728974498808,1543.5935133472085,"[77, 0, 177]",177,l,0.1971883294172585,colour,0.5
24,23,0,1,11,14,514,1545.6072908868082,1546.3855828531086,"[36, 0, 218]",218,a,0.25497703859582543,colour,0.5
24,23,0,1,11,15,515,1548.4041877700947,1549.1775420824997,"[37, 0, 217]",217,a,0.2500929478555918,colour,0.5
24,23,0,1,11,16,516,1551.1854749391787,1551.9295633025467,"[6, 0, 248]",248,a,0.22085732501000166,colour,0.5
24,23,0,1,11,17,517,1553.9353898684494,1554.5375422397628,"[16, 0, 238]",238,a,0.07877048989757895,colour,0.5
24,23,0,1,11,18,518,1556.5448126471601,1557.3535213819705,"[60, 0, 194]",194,l,0.2854001088999212,colour,0.5
24,23,0,1,11,19,519,1559.3728903606534,1560.033615983557,"[78, 0, 176]",176,l,0.1373772183433175,colour,0.5
24,23,0,1,11,20,520,1562.044802013319,1562.7935925102793,"[84, 0, 170]",170,l,0.22549998806789517,colour,0.5
24,23,0,1,11,21,521,1564.8103242930956,1565.5935988118872,"[0, 0, 254]",254,a,0.2598630990833044,colour,0.5
24,23,0,1,11,22,522,1567.611131284386,1568.4175639799796,"[28, 0, 226]",226,a,0.28695580223575234,colour,0.5
24,23,0,1,11,23,523,1570.4354036529548,1571.4175375923514,"[9, 0, 245]",245,a,0.45875402679666877,colour,0.5
24,23,0,1,11,24,524,1573.4353831731714,1574.1455790721811,"[94, 0, 160]",160,l,0.18687348859384656,colour,0.5
24,23,0,1,11,25,525,1576.1541598071344,1577.1856801332906,"[67, 0, 187]",187,l,0.5086945560760796,colour,0.5
24,23,0,1,11,26,526,1579.2010176992044,1579.9536289018579,"[2, 0, 252]",252,a,0.229327782522887,colour,0.5
24,23,0,1,11,27,527,1581.9665840901434,1582.7775798914954,"[64, 0, 190]",190,l,0.2879561726003885,colour,0.5
24,23,0,1,11,28,528,1584.7947161546908,1585.7216107533313,"[92, 0, 162]",162,l,0.4035698249936104,colour,0.5
24,23,0,1,11,29,529,1587.7322071944363,1588.5776003715582,"[35, 0, 219]",219,a,0.3220739169046283,colour,0.5
24,23,0,1,11,30,530,1590.591728434898,1591.4816558095627,"[55, 0, 199]",199,a,0.36750687286257744,colour,0.5
24,23,0,1,11,31,531,1593.4978232099675,1594.297576662153,"[19, 0, 235]",235,a,0.27639165706932545,colour,0.5
24,23,0,1,11,32,532,1596.310344772879,1597.2096326984465,"[54, 0, 200]",200,a,0.3759603947401047,colour,0.5
24,23,0,1,11,33,533,1599.2165931486525,1600.2095944955945,"[4, 0, 250]",250,a,0.4699309980496764,colour,0.5
24,23,0,1,11,34,534,1602.2166006313637,1603.0496148178354,"[95, 0, 159]",159,l,0.3099525021389127,colour,0.5
24,23,0,1,11,35,535,1605.0603368962184,1605.9295979612507,"[76, 0, 178]",178,l,0.3459481066092849,colour,0.5
24,23,0,1,11,36,536,1607.9509279024787,1608.7616235925816,"[34, 0, 220]",220,a,0.2872724551707506,colour,0.5
24,23,0,1,11,37,537,1610.7791103790514,1611.553585972637,"[89, 0, 165]",165,l,0.2512000505812466,colour,0.5
24,23,0,1,11,38,538,1613.56032744376,1614.3216005135328,"[48, 0, 206]",206,a,0.2387194475159049,colour,0.5
24,23,0,1,11,39,539,1616.3416413948871,1617.3376403078437,"[30, 0, 224]",224,a,0.4727985947392881,colour,0.5
24,23,0,1,11,40,540,1619.3572546532378,1620.2016750290059,"[10, 0, 244]",244,a,0.3212043037638068,colour,0.5
24,23,0,1,11,41,541,1622.2166337147355,1623.0496061532758,"[57, 0, 197]",197,a,0.30996746849268675,colour,0.5
24,23,0,1,11,42,542,1625.0602786070667,1625.8736370936967,"[1, 0, 253]",253,a,0.2900159899145365,colour,0.5
24,23,0,1,11,43,543,1627.888615865726,1628.6576744937338,"[93, 0, 161]",161,l,0.24587721470743418,colour,0.5
24,23,0,1,11,44,544,1630.6696836622432,1631.5935952672735,"[5, 0, 249]",249,a,0.40058092353865504,colour,0.5
24,23,0,1,11,45,545,1633.6071404376999,1634.4015919277444,"[97, 0, 157]",157,l,0.27109008887782693,colour,0.5
24,23,0,1,11,46,546,1636.419661606662,1637.265627042856,"[90, 0, 164]",164,l,0.3226446006447077,colour,0.5
24,23,0,1,11,47,547,1639.2790430313908,1639.9776050979272,"[25, 0, 229]",229,a,0.17523492965847254,colour,0.5
24,23,0,1,11,48,548,1641.9977940651588,1642.6895929989405,"[24, 0, 230]",230,a,0.16851433226838708,colour,0.5
24,23,0,1,11,49,549,1644.7009519268759,1645.4496829533018,"[51, 0, 203]",203,a,0.22553740348666906,colour,0.5
24,23,0,1,11,50,550,1647.4664781452157,1648.2096366370097,"[3, 0, 251]",251,a,0.2199502964504063,colour,0.5
24,23,0,1,12,1,551,1666.5281986244954,1667.3056513038464,"[73, 0, 181]",181,l,0.25329058803617954,colour,0.5
24,23,0,1,12,2,552,1669.325882412959,1670.2256492557935,"[43, 0, 211]",211,a,0.37648736126720905,colour,0.5
24,23,0,1,12,3,553,1672.232334800996,1672.9616767619736,"[77, 0, 177]",177,l,0.20624089241027832,colour,0.5
24,23,0,1,12,4,554,1674.9821075513028,1675.721669042483,"[48, 0, 206]",206,a,0.2163406927138567,colour,0.5
24,23,0,1,12,5,555,1677.732089040801,1678.4496419932693,"[99, 0, 155]",155,l,0.1942407819442451,colour,0.5
24,23,0,1,12,6,556,1680.4664879916236,1681.2336884513497,"[30, 0, 224]",224,a,0.24462163168936968,colour,0.5
24,23,0,1,12,7,557,1683.2477089944296,1684.0736382752657,"[92, 0, 162]",162,l,0.30308933230116963,colour,0.5
24,23,0,1,12,8,558,1686.0915015791543,1686.8656999045052,"[55, 0, 199]",199,a,0.25104487501084805,colour,0.5
24,23,0,1,12,9,559,1688.8727993820794,1689.409699652344,"[83, 0, 171]",171,l,0.013577465433627367,colour,0.5
24,23,0,1,12,10,560,1691.4196513667703,1692.0817089788616,"[98, 0, 156]",156,l,0.13873441377654672,colour,0.5
24,23,0,1,12,11,561,1694.0914334435947,1694.777648027055,"[33, 0, 221]",221,a,0.16294888639822602,colour,0.5
24,23,0,1,12,12,562,1696.794586185366,1697.4496608977206,"[38, 0, 216]",216,a,0.13174127414822578,colour,0.5
24,23,0,1,12,13,563,1699.4665226498619,1700.2336959345266,"[18, 0, 236]",236,a,0.24394933553412557,colour,0.5
24,23,0,1,12,14,564,1702.247636526823,1703.1296834261157,"[74, 0, 180]",180,l,0.358706371858716,colour,0.5
24,23,0,1,12,15,565,1705.1383665604517,1705.9457141617313,"[63, 0, 191]",191,a,0.2840480334125459,colour,0.5
24,23,0,1,12,16,566,1707.9663974065334,1708.7057017162442,"[10, 0, 244]",244,a,0.21619654539972544,colour,0.5
24,23,0,1,12,17,567,1710.7164139482193,1712.5216847965494,"[35, 0, 219]",219,a,1.2818810897879303,colour,0.5
24,23,0,1,12,18,568,1714.5290115238167,1715.2336986912414,"[26, 0, 228]",228,a,0.18147542793303728,colour,0.5
24,23,0,1,12,19,569,1717.2477334127761,1718.3857250320725,"[61, 0, 193]",193,l,0.6147590056061745,colour,0.5
24,23,0,1,12,20,570,1720.4040081761777,1721.1057312549092,"[5, 0, 249]",249,a,0.1784621081314981,colour,0.5
24,23,0,1,12,21,571,1723.1226831977256,1723.8817723882385,"[4, 0, 250]",250,a,0.23587548173964024,colour,0.5
24,23,0,1,12,22,572,1725.8883161484264,1726.513723582495,"[22, 0, 232]",232,a,0.10204563895240426,colour,0.5
24,23,0,1,12,23,573,1728.5289229084738,1729.4417067733593,"[51, 0, 203]",203,a,0.3895028084516525,colour,0.5
24,23,0,1,12,24,574,1731.4507632744499,1732.1137409117073,"[53, 0, 201]",201,a,0.13983285147696733,colour,0.5
24,23,0,1,12,25,575,1734.1226745327003,1734.8977212035097,"[68, 0, 186]",186,l,0.2518341429531574,colour,0.5
24,23,0,1,12,26,576,1736.903922711499,1737.6578056444414,"[79, 0, 175]",175,l,0.2305664299055934,colour,0.5
24,23,0,1,12,27,577,1739.6695036743768,1740.433704205323,"[64, 0, 190]",190,a,0.24086866807192564,colour,0.5
24,23,0,1,12,28,578,1742.4507546098903,1743.1857258197851,"[2, 0, 252]",252,a,0.2117756181396544,colour,0.5
24,23,0,1,12,29,579,1745.2006447263993,1746.2577410535887,"[67, 0, 187]",187,a,0.5338274794630706,colour,0.5
24,23,0,1,12,30,580,1748.278944176156,1749.177752002608,"[65, 0, 189]",189,l,0.37557639461010695,colour,0.5
24,23,0,1,12,31,581,1751.185135443695,1752.1617838884704,"[60, 0, 194]",194,a,0.4533729017712176,colour,0.5
24,23,0,1,12,32,582,1754.1699794409797,1754.8897481742315,"[49, 0, 205]",205,a,0.19724386185407639,colour,0.5
24,23,0,1,12,33,583,1756.9038545759395,1757.881767267827,"[71, 0, 183]",183,l,0.4545957949012518,colour,0.5
24,23,0,1,12,34,584,1759.8882326530293,1760.6741321589798,"[90, 0, 164]",164,l,0.2624967508018017,colour,0.5
24,23,0,1,12,35,585,1762.6852169698104,1763.4497538455762,"[17, 0, 237]",237,a,0.24140705587342381,colour,0.5
24,23,0,1,12,36,586,1765.4663328160532,1766.3377663386054,"[1, 0, 253]",253,a,0.3481721584685147,colour,0.5
24,23,0,1,12,37,587,1768.3568631694652,1769.0658846185543,"[36, 0, 218]",218,a,0.18562735803425312,colour,0.5
24,23,0,1,12,38,588,1771.075681945309,1771.857785558328,"[24, 0, 230]",230,a,0.2588119227439165,colour,0.5
24,23,0,1,12,39,589,1773.8726481450722,1774.6178187988698,"[47, 0, 207]",207,a,0.2218549381941557,colour,0.5
24,23,0,1,12,40,590,1776.6382003575563,1777.4497451810166,"[41, 0, 213]",213,a,0.2882200498133898,colour,0.5
24,23,0,1,12,41,591,1779.4662721636705,1780.2817326094955,"[91, 0, 163]",163,l,0.29214669996872544,colour,0.5
24,23,0,1,12,42,592,1782.2945231697522,1783.0897930730134,"[16, 0, 238]",238,a,0.27202783711254597,colour,0.5
24,23,0,1,12,43,593,1785.1069297296926,1785.8897954360582,"[76, 0, 178]",178,l,0.25954841589555144,colour,0.5
24,23,0,1,12,44,594,1787.9038120405748,1788.6817877478898,"[19, 0, 235]",235,a,0.25469110580161214,colour,0.5
24,23,0,1,12,45,595,1790.7007108926773,1791.569750616327,"[6, 0, 248]",248,a,0.34642663039267063,colour,0.5
24,23,0,1,12,46,596,1793.5913420710713,1794.3618315439671,"[87, 0, 167]",167,l,0.247262766584754,colour,0.5
24,23,0,1,12,47,597,1796.3726024590433,1797.1617720727809,"[94, 0, 160]",160,l,0.26591021846979856,colour,0.5
24,23,0,1,12,48,598,1799.1693551940843,1799.913825194817,"[9, 0, 245]",245,a,0.22107078973203897,colour,0.5
24,23,0,1,12,49,599,1801.935087394435,1802.6817960189655,"[80, 0, 174]",174,l,0.2234086631797254,colour,0.5
24,23,0,1,12,50,600,1804.700612431392,1805.689812764991,"[20, 0, 234]",234,a,0.46604530792683363,colour,0.5
24,23,0,1,13,1,601,1813.871730088722,1814.6339755654335,"[65, 0, 189]",189,l,0.2381464005447924,colour,0.5
24,23,0,1,13,2,602,1816.6547068599612,1817.6258296375163,"[35, 0, 219]",219,a,0.448764109518379,colour,0.5
24,23,0,1,13,3,603,1819.6383169358596,1820.4578032814898,"[28, 0, 226]",226,a,0.29635534435510635,colour,0.5
24,23,0,1,13,4,604,1822.4662721636705,1823.1938260612078,"[85, 0, 169]",169,l,0.20433703809976578,colour,0.5
24,23,0,1,13,5,605,1825.2006277912296,1825.9218533630483,"[98, 0, 156]",156,l,0.19808984454721212,colour,0.5
24,23,0,1,13,6,606,1827.935055098962,1828.6497959871776,"[24, 0, 230]",230,a,0.19149015750735998,colour,0.5
24,23,0,1,13,7,607,1830.6694060005248,1831.545786629431,"[39, 0, 215]",215,a,0.353153923060745,colour,0.5
24,23,0,1,13,8,608,1833.5600040960126,1834.369874284137,"[59, 0, 195]",195,a,0.2872649719938636,colour,0.5
24,23,0,1,13,9,609,1836.3881144989282,1837.137833292596,"[32, 0, 222]",222,a,0.22637944761663675,colour,0.5
24,23,0,1,13,10,610,1839.1537210620008,1839.9618173651397,"[64, 0, 190]",190,l,0.28494954807683825,colour,0.5
24,23,0,1,13,11,611,1841.981840129476,1842.657848967705,"[1, 0, 253]",253,a,0.15261632297188044,colour,0.5
24,23,0,1,13,12,612,1844.6693374710158,1845.2740092789754,"[9, 0, 245]",245,a,0.08146400656551123,colour,0.5
24,23,0,1,13,13,613,1847.2942738649435,1848.0018120878376,"[88, 0, 166]",166,l,0.18456672970205545,colour,0.5
24,23,0,1,13,14,614,1850.0129989050329,1850.6258268808015,"[83, 0, 171]",171,l,0.08993958402425051,colour,0.5
24,23,0,1,13,15,615,1852.6380861420184,1853.2898631775752,"[19, 0, 235]",235,a,0.1284432034008205,colour,0.5
24,23,0,1,13,16,616,1855.3099060282111,1855.897842508275,"[91, 0, 163]",163,l,0.06451285118237138,colour,0.5
24,23,0,1,13,17,617,1857.91935204342,1858.6498483689502,"[77, 0, 177]",177,l,0.20723141636699438,colour,0.5
24,23,0,1,13,18,618,1860.6693150219508,1861.5938741108403,"[72, 0, 182]",182,l,0.40129299834370613,colour,0.5
24,23,0,1,13,19,619,1863.606755649671,1864.4098292277195,"[96, 0, 158]",158,l,0.2797499857842922,colour,0.5
24,23,0,1,13,20,620,1866.4193666158244,1867.193825667724,"[13, 0, 241]",241,a,0.2512161983177066,colour,0.5
24,23,0,1,13,21,621,1869.200612431392,1869.809854040388,"[78, 0, 176]",176,l,0.0861874078400433,colour,0.5
24,23,0,1,13,22,622,1871.8255358282477,1872.6018747091293,"[41, 0, 213]",213,a,0.25307239685207605,colour,0.5
24,23,0,1,13,23,623,1874.6224673697725,1875.3938481169753,"[76, 0, 178]",178,l,0.24839113699272275,colour,0.5
24,23,0,1,13,24,624,1877.4036608035676,1878.2578966231085,"[27, 0, 227]",227,a,0.33098902739584446,colour,0.5
24,23,0,1,13,25,625,1880.2786397323944,1881.0178274633363,"[29, 0, 225]",225,a,0.21611501881852746,colour,0.5
24,23,0,1,13,26,626,1883.028629886452,1883.7859530691057,"[31, 0, 223]",223,a,0.23407757189124823,colour,0.5
24,23,0,1,13,27,627,1885.7943120682612,1886.5618689591065,"[92, 0, 162]",162,l,0.24428371107205749,colour,0.5
24,23,0,1,13,28,628,1888.575542917475,1889.4419017271139,"[66, 0, 188]",188,a,0.34308090386912227,colour,0.5
24,23,0,1,13,29,629,1891.4504485907964,1892.2018940076232,"[87, 0, 167]",167,l,0.22820807667449117,colour,0.5
24,23,0,1,13,30,630,1894.2161524342373,1894.9299354879186,"[86, 0, 168]",168,l,0.19078989885747433,colour,0.5
24,23,0,1,13,31,631,1896.9504860062152,1898.0979216718115,"[60, 0, 194]",194,a,0.6242609471082687,colour,0.5
24,23,0,1,13,32,632,1900.1067146896385,1900.7858880842105,"[18, 0, 236]",236,l,0.15583168575540185,colour,0.5
24,23,0,1,13,33,633,1902.7943010404706,1903.9778768518008,"[82, 0, 172]",172,l,0.6603109021671116,colour,0.5
24,23,0,1,13,34,634,1905.9973927359097,1906.721903775353,"[62, 0, 192]",192,a,0.201208321377635,colour,0.5
24,23,0,1,13,35,635,1908.7317207939923,1909.6419080286287,"[49, 0, 205]",205,a,0.38680574670434,colour,0.5
24,23,0,1,13,36,636,1911.653615117073,1912.4339046729729,"[14, 0, 240]",240,a,0.25693327421322465,colour,0.5
24,23,0,1,13,37,637,1914.4505285420455,1915.2259056498297,"[3, 0, 251]",251,a,0.25222168816253543,colour,0.5
24,23,0,1,13,38,638,1917.2473450801335,1918.0098757017404,"[89, 0, 165]",165,l,0.239275558385998,colour,0.5
24,23,0,1,13,39,639,1920.028596015647,1920.7938926215284,"[43, 0, 211]",211,a,0.24197065038606524,colour,0.5
24,23,0,1,13,40,640,1922.8098800340667,1923.6019018846564,"[37, 0, 217]",217,a,0.26880026469007134,colour,0.5
24,23,0,1,13,41,641,1925.6223251908086,1926.4259430654347,"[71, 0, 183]",183,l,0.28023205464705825,colour,0.5
24,23,0,1,13,42,642,1928.4348313938826,1929.2259509423748,"[34, 0, 220]",220,a,0.26792631950229406,colour,0.5
24,23,0,1,13,43,643,1931.2473809202202,1932.0018640756607,"[81, 0, 173]",173,l,0.23119619069620967,colour,0.5
24,23,0,1,13,44,644,1934.0129055632278,1934.7139453180134,"[26, 0, 228]",228,a,0.17766811326146126,colour,0.5
24,23,0,1,13,45,645,1936.731560498476,1937.5139094782062,"[42, 0, 212]",212,l,0.25894149811938405,colour,0.5
24,23,0,1,13,46,646,1939.5286086187698,1940.193927673623,"[50, 0, 204]",204,a,0.14195450255647302,colour,0.5
24,23,0,1,13,47,647,1942.2004316556267,1942.9699719580822,"[22, 0, 232]",232,a,0.24624034110456705,colour,0.5
24,23,0,1,13,48,648,1944.9823789116926,1945.7299492722377,"[74, 0, 180]",180,l,0.22498129215091467,colour,0.5
24,23,0,1,13,49,649,1947.7473486247472,1948.4979523918591,"[23, 0, 231]",231,a,0.2272809622809291,colour,0.5
24,23,0,1,13,50,650,1950.5129969357513,1951.3140063644387,"[17, 0, 237]",237,a,0.2777575165964663,colour,0.5
24,23,0,1,14,1,651,1961.058960008435,1964.6099639236927,"[99, 0, 155]",155,a,3.027588556520641,colour,0.5
24,23,0,1,14,2,652,1966.6222724155523,1967.3859696104191,"[85, 0, 169]",169,l,0.24029325786978006,colour,0.5
24,23,0,1,14,3,653,1969.4036080278456,1970.1619678149,"[87, 0, 167]",167,l,0.23516065021976829,colour,0.5
24,23,0,1,14,4,654,1972.1691822954454,1972.8019444202073,"[52, 0, 202]",202,a,0.10938575677573681,colour,0.5
24,23,0,1,14,5,655,1974.8097973265685,1975.4579903585836,"[28, 0, 226]",226,a,0.12490015989169478,colour,0.5
24,23,0,1,14,6,656,1977.466015375685,1978.1299563618377,"[30, 0, 224]",224,a,0.1406886801123619,colour,0.5
24,23,0,1,14,7,657,1980.1379057602026,1980.985950706061,"[60, 0, 194]",194,l,0.3247150522656739,colour,0.5
24,23,0,1,14,8,658,1982.997286003083,1983.8979811426252,"[98, 0, 156]",156,l,0.3773861196823418,colour,0.5
24,23,0,1,14,9,659,1985.9191279448569,1986.7460075775161,"[57, 0, 197]",197,a,0.30358085269108415,colour,0.5
24,23,0,1,14,10,660,1988.7628811448812,1989.5859735491686,"[41, 0, 213]",213,a,0.2998530953191221,colour,0.5
24,23,0,1,14,11,661,1991.6066213478334,1992.4099820405245,"[35, 0, 219]",219,a,0.28001819597557187,colour,0.5
24,23,0,1,14,12,662,1994.4190527200699,1995.2819748250768,"[7, 0, 247]",247,a,0.3395496755838394,colour,0.5
24,23,0,1,14,13,663,1997.2940505538136,1998.1060908366926,"[65, 0, 189]",189,l,0.2887170845642686,colour,0.5
24,23,0,1,14,14,664,2000.122244452592,2000.914016210474,"[70, 0, 184]",184,l,0.26843516901135445,colour,0.5
24,23,0,1,14,15,665,2002.9346892153844,2003.9540026620962,"[24, 0, 230]",230,a,0.49585870327427983,colour,0.5
24,23,0,1,14,16,666,2005.9659783542156,2006.7459674049169,"[29, 0, 225]",225,a,0.2566827880218625,colour,0.5
24,23,0,1,14,17,667,2008.7627968615852,2009.6020393371582,"[66, 0, 188]",188,l,0.3158598062582314,colour,0.5
24,23,0,1,14,18,668,2011.6223287354223,2012.4259930839762,"[34, 0, 220]",220,a,0.2810788247734308,colour,0.5
24,23,0,1,14,19,669,2014.4347534123808,2015.3060227013193,"[74, 0, 180]",180,l,0.34830921702086926,colour,0.5
24,23,0,1,14,20,670,2017.3253148803487,2018.2579761799425,"[46, 0, 208]",208,a,0.40944247087463737,colour,0.5
24,23,0,1,14,21,671,2020.2785109449178,2021.0980287976563,"[83, 0, 171]",171,l,0.2966117379255593,colour,0.5
24,23,0,1,14,22,672,2023.1066627018154,2024.4259749669582,"[89, 0, 165]",165,l,0.7960516884922981,colour,0.5
24,23,0,1,14,23,673,2026.434693547897,2027.4100623852573,"[76, 0, 178]",178,l,0.45224295603111386,colour,0.5
24,23,0,1,14,24,674,2029.419112978503,2030.1780690490268,"[90, 0, 164]",164,l,0.23575929692015052,colour,0.5
24,23,0,1,14,25,675,2032.1847486863844,2032.9460213622078,"[19, 0, 235]",235,a,0.2382866102270782,colour,0.5
24,23,0,1,14,26,676,2034.9659342430532,2035.8100446620956,"[95, 0, 159]",159,l,0.3208900145255029,colour,0.5
24,23,0,1,14,27,677,2037.8252987326123,2038.5860200230964,"[26, 0, 228]",228,a,0.23744180938228965,colour,0.5
24,23,0,1,14,28,678,2040.6065386398695,2041.7380168251693,"[96, 0, 158]",158,l,0.6081628636457026,colour,0.5
24,23,0,1,14,29,679,2043.7472383477725,2044.6180310822092,"[23, 0, 231]",231,a,0.3476247116923332,colour,0.5
24,23,0,1,14,30,680,2046.637694658246,2047.369999133516,"[12, 0, 242]",242,a,0.2089174734428525,colour,0.5
24,23,0,1,14,31,681,2049.3877982399426,2050.170023945626,"[32, 0, 222]",222,a,0.2588627287186682,colour,0.5
24,23,0,1,14,32,682,2052.1846384094097,2053.282071317546,"[16, 0, 238]",238,a,0.5743420794606209,colour,0.5
24,23,0,1,14,33,683,2055.2939753294922,2056.162036737893,"[88, 0, 166]",166,l,0.34452671464532614,colour,0.5
24,23,0,1,14,34,684,2058.168997975532,2058.9540585884824,"[51, 0, 203]",203,a,0.2617192976176739,colour,0.5
24,23,0,1,14,35,685,2060.965916126035,2061.7140425983816,"[37, 0, 217]",217,a,0.22486313851550221,colour,0.5
24,23,0,1,14,36,686,2063.7315242649056,2064.4100328464992,"[14, 0, 240]",240,a,0.1551755373366177,colour,0.5
24,23,0,1,14,37,687,2066.4190105786547,2066.96206863923,"[10, 0, 244]",244,a,0.019766370300203562,colour,0.5
24,23,0,1,14,38,688,2068.981474246364,2069.538064086344,"[20, 0, 234]",234,a,0.03320244466885924,colour,0.5
24,23,0,1,14,39,689,2071.559622458648,2072.2500807382166,"[17, 0, 237]",237,a,0.16788772214204073,colour,0.5
24,23,0,1,14,40,690,2074.2627566894516,2075.0580470724963,"[79, 0, 175]",175,l,0.272011689376086,colour,0.5
24,23,0,1,14,41,691,2077.075207360089,2077.914104825817,"[27, 0, 227]",227,a,0.3156431904062629,colour,0.5
24,23,0,1,14,42,692,2079.9345840583555,2080.762067457661,"[42, 0, 212]",212,a,0.3043397949077189,colour,0.5
24,23,0,1,14,43,693,2082.7783443476073,2083.6100915297866,"[61, 0, 193]",193,a,0.3083822359330952,colour,0.5
24,23,0,1,14,44,694,2085.6220439844765,2086.6660799663514,"[45, 0, 209]",209,a,0.5206529186107218,colour,0.5
24,23,0,1,14,45,695,2088.684613203164,2089.7861023368314,"[68, 0, 186]",186,l,0.5783423786051571,colour,0.5
24,23,0,1,14,46,696,2091.7939304308966,2092.594130110927,"[94, 0, 160]",160,l,0.27682803850620985,colour,0.5
24,23,0,1,14,47,697,2094.6064716861583,2095.570119650569,"[0, 0, 254]",254,a,0.4403925077058375,colour,0.5
24,23,0,1,14,48,698,2097.59076390462,2098.666093357373,"[63, 0, 191]",191,a,0.5519731715321541,colour,0.5
24,23,0,1,14,49,699,2100.684616747778,2101.338081809692,"[1, 0, 253]",253,a,0.1302580484189093,colour,0.5
24,23,0,1,14,50,700,2103.35648507718,2104.1460898914374,"[84, 0, 170]",170,l,0.26628437312319875,colour,0.5
24,23,0,1,15,1,701,2111.6368888486177,2112.2661047787406,"[93, 0, 161]",161,l,0.10510385734960437,colour,0.5
24,23,0,1,15,2,702,2114.2783400155604,2114.8100875914097,"[34, 0, 220]",220,a,0.008760328870266676,colour,0.5
24,23,0,1,15,3,703,2116.82513883058,2117.4420596598648,"[86, 0, 168]",168,l,0.09361259685829282,colour,0.5
24,23,0,1,15,4,704,2119.4501272123307,2120.1621273225173,"[42, 0, 212]",212,a,0.18875528732314706,colour,0.5
24,23,0,1,15,5,705,2122.1689274767414,2123.122147566173,"[60, 0, 194]",194,a,0.42995478631928563,colour,0.5
24,23,0,1,15,6,706,2125.1377222277224,2126.002254377585,"[40, 0, 214]",214,a,0.34187021991238,colour,0.5
24,23,0,1,15,7,707,2128.0127098215744,2128.634130741004,"[47, 0, 207]",207,a,0.09811505023390055,colour,0.5
24,23,0,1,15,8,708,2130.6532736523077,2131.4581419895403,"[0, 0, 254]",254,a,0.2816136684268713,colour,0.5
24,23,0,1,15,9,709,2133.4657963970676,2134.22614865331,"[14, 0, 240]",240,a,0.23715666448697448,colour,0.5
24,23,0,1,15,10,710,2136.2469870736822,2137.010159665253,"[37, 0, 217]",217,a,0.23978204559534788,colour,0.5
24,23,0,1,15,11,711,2139.0289776530117,2139.834136649035,"[85, 0, 169]",169,l,0.2825537798926234,colour,0.5
24,23,0,1,15,12,712,2141.8406815906055,2142.5861614136957,"[52, 0, 202]",202,a,0.2223500031977892,colour,0.5
24,23,0,1,15,13,713,2144.60636928631,2145.434107897803,"[87, 0, 167]",167,l,0.3043638193048537,colour,0.5
24,23,0,1,15,14,714,2147.4500760124065,2148.2341027781367,"[46, 0, 208]",208,a,0.26070474926382303,colour,0.5
24,23,0,1,15,15,715,2150.2469910122454,2151.042131733615,"[83, 0, 171]",171,l,0.27178404619917274,colour,0.5
24,23,0,1,15,16,716,2153.0594790983014,2153.9141572075896,"[24, 0, 230]",230,a,0.3313320679590106,colour,0.5
24,23,0,1,15,17,717,2155.934505288955,2156.7461454235017,"[80, 0, 174]",174,l,0.2885048007592559,colour,0.5
24,23,0,1,15,18,718,2158.7626424739137,2159.6021472513676,"[43, 0, 211]",211,a,0.3161748838610947,colour,0.5
24,23,0,1,15,19,719,2161.6220112955198,2162.4101616344415,"[53, 0, 201]",201,a,0.26491142390295863,colour,0.5
24,23,0,1,15,20,720,2164.4188790339977,2165.234217781108,"[59, 0, 195]",195,a,0.29224713053554296,colour,0.5
24,23,0,1,15,21,721,2167.2469323291443,2168.0341650056653,"[23, 0, 231]",231,a,0.2638570964336395,colour,0.5
24,23,0,1,15,22,722,2170.0438264552504,2170.858145534061,"[63, 0, 191]",191,a,0.29098682198673487,colour,0.5
24,23,0,1,15,23,723,2172.8719569444656,2173.5301375309937,"[18, 0, 236]",236,a,0.13482666807249188,colour,0.5
24,23,0,1,15,24,724,2175.543786283117,2176.2261372315697,"[75, 0, 179]",179,l,0.15904114115983248,colour,0.5
24,23,0,1,15,25,725,2178.246938630473,2178.8742022635415,"[94, 0, 160]",160,l,0.10396248986944556,colour,0.5
24,23,0,1,15,26,726,2180.8875717781484,2181.6741514573805,"[66, 0, 188]",188,a,0.26324190851300955,colour,0.5
24,23,0,1,15,27,727,2183.6844367599115,2184.466141800396,"[69, 0, 185]",185,a,0.2585035408847034,colour,0.5
24,23,0,1,15,28,728,2186.4812820488587,2187.210213228129,"[84, 0, 170]",170,l,0.20556111307814717,colour,0.5
24,23,0,1,15,29,729,2189.2312529045157,2190.018183107022,"[36, 0, 218]",218,a,0.2635975517332554,colour,0.5
24,23,0,1,15,30,730,2192.0281478185207,2192.7301930636168,"[3, 0, 251]",251,a,0.17867872398346663,colour,0.5
24,23,0,1,15,31,731,2194.746929571964,2195.3942459016107,"[79, 0, 175]",175,l,0.12397304503247142,colour,0.5
24,23,0,1,15,32,732,2197.403098784387,2198.0102404039353,"[10, 0, 244]",244,a,0.08372429199516773,colour,0.5
24,23,0,1,15,33,733,2200.028138366062,2201.0022346852347,"[44, 0, 210]",210,a,0.4507687888108194,colour,0.5
24,23,0,1,15,34,734,2203.012596787419,2203.858188463375,"[39, 0, 215]",215,a,0.32224602811038494,colour,0.5
24,23,0,1,15,35,735,2205.8719006245956,2206.962242325768,"[73, 0, 181]",181,l,0.5670212600380182,colour,0.5
24,23,0,1,15,36,736,2208.981327341404,2209.7861641705967,"[28, 0, 226]",226,a,0.28154907701537013,colour,0.5
24,23,0,1,15,37,737,2211.7937468984164,2212.570200782735,"[1, 0, 253]",253,a,0.25310311699286103,colour,0.5
24,23,0,1,15,38,738,2214.5906874984503,2215.3702074782923,"[4, 0, 250]",250,a,0.2565394281409681,colour,0.5
24,23,0,1,15,39,739,2217.3875351506285,2218.1862169462256,"[29, 0, 225]",225,a,0.27533378498628736,colour,0.5
24,23,0,1,15,40,740,2220.2000464736484,2221.274219593033,"[58, 0, 196]",196,l,0.5509873735718429,colour,0.5
24,23,0,1,15,41,741,2223.2937122397125,2224.0741943866014,"[95, 0, 159]",159,l,0.25709356972947717,colour,0.5
24,23,0,1,15,42,742,2226.0906697753817,2227.066190243233,"[64, 0, 190]",190,a,0.45224216813221574,colour,0.5
24,23,0,1,15,43,743,2229.0748966149986,2229.8182280054316,"[8, 0, 246]",246,a,0.21991130569949746,colour,0.5
24,23,0,1,15,44,744,2231.824948996771,2232.5622344487347,"[20, 0, 234]",234,a,0.2137322472408414,colour,0.5
24,23,0,1,15,45,745,2234.574893070385,2235.1782246185467,"[50, 0, 204]",204,a,0.07986105093732476,colour,0.5
24,23,0,1,15,46,746,2237.18415515963,2237.858314888086,"[5, 0, 249]",249,a,0.15071561932563782,colour,0.5
24,23,0,1,15,47,747,2239.871821067296,2240.5622639874928,"[32, 0, 222]",222,a,0.16710790619254112,colour,0.5
24,23,0,1,15,48,748,2242.5748599874787,2243.290273959283,"[71, 0, 183]",183,l,0.19177569635212421,colour,0.5
24,23,0,1,15,49,749,2245.309387725778,2245.930192275904,"[88, 0, 166]",166,l,0.09758493304252625,colour,0.5
24,23,0,1,15,50,750,2247.9499216242693,2248.938274006825,"[70, 0, 184]",184,a,0.4650634489953518,colour,0.5
24,23,0,1,16,1,751,2256.5585066913627,2257.2102663978003,"[83, 0, 171]",171,l,0.1284554130397737,colour,0.5
24,23,0,1,16,2,752,2259.2312135198154,2260.026236087084,"[91, 0, 163]",163,l,0.2717356029897928,colour,0.5
24,23,0,1,16,3,753,2262.0437386273406,2262.8102270127274,"[88, 0, 166]",166,l,0.2432640423066914,colour,0.5
24,23,0,1,16,4,754,2264.8248891318217,2265.450218584854,"[43, 0, 211]",211,a,0.10200664820149541,colour,0.5
24,23,0,1,16,5,755,2267.4655896276236,2268.2742589777336,"[40, 0, 214]",214,a,0.2854020781815052,colour,0.5
24,23,0,1,16,6,756,2270.2936511933804,2271.002226020675,"[47, 0, 207]",207,a,0.1852965271100402,colour,0.5
24,23,0,1,16,7,757,2273.012368356809,2273.9302320540883,"[70, 0, 184]",184,l,0.39475475158542395,colour,0.5
24,23,0,1,16,8,758,2275.949854670558,2276.6102703362703,"[0, 0, 254]",254,a,0.13712555076926947,colour,0.5
24,23,0,1,16,9,759,2278.6217627781443,2279.610259702429,"[84, 0, 170]",170,l,0.4651469443924725,colour,0.5
24,23,0,1,16,10,760,2281.6217485996895,2282.5062330150977,"[87, 0, 167]",167,l,0.36120138922706246,colour,0.5
24,23,0,1,16,11,761,2284.5121990027837,2285.3142655151896,"[1, 0, 253]",253,a,0.2785554495640099,colour,0.5
24,23,0,1,16,12,762,2287.3248261166736,2288.026276259683,"[79, 0, 175]",175,l,0.1780044585466385,colour,0.5
24,23,0,1,16,13,763,2290.043666947633,2290.7063027261756,"[31, 0, 223]",223,a,0.13932990981265903,colour,0.5
24,23,0,1,16,14,764,2292.71557466127,2293.4822745425627,"[4, 0, 250]",250,a,0.24344678781926632,colour,0.5
24,23,0,1,16,15,765,2295.496730679646,2296.266293825116,"[29, 0, 225]",225,a,0.2462297072634101,colour,0.5
24,23,0,1,16,16,766,2298.2780221812427,2299.0662552281283,"[34, 0, 220]",220,a,0.26497680228203535,colour,0.5
24,23,0,1,16,17,767,2301.0747567997314,2301.738286215812,"[42, 0, 212]",212,a,0.14006994711235166,colour,0.5
24,23,0,1,16,18,768,2303.746802753769,2304.5383256007917,"[13, 0, 241]",241,a,0.26825439371168613,colour,0.5
24,23,0,1,16,19,769,2306.559260907583,2307.3623120365664,"[5, 0, 249]",249,a,0.28053177148103714,colour,0.5
24,23,0,1,16,20,770,2309.3724492527544,2310.1703378413804,"[48, 0, 206]",206,a,0.2752940063364804,colour,0.5
24,23,0,1,16,21,771,2312.184303245973,2312.9303293344565,"[95, 0, 159]",159,l,0.22289154259487987,colour,0.5
24,23,0,1,16,22,772,2314.9498629411682,2315.730308066588,"[99, 0, 155]",155,l,0.25714240688830614,colour,0.5
24,23,0,1,16,23,773,2317.7467098059133,2318.5462958728895,"[71, 0, 183]",183,a,0.2762412070296705,colour,0.5
24,23,0,1,16,24,774,2320.5592018305324,2321.3463218668476,"[51, 0, 203]",203,a,0.26452466659247875,colour,0.5
24,23,0,1,16,25,775,2323.3561455812305,2324.106295636855,"[9, 0, 245]",245,a,0.22690286953002214,colour,0.5
24,23,0,1,16,26,776,2326.1217044889927,2327.4022862790152,"[38, 0, 216]",216,a,0.7573129427619278,colour,0.5
24,23,0,1,16,27,777,2329.4185568671674,2330.4263164317235,"[26, 0, 228]",228,a,0.48458681534975767,colour,0.5
24,23,0,1,16,28,778,2332.4342512581497,2333.2903377627954,"[82, 0, 172]",172,l,0.33292635856196284,colour,0.5
24,23,0,1,16,29,779,2335.3091671718284,2336.114336801693,"[92, 0, 162]",162,l,0.2818909361958504,colour,0.5
24,23,0,1,16,30,780,2338.121745449025,2338.938294880558,"[11, 0, 243]",243,a,0.2932695564813912,colour,0.5
24,23,0,1,16,31,781,2340.9498255257495,2341.7143182908185,"[78, 0, 176]",176,l,0.2411494804546237,colour,0.5
24,23,0,1,16,32,782,2343.7310811872594,2344.5222952584736,"[72, 0, 182]",182,l,0.26788929756730795,colour,0.5
24,23,0,1,16,33,783,2346.543493261095,2347.362332122866,"[85, 0, 169]",169,l,0.295453829690814,colour,0.5
24,23,0,1,16,34,784,2349.3717202427797,2350.1943483017385,"[65, 0, 189]",189,a,0.29930761735886335,colour,0.5
24,23,0,1,16,35,785,2352.2154805320315,2353.0263719642535,"[3, 0, 251]",251,a,0.2876548799686134,colour,0.5
24,23,0,1,16,36,786,2355.043509802781,2356.138338991441,"[14, 0, 240]",240,a,0.5714575471356511,colour,0.5
24,23,0,1,16,37,787,2358.152909344062,2358.9543579118326,"[30, 0, 224]",224,a,0.2785664773546159,colour,0.5
24,23,0,1,16,38,788,2360.965350956656,2361.666339117568,"[89, 0, 165]",165,l,0.17817538790404797,colour,0.5
24,23,0,1,16,39,789,2363.6841937564313,2364.394373114221,"[35, 0, 219]",219,a,0.18697273777797818,colour,0.5
24,23,0,1,16,40,790,2366.4028998920694,2367.0983612043783,"[77, 0, 177]",177,l,0.17211408959701657,colour,0.5
24,23,0,1,16,41,791,2369.1060486948118,2369.8343473565765,"[22, 0, 232]",232,a,0.20501563558354974,colour,0.5
24,23,0,1,16,42,792,2371.8404425256886,2372.7223752094433,"[53, 0, 201]",201,a,0.35859530698508024,colour,0.5
24,23,0,1,16,43,793,2374.7310421965085,2375.442364103161,"[36, 0, 218]",218,a,0.18804478831589222,colour,0.5
24,23,0,1,16,44,794,2377.449746362865,2378.298356084153,"[58, 0, 196]",196,l,0.3253333908505738,colour,0.5
24,23,0,1,16,45,795,2380.3091124272905,2381.1703642290086,"[67, 0, 187]",187,a,0.3379857111722231,colour,0.5
24,23,0,1,16,46,796,2383.1841547656804,2384.0264215888456,"[61, 0, 193]",193,a,0.319103526417166,colour,0.5
24,23,0,1,16,47,797,2386.0434905043803,2386.9543464900926,"[68, 0, 186]",186,a,0.38752609211951494,colour,0.5
24,23,0,1,16,48,798,2388.9653623779304,2389.8663781080395,"[27, 0, 227]",227,a,0.3777291593141854,colour,0.5
24,23,0,1,16,49,799,2391.8872208609246,2392.5463793687522,"[90, 0, 164]",164,l,0.13586563570424914,colour,0.5
24,23,0,1,16,50,800,2394.559102187399,2395.1544425887987,"[19, 0, 235]",235,a,0.07279308093711734,colour,0.5
