id,age,condition,counterbalance,block,trialinblock,trial,tstart,tend,trialstim,trialintensity,response,RT,trialtype,colourfreq
10,20,1,1,Practice,1,NA,5.907699232921004e-06,0.6533156732766656,"[51, 0, 203]",203,a,0.128863336154609,colour,0.5
10,20,1,1,Practice,2,NA,2.6728677755891113,17.74932868911128,"[13, 0, 241]",241,l,14.553120010474231,colour,0.5
10,20,1,1,Practice,3,NA,19.76052613131469,20.46930756319489,"[96, 0, 158]",158,l,0.18538499651185703,colour,0.5
10,20,1,1,Practice,4,NA,22.47941050672671,23.06132973516651,"[62, 0, 192]",192,a,0.05855508845706936,colour,0.5
10,20,1,1,Practice,5,NA,25.125582990891417,25.757347792226938,"[16, 0, 238]",238,a,0.1137668162555201,colour,0.5
10,20,1,1,Practice,6,NA,27.776662799107726,74.48535876635287,"[79, 0, 175]",175,l,46.18527117493795,colour,0.5
10,20,1,1,Practice,7,NA,76.50358636378951,79.11735790618695,"[41, 0, 213]",213,l,2.090284522389993,colour,0.5
10,20,1,1,Practice,8,NA,81.12899369925435,81.7256959459919,"[2, 0, 252]",252,a,0.07324122058344074,colour,0.5
10,20,1,1,Practice,9,NA,83.73862394853495,85.21333114356094,"[22, 0, 232]",232,l,0.9513958304305561,colour,0.5
10,20,1,1,Practice,10,NA,87.22327142859285,87.76534799071669,"[88, 0, 166]",166,l,0.01876086523407139,colour,0.5
10,20,1,1,1,1,1,5.80132426857017,11.056021081793006,"[72, 0, 182]",182,l,4.7305390730907675,colour,0.5
10,20,1,1,1,2,2,13.069813970665564,13.712018847902073,"[26, 0, 228]",228,a,0.11891714342345949,colour,0.5
10,20,1,1,1,3,3,15.72622803223203,20.272018564326572,"[85, 0, 169]",169,l,4.022357469017152,colour,0.5
10,20,1,1,1,4,4,22.290157546362025,25.255998081178404,"[50, 0, 204]",204,l,2.4426555948593887,colour,0.5
10,20,1,1,1,5,5,27.27626068209065,27.928026964291348,"[1, 0, 253]",253,a,0.12874400074360892,colour,0.5
10,20,1,1,1,6,6,29.948431349839666,30.52805918089871,"[21, 0, 233]",233,a,0.05629283569578547,colour,0.5
10,20,1,1,1,7,7,32.54442585489596,33.200055768626044,"[82, 0, 172]",172,l,0.132243718355312,colour,0.5
10,20,1,1,1,8,8,35.21654571648105,35.88001474560588,"[92, 0, 162]",162,l,0.14012221836310346,colour,0.5
10,20,1,1,1,9,9,37.88857184267545,43.18413256548229,"[67, 0, 187]",187,a,4.776690762169892,colour,0.5
10,20,1,1,1,10,10,45.20293872304319,45.81599740375532,"[42, 0, 212]",212,a,0.08974416536511853,colour,0.5
10,20,1,1,1,11,11,47.82810108613921,48.37604950173409,"[58, 0, 196]",196,a,0.02461538945499342,colour,0.5
10,20,1,1,1,12,12,50.39076792926062,51.032073261696496,"[23, 0, 231]",231,a,0.1179191370611079,colour,0.5
10,20,1,1,1,13,13,53.047236735452316,53.60002118891862,"[37, 0, 217]",217,a,0.027874467021320015,colour,0.5
10,20,1,1,1,14,14,55.6112465942133,59.82402517150331,"[33, 0, 221]",221,a,3.689170252648182,colour,0.5
10,20,1,1,1,15,15,61.83201316076156,62.8720503871009,"[5, 0, 249]",249,a,0.5167231048253598,colour,0.5
10,20,1,1,1,16,16,64.87912229003268,65.62401548288472,"[11, 0, 243]",243,a,0.22014586489240173,colour,0.5
10,20,1,1,1,17,17,67.63088101038011,68.2640309689159,"[86, 0, 168]",168,l,0.10987325241148937,colour,0.5
10,20,1,1,1,18,18,70.2716814319574,71.00801319541642,"[39, 0, 215]",215,a,0.21313067580922507,colour,0.5
10,20,1,1,1,19,19,73.02329639843083,73.93602007355366,"[62, 0, 192]",192,a,0.3894938367011491,colour,0.5
10,20,1,1,1,20,20,75.9453888877033,76.63204640138429,"[70, 0, 184]",184,l,0.16339577372127678,colour,0.5
10,20,1,1,1,21,21,78.64949103251274,79.22408314565837,"[84, 0, 170]",170,l,0.05123388086212799,colour,0.5
10,20,1,1,1,22,22,81.24356514334795,82.16834957161336,"[30, 0, 224]",224,a,0.4015782206261065,colour,0.5
10,20,1,1,1,23,23,84.1812507926079,84.99201516149333,"[43, 0, 211]",211,a,0.28738998889457434,colour,0.5
10,20,1,1,1,24,24,87.01064251286152,87.74404366652016,"[73, 0, 181]",181,l,0.20993737057142425,colour,0.5
10,20,1,1,1,25,25,89.76087783598632,90.54400286404416,"[83, 0, 171]",171,l,0.25969038960465696,colour,0.5
10,20,1,1,1,26,26,92.55896350699186,93.39219128953118,"[97, 0, 157]",157,l,0.3097868425393244,colour,0.5
10,20,1,1,1,27,27,95.4030334824347,96.18407703316188,"[89, 0, 165]",165,l,0.25773809383099433,colour,0.5
10,20,1,1,1,28,28,98.20009475940606,98.752056468089,"[22, 0, 232]",232,a,0.028616079478524625,colour,0.5
10,20,1,1,1,29,29,100.75070636320743,101.54400286404416,"[18, 0, 236]",236,a,0.2699437823903281,colour,0.5
10,20,1,1,1,30,30,103.56169246752688,104.27202525972098,"[19, 0, 235]",235,a,0.19144117001269478,colour,0.5
10,20,1,1,1,31,31,106.28349721274571,106.93607796894503,"[16, 0, 238]",238,a,0.1293288623855915,colour,0.5
10,20,1,1,1,32,32,108.95552412662073,109.77604997435992,"[63, 0, 191]",191,l,0.29717312929278705,colour,0.5
10,20,1,1,1,33,33,111.78387884974654,112.70404740018421,"[56, 0, 198]",198,l,0.396826071999385,colour,0.5
10,20,1,1,1,34,34,114.72158773594128,115.37611409251986,"[69, 0, 185]",185,l,0.13185262904153205,colour,0.5
10,20,1,1,1,35,35,117.39370208367473,117.92830186896026,"[74, 0, 180]",180,l,0.011279362224740908,colour,0.5
10,20,1,1,1,36,36,119.9407269298681,120.62402729826863,"[15, 0, 239]",239,a,0.1599287453427678,colour,0.5
10,20,1,1,1,37,37,122.64404020067013,123.20000929477101,"[81, 0, 173]",173,l,0.032495071020093746,colour,0.5
10,20,1,1,1,38,38,125.20678029918054,126.96001988135686,"[34, 0, 220]",220,a,1.2298817437404068,colour,0.5
10,20,1,1,1,39,39,128.97525149051216,129.80009822524153,"[32, 0, 222]",222,a,0.30153615784365684,colour,0.5
10,20,1,1,1,40,40,131.8191611705406,132.6480361645372,"[13, 0, 241]",241,a,0.3055813524842961,colour,0.5
10,20,1,1,1,41,41,134.66313150289352,135.33605520463607,"[28, 0, 226]",226,a,0.14952372176048812,colour,0.5
10,20,1,1,1,42,42,137.35087406293314,138.0640299449151,"[40, 0, 214]",214,a,0.18984884969540872,colour,0.5
10,20,1,1,1,43,43,140.0855556106835,140.85606141165772,"[61, 0, 193]",193,l,0.2461562577082077,colour,0.5
10,20,1,1,1,44,44,142.8680355186225,143.40008869416488,"[35, 0, 219]",219,a,0.008901712513761595,colour,0.5
10,20,1,1,1,45,45,145.41510762635153,146.16004099151178,"[48, 0, 206]",206,a,0.22157040670572314,colour,0.5
10,20,1,1,1,46,46,148.18102590640774,148.92806359198585,"[59, 0, 195]",195,a,0.2237672809860669,colour,0.5
10,20,1,1,1,47,47,150.94681894336827,151.49618481154903,"[25, 0, 229]",229,a,0.026047414357890375,colour,0.5
10,20,1,1,1,48,48,153.5094294664741,154.12807328060444,"[98, 0, 156]",156,l,0.09517372951086145,colour,0.5
10,20,1,1,1,49,49,156.13477024191525,156.8720377840218,"[95, 0, 159]",159,l,0.21399910675245337,colour,0.5
10,20,1,1,1,50,50,158.88632140529808,159.6400194244925,"[87, 0, 167]",167,l,0.23032442689873278,colour,0.5
10,20,1,1,2,1,51,171.66669581127644,172.34407391390414,"[72, 0, 182]",182,l,0.15309472553781234,colour,0.5
10,20,1,1,2,2,52,174.35759189810778,175.01602324008127,"[88, 0, 166]",166,l,0.1350345127575565,colour,0.5
10,20,1,1,2,3,53,177.0296822212258,177.8240413191961,"[70, 0, 184]",184,l,0.2713116103550419,colour,0.5
10,20,1,1,2,4,54,179.84243236281327,180.75203008040262,"[21, 0, 233]",233,a,0.3862548453034833,colour,0.5
10,20,1,1,2,5,55,182.7645181567059,183.75206513270678,"[58, 0, 196]",196,l,0.46419346987386234,colour,0.5
10,20,1,1,2,6,56,185.76573002155055,186.528055636285,"[8, 0, 246]",246,a,0.23902527782774996,colour,0.5
10,20,1,1,2,7,57,188.54717293236172,189.17615205929906,"[28, 0, 226]",226,a,0.10563625465147197,colour,0.5
10,20,1,1,2,8,58,191.1902738097706,192.0880128173303,"[39, 0, 215]",215,a,0.37439377218834125,colour,0.5
10,20,1,1,2,9,59,194.09686136060918,194.93603582739888,"[81, 0, 173]",173,l,0.3159292683703825,colour,0.5
10,20,1,1,2,10,60,196.95640122218174,197.720019834087,"[7, 0, 247]",247,a,0.2392017209494952,colour,0.5
10,20,1,1,2,11,61,199.73915524709446,200.53604126247228,"[23, 0, 231]",231,a,0.27348721692396794,colour,0.5
10,20,1,1,2,12,62,202.55205150562688,203.30409537065134,"[10, 0, 244]",244,a,0.22884671583597083,colour,0.5
10,20,1,1,2,13,63,205.31782681950426,206.10410419281106,"[14, 0, 240]",240,a,0.26297112871543504,colour,0.5
10,20,1,1,2,14,64,208.1162677398097,208.88804763332882,"[22, 0, 232]",232,a,0.24846380276721902,colour,0.5
10,20,1,1,2,15,65,210.8977736660163,211.59210999967763,"[73, 0, 181]",181,l,0.17101394137716852,colour,0.5
10,20,1,1,2,16,66,213.6011621614598,214.28006051052944,"[30, 0, 224]",224,a,0.15569095988757908,colour,0.5
10,20,1,1,2,17,67,216.2897715770523,217.03206656631664,"[42, 0, 212]",212,a,0.21907657237898093,colour,0.5
10,20,1,1,2,18,68,219.04049960181874,219.59210448582598,"[49, 0, 205]",205,a,0.028176153238746338,colour,0.5
10,20,1,1,2,19,69,221.6054279099917,222.34403334774834,"[50, 0, 204]",204,a,0.21532636856136378,colour,0.5
10,20,1,1,2,20,70,224.35567032234394,225.09603861582582,"[69, 0, 185]",185,l,0.21699706427170895,colour,0.5
10,20,1,1,2,21,71,227.1080706181965,227.79202240827726,"[78, 0, 176]",176,l,0.16062664086348377,colour,0.5
10,20,1,1,2,22,72,229.8113003936014,230.73608245879586,"[31, 0, 223]",223,a,0.405153556712321,colour,0.5
10,20,1,1,2,23,73,232.7340423353162,233.4000367064582,"[33, 0, 221]",221,a,0.14269127731677145,colour,0.5
10,20,1,1,2,24,74,235.42177780612838,236.28812175519124,"[56, 0, 198]",198,a,0.34320902758918237,colour,0.5
10,20,1,1,2,25,75,238.29932746816485,239.15204591301153,"[47, 0, 207]",207,a,0.32968828645243775,colour,0.5
10,20,1,1,2,26,76,241.15893073898042,241.7520647388592,"[44, 0, 210]",210,a,0.07038977385673206,colour,0.5
10,20,1,1,2,27,77,243.76858776980953,244.6000381243066,"[27, 0, 227]",227,a,0.30809802989824675,colour,0.5
10,20,1,1,2,28,78,246.61253801600833,247.21614596256404,"[43, 0, 211]",211,a,0.08024498811573721,colour,0.5
10,20,1,1,2,29,79,249.23765981294855,249.86408287784434,"[64, 0, 190]",190,l,0.10319913417333737,colour,0.5
10,20,1,1,2,30,80,251.87851616069383,252.46406743906846,"[32, 0, 222]",222,a,0.06238327382015996,colour,0.5
10,20,1,1,2,31,81,254.47556971825543,255.28817374289792,"[46, 0, 208]",208,a,0.29002482019132003,colour,0.5
10,20,1,1,2,32,82,257.30306979505986,259.06406342184346,"[90, 0, 164]",164,l,1.2376346067903796,colour,0.5
10,20,1,1,2,33,83,261.08471947514045,261.72802948490425,"[0, 0, 254]",254,a,0.11998919286997989,colour,0.5
10,20,1,1,2,34,84,263.7433772786899,264.62405959365424,"[96, 0, 158]",158,l,0.357259098047507,colour,0.5
10,20,1,1,2,35,85,266.6332724446984,267.33606977693853,"[5, 0, 249]",249,a,0.17950369072786998,colour,0.5
10,20,1,1,2,36,86,269.35454825442866,269.89614589954726,"[89, 0, 165]",165,l,0.01841821901325602,colour,0.5
10,20,1,1,2,37,87,271.91727023600833,272.70409781250055,"[62, 0, 192]",192,a,0.26354732575418893,colour,0.5
10,20,1,1,2,38,88,274.714257469881,275.37609833867464,"[67, 0, 187]",187,a,0.138401504184003,colour,0.5
10,20,1,1,2,39,89,277.386411202242,277.96008959213214,"[41, 0, 213]",213,a,0.050337880675215274,colour,0.5
10,20,1,1,2,40,90,279.9660669963923,280.76014370660414,"[95, 0, 159]",159,l,0.26743734496994875,colour,0.5
10,20,1,1,2,41,91,282.76647951093037,283.62407534749946,"[17, 0, 237]",237,a,0.33427817044139374,colour,0.5
10,20,1,1,2,42,92,285.641771252529,286.52812416553206,"[85, 0, 169]",169,l,0.362983653016272,colour,0.5
10,20,1,1,2,43,93,288.54819693256286,289.56803772416606,"[55, 0, 199]",199,a,0.49647507623012643,colour,0.5
10,20,1,1,2,44,94,291.57962586183567,292.37606289250834,"[91, 0, 163]",163,l,0.2729673399007879,colour,0.5
10,20,1,1,2,45,95,294.38557112823764,294.9120647703676,"[1, 0, 253]",253,a,0.003312246801215224,colour,0.5
10,20,1,1,2,46,96,296.9261073577509,297.6321334413951,"[87, 0, 167]",167,l,0.1825272482528817,colour,0.5
10,20,1,1,2,47,97,299.6450114254694,300.3360941954161,"[74, 0, 180]",180,l,0.16768160840729252,colour,0.5
10,20,1,1,2,48,98,302.3484121301444,303.00813646928873,"[93, 0, 161]",161,l,0.13639328224235214,colour,0.5
10,20,1,1,2,49,99,305.0205508963554,305.71209289098624,"[97, 0, 157]",157,l,0.16706287597480696,colour,0.5
10,20,1,1,2,50,100,307.72518433972436,308.4400692066556,"[66, 0, 188]",188,a,0.19146440693293698,colour,0.5
10,20,1,1,3,1,101,316.7889448938222,317.48011667300307,"[90, 0, 164]",164,l,0.1680817561718868,colour,0.5
10,20,1,1,3,2,102,319.49221287231194,324.1521112914925,"[34, 0, 220]",220,a,4.136620137680438,colour,0.5
10,20,1,1,3,3,103,326.1657470357168,327.048095320235,"[4, 0, 250]",250,a,0.3591538922628388,colour,0.5
10,20,1,1,3,4,104,329.05648109420144,329.76017482046154,"[76, 0, 178]",178,l,0.17870221365592442,colour,0.5
10,20,1,1,3,5,105,331.7770302576246,332.5120910793048,"[92, 0, 162]",162,l,0.21201924174965825,colour,0.5
10,20,1,1,3,6,106,334.527439266938,335.0961036004592,"[71, 0, 183]",183,a,0.0455392581934575,colour,0.5
10,20,1,1,3,7,107,337.10708994108427,340.3921318187495,"[64, 0, 190]",190,a,2.7616982176841702,colour,0.5
10,20,1,1,3,8,108,342.4068163754855,345.7680580466258,"[48, 0, 206]",206,a,2.8379622080828995,colour,0.5
10,20,1,1,3,9,109,347.7837276127975,348.58409680424666,"[20, 0, 234]",234,a,0.27707476225623395,colour,0.5
10,20,1,1,3,10,110,350.5964383697574,351.4961021038471,"[58, 0, 196]",196,a,0.3763732433581026,colour,0.5
10,20,1,1,3,11,111,353.5028416005516,357.5041152992635,"[97, 0, 157]",157,a,3.4782128203223692,colour,0.5
10,20,1,1,3,12,112,359.5194422192144,360.2481054027012,"[96, 0, 158]",158,l,0.20415413251612335,colour,0.5
10,20,1,1,3,13,113,362.2552730102616,362.86410217631783,"[6, 0, 248]",248,a,0.08571078612294514,colour,0.5
10,20,1,1,3,14,114,364.88049326876353,368.0161102800921,"[24, 0, 230]",230,a,2.6106963910278864,colour,0.5
10,20,1,1,3,15,115,370.0230711183831,370.8001265821804,"[57, 0, 197]",197,a,0.25377009305520914,colour,0.5
10,20,1,1,3,16,116,372.82026078921626,373.72807398952136,"[18, 0, 236]",236,a,0.38460620497062337,colour,0.5
10,20,1,1,3,17,117,375.7442413773242,376.56814051803667,"[94, 0, 160]",160,l,0.30038297608552966,colour,0.5
10,20,1,1,3,18,118,378.58822273736587,380.3840556079376,"[84, 0, 170]",170,l,1.2726999183214502,colour,0.5
10,20,1,1,3,19,119,382.402532903885,383.2720796104986,"[61, 0, 193]",193,a,0.34618020355992485,colour,0.5
10,20,1,1,3,20,120,385.29340087008313,385.8567853010172,"[10, 0, 244]",244,a,0.040340487932553515,colour,0.5
10,20,1,1,3,21,121,387.8730097965308,388.65610449842643,"[54, 0, 200]",200,a,0.2602874604781391,colour,0.5
10,20,1,1,3,22,122,390.6701474796573,391.5201318439649,"[44, 0, 210]",210,a,0.3264961627573939,colour,0.5
10,20,1,1,3,23,123,393.52985630126204,394.32808651383675,"[87, 0, 167]",167,l,0.27493972184311133,colour,0.5
10,20,1,1,3,24,124,396.342530824375,397.04008054942824,"[52, 0, 202]",202,a,0.17415565275587142,colour,0.5
10,20,1,1,3,25,125,399.06146167364204,399.8241031530488,"[49, 0, 205]",205,a,0.2392080224963138,colour,0.5
10,20,1,1,3,26,126,401.8307079543447,402.6001161058666,"[65, 0, 189]",189,a,0.24601959306164645,colour,0.5
10,20,1,1,3,27,127,404.61218000977533,405.4160859403928,"[85, 0, 169]",169,l,0.28059417217446025,colour,0.5
10,20,1,1,3,28,128,407.42493172675313,408.1841554085695,"[29, 0, 225]",225,a,0.23589498799992725,colour,0.5
10,20,1,1,3,29,129,410.19077753910096,410.80009231755685,"[13, 0, 241]",241,a,0.08601089693547692,colour,0.5
10,20,1,1,3,30,130,412.81596707760764,417.0401364755962,"[42, 0, 212]",212,a,3.7011518426879775,colour,0.5
10,20,1,1,3,31,131,419.0521830502694,419.82415277766995,"[36, 0, 218]",218,a,0.24957720606471412,colour,0.5
10,20,1,1,3,32,132,421.83355743183347,422.6882734647661,"[2, 0, 252]",252,a,0.33002029883209616,colour,0.5
10,20,1,1,3,33,133,424.69025451131165,425.41607215577096,"[14, 0, 240]",240,a,0.2148509961552918,colour,0.5
10,20,1,1,3,34,134,427.4282849335723,428.0721341188182,"[75, 0, 179]",179,l,0.12040351910400204,colour,0.5
10,20,1,1,3,35,135,430.08477894592215,430.8801069056208,"[79, 0, 175]",175,l,0.271953185860184,colour,0.5
10,20,1,1,3,36,136,432.8975007305853,433.6561281292088,"[32, 0, 222]",222,a,0.2352849201852223,colour,0.5
10,20,1,1,3,37,137,435.6633591460122,436.6321176875499,"[69, 0, 185]",185,l,0.4454873492650222,colour,0.5
10,20,1,1,3,38,138,438.64908379550616,439.5921155135147,"[63, 0, 191]",191,a,0.419680968800094,colour,0.5
10,20,1,1,3,39,139,441.6021798601141,442.39214324030036,"[30, 0, 224]",224,a,0.2666512278956361,colour,0.5
10,20,1,1,3,40,140,444.39930887862283,445.1361727283511,"[53, 0, 201]",201,a,0.21349222665594425,colour,0.5
10,20,1,1,3,41,141,447.1495654694445,447.97610219837225,"[80, 0, 174]",174,l,0.30389293369080406,colour,0.5
10,20,1,1,3,42,142,449.99569762375904,450.7680950681679,"[16, 0, 238]",238,a,0.24916799983475357,colour,0.5
10,20,1,1,3,43,143,452.77718267611635,454.32005756456056,"[40, 0, 214]",214,a,1.0197777762077749,colour,0.5
10,20,1,1,3,44,144,456.3398747253814,456.8801124194579,"[41, 0, 213]",213,a,0.016877886388101615,colour,0.5
10,20,1,1,3,45,145,458.88698385466705,459.6641098169348,"[37, 0, 217]",217,a,0.25321988986979704,colour,0.5
10,20,1,1,3,46,146,461.6841802208801,462.22410401950765,"[89, 0, 165]",165,l,0.016686083283275366,colour,0.5
10,20,1,1,3,47,147,464.2324937319354,464.77607360512775,"[31, 0, 223]",223,a,0.020166896283626556,colour,0.5
10,20,1,1,3,48,148,466.7951270981139,467.3841087771725,"[21, 0, 233]",233,a,0.06338994478574023,colour,0.5
10,20,1,1,3,49,149,469.39136184936797,472.25610402581515,"[39, 0, 215]",215,a,2.341701384211774,colour,0.5
10,20,1,1,3,50,150,474.2666984894313,474.9681398091052,"[77, 0, 177]",177,l,0.1780539427563781,colour,0.5
10,20,1,1,4,1,151,483.219763834044,484.1201455498085,"[10, 0, 244]",244,a,0.37622121869935654,colour,0.5
10,20,1,1,4,2,152,486.12705597578315,486.74410904498654,"[21, 0, 233]",233,a,0.09042985165433493,colour,0.5
10,20,1,1,4,3,153,488.7544388439419,489.52807178399235,"[0, 0, 254]",254,a,0.25052992011478636,colour,0.5
10,20,1,1,4,4,154,491.5358274039754,493.656121827662,"[40, 0, 214]",214,l,1.5969007452367805,colour,0.5
10,20,1,1,4,5,155,495.6635596137494,496.2961160459963,"[90, 0, 164]",164,l,0.10915960303100292,colour,0.5
10,20,1,1,4,6,156,498.30437460762914,498.8402760547033,"[95, 0, 159]",159,l,0.012616470179636963,colour,0.5
10,20,1,1,4,7,157,500.8515065799875,501.384159977184,"[11, 0, 243]",243,a,0.009308949520345777,colour,0.5
10,20,1,1,4,8,158,503.4011642882251,504.1920953485969,"[70, 0, 184]",184,l,0.267663018865278,colour,0.5
10,20,1,1,4,9,159,506.2139490882837,507.040064795583,"[54, 0, 200]",200,a,0.3028665704187006,colour,0.5
10,20,1,1,4,10,160,509.0579229652503,510.11217528361885,"[49, 0, 205]",205,a,0.5293797473132145,colour,0.5
10,20,1,1,4,11,161,512.12118609155,512.880147077929,"[64, 0, 190]",190,a,0.23569491409580223,colour,0.5
10,20,1,1,4,12,162,514.8870685316069,515.752119877332,"[32, 0, 222]",222,a,0.3417545534466626,colour,0.5
10,20,1,1,4,13,163,517.7623145870311,518.4960958023003,"[15, 0, 239]",239,a,0.21053483530704398,colour,0.5
10,20,1,1,4,14,164,520.5007451570709,521.2561052073579,"[17, 0, 237]",237,a,0.23186160874320194,colour,0.5
10,20,1,1,4,15,165,523.2666177509673,524.1521258637949,"[88, 0, 166]",166,l,0.36213018823764287,colour,0.5
10,20,1,1,4,16,166,526.1731552833226,526.9761116506706,"[8, 0, 246]",246,a,0.2796288550598547,colour,0.5
10,20,1,1,4,17,167,528.986010188004,529.7761488297547,"[13, 0, 241]",241,a,0.2672353018569993,colour,0.5
10,20,1,1,4,18,168,531.7830450772744,532.6081111843669,"[47, 0, 207]",207,a,0.30179806558589917,colour,0.5
10,20,1,1,4,19,169,534.6281622898532,535.5441336209915,"[73, 0, 181]",181,l,0.3925855296110967,colour,0.5
10,20,1,1,4,20,170,537.5503591483721,538.3280939969118,"[66, 0, 188]",188,l,0.254317145459936,colour,0.5
10,20,1,1,4,21,171,540.3473818283965,541.3841328017879,"[58, 0, 196]",196,a,0.5133533564658137,colour,0.5
10,20,1,1,4,22,172,543.3945531853824,543.9760970783682,"[50, 0, 204]",204,a,0.058185266840155236,colour,0.5
10,20,1,1,4,23,173,545.9885434069729,546.5921182704478,"[83, 0, 171]",171,l,0.08041434199549258,colour,0.5
10,20,1,1,4,24,174,548.5981039454637,549.3841457987146,"[79, 0, 175]",175,l,0.26265368863823824,colour,0.5
10,20,1,1,4,25,175,551.3964133211412,552.2241493118345,"[78, 0, 176]",176,l,0.31381943411543034,colour,0.5
10,20,1,1,4,26,176,554.2404848719743,555.6001539151039,"[48, 0, 206]",206,a,0.8363907616294455,colour,0.5
10,20,1,1,4,27,177,557.6158790135814,558.4241211912013,"[41, 0, 213]",213,a,0.28507771766453516,colour,0.5
10,20,1,1,4,28,178,560.4440360259032,561.4241660896805,"[9, 0, 245]",245,a,0.4567253576387884,colour,0.5
10,20,1,1,4,29,179,563.4442888751801,564.5681523334206,"[60, 0, 194]",194,a,0.6005875398113858,colour,0.5
10,20,1,1,4,30,180,566.5851723983069,567.5841176780959,"[93, 0, 161]",161,l,0.4755811398063088,colour,0.5
10,20,1,1,4,31,181,569.6020632816362,570.7201529541198,"[3, 0, 251]",251,a,0.5946605478675338,colour,0.5
10,20,1,1,4,32,182,572.7273174109141,573.8241582915216,"[45, 0, 209]",209,a,0.5734897375514265,colour,0.5
10,20,1,1,4,33,183,575.836961050969,576.4480934297753,"[71, 0, 183]",183,l,0.08781077421735972,colour,0.5
10,20,1,1,4,34,184,578.462313247961,579.3841532818042,"[96, 0, 158]",158,l,0.39855230003013276,colour,0.5
10,20,1,1,4,35,185,581.4000386756961,582.4961407007795,"[31, 0, 223]",223,a,0.572697712777881,colour,0.5
10,20,1,1,4,36,186,584.5109453806072,585.8241701069055,"[33, 0, 221]",221,a,0.7899629863240989,colour,0.5
10,20,1,1,4,37,187,587.8393201898871,588.9281270012289,"[89, 0, 165]",165,l,0.5656557421607431,colour,0.5
10,20,1,1,4,38,188,590.9488921499287,591.8162218961079,"[5, 0, 249]",249,a,0.3439270092640072,colour,0.5
10,20,1,1,4,39,189,593.8241122115141,594.6480909091624,"[37, 0, 217]",217,a,0.3006689084431855,colour,0.5
10,20,1,1,4,40,190,596.6680494607863,597.5201645331981,"[16, 0, 238]",238,a,0.3288218247471377,colour,0.5
10,20,1,1,4,41,191,599.5291300488025,600.3201702045772,"[53, 0, 201]",201,a,0.2675334434461547,colour,0.5
10,20,1,1,4,42,192,602.3418872796319,603.168131380793,"[29, 0, 225]",225,a,0.30277086577552836,colour,0.5
10,20,1,1,4,43,193,605.186131335111,606.4161564388633,"[74, 0, 180]",180,l,0.7066318191500613,colour,0.5
10,20,1,1,4,44,194,608.4363989536214,609.576148593449,"[85, 0, 169]",169,l,0.6163516290689586,colour,0.5
10,20,1,1,4,45,195,611.580621505098,612.6401320645091,"[27, 0, 227]",227,a,0.5362511825223919,colour,0.5
10,20,1,1,4,46,196,614.6548961781955,615.6001578535652,"[76, 0, 178]",178,l,0.42204916618356947,colour,0.5
10,20,1,1,4,47,197,617.6012322660827,618.6561612122896,"[68, 0, 186]",186,l,0.5316022216138663,colour,0.5
10,20,1,1,4,48,198,620.6656836264738,621.3601558370719,"[1, 0, 253]",253,a,0.1711080706154462,colour,0.5
10,20,1,1,4,49,199,623.3682415001967,624.0961307758553,"[63, 0, 191]",191,a,0.2044365202600602,colour,0.5
10,20,1,1,4,50,200,626.1028356140887,626.8721716917498,"[99, 0, 155]",155,l,0.2459794207534287,colour,0.5
10,20,1,1,5,1,201,668.1850813410565,669.1922351640096,"[36, 0, 218]",218,a,0.483005535119446,colour,0.4
10,20,1,1,5,2,202,671.1904396190366,672.5441442548472,"[16, 0, 238]",238,a,0.8304003604571335,colour,0.4
10,20,1,1,5,3,203,674.5657900437218,675.2321762918727,"[56, 0, 198]",198,a,0.1430488897167379,colour,0.4
10,20,1,1,5,4,204,677.2534628929861,678.5521755671944,"[39, 0, 215]",215,a,0.7754083988547791,colour,0.4
10,20,1,1,5,5,205,680.5672362470796,681.608160808988,"[37, 0, 217]",217,a,0.517555301921675,colour,0.4
10,20,1,1,5,6,206,683.6299511394318,684.4161198111688,"[27, 0, 227]",227,a,0.26290811330545694,colour,0.4
10,20,1,1,5,7,207,686.429080109112,687.256164284292,"[72, 0, 182]",182,l,0.30374996751197614,colour,0.4
10,20,1,1,5,8,208,689.2730977030005,690.080178428092,"[13, 0, 241]",241,a,0.2841072805604199,colour,0.4
10,20,1,1,5,9,209,692.0887311928527,692.8481923639483,"[94, 0, 160]",160,l,0.23791463146335445,colour,0.4
10,20,1,1,5,10,210,694.8683348417544,695.6241123690561,"[6, 0, 248]",248,a,0.23140041480655782,colour,0.4
10,20,1,1,5,11,211,697.635609528239,698.3921684464585,"[69, 0, 185]",185,l,0.2332306182361208,colour,0.4
10,20,1,1,5,12,212,700.401451008278,701.17619341315,"[91, 0, 163]",163,l,0.25179062188544776,colour,0.4
10,20,1,1,5,13,213,703.184128627021,703.912198284248,"[35, 0, 219]",219,a,0.2045408895064611,colour,0.4
10,20,1,1,5,14,214,705.9188763409475,706.6641755892488,"[20, 0, 234]",234,a,0.22196464678563643,colour,0.4
10,20,1,1,5,15,215,708.6847776856157,709.4641328175494,"[95, 0, 159]",159,l,0.2560859088989673,colour,0.4
10,20,1,1,5,16,216,711.4817479841004,712.4641426637099,"[74, 0, 180]",180,l,0.4590021827025339,colour,0.4
10,20,1,1,5,17,217,714.483329670562,715.4481749559491,"[4, 0, 250]",250,a,0.44152761925943196,colour,0.4
10,20,1,1,5,18,218,717.467938947535,718.5361456317332,"[9, 0, 245]",245,a,0.5449622734740842,colour,0.4
10,20,1,1,5,19,219,720.5462466060271,721.3681836048054,"[66, 0, 188]",188,l,0.2986654126580106,colour,0.4
10,20,1,1,5,20,220,723.3746021168336,724.1201443682658,"[98, 0, 156]",156,l,0.22212494220002554,colour,0.4
10,20,1,1,5,21,221,726.14042902457,726.976162062987,"[3, 0, 251]",251,a,0.312320061493665,colour,0.4
10,20,1,1,5,22,222,728.9855706556118,729.736171074197,"[83, 0, 171]",171,l,0.22728550937608816,colour,0.4
10,20,1,1,5,23,223,731.7514243448968,732.6001602166361,"[84, 0, 170]",170,l,0.32539457484381273,colour,0.4
10,20,1,1,5,24,224,734.6110327357019,735.5362047086674,"[7, 0, 247]",247,a,0.40185430682322476,colour,0.4
10,20,1,1,5,25,225,737.5486723049689,738.3281396830716,"[19, 0, 235]",235,a,0.2560670042730635,colour,0.4
10,20,1,1,5,26,226,740.3457981727115,741.2241816072201,"[75, 0, 179]",179,l,0.35494485759409145,colour,0.4
10,20,1,1,5,27,227,743.2249515766016,744.0801941819373,"[31, 0, 223]",223,a,0.3319690499774879,colour,0.4
10,20,1,1,5,28,228,746.0908122763358,746.8722161963669,"[54, 0, 200]",200,a,0.2630782548803836,colour,0.4
10,20,1,1,5,29,229,748.8828709184745,749.6882376247522,"[50, 0, 204]",204,a,0.27530087882769294,colour,0.4
10,20,1,1,5,30,230,751.7024885567953,752.5121922977851,"[70, 0, 184]",184,l,0.2862856440769974,colour,0.4
10,20,1,1,5,31,231,754.5245165340602,755.392166083373,"[32, 0, 222]",222,a,0.3443480308778817,colour,0.4
10,20,1,1,5,32,232,757.407177138637,758.1761630869878,"[78, 0, 176]",176,l,0.24562259604863357,colour,0.4
10,20,1,1,5,33,233,760.1888181540999,760.9363162459194,"[99, 0, 155]",155,l,0.22437577342498116,colour,0.4
10,20,1,1,5,34,234,762.9546430925984,763.7041738248226,"[44, 0, 210]",210,a,0.22630443841626402,colour,0.4
10,20,1,1,5,35,235,765.7204314034025,766.3761420556111,"[77, 0, 177]",177,l,0.13237447530264035,colour,0.4
10,20,1,1,5,36,236,768.3925260588294,769.0640811449266,"[22, 0, 232]",232,a,0.14826065688976087,colour,0.4
10,20,1,1,5,37,237,771.0802721634973,771.816178179186,"[51, 0, 203]",203,a,0.21263049110712018,colour,0.4
10,20,1,1,5,38,238,773.8305019727704,774.5042007638986,"[60, 0, 194]",194,a,0.15037206653505564,colour,0.4
10,20,1,1,5,39,239,776.5181590681896,777.2001561994111,"[47, 0, 207]",207,a,0.15858809277415276,colour,0.4
10,20,1,1,5,40,240,779.2236128932564,779.976191601454,"[62, 0, 192]",192,a,0.22918069742445368,colour,0.4
10,20,1,1,5,41,241,781.9895567733183,782.6321925183292,"[97, 0, 157]",157,l,0.11795418937981594,colour,0.4
10,20,1,1,5,42,242,784.6473622936319,785.2881528690486,"[89, 0, 165]",165,l,0.11747566620761063,colour,0.4
10,20,1,1,5,43,243,787.303774385975,788.0241998816782,"[76, 0, 178]",178,l,0.19703575571475085,colour,0.4
10,20,1,1,5,44,244,790.0397512939817,790.6881564924261,"[85, 0, 169]",169,l,0.12520844311802648,colour,0.4
10,20,1,1,5,45,245,792.6868792491005,793.4161513188737,"[80, 0, 174]",174,l,0.2059638559439918,colour,0.4
10,20,1,1,5,46,246,795.4371299322374,796.3201524815086,"[64, 0, 190]",190,l,0.3596745569811901,colour,0.4
10,20,1,1,5,47,247,798.3279522122757,799.0801792157872,"[90, 0, 164]",164,l,0.22887152814655565,colour,0.4
10,20,1,1,5,48,248,801.0938460738544,801.9441632382368,"[61, 0, 193]",193,a,0.3269490859238431,colour,0.4
10,20,1,1,5,49,249,803.9534599785256,804.7361809203576,"[53, 0, 201]",201,a,0.2594450234028045,colour,0.4
10,20,1,1,5,50,250,806.7510096248152,807.512165122389,"[25, 0, 229]",229,a,0.2378331052896101,colour,0.4
10,20,1,1,6,1,251,814.8445445601537,815.6802118262567,"[90, 0, 164]",164,l,0.31959125063440297,colour,0.28
10,20,1,1,6,2,252,817.6905987329083,818.7281752080016,"[0, 0, 254]",254,a,0.5142513258761028,colour,0.28
10,20,1,1,6,3,253,820.7377125883504,821.544226174854,"[68, 0, 186]",186,l,0.28298048648866825,colour,0.28
10,20,1,1,6,4,254,823.5503989268473,824.2802030828607,"[85, 0, 169]",169,l,0.20648333911958616,colour,0.28
10,20,1,1,6,5,255,826.3006866315118,827.8001718744927,"[61, 0, 193]",193,a,0.9764858045964502,colour,0.28
10,20,1,1,6,6,256,829.8189500689623,830.5842098381108,"[76, 0, 178]",178,l,0.24190823224489577,colour,0.28
10,20,1,1,6,7,257,832.6003256320546,833.4962324669468,"[51, 0, 203]",203,a,0.37247062103415374,colour,0.28
10,20,1,1,6,8,258,835.5068655274954,836.2962310490984,"[89, 0, 165]",165,l,0.26604194777610246,colour,0.28
10,20,1,1,6,9,259,838.305117007767,839.1121705574624,"[36, 0, 218]",218,a,0.2839001174434088,colour,0.28
10,20,1,1,6,10,260,841.1332582662435,841.9361847012769,"[70, 0, 184]",184,l,0.27947840580600314,colour,0.28
10,20,1,1,6,11,261,843.9461005678459,844.7122563371813,"[22, 0, 232]",232,a,0.2428833955200389,colour,0.28
10,20,1,1,6,12,262,846.727504487877,847.5361802902044,"[78, 0, 176]",176,l,0.2852553423290374,colour,0.28
10,20,1,1,6,13,263,849.5571829281835,850.4161981865764,"[5, 0, 249]",249,a,0.3355963737849379,colour,0.28
10,20,1,1,6,14,264,852.4324207128375,853.3281597692403,"[91, 0, 163]",163,l,0.37230953793914523,colour,0.28
10,20,1,1,6,15,265,855.3401449039084,856.0881802019721,"[81, 0, 173]",173,l,0.22465776730678044,colour,0.28
10,20,1,1,6,16,266,858.105945817777,859.4481718051684,"[9, 0, 245]",245,a,0.8190020566544263,colour,0.28
10,20,1,1,6,17,267,861.4655943809194,862.0881585404277,"[86, 0, 168]",168,l,0.09922877029748634,colour,0.28
10,20,1,1,6,18,268,864.1089106922154,864.8563304086274,"[13, 0, 241]",241,a,0.22443012420262676,colour,0.28
10,20,1,1,6,19,269,866.8747679260996,867.7282220757043,"[52, 0, 202]",202,a,0.33023691426205914,colour,0.28
10,20,1,1,6,20,270,869.7499769599963,870.4002485957317,"[99, 0, 155]",155,l,0.12686456651135813,colour,0.28
10,20,1,1,6,21,271,872.42197591078,873.2963306922029,"[83, 0, 171]",171,a,0.3496421119343722,colour,0.28
10,20,1,1,6,22,272,875.3141419941676,876.120189266745,"[84, 0, 170]",170,l,0.28264611105259974,colour,0.28
10,20,1,1,6,23,273,878.1291079146467,878.792169706765,"[63, 0, 191]",191,a,0.1395932828745572,colour,0.28
10,20,1,1,6,24,274,880.8012301393173,881.5124412086006,"[67, 0, 187]",187,a,0.18783314467873424,colour,0.28
10,20,1,1,6,25,275,883.5201846193522,884.2722091859032,"[4, 0, 250]",250,a,0.2286001680913614,colour,0.28
10,20,1,1,6,26,276,886.2875301981549,886.960261702945,"[53, 0, 201]",201,a,0.14939729712205008,colour,0.28
10,20,1,1,6,27,277,888.9752341612766,889.6242198890686,"[97, 0, 157]",157,l,0.12559244318981655,colour,0.28
10,20,1,1,6,28,278,891.6316978474642,892.224169004141,"[41, 0, 213]",213,a,0.06911331822630018,colour,0.28
10,20,1,1,6,29,279,894.2412721705914,895.0962166343234,"[56, 0, 198]",198,a,0.33168390531500336,colour,0.28
10,20,1,1,6,30,280,897.1165410691028,897.7521821050468,"[64, 0, 190]",190,a,0.11238559751654975,colour,0.28
10,20,1,1,6,31,281,899.7728940844972,900.3442428739363,"[44, 0, 210]",210,a,0.04805239099368919,colour,0.28
10,20,1,1,6,32,282,902.351175355303,902.984236698423,"[57, 0, 197]",197,a,0.10998274164739996,colour,0.28
10,20,1,1,6,33,283,904.9921923923102,905.5682271641999,"[65, 0, 189]",189,a,0.05142410859116353,colour,0.28
10,20,1,1,6,34,284,907.5875453218468,908.512201750098,"[98, 0, 156]",156,l,0.4139977676823037,colour,0.28
10,20,1,1,6,35,285,910.5250824910909,911.1602016807738,"[66, 0, 188]",188,a,0.11188698819023557,colour,0.28
10,20,1,1,6,36,286,913.1634107398713,913.7202462956775,"[20, 0, 234]",234,a,0.03414134826743975,colour,0.28
10,20,1,1,6,37,287,915.7417148537497,916.368221020195,"[93, 0, 161]",161,l,0.1030073310539592,colour,0.28
10,20,1,1,6,38,288,918.3825747461087,918.9841756522655,"[95, 0, 159]",159,l,0.07814263692125678,colour,0.28
10,20,1,1,6,39,289,920.9795475651918,921.5602454764739,"[23, 0, 231]",231,a,0.05730738359852694,colour,0.28
10,20,1,1,6,40,290,923.5735125806241,924.1602493361715,"[88, 0, 166]",166,l,0.0633454401686322,colour,0.28
10,20,1,1,6,41,291,926.1674531775934,926.7281854480098,"[46, 0, 208]",208,a,0.037327564277802594,colour,0.28
10,20,1,1,6,42,292,928.7457706822461,929.5442553194735,"[60, 0, 194]",194,l,0.27503975876607,colour,0.28
10,20,1,1,6,43,293,931.558518460748,932.5602230272343,"[69, 0, 185]",185,l,0.4784526726725744,colour,0.28
10,20,1,1,6,44,294,934.5758118549275,935.4722149360605,"[55, 0, 199]",199,a,0.3672765769442776,colour,0.28
10,20,1,1,6,45,295,937.4783786295884,938.0481945694919,"[74, 0, 180]",180,l,0.04221283293736633,colour,0.28
10,20,1,1,6,46,296,940.0672878409387,944.5361661117349,"[54, 0, 200]",200,a,3.945566118520219,colour,0.28
10,20,1,1,6,47,297,946.5521964410436,947.4081727819139,"[92, 0, 162]",162,l,0.3326078685786342,colour,0.28
10,20,1,1,6,48,298,949.42744289033,949.9681882521982,"[38, 0, 216]",216,a,0.017409578824299388,colour,0.28
10,20,1,1,6,49,299,951.9757304075174,952.7042407786794,"[48, 0, 206]",206,a,0.20506667422887404,colour,0.28
10,20,1,1,6,50,300,954.7102993152512,955.6161692782625,"[87, 0, 167]",167,l,0.38289533695206046,colour,0.28
10,20,1,1,7,1,301,962.7111157584877,963.3601814370777,"[92, 0, 162]",162,l,0.12485279997054022,colour,0.14
10,20,1,1,7,2,302,965.3570034918375,966.0881935927464,"[65, 0, 189]",189,a,0.2078594378544949,colour,0.14
10,20,1,1,7,3,303,968.1072266057308,968.7361785572721,"[99, 0, 155]",155,l,0.10560041463759262,colour,0.14
10,20,1,1,7,4,304,970.7503467815986,971.376202707921,"[34, 0, 220]",220,a,0.10248075863637496,colour,0.14
10,20,1,1,7,5,305,973.3912759908999,974.3041906814324,"[69, 0, 185]",185,l,0.3896214428823441,colour,0.14
10,20,1,1,7,6,306,976.3146697481134,976.848261287043,"[63, 0, 191]",191,a,0.010205737402429804,colour,0.14
10,20,1,1,7,7,307,978.861739886619,979.8482419885695,"[86, 0, 168]",168,l,0.4632281527592568,colour,0.14
10,20,1,1,7,8,308,981.8619694989611,982.552271271823,"[97, 0, 157]",157,l,0.1668891897861613,colour,0.14
10,20,1,1,7,9,309,984.5665608007985,985.1682495346613,"[96, 0, 158]",158,l,0.07824385540152434,colour,0.14
10,20,1,1,7,10,310,987.1761768716096,987.8001872344903,"[94, 0, 160]",160,l,0.1005788751936052,colour,0.14
10,20,1,1,7,11,311,989.8169879270281,990.7282421618584,"[44, 0, 210]",210,a,0.38780147943180054,colour,0.14
10,20,1,1,7,12,312,992.7412638998067,993.760252408174,"[53, 0, 201]",201,a,0.49572046686080284,colour,0.14
10,20,1,1,7,13,313,995.7726814075431,1000.3923669449578,"[54, 0, 200]",200,a,4.096586062107235,colour,0.14
10,20,1,1,7,14,314,1002.3933271420683,1003.0561971310672,"[7, 0, 247]",247,a,0.13941605207219254,colour,0.14
10,20,1,1,7,15,315,1005.0657345114014,1005.6722423477622,"[79, 0, 175]",175,l,0.083140939445002,colour,0.14
10,20,1,1,7,16,316,1007.6909067206725,1008.240539222752,"[77, 0, 177]",177,l,0.02634870672773104,colour,0.14
10,20,1,1,7,17,317,1010.2536125545594,1011.1281827698549,"[57, 0, 197]",197,a,0.351236007627449,colour,0.14
10,20,1,1,7,18,318,1013.1444482253573,1013.8882134425949,"[20, 0, 234]",234,a,0.22038611109019257,colour,0.14
10,20,1,1,7,19,319,1015.8946796100208,1016.5922450889339,"[59, 0, 195]",195,a,0.17418243430438451,colour,0.14
10,20,1,1,7,20,320,1018.6136140039016,1020.3202395215194,"[58, 0, 196]",196,a,1.1833531438023783,colour,0.14
10,20,1,1,7,21,321,1022.3326346501126,1023.0242144539952,"[84, 0, 170]",170,l,0.16814359003910795,colour,0.14
10,20,1,1,7,22,322,1025.0360495332425,1025.8002356775833,"[85, 0, 169]",169,l,0.2385463608225109,colour,0.14
10,20,1,1,7,23,323,1027.8199535891617,1028.5282301101688,"[71, 0, 183]",183,l,0.1849919379601488,colour,0.14
10,20,1,1,7,24,324,1030.5389403645822,1031.2001837686403,"[74, 0, 180]",180,l,0.13806043333897833,colour,0.14
10,20,1,1,7,25,325,1033.212127943305,1033.9041874519025,"[88, 0, 166]",166,l,0.16892379942873958,colour,0.14
10,20,1,1,7,26,326,1035.9152710725466,1036.4482163098,"[83, 0, 171]",171,l,0.009579915727954358,colour,0.14
10,20,1,1,7,27,327,1038.462981211167,1039.328217270784,"[64, 0, 190]",190,a,0.34250443667406216,colour,0.14
10,20,1,1,7,28,328,1041.3375758449401,1041.880258930265,"[76, 0, 178]",178,a,0.0193618745834101,colour,0.14
10,20,1,1,7,29,329,1043.9025210884865,1044.5442868271784,"[80, 0, 174]",174,l,0.11840632485109381,colour,0.14
10,20,1,1,7,30,330,1046.5589776854613,1049.1682597746694,"[95, 0, 159]",159,l,2.0858565092203207,colour,0.14
10,20,1,1,7,31,331,1051.1858300427411,1051.7202380249073,"[48, 0, 206]",206,a,0.011175780658959411,colour,0.14
10,20,1,1,7,32,332,1053.7327922673721,1054.376251151014,"[62, 0, 192]",192,a,0.12005535903153941,colour,0.14
10,20,1,1,7,33,333,1056.3892772212712,1056.928292810495,"[50, 0, 204]",204,a,0.015935806222842075,colour,0.14
10,20,1,1,7,34,334,1058.9362784366822,1059.5202137639717,"[68, 0, 186]",186,a,0.060509747301694006,colour,0.14
10,20,1,1,7,35,335,1061.5187848898495,1062.2162365471886,"[12, 0, 242]",242,a,0.1741091789008351,colour,0.14
10,20,1,1,7,36,336,1064.238485708498,1064.928264453556,"[67, 0, 187]",187,l,0.16645989738753997,colour,0.14
10,20,1,1,7,37,337,1066.9471300818986,1067.5602407503175,"[81, 0, 173]",173,l,0.09417769238643814,colour,0.14
10,20,1,1,7,38,338,1069.568195262662,1070.200270414818,"[60, 0, 194]",194,a,0.10871573832991999,colour,0.14
10,20,1,1,7,39,339,1072.2089740226802,1072.9282416104834,"[14, 0, 240]",240,a,0.19593298627296463,colour,0.14
10,20,1,1,7,40,340,1074.9435834965843,1075.4802111961035,"[75, 0, 179]",179,l,0.013269467235659249,colour,0.14
10,20,1,1,7,41,341,1077.4907064104773,1078.0322697909724,"[61, 0, 193]",193,l,0.01827131437312346,colour,0.14
10,20,1,1,7,42,342,1080.0533283551194,1082.8482270224195,"[78, 0, 176]",176,l,2.27149908116553,colour,0.14
10,20,1,1,7,43,343,1084.8674199369707,1085.448248211338,"[82, 0, 172]",172,l,0.05863188845978584,colour,0.14
10,20,1,1,7,44,344,1087.4604385398998,1088.1682589869743,"[55, 0, 199]",199,a,0.1842960116773611,colour,0.14
10,20,1,1,7,45,345,1090.1794646999479,1090.8002478868148,"[87, 0, 167]",167,l,0.09802123776171356,colour,0.14
10,20,1,1,7,46,346,1092.8219850480236,1093.5442446856323,"[56, 0, 198]",198,a,0.19925035307824146,colour,0.14
10,20,1,1,7,47,347,1095.5565047249693,1096.192239890166,"[51, 0, 203]",203,a,0.11252265601069666,colour,0.14
10,20,1,1,7,48,348,1098.2130196111684,1098.8802435702528,"[91, 0, 163]",163,l,0.1444734315155074,colour,0.14
10,20,1,1,7,49,349,1100.9032394640235,1102.640408938416,"[72, 0, 182]",182,a,1.2138644113438204,colour,0.14
10,20,1,1,7,50,350,1104.6536079071666,1105.2722233643726,"[90, 0, 164]",164,l,0.0952422587579349,colour,0.14
10,20,1,1,8,1,351,1112.724130013361,1113.3442113662459,"[79, 0, 175]",175,l,0.09588462195824832,colour,0.06
10,20,1,1,8,2,352,1115.3657598751015,1117.0002772677399,"[82, 0, 172]",172,l,1.1111099295667373,colour,0.06
10,20,1,1,8,3,353,1119.0066709674575,1119.5922183073853,"[99, 0, 155]",155,a,0.06237972920644097,colour,0.06
10,20,1,1,8,4,354,1121.6031471464667,1122.2402501396136,"[89, 0, 165]",165,l,0.11380108086450491,colour,0.06
10,20,1,1,8,5,355,1124.2589011217497,1124.952246144443,"[74, 0, 180]",180,l,0.16996158423717134,colour,0.06
10,20,1,1,8,6,356,1126.9621490140853,1127.6722474677663,"[90, 0, 164]",164,l,0.1849935133504914,colour,0.06
10,20,1,1,8,7,357,1129.6725160708884,1130.2562399027665,"[57, 0, 197]",197,a,0.06053613500262145,colour,0.06
10,20,1,1,8,8,358,1132.2664405201504,1132.880241994877,"[69, 0, 185]",185,a,0.09037943933799397,colour,0.06
10,20,1,1,8,9,359,1134.8933893697686,1135.9042425903754,"[66, 0, 188]",188,a,0.4876115668012062,colour,0.06
10,20,1,1,8,10,360,1137.924828539035,1139.1682924639026,"[86, 0, 168]",168,l,0.720069458722719,colour,0.06
10,20,1,1,8,11,361,1141.1750800098525,1141.8562925993901,"[65, 0, 189]",189,a,0.15779528030543588,colour,0.06
10,20,1,1,8,12,362,1143.8626914191118,1144.5522905702965,"[76, 0, 178]",178,a,0.16600973115419038,colour,0.06
10,20,1,1,8,13,363,1146.5661425361031,1147.2162499379629,"[53, 0, 201]",201,a,0.12665385878062807,colour,0.06
10,20,1,1,8,14,364,1149.222636548453,1150.368215900191,"[94, 0, 160]",160,l,0.6227614764793543,colour,0.06
10,20,1,1,8,15,365,1152.3791467085102,1153.0323103571282,"[62, 0, 192]",192,a,0.1297841486375546,colour,0.06
10,20,1,1,8,16,366,1155.0512263977726,1155.6482185153436,"[67, 0, 187]",187,a,0.07365594066504855,colour,0.06
10,20,1,1,8,17,367,1157.6607802408835,1158.9042087195994,"[18, 0, 236]",236,a,0.7199489417835139,colour,0.06
10,20,1,1,8,18,368,1160.9109876009315,1161.512267522412,"[60, 0, 194]",194,a,0.07773776300018653,colour,0.06
10,20,1,1,8,19,369,1163.5206068225089,1164.8082177591568,"[87, 0, 167]",167,l,0.7641699966479791,colour,0.06
10,20,1,1,8,20,370,1166.8178138225776,1169.3202446415235,"[91, 0, 163]",163,l,1.9790816451131832,colour,0.06
10,20,1,1,8,21,371,1171.3350308105873,1171.9922286261572,"[98, 0, 156]",156,l,0.1338927525212057,colour,0.06
10,20,1,1,8,22,372,1174.0071061675553,1174.9763026660949,"[75, 0, 179]",179,l,0.4457854908541776,colour,0.06
10,20,1,1,8,23,373,1176.9917099306767,1177.648246872268,"[80, 0, 174]",174,l,0.13310348468075972,colour,0.06
10,20,1,1,8,24,374,1179.663762838405,1180.2402914934646,"[88, 0, 166]",166,l,0.0531637273816159,colour,0.06
10,20,1,1,8,25,375,1182.2594477803214,1182.7843168067484,"[78, 0, 176]",176,l,0.0013095387112116441,colour,0.06
10,20,1,1,8,26,376,1184.8054821032274,1185.5442309010105,"[84, 0, 170]",170,l,0.21546697165467776,colour,0.06
10,20,1,1,8,27,377,1187.5556681955786,1188.2163042887405,"[63, 0, 191]",191,a,0.13771503018506337,colour,0.06
10,20,1,1,8,28,378,1190.227755367916,1190.9922632846283,"[85, 0, 169]",169,l,0.24107524748251308,colour,0.06
10,20,1,1,8,29,379,1193.0039664253854,1193.6962496386404,"[59, 0, 195]",195,a,0.16685138054890558,colour,0.06
10,20,1,1,8,30,380,1195.709523832018,1196.9922841584776,"[73, 0, 181]",181,l,0.7593532572209369,colour,0.06
10,20,1,1,8,31,381,1199.006573293591,1199.6962925678818,"[70, 0, 184]",184,a,0.16486442631867249,colour,0.06
10,20,1,1,8,32,382,1201.7114253216278,1202.4483065005916,"[47, 0, 207]",207,a,0.21373759287234861,colour,0.06
10,20,1,1,8,33,383,1204.4620950571407,1207.8323278439057,"[13, 0, 241]",241,a,2.8472388622321887,colour,0.06
10,20,1,1,8,34,384,1209.8532410787884,1211.088245580453,"[95, 0, 159]",159,l,0.7121039186895359,colour,0.06
10,20,1,1,8,35,385,1213.1047434052307,1213.7842490651965,"[68, 0, 186]",186,a,0.1561107999732485,colour,0.06
10,20,1,1,8,36,386,1215.7924627283646,1216.7283323526499,"[83, 0, 171]",171,l,0.4124408935313113,colour,0.06
10,20,1,1,8,37,387,1218.7457194822346,1219.7842971144419,"[58, 0, 196]",196,a,0.514996876794612,colour,0.06
10,20,1,1,8,38,388,1221.7929585807578,1226.4962816977204,"[64, 0, 190]",190,a,4.179960158508038,colour,0.06
10,20,1,1,8,39,389,1228.513624716521,1229.0962867389608,"[96, 0, 158]",158,l,0.05861613462911919,colour,0.06
10,20,1,1,8,40,390,1231.1075578304008,1231.7842856929055,"[54, 0, 200]",200,l,0.15337041790189687,colour,0.06
10,20,1,1,8,41,391,1233.7953496212285,1238.720303009526,"[77, 0, 177]",177,l,4.4017164606339065,colour,0.06
10,20,1,1,8,42,392,1240.7226184315223,1241.4402291082224,"[92, 0, 162]",162,l,0.19441037674550898,colour,0.06
10,20,1,1,8,43,393,1243.457097542312,1244.0163083847438,"[52, 0, 202]",202,a,0.03596879477845505,colour,0.06
10,20,1,1,8,44,394,1246.0368714903307,1246.8562851163151,"[72, 0, 182]",182,a,0.29610619985032827,colour,0.06
10,20,1,1,8,45,395,1248.865240785759,1249.528296670178,"[55, 0, 199]",199,a,0.13961139979073778,colour,0.06
10,20,1,1,8,46,396,1251.537326382735,1252.2242410780018,"[97, 0, 157]",157,l,0.16351432143710554,colour,0.06
10,20,1,1,8,47,397,1254.2406455612363,1254.8482727085793,"[61, 0, 193]",193,a,0.08408341348695103,colour,0.06
10,20,1,1,8,48,398,1256.8674648354354,1257.4162927096622,"[81, 0, 173]",173,l,0.026051352819195017,colour,0.06
10,20,1,1,8,49,399,1259.433507334601,1260.0962568066461,"[71, 0, 183]",183,a,0.13934988591063302,colour,0.06
10,20,1,1,8,50,400,1262.106737448703,1262.872250854838,"[93, 0, 161]",161,l,0.24234815849922597,colour,0.06
10,20,1,1,9,1,401,1270.2807804614422,1270.960258946012,"[68, 0, 186]",186,a,0.15524788288166746,colour,0.06
10,20,1,1,9,2,402,1272.9692705416383,1273.536259059445,"[67, 0, 187]",187,a,0.043610199354588985,colour,0.06
10,20,1,1,9,3,403,1275.5476404278452,1276.2002266978816,"[80, 0, 174]",174,l,0.12918668390193488,colour,0.06
10,20,1,1,9,4,404,1278.2196964863397,1278.832253800807,"[6, 0, 248]",248,a,0.0892408298823284,colour,0.06
10,20,1,1,9,5,405,1280.8449754279281,1284.0403219771688,"[93, 0, 161]",161,l,2.6720911108131986,colour,0.06
10,20,1,1,9,6,406,1286.0496486497723,1286.7122815433395,"[54, 0, 200]",200,a,0.1392388212698279,colour,0.06
10,20,1,1,9,7,407,1288.7217196744314,1290.3283637815766,"[70, 0, 184]",184,a,1.083219314838061,colour,0.06
10,20,1,1,9,8,408,1292.3491911579913,1295.736305375758,"[76, 0, 178]",178,l,2.8638414501037914,colour,0.06
10,20,1,1,9,9,409,1297.7558755950013,1298.4402720374637,"[69, 0, 185]",185,l,0.16106499171291944,colour,0.06
10,20,1,1,9,10,410,1300.459190047346,1301.0002863262052,"[86, 0, 168]",168,a,0.01811968356196303,colour,0.06
10,20,1,1,9,11,411,1303.0076985122869,1303.6404861322808,"[61, 0, 193]",193,a,0.10944947386451531,colour,0.06
10,20,1,1,9,12,412,1305.6476872167696,1306.2402946442453,"[64, 0, 190]",190,a,0.06926691826083697,colour,0.06
10,20,1,1,9,13,413,1308.2593375033757,1308.888255584141,"[58, 0, 196]",196,a,0.10557914694072679,colour,0.06
10,20,1,1,9,14,414,1310.8990477585758,1311.5042972562223,"[65, 0, 189]",189,a,0.08184203457494732,colour,0.06
10,20,1,1,9,15,415,1313.5263774574996,1314.0962887081841,"[81, 0, 173]",173,l,0.04651363377342932,colour,0.06
10,20,1,1,9,16,416,1316.1047792452446,1316.6802630262682,"[87, 0, 167]",167,l,0.05217517336132005,colour,0.06
10,20,1,1,9,17,417,1318.6986706114258,1319.6962516078784,"[92, 0, 162]",162,l,0.474590222700499,colour,0.06
10,20,1,1,9,18,418,1321.7189107630984,1322.4002631680487,"[72, 0, 182]",182,a,0.15796896649408154,colour,0.06
10,20,1,1,9,19,419,1324.406694283156,1325.3522781247448,"[9, 0, 245]",245,a,0.42254344320099335,colour,0.06
10,20,1,1,9,20,420,1327.3613484034577,1328.048295000277,"[97, 0, 157]",157,l,0.1641173000098206,colour,0.06
10,20,1,1,9,21,421,1330.0646916065743,1330.792284709867,"[78, 0, 176]",176,l,0.20419391099130735,colour,0.06
10,20,1,1,9,22,422,1332.799269178926,1333.3762523325568,"[98, 0, 156]",156,l,0.053613499796483666,colour,0.06
10,20,1,1,9,23,423,1335.3954369763233,1335.9203635043086,"[51, 0, 203]",203,a,0.0016695141675882041,colour,0.06
10,20,1,1,9,24,424,1337.9424015640398,1338.8243107100134,"[79, 0, 175]",175,l,0.3585733629151946,colour,0.06
10,20,1,1,9,25,425,1340.8333605087246,1341.4482718421204,"[50, 0, 204]",204,a,0.0916279318917077,colour,0.06
10,20,1,1,9,26,426,1343.4591057642538,1344.0323591940542,"[90, 0, 164]",164,a,0.05013465601950884,colour,0.06
10,20,1,1,9,27,427,1346.0530357273674,1346.9283404658781,"[56, 0, 198]",198,a,0.35190200159559026,colour,0.06
10,20,1,1,9,28,428,1348.943889515096,1349.5282962763304,"[59, 0, 195]",195,a,0.060931162763154134,colour,0.06
10,20,1,1,9,29,429,1351.5378663459123,1352.160263908474,"[84, 0, 170]",170,l,0.09904878257657401,colour,0.06
10,20,1,1,9,30,430,1354.1787112721067,1354.7922740760114,"[43, 0, 211]",211,a,0.09050310705788434,colour,0.06
10,20,1,1,9,31,431,1356.8039208967675,1357.3283519661927,"[73, 0, 181]",181,l,0.0011000125232385471,colour,0.06
10,20,1,1,9,32,432,1359.3509465306415,1359.984292624591,"[74, 0, 180]",180,l,0.10992405856086407,colour,0.06
10,20,1,1,9,33,433,1361.993341635607,1366.3123389661196,"[52, 0, 202]",202,a,3.7956320089870133,colour,0.06
10,20,1,1,9,34,434,1368.3215222786966,1369.152318848457,"[53, 0, 201]",201,a,0.3073828051565215,colour,0.06
10,20,1,1,9,35,435,1371.165487097198,1371.9123069858033,"[60, 0, 194]",194,a,0.22339706553611904,colour,0.06
10,20,1,1,9,36,436,1373.9313376357022,1374.5762785627157,"[75, 0, 179]",179,l,0.12154094701691065,colour,0.06
10,20,1,1,9,37,437,1376.5901324977458,1377.1762702131673,"[89, 0, 165]",165,l,0.06314103397016879,colour,0.06
10,20,1,1,9,38,438,1379.1839651808405,1379.784264031361,"[77, 0, 177]",177,l,0.07739354140358046,colour,0.06
10,20,1,1,9,39,439,1381.7935497439612,1382.512294697808,"[85, 0, 169]",169,l,0.19525872153462842,colour,0.06
10,20,1,1,9,40,440,1384.5187612590817,1385.1122674436483,"[83, 0, 171]",171,l,0.07050517080642749,colour,0.06
10,20,1,1,9,41,441,1387.1289263515355,1387.7763138513255,"[95, 0, 159]",159,l,0.1240517167316284,colour,0.06
10,20,1,1,9,42,442,1389.7853959454224,1390.8242882607738,"[55, 0, 199]",199,a,0.5154832768894266,colour,0.06
10,20,1,1,9,43,443,1392.8324818377732,1393.5123006054928,"[82, 0, 172]",172,l,0.15654757544689346,colour,0.06
10,20,1,1,9,44,444,1395.5202468470525,1396.2963614121982,"[57, 0, 197]",197,a,0.25276854207913857,colour,0.06
10,20,1,1,9,45,445,1398.3194022044336,1399.0243062201625,"[99, 0, 155]",155,l,0.1815568111342145,colour,0.06
10,20,1,1,9,46,446,1401.0385287952813,1402.0724645558075,"[94, 0, 160]",160,l,0.5107878421258647,colour,0.06
10,20,1,1,9,47,447,1404.0855390691431,1404.8802967395022,"[71, 0, 183]",183,l,0.27149159807595424,colour,0.06
10,20,1,1,9,48,448,1406.899774798716,1407.4803116268886,"[91, 0, 163]",163,l,0.057528725170413963,colour,0.06
10,20,1,1,9,49,449,1409.4930060786137,1410.448311620581,"[62, 0, 192]",192,a,0.4318145834840834,colour,0.06
10,20,1,1,9,50,450,1412.4642415191047,1413.3522982109134,"[66, 0, 188]",188,a,0.36475635491660796,colour,0.06
10,20,1,1,10,1,451,1420.4327999867673,1422.4803080822749,"[68, 0, 186]",186,a,1.52330781998171,colour,0.06
10,20,1,1,10,2,452,1424.4976290456834,1425.3362907246774,"[56, 0, 198]",198,a,0.3150943143555196,colour,0.06
10,20,1,1,10,3,453,1427.3574461749959,1428.0002827815915,"[87, 0, 167]",167,l,0.11995650362223387,colour,0.06
10,20,1,1,10,4,454,1430.0151142429677,1430.8163211453648,"[51, 0, 203]",203,a,0.2777746270148782,colour,0.06
10,20,1,1,10,5,455,1432.8278320891695,1433.7282732757158,"[99, 0, 155]",155,l,0.3770538096287055,colour,0.06
10,20,1,1,10,6,456,1435.7342865199753,1436.52031695169,"[60, 0, 194]",194,a,0.26249851322791073,colour,0.06
10,20,1,1,10,7,457,1438.5314722523472,1439.6163260290632,"[71, 0, 183]",183,a,0.5615758890489815,colour,0.06
10,20,1,1,10,8,458,1441.6268472372758,1442.3123102153477,"[89, 0, 165]",165,l,0.16206733038416132,colour,0.06
10,20,1,1,10,9,459,1444.3301392403955,1444.9762640691624,"[94, 0, 160]",160,l,0.12251256566378288,colour,0.06
10,20,1,1,10,10,460,1446.9881479853502,1448.032296966354,"[82, 0, 172]",172,l,0.521112521077157,colour,0.06
10,20,1,1,10,11,461,1450.0383086352376,1451.0083152754814,"[64, 0, 190]",190,a,0.44705288803379517,colour,0.06
10,20,1,1,10,12,462,1453.0225406075042,1453.6403199291672,"[84, 0, 170]",170,l,0.09455617862113286,colour,0.06
10,20,1,1,10,13,463,1455.6476781583042,1456.4403169359284,"[72, 0, 182]",182,l,0.26936916072736494,colour,0.06
10,20,1,1,10,14,464,1458.4603837952745,1462.8723410456296,"[81, 0, 173]",173,l,3.8885576642060187,colour,0.06
10,20,1,1,10,15,465,1464.8836141063075,1465.728298481874,"[57, 0, 197]",197,a,0.32140648789936677,colour,0.06
10,20,1,1,10,16,466,1467.7431260047888,1468.664344549281,"[8, 0, 246]",246,a,0.39781659525760915,colour,0.06
10,20,1,1,10,17,467,1470.6688757501688,1471.6482878322713,"[40, 0, 214]",214,a,0.45611174519581255,colour,0.06
10,20,1,1,10,18,468,1473.6690533748188,1474.4643407683616,"[93, 0, 161]",161,l,0.2718791427760152,colour,0.06
10,20,1,1,10,19,469,1476.4844564646337,1477.2242615580035,"[78, 0, 176]",176,l,0.21645473800890613,colour,0.06
10,20,1,1,10,20,470,1479.2346720954374,1480.4963911869709,"[67, 0, 187]",187,a,0.7383281700022053,colour,0.06
10,20,1,1,10,21,471,1482.5176911788585,1483.352335626303,"[70, 0, 184]",184,a,0.3112007505114889,colour,0.06
10,20,1,1,10,22,472,1485.3645373764011,1486.7443103004189,"[79, 0, 175]",175,l,0.8569518979929853,colour,0.06
10,20,1,1,10,23,473,1488.7554329118284,1489.4004179496114,"[95, 0, 159]",159,l,0.12163665164553095,colour,0.06
10,20,1,1,10,24,474,1491.4132589121436,1492.2882639336894,"[75, 0, 179]",179,l,0.3515447830723133,colour,0.06
10,20,1,1,10,25,475,1494.304193832213,1496.7843420129066,"[83, 0, 171]",171,l,1.9567344160896027,colour,0.06
10,20,1,1,10,26,476,1498.7901063463505,1499.712329986418,"[53, 0, 201]",201,a,0.39923010938218795,colour,0.06
10,20,1,1,10,27,477,1501.727676992523,1502.7123819741246,"[54, 0, 200]",200,a,0.46133454007213004,colour,0.06
10,20,1,1,10,28,478,1504.7279353556514,1505.4963139931206,"[90, 0, 164]",164,l,0.24501134672027547,colour,0.06
10,20,1,1,10,29,479,1507.5094196203136,1508.3523049062933,"[50, 0, 204]",204,a,0.3196192137111211,colour,0.06
10,20,1,1,10,30,480,1510.3704895744886,1511.2883052875404,"[19, 0, 235]",235,a,0.3944251853681635,colour,0.06
10,20,1,1,10,31,481,1513.3073824112944,1514.4803092638176,"[85, 0, 169]",169,l,0.6497623925824882,colour,0.06
10,20,1,1,10,32,482,1516.4931372294086,1517.5603659934277,"[65, 0, 189]",189,a,0.5438772271008929,colour,0.06
10,20,1,1,10,33,483,1519.5738631037675,1520.5843260227557,"[61, 0, 193]",193,a,0.487335480589536,colour,0.06
10,20,1,1,10,34,484,1522.6053117253468,1523.2563064627757,"[76, 0, 178]",178,l,0.1276057851209771,colour,0.06
10,20,1,1,10,35,485,1525.2773823561583,1525.9443199890375,"[74, 0, 180]",180,l,0.14343722209741827,colour,0.06
10,20,1,1,10,36,486,1527.9508775287832,1528.488300403842,"[73, 0, 181]",181,l,0.014027227371116169,colour,0.06
10,20,1,1,10,37,487,1530.4979240365064,1531.1283005298756,"[63, 0, 191]",191,l,0.10708285185683053,colour,0.06
10,20,1,1,10,38,488,1533.141026095458,1533.704356175629,"[58, 0, 196]",196,l,0.039905287863803096,colour,0.06
10,20,1,1,10,39,489,1535.7194200062804,1536.53634452408,"[96, 0, 158]",158,a,0.29359503628802486,colour,0.06
10,20,1,1,10,40,490,1538.5476364893693,1540.1443158930342,"[52, 0, 202]",202,a,1.0732215282623656,colour,0.06
10,20,1,1,10,41,491,1542.158746025103,1543.3763689110347,"[62, 0, 192]",192,a,0.6943012813426321,colour,0.06
10,20,1,1,10,42,492,1545.3933235974546,1546.0563133156975,"[98, 0, 156]",156,l,0.13948300592892338,colour,0.06
10,20,1,1,10,43,493,1548.065483631348,1548.7203360926214,"[91, 0, 163]",163,l,0.13153637052164413,colour,0.06
10,20,1,1,10,44,494,1550.7374459544517,1551.792337879102,"[66, 0, 188]",188,a,0.5313997846387792,colour,0.06
10,20,1,1,10,45,495,1553.8002006252646,1554.8003061760537,"[55, 0, 199]",199,a,0.47670793387806043,colour,0.06
10,20,1,1,10,46,496,1556.8161183145567,1558.1363058483694,"[86, 0, 168]",168,l,0.7968690799898468,colour,0.06
10,20,1,1,10,47,497,1560.145868828724,1560.904345778079,"[80, 0, 174]",174,l,0.23510572014492936,colour,0.06
10,20,1,1,10,48,498,1562.9117977426213,1563.9443203828705,"[77, 0, 177]",177,l,0.5091872510383837,colour,0.06
10,20,1,1,10,49,499,1565.948464826768,1567.1523090022965,"[92, 0, 162]",162,l,0.6804371063044528,colour,0.06
10,20,1,1,10,50,500,1569.1632532013755,1569.9442876936373,"[59, 0, 195]",195,a,0.25756519533752,colour,0.06
10,20,1,1,11,1,501,1577.4767910354276,1578.7443457465706,"[70, 0, 184]",184,a,0.7433489217655733,colour,0.06
10,20,1,1,11,2,502,1580.750260529283,1583.840324103934,"[22, 0, 232]",232,a,2.5667183392943116,colour,0.06
10,20,1,1,11,3,503,1585.8600262616674,1587.0403578171681,"[97, 0, 157]",157,l,0.6569233047484886,colour,0.06
10,20,1,1,11,4,504,1589.0479043048108,1589.6323209122056,"[80, 0, 174]",174,l,0.06120449205627665,colour,0.06
10,20,1,1,11,5,505,1591.6417515602225,1593.328348421579,"[75, 0, 179]",179,l,1.1631417429016437,colour,0.06
10,20,1,1,11,6,506,1595.3465153666912,1596.4003021588287,"[58, 0, 196]",196,a,0.530423439835431,colour,0.06
10,20,1,1,11,7,507,1598.4092070221232,1599.0163591909077,"[50, 0, 204]",204,a,0.08375888418231625,colour,0.06
10,20,1,1,11,8,508,1601.0344674529333,1601.6722911846882,"[60, 0, 194]",194,a,0.11311027457122691,colour,0.06
10,20,1,1,11,9,509,1603.6923501671117,1607.904323722687,"[65, 0, 189]",189,a,3.6886078402167186,colour,0.06
10,20,1,1,11,10,510,1609.914033213834,1610.7843144436774,"[79, 0, 175]",175,l,0.3489103456377052,colour,0.06
10,20,1,1,11,11,511,1612.8028405765508,1614.4323769959155,"[84, 0, 170]",170,l,1.1187328233936569,colour,0.06
10,20,1,1,11,12,512,1616.445480260023,1617.448557774478,"[89, 0, 165]",165,l,0.47958891905727796,colour,0.06
10,20,1,1,11,13,513,1619.449261577698,1620.4803435284266,"[98, 0, 156]",156,l,0.5081632508372422,colour,0.06
10,20,1,1,11,14,514,1622.4962864238769,1623.400357691149,"[57, 0, 197]",197,a,0.3806153611076297,colour,0.06
10,20,1,1,11,15,515,1625.4208144582517,1626.2643342305091,"[94, 0, 160]",160,l,0.32018201997561846,colour,0.06
10,20,1,1,11,16,516,1628.2803956736752,1629.280329113666,"[67, 0, 187]",187,a,0.4765468507685,colour,0.06
10,20,1,1,11,17,517,1631.2851052869082,1632.4803632207477,"[77, 0, 177]",177,l,0.6719674430933082,colour,0.06
10,20,1,1,11,18,518,1634.4884618807992,1635.4963317161892,"[61, 0, 193]",193,a,0.48450648310245015,colour,0.06
10,20,1,1,11,19,519,1637.5043169485434,1638.4243114189303,"[85, 0, 169]",169,l,0.3966949211899191,colour,0.06
10,20,1,1,11,20,520,1640.4435271765688,1645.304449832256,"[95, 0, 159]",159,l,4.337573875702219,colour,0.06
10,20,1,1,11,21,521,1647.3207401000836,1648.2403218196268,"[55, 0, 199]",199,a,0.3962494811130455,colour,0.06
10,20,1,1,11,22,522,1650.2584336262662,1651.1043365620862,"[62, 0, 192]",192,a,0.3225061065895716,colour,0.06
10,20,1,1,11,23,523,1653.1180298078543,1654.08835979586,"[74, 0, 180]",180,l,0.4468811710830778,colour,0.06
10,20,1,1,11,24,524,1656.1027123402164,1657.2003027102037,"[56, 0, 198]",198,a,0.5742986976983957,colour,0.06
10,20,1,1,11,25,525,1659.212323291038,1660.8483317855134,"[12, 0, 242]",242,a,1.1126526252628537,colour,0.06
10,20,1,1,11,26,526,1662.8703781160148,1664.1124202559731,"[73, 0, 181]",181,l,0.71899110772938,colour,0.06
10,20,1,1,11,27,527,1666.1206362822122,1667.4082988127047,"[92, 0, 162]",162,l,0.7643169012735598,colour,0.06
10,20,1,1,11,28,528,1669.4191280086816,1670.2643243843486,"[59, 0, 195]",195,a,0.32184129413508344,colour,0.06
10,20,1,1,11,29,529,1672.2788281656685,1672.8083768730285,"[63, 0, 191]",191,a,0.006238918154849671,colour,0.06
10,20,1,1,11,30,530,1674.8258541933901,1675.6723380523908,"[91, 0, 163]",163,l,0.3231776144093601,colour,0.06
10,20,1,1,11,31,531,1677.6854361965088,1680.0323792802228,"[99, 0, 155]",155,l,1.8235541314061265,colour,0.06
10,20,1,1,11,32,532,1682.0464785814547,1682.888309541071,"[39, 0, 215]",215,a,0.3184746965562226,colour,0.06
10,20,1,1,11,33,533,1684.9060846091888,1685.9763660753379,"[90, 0, 164]",164,l,0.5470465077232802,colour,0.06
10,20,1,1,11,34,534,1687.9845502000244,1689.0323497417558,"[69, 0, 185]",185,a,0.5233759553811979,colour,0.06
10,20,1,1,11,35,535,1691.0486368588026,1691.9843371292227,"[82, 0, 172]",172,l,0.41242829045222607,colour,0.06
10,20,1,1,11,36,536,1694.0019948311528,1694.6323516322154,"[86, 0, 168]",168,l,0.1070529195421841,colour,0.06
10,20,1,1,11,37,537,1696.642785012722,1697.3603677263454,"[54, 0, 200]",200,a,0.19418391516956035,colour,0.06
10,20,1,1,11,38,538,1699.3774291450827,1700.1684031346958,"[76, 0, 178]",178,l,0.2675484096107539,colour,0.06
10,20,1,1,11,39,539,1702.1902600251487,1702.9043969780905,"[72, 0, 182]",182,l,0.1910847391700372,colour,0.06
10,20,1,1,11,40,540,1704.9261136592977,1705.7843605236849,"[83, 0, 171]",171,l,0.3349228967272211,colour,0.06
10,20,1,1,11,41,541,1707.7938506424834,1708.6963264386577,"[96, 0, 158]",158,l,0.38531709741801023,colour,0.06
10,20,1,1,11,42,542,1710.7098077951523,1711.464330922201,"[81, 0, 173]",173,l,0.24149745063914452,colour,0.06
10,20,1,1,11,43,543,1713.47777998331,1715.048387947987,"[87, 0, 167]",167,l,1.0472170431457926,colour,0.06
10,20,1,1,11,44,544,1717.0605400734494,1717.6804091432132,"[64, 0, 190]",190,l,0.09653368055296596,colour,0.06
10,20,1,1,11,45,545,1719.7013826365728,1720.5763455165725,"[53, 0, 201]",201,a,0.36289346223929897,colour,0.06
10,20,1,1,11,46,546,1722.5967963759758,1723.7524022650905,"[78, 0, 176]",176,l,0.6321933060389711,colour,0.06
10,20,1,1,11,47,547,1725.7691773576225,1726.4963632238941,"[68, 0, 186]",186,l,0.20432978792814538,colour,0.06
10,20,1,1,11,48,548,1728.5035481606901,1729.1843574516824,"[51, 0, 203]",203,a,0.15752825255913194,colour,0.06
10,20,1,1,11,49,549,1731.1912407022755,1731.8643357271212,"[93, 0, 161]",161,l,0.14995537721551955,colour,0.06
10,20,1,1,11,50,550,1733.879072271564,1734.6083683659526,"[66, 0, 188]",188,a,0.2063667606416857,colour,0.06
10,20,1,1,12,1,551,1743.2382864223036,1744.3203588569304,"[51, 0, 203]",203,a,0.5579158760228893,colour,0.06
10,20,1,1,12,2,552,1746.3331297148252,1747.3683706817683,"[72, 0, 182]",182,l,0.5119689869752619,colour,0.06
10,20,1,1,12,3,553,1749.3802018225542,1750.2323606119025,"[61, 0, 193]",193,a,0.3288891724514542,colour,0.06
10,20,1,1,12,4,554,1752.2408621766517,1753.200379510221,"[73, 0, 181]",181,l,0.4364355813304428,colour,0.06
10,20,1,1,12,5,555,1755.2098802628607,1755.800353437604,"[86, 0, 168]",168,l,0.0671330593759194,colour,0.06
10,20,1,1,12,6,556,1757.81940693059,1759.5603620549664,"[97, 0, 157]",157,l,1.2176815690327203,colour,0.06
10,20,1,1,12,7,557,1761.5697253552644,1762.2404013765627,"[78, 0, 176]",176,l,0.1472772228444228,colour,0.06
10,20,1,1,12,8,558,1764.2574395583797,1765.2803700736695,"[68, 0, 186]",186,a,0.49989878151973244,colour,0.06
10,20,1,1,12,9,559,1767.2889511953545,1767.9524131352373,"[60, 0, 194]",194,a,0.14073307385842782,colour,0.06
10,20,1,1,12,10,560,1769.9548439541832,1770.8643762932916,"[59, 0, 195]",195,a,0.38617410682491027,colour,0.06
10,20,1,1,12,11,561,1772.8735068304668,1773.840492276271,"[96, 0, 158]",158,l,0.44835021751350723,colour,0.06
10,20,1,1,12,12,562,1775.8442861970252,1776.8723453779385,"[92, 0, 162]",162,l,0.5046481732279062,colour,0.06
10,20,1,1,12,13,563,1778.891388237069,1780.3364147862449,"[12, 0, 242]",242,a,0.9218223107600352,colour,0.06
10,20,1,1,12,14,564,1782.3461376681516,1783.1924183024967,"[84, 0, 170]",170,l,0.3230527651467128,colour,0.06
10,20,1,1,12,15,565,1785.2056846189662,1786.4883815361682,"[67, 0, 187]",187,a,0.7592823649029015,colour,0.06
10,20,1,1,12,16,566,1788.5028786221083,1789.0644060680643,"[99, 0, 155]",155,l,0.038166456753970124,colour,0.06
10,20,1,1,12,17,567,1791.0811279913614,1791.944397970583,"[58, 0, 196]",196,a,0.339877088466892,colour,0.06
10,20,1,1,12,18,568,1793.957282256204,1794.6883668063238,"[93, 0, 161]",161,l,0.20813670560892206,colour,0.06
10,20,1,1,12,19,569,1796.7075097023917,1797.664378420057,"[57, 0, 197]",197,a,0.43360658384335693,colour,0.06
10,20,1,1,12,20,570,1799.67648801014,1800.7203786280152,"[83, 0, 171]",171,l,0.520536324052955,colour,0.06
10,20,1,1,12,21,571,1802.739306090196,1803.848381016287,"[52, 0, 202]",202,a,0.5858466630597832,colour,0.06
10,20,1,1,12,22,572,1805.8644625456072,1806.6083660028671,"[80, 0, 174]",174,l,0.22052592650288716,colour,0.06
10,20,1,1,12,23,573,1808.6146651794988,1809.6083750613325,"[65, 0, 189]",189,a,0.4705076126556378,colour,0.06
10,20,1,1,12,24,574,1811.6149731672485,1812.1604037238867,"[91, 0, 163]",163,l,0.022244828986003995,colour,0.06
10,20,1,1,12,25,575,1814.179847912339,1814.9204391227831,"[56, 0, 198]",198,a,0.21753781514416914,colour,0.06
10,20,1,1,12,26,576,1816.9298130569368,1817.7204770895623,"[81, 0, 173]",173,l,0.2685444467206253,colour,0.06
10,20,1,1,12,27,577,1819.7414328598534,1820.5363996625529,"[77, 0, 177]",177,l,0.27208315512689296,colour,0.06
10,20,1,1,12,28,578,1822.5541963922005,1823.6164083429176,"[71, 0, 183]",183,a,0.5391554046364035,colour,0.06
10,20,1,1,12,29,579,1825.633689134018,1826.7363790250092,"[69, 0, 185]",185,a,0.5802619235037128,colour,0.06
10,20,1,1,12,30,580,1828.7425698939187,1829.392458711125,"[29, 0, 225]",225,a,0.12475473225640599,colour,0.06
10,20,1,1,12,31,581,1831.400974060496,1832.344362603195,"[95, 0, 159]",159,l,0.42024692583072465,colour,0.06
10,20,1,1,12,32,582,1834.3449462833087,1835.5204095055524,"[87, 0, 167]",167,l,0.6524240053986432,colour,0.06
10,20,1,1,12,33,583,1837.5289772364777,1840.9604007306625,"[75, 0, 179]",179,l,2.908380732726073,colour,0.06
10,20,1,1,12,34,584,1842.971644646721,1845.0003615508322,"[62, 0, 192]",192,a,1.5054736749152653,colour,0.06
10,20,1,1,12,35,585,1847.0189447914163,1847.8725946826016,"[54, 0, 200]",200,a,0.33018925886426587,colour,0.06
10,20,1,1,12,36,586,1849.8943093945709,1850.7125403003156,"[70, 0, 184]",184,a,0.2949053626944078,colour,0.06
10,20,1,1,12,37,587,1852.7227673054003,1853.3364577154862,"[21, 0, 233]",233,a,0.08789230039110407,colour,0.06
10,20,1,1,12,38,588,1855.3506034905731,1856.0004832493287,"[64, 0, 190]",190,a,0.1269874465506291,colour,0.06
10,20,1,1,12,39,589,1858.0069982536806,1858.8804377364577,"[85, 0, 169]",169,l,0.35063263520714827,colour,0.06
10,20,1,1,12,40,590,1860.8993522017117,1861.9043571996299,"[79, 0, 175]",175,l,0.4820508518605493,colour,0.06
10,20,1,1,12,41,591,1863.9140422722994,1864.9124219889054,"[53, 0, 201]",201,a,0.4750069120054832,colour,0.06
10,20,1,1,12,42,592,1866.9323687251454,1867.552512305716,"[63, 0, 191]",191,l,0.09733043146843556,colour,0.06
10,20,1,1,12,43,593,1869.5729466235935,1870.568383521153,"[55, 0, 199]",199,a,0.4723933484056033,colour,0.06
10,20,1,1,12,44,594,1872.5890123990685,1873.2324102365383,"[74, 0, 180]",180,l,0.12068748223828152,colour,0.06
10,20,1,1,12,45,595,1875.2455497345072,1875.8723930333217,"[89, 0, 165]",165,l,0.10351854345935863,colour,0.06
10,20,1,1,12,46,596,1877.886320617603,1878.4643990576005,"[98, 0, 156]",156,l,0.05466546307434328,colour,0.06
10,20,1,1,12,47,597,1880.4814718978887,1881.128385600663,"[88, 0, 166]",166,l,0.12430141524237115,colour,0.06
10,20,1,1,12,48,598,1883.1378304271348,1884.6484118938388,"[50, 0, 204]",204,a,0.9871838497929275,colour,0.06
10,20,1,1,12,49,599,1886.6693574241217,1887.3604827294475,"[82, 0, 172]",172,l,0.16770878380339127,colour,0.06
10,20,1,1,12,50,600,1889.3726943256916,1890.008429884736,"[76, 0, 178]",178,l,0.11233282212924678,colour,0.06
10,20,1,1,13,1,601,1898.2334425075096,1899.272361604395,"[78, 0, 176]",176,l,0.5138062796322629,colour,0.06
10,20,1,1,13,2,602,1901.284064351319,1902.6244687998842,"[56, 0, 198]",198,a,0.8170214039564598,colour,0.06
10,20,1,1,13,3,603,1904.643681800604,1905.49640379005,"[89, 0, 165]",165,l,0.32934682177437935,colour,0.06
10,20,1,1,13,4,604,1907.5032433237066,1908.6244002706517,"[64, 0, 190]",190,a,0.5976833176973742,colour,0.06
10,20,1,1,13,5,605,1910.6329479154083,1911.5203921763168,"[77, 0, 177]",177,l,0.3640848470822675,colour,0.06
10,20,1,1,13,6,606,1913.5373271704302,1914.816443631542,"[58, 0, 196]",196,a,0.7563556935638189,colour,0.06
10,20,1,1,13,7,607,1916.8344656412373,1918.3204360507953,"[99, 0, 155]",155,l,0.9626302941906033,colour,0.06
10,20,1,1,13,8,608,1920.3370228848216,1921.1604194777465,"[87, 0, 167]",167,l,0.3000663237180561,colour,0.06
10,20,1,1,13,9,609,1923.1809534386994,1924.0483910987532,"[54, 0, 200]",200,a,0.3444512185960775,colour,0.06
10,20,1,1,13,10,610,1926.056067555648,1926.896451524226,"[21, 0, 233]",233,a,0.3171872132370481,colour,0.06
10,20,1,1,13,11,611,1928.9154223094956,1929.6724274554872,"[66, 0, 188]",188,l,0.23357405215210747,colour,0.06
10,20,1,1,13,12,612,1931.68126615262,1932.9523977752397,"[35, 0, 219]",219,a,0.7476942272478482,colour,0.06
10,20,1,1,13,13,613,1934.9636436605215,1935.5924561905122,"[62, 0, 192]",192,a,0.10533062997274101,colour,0.06
10,20,1,1,13,14,614,1937.604615799064,1940.2324039349915,"[51, 0, 203]",203,a,2.104829657560913,colour,0.06
10,20,1,1,13,15,615,1942.2469285901607,1942.952618329131,"[67, 0, 187]",187,l,0.18225667589285877,colour,0.06
10,20,1,1,13,16,616,1944.9659307255934,1945.5843957335455,"[85, 0, 169]",169,l,0.09502958180382848,colour,0.06
10,20,1,1,13,17,617,1947.5911864302616,1948.2084206687286,"[88, 0, 166]",166,l,0.09412885546043981,colour,0.06
10,20,1,1,13,18,618,1950.216374393378,1950.9043918580865,"[65, 0, 189]",189,a,0.16457770625129342,colour,0.06
10,20,1,1,13,19,619,1952.9196817564807,1957.0323997602245,"[71, 0, 183]",183,a,3.5892747006582795,colour,0.06
10,20,1,1,13,20,620,1959.046663295332,1959.9844375600078,"[70, 0, 184]",184,a,0.4144668385415571,colour,0.06
10,20,1,1,13,21,621,1962.0022768250637,1962.6724396647187,"[69, 0, 185]",185,a,0.146773493514047,colour,0.06
10,20,1,1,13,22,622,1964.6920799885847,1965.3683939186885,"[95, 0, 159]",159,l,0.14761199214262888,colour,0.06
10,20,1,1,13,23,623,1967.3796551639825,1968.4164179527725,"[76, 0, 178]",178,l,0.5147475721460069,colour,0.06
10,20,1,1,13,24,624,1970.4253787422203,1974.3844463033893,"[68, 0, 186]",186,a,3.4357558027259074,colour,0.06
10,20,1,1,13,25,625,1976.3958969887317,1977.904467082728,"[83, 0, 171]",171,l,0.9851519970834488,colour,0.06
10,20,1,1,13,26,626,1979.9117906533938,1980.816436148467,"[93, 0, 161]",161,l,0.3812581181555288,colour,0.06
10,20,1,1,13,27,627,1982.8338476965,1983.472407526875,"[80, 0, 174]",174,l,0.11517560422362294,colour,0.06
10,20,1,1,13,28,628,1985.4924310631177,1986.2244360318873,"[86, 0, 168]",168,l,0.20863846570136957,colour,0.06
10,20,1,1,13,29,629,1988.2421457215241,1988.8804775149183,"[75, 0, 179]",179,l,0.11498261956148781,colour,0.06
10,20,1,1,13,30,630,1990.8992245955305,1992.8403650639375,"[92, 0, 162]",162,l,1.4169618544110563,colour,0.06
10,20,1,1,13,31,631,1994.843006590614,1996.000380455458,"[96, 0, 158]",158,l,0.6339660079247551,colour,0.06
10,20,1,1,13,32,632,1998.0151756829873,1998.7369308035704,"[91, 0, 163]",163,l,0.19848195908707567,colour,0.06
10,20,1,1,13,33,633,2000.7497256860952,2001.2809746276325,"[81, 0, 173]",173,l,0.007818241545464844,colour,0.06
10,20,1,1,13,34,634,2003.312420886141,2004.4724240684154,"[60, 0, 194]",194,a,0.6365594853559742,colour,0.06
10,20,1,1,13,35,635,2006.4869975605106,2007.4724417914986,"[59, 0, 195]",195,a,0.4620954510028241,colour,0.06
10,20,1,1,13,36,636,2009.487186212864,2013.8646701025718,"[61, 0, 193]",193,a,3.854302494379226,colour,0.06
10,20,1,1,13,37,637,2015.880023016376,2016.8724784979568,"[84, 0, 170]",170,l,0.46979120635660365,colour,0.06
10,20,1,1,13,38,638,2018.8804814533796,2019.5044477054907,"[79, 0, 175]",175,l,0.10121414916648064,colour,0.06
10,20,1,1,13,39,639,2021.521085345681,2022.368394312536,"[36, 0, 218]",218,a,0.32400862994836643,colour,0.06
10,20,1,1,13,40,640,2024.3806831026595,2025.3044368353294,"[82, 0, 172]",172,l,0.40103786358668003,colour,0.06
10,20,1,1,13,41,641,2027.3206696015986,2028.2563974412624,"[98, 0, 156]",156,l,0.4211149629409192,colour,0.06
10,20,1,1,13,42,642,2030.2570673736918,2031.0083802601148,"[63, 0, 191]",191,l,0.22804130030272063,colour,0.06
10,20,1,1,13,43,643,2033.0229407552833,2033.664418198532,"[72, 0, 182]",182,l,0.115207111928612,colour,0.06
10,20,1,1,13,44,644,2035.6808065340592,2037.7284922542167,"[55, 0, 199]",199,a,1.5245149586698972,colour,0.06
10,20,1,1,13,45,645,2039.7433615248447,2040.9284554689802,"[94, 0, 160]",160,l,0.6615943210490514,colour,0.06
10,20,1,1,13,46,646,2042.94789178051,2043.83241015776,"[57, 0, 197]",197,a,0.361075074179098,colour,0.06
10,20,1,1,13,47,647,2045.8387814082525,2046.9924479985057,"[97, 0, 157]",157,l,0.6303284441237338,colour,0.06
10,20,1,1,13,48,648,2048.9983832612197,2050.064375741902,"[74, 0, 180]",180,a,0.5425735960743623,colour,0.06
10,20,1,1,13,49,649,2052.0790197324823,2052.9844548892434,"[90, 0, 164]",164,l,0.3819564075238304,colour,0.06
10,20,1,1,13,50,650,2055.001216591001,2055.8804885426216,"[52, 0, 202]",202,a,0.3562922055571107,colour,0.06
10,20,1,1,14,1,651,2064.9244153943437,2066.52839670713,"[58, 0, 196]",196,a,1.0797826126363361,colour,0.06
10,20,1,1,14,2,652,2068.5373007827293,2069.4404043698014,"[90, 0, 164]",164,l,0.3797366901708301,colour,0.06
10,20,1,1,14,3,653,2071.459349948913,2072.4323447005154,"[59, 0, 195]",195,a,0.44961958391650114,colour,0.06
10,20,1,1,14,4,654,2074.4440781674493,2075.1844622147764,"[55, 0, 199]",199,a,0.21712388275773264,colour,0.06
10,20,1,1,14,5,655,2077.194229601315,2077.880431434911,"[53, 0, 201]",201,a,0.1629066166933626,colour,0.06
10,20,1,1,14,6,656,2079.897432595186,2080.496441993135,"[15, 0, 239]",239,a,0.07546763331629336,colour,0.06
10,20,1,1,14,7,657,2082.5070860813867,2083.7364424342522,"[89, 0, 165]",165,l,0.7060445944225648,colour,0.06
10,20,1,1,14,8,658,2085.7424115677277,2086.840400116256,"[61, 0, 193]",193,a,0.5746011716109933,colour,0.06
10,20,1,1,14,9,659,2088.854489571342,2090.1444687053736,"[99, 0, 155]",155,l,0.7666398063593078,colour,0.06
10,20,1,1,14,10,660,2092.153225876318,2092.9684186522354,"[98, 0, 156]",156,l,0.2919318236381514,colour,0.06
10,20,1,1,14,11,661,2094.974366911876,2095.800419209918,"[96, 0, 158]",158,l,0.3030386812024517,colour,0.06
10,20,1,1,14,12,662,2097.818251779594,2098.64042902457,"[87, 0, 167]",167,l,0.2990758004307281,colour,0.06
10,20,1,1,14,13,663,2100.6485899123363,2101.576428618122,"[64, 0, 190]",190,a,0.40451316273538396,colour,0.06
10,20,1,1,14,14,664,2103.5854457275855,2104.584457961246,"[50, 0, 204]",204,a,0.4753987889998825,colour,0.06
10,20,1,1,14,15,665,2106.6014488815126,2107.2644488397636,"[73, 0, 181]",181,a,0.1396259721077513,colour,0.06
10,20,1,1,14,16,666,2109.2748826141324,2110.0483974003,"[74, 0, 180]",180,a,0.25034796315594576,colour,0.06
10,20,1,1,14,17,667,2112.0562845649256,2113.0724456511816,"[85, 0, 169]",169,l,0.4927756785764359,colour,0.06
10,20,1,1,14,18,668,2115.0889537159674,2116.104437386719,"[88, 0, 166]",166,l,0.4920376107475022,colour,0.06
10,20,1,1,14,19,669,2118.1204066698556,2118.736468821953,"[78, 0, 176]",176,l,0.09257788900868036,colour,0.06
10,20,1,1,14,20,670,2120.748056959608,2121.760539915922,"[70, 0, 184]",184,a,0.48907273630902637,colour,0.06
10,20,1,1,14,21,671,2123.7803803136776,2124.7924481560476,"[51, 0, 203]",203,a,0.4895106933254283,colour,0.06
10,20,1,1,14,22,672,2126.8110865351046,2127.800512945323,"[68, 0, 186]",186,a,0.4661394641007064,colour,0.06
10,20,1,1,14,23,673,2129.813374387857,2130.3604594925127,"[77, 0, 177]",177,a,0.023761924676364288,colour,0.06
10,20,1,1,14,24,674,2132.378178240615,2133.800451505318,"[69, 0, 185]",185,l,0.8989331493357895,colour,0.06
10,20,1,1,14,25,675,2135.815833563727,2136.9205253751134,"[80, 0, 174]",174,l,0.5814655175781809,colour,0.06
10,20,1,1,14,26,676,2138.9409191268205,2140.89651729654,"[83, 0, 171]",171,l,1.4320016604615375,colour,0.06
10,20,1,1,14,27,677,2142.910482296211,2143.7924989622115,"[82, 0, 172]",172,l,0.3593846861622296,colour,0.06
10,20,1,1,14,28,678,2145.8014042193536,2146.696469798684,"[57, 0, 197]",197,a,0.37165811625891365,colour,0.06
10,20,1,1,14,29,679,2148.707785000908,2149.6724396647187,"[65, 0, 189]",189,a,0.44139489307417534,colour,0.06
10,20,1,1,14,30,680,2151.6925490594585,2152.528440424052,"[91, 0, 163]",163,l,0.3125138338364195,colour,0.06
10,20,1,1,14,31,681,2154.5365292379574,2155.4084327204328,"[48, 0, 206]",206,a,0.3484014963032678,colour,0.06
10,20,1,1,14,32,682,2157.4166696205066,2158.32047425388,"[95, 0, 159]",159,l,0.38045309646986425,colour,0.06
10,20,1,1,14,33,683,2160.33460545665,2161.480410876131,"[94, 0, 160]",160,l,0.6224192241061246,colour,0.06
10,20,1,1,14,34,684,2163.4922463492403,2164.3364510200918,"[60, 0, 194]",194,a,0.32082044471462723,colour,0.06
10,20,1,1,14,35,685,2166.352467958641,2167.1844945101766,"[86, 0, 168]",168,l,0.30868801155884285,colour,0.06
10,20,1,1,14,36,686,2169.1971909311396,2170.048418667997,"[54, 0, 200]",200,a,0.3279459107434377,colour,0.06
10,20,1,1,14,37,687,2172.0567233096226,2172.8724391133437,"[21, 0, 233]",233,a,0.29244736836699303,colour,0.06
10,20,1,1,14,38,688,2174.885057158899,2175.784473557549,"[84, 0, 170]",170,l,0.3760258709662594,colour,0.06
10,20,1,1,14,39,689,2177.792647442242,2178.6564353292633,"[72, 0, 182]",182,l,0.34043556242249906,colour,0.06
10,20,1,1,14,40,690,2180.6677871591965,2181.416484906629,"[75, 0, 179]",179,l,0.226094912213739,colour,0.06
10,20,1,1,14,41,691,2183.4336613284686,2184.448443559071,"[67, 0, 187]",187,a,0.49144290293043014,colour,0.06
10,20,1,1,14,42,692,2186.4651406700577,2187.472491022272,"[97, 0, 157]",157,l,0.48400117839628365,colour,0.06
10,20,1,1,14,43,693,2189.4809587162454,2190.3124330953724,"[92, 0, 162]",162,l,0.3079286760330433,colour,0.06
10,20,1,1,14,44,694,2192.32498851938,2193.3524470847915,"[63, 0, 191]",191,a,0.5043409731733846,colour,0.06
10,20,1,1,14,45,695,2195.372180750215,2196.936458424403,"[71, 0, 183]",183,a,1.0409678849828197,colour,0.06
10,20,1,1,14,46,696,2198.9515986612387,2200.18445079324,"[52, 0, 202]",202,a,0.7095982689643279,colour,0.06
10,20,1,1,14,47,697,2202.2041694925138,2203.520453222489,"[76, 0, 178]",178,l,0.7929325869190507,colour,0.06
10,20,1,1,14,48,698,2205.533396978877,2207.2168091996136,"[66, 0, 188]",188,a,1.1609188747679582,colour,0.06
10,20,1,1,14,49,699,2209.2359678495413,2210.1844590640103,"[79, 0, 175]",175,l,0.4251637021807255,colour,0.06
10,20,1,1,14,50,700,2212.192278487084,2213.1924415394315,"[62, 0, 192]",192,a,0.47678118928160984,colour,0.06
10,20,1,1,15,1,701,2220.3797425978555,2221.1524704792537,"[92, 0, 162]",162,l,0.24738623948360328,colour,0.06
10,20,1,1,15,2,702,2223.1537000671815,2224.0484667172277,"[71, 0, 183]",183,a,0.3784716560621746,colour,0.06
10,20,1,1,15,3,703,2226.070924223197,2226.7524113235413,"[93, 0, 161]",161,l,0.15806900343159214,colour,0.06
10,20,1,1,15,4,704,2228.757621121491,2229.51247035322,"[55, 0, 199]",199,a,0.2316316025389824,colour,0.06
10,20,1,1,15,5,705,2231.526292386712,2232.0884586512548,"[73, 0, 181]",181,l,0.038792672246927395,colour,0.06
10,20,1,1,15,6,706,2234.1024992694147,2234.800419997613,"[61, 0, 193]",193,a,0.17469679747591726,colour,0.06
10,20,1,1,15,7,707,2236.821594746405,2237.53635121946,"[62, 0, 192]",192,l,0.19217963168921415,colour,0.06
10,20,1,1,15,8,708,2239.5561400233564,2240.1604249915836,"[84, 0, 170]",170,l,0.08092673592909705,colour,0.06
10,20,1,1,15,9,709,2242.1673066667863,2242.7124615310604,"[85, 0, 169]",169,l,0.021861616609385237,colour,0.06
10,20,1,1,15,10,710,2244.730032980675,2245.272493542885,"[57, 0, 197]",197,a,0.019155105313984677,colour,0.06
10,20,1,1,15,11,711,2247.292734482253,2247.856472587111,"[74, 0, 180]",180,l,0.04033458024787251,colour,0.06
10,20,1,1,15,12,712,2249.872488737965,2250.77646075598,"[67, 0, 187]",187,a,0.3809347704082029,colour,0.06
10,20,1,1,15,13,713,2252.794580439542,2253.5124711409153,"[80, 0, 174]",174,l,0.19462305371416733,colour,0.06
10,20,1,1,15,14,714,2255.5291253226605,2256.136444482254,"[69, 0, 185]",185,a,0.08387979498365894,colour,0.06
10,20,1,1,15,15,715,2258.1543892980844,2258.848428671685,"[70, 0, 184]",184,l,0.1706724766845582,colour,0.06
10,20,1,1,15,16,716,2260.860081793988,2261.4804577438335,"[59, 0, 195]",195,a,0.09698896679037716,colour,0.06
10,20,1,1,15,17,717,2263.500955470954,2264.0805053204676,"[60, 0, 194]",194,a,0.05626369107631035,colour,0.06
10,20,1,1,15,18,718,2266.094869286375,2266.6884302155668,"[51, 0, 203]",203,a,0.07015504151058849,colour,0.06
10,20,1,1,15,19,719,2268.7044849633385,2269.4004144049977,"[68, 0, 186]",186,a,0.1723490800941363,colour,0.06
10,20,1,1,15,20,720,2271.4079065418628,2272.00050884932,"[81, 0, 173]",173,l,0.0694925921416143,colour,0.06
10,20,1,1,15,21,721,2274.017491498831,2275.000460012394,"[65, 0, 189]",189,a,0.4596291858906625,colour,0.06
10,20,1,1,15,22,722,2277.017729775791,2277.8404253224144,"[36, 0, 218]",218,a,0.29939048357482534,colour,0.06
10,20,1,1,15,23,723,2279.8615788035095,2280.5845087674097,"[98, 0, 156]",156,l,0.19946184851869475,colour,0.06
10,20,1,1,15,24,724,2282.5962111204863,2283.2484464735317,"[64, 0, 190]",190,a,0.1287794468953507,colour,0.06
10,20,1,1,15,25,725,2285.270524705571,2285.8484097670735,"[54, 0, 200]",200,a,0.054429943033028394,colour,0.06
10,20,1,1,15,26,726,2287.8520500877785,2288.424501646674,"[99, 0, 155]",155,l,0.049190212768735364,colour,0.06
10,20,1,1,15,27,727,2290.4415587331023,2291.0564732172643,"[56, 0, 198]",198,a,0.09183155038044788,colour,0.06
10,20,1,1,15,28,728,2293.066779385452,2293.624414055259,"[58, 0, 196]",196,a,0.03425989596871659,colour,0.06
10,20,1,1,15,29,729,2295.645079560869,2298.864470028697,"[66, 0, 188]",188,a,2.696073195533245,colour,0.06
10,20,1,1,15,30,730,2300.8812057366013,2301.5604971442226,"[53, 0, 201]",201,a,0.15617578460660297,colour,0.06
10,20,1,1,15,31,731,2303.5713602109754,2304.232463405773,"[10, 0, 244]",244,a,0.13766264864534605,colour,0.06
10,20,1,1,15,32,732,2306.242649057007,2307.488520170038,"[82, 0, 172]",172,l,0.722620794607792,colour,0.06
10,20,1,1,15,33,733,2309.5104723712866,2310.336543967802,"[52, 0, 202]",202,a,0.30273029960517306,colour,0.06
10,20,1,1,15,34,734,2312.3568904579733,2313.1284816991392,"[72, 0, 182]",182,a,0.24833068274892867,colour,0.06
10,20,1,1,15,35,735,2315.1383274610853,2316.1044657436432,"[94, 0, 160]",160,l,0.44286709028529003,colour,0.06
10,20,1,1,15,36,736,2318.124502276827,2318.9524836337223,"[79, 0, 175]",175,a,0.30481335234071594,colour,0.06
10,20,1,1,15,37,737,2320.9710759327572,2323.5048588809586,"[50, 0, 204]",204,a,2.010350672819186,colour,0.06
10,20,1,1,15,38,738,2325.518381591304,2326.5044819701143,"[91, 0, 163]",163,l,0.4628776296158321,colour,0.06
10,20,1,1,15,39,739,2328.5184855667176,2329.2805079198442,"[63, 0, 191]",191,a,0.2386790869932156,colour,0.06
10,20,1,1,15,40,740,2331.29990012059,2332.2164677349356,"[75, 0, 179]",179,l,0.3931826005136827,colour,0.06
10,20,1,1,15,41,741,2334.237608612937,2334.800496009935,"[95, 0, 159]",159,l,0.03946654315222986,colour,0.06
10,20,1,1,15,42,742,2336.81594265913,2337.9604657152813,"[76, 0, 178]",178,a,0.621145919241826,colour,0.06
10,20,1,1,15,43,743,2339.9749797366094,2340.968477335322,"[96, 0, 158]",158,l,0.4704229357157601,colour,0.06
10,20,1,1,15,44,744,2342.975216044346,2343.9765027399844,"[77, 0, 177]",177,a,0.47827898649848066,colour,0.06
10,20,1,1,15,45,745,2345.9919958630344,2348.496516430081,"[89, 0, 165]",165,l,1.9814065194223076,colour,0.06
10,20,1,1,15,46,746,2350.500543507791,2352.072474795801,"[90, 0, 164]",164,l,1.0485769941733452,colour,0.06
10,20,1,1,15,47,747,2354.0719139587745,2354.7204786649527,"[97, 0, 157]",157,l,0.13271042612905148,colour,0.06
10,20,1,1,15,48,748,2356.736497572725,2357.648449703076,"[30, 0, 224]",224,a,0.38863722114183474,colour,0.06
10,20,1,1,15,49,749,2359.658608966609,2360.7604635097523,"[83, 0, 171]",171,l,0.5787097755091963,colour,0.06
10,20,1,1,15,50,750,2362.768253394359,2363.384499078791,"[86, 0, 168]",168,l,0.09283782751299441,colour,0.06
10,20,1,1,16,1,751,2371.1456463055947,2372.4645038206945,"[53, 0, 201]",201,a,0.7946332149440423,colour,0.06
10,20,1,1,16,2,752,2374.474898604283,2375.592545199761,"[86, 0, 168]",168,l,0.5945719324663514,colour,0.06
10,20,1,1,16,3,753,2377.600144462791,2378.1924628071283,"[67, 0, 187]",187,l,0.06901091820327565,colour,0.06
10,20,1,1,16,4,754,2380.209665222821,2381.0244676971197,"[77, 0, 177]",177,a,0.2914513312425697,colour,0.06
10,20,1,1,16,5,755,2383.0393342108146,2383.608518421359,"[95, 0, 159]",159,l,0.04579328901309054,colour,0.06
10,20,1,1,16,6,756,2385.618611124897,2386.1604876131314,"[68, 0, 186]",186,a,0.018811277550412342,colour,0.06
10,20,1,1,16,7,757,2388.1811889587552,2388.7284883157554,"[66, 0, 188]",188,a,0.023738687741570175,colour,0.06
10,20,1,1,16,8,758,2390.744037758821,2391.5605247134517,"[57, 0, 197]",197,a,0.29319134389515966,colour,0.06
10,20,1,1,16,9,759,2393.5724184758,2397.856508427125,"[61, 0, 193]",193,a,3.7607801621197723,colour,0.06
10,20,1,1,16,10,760,2399.8711394207785,2400.6964776756067,"[99, 0, 155]",155,l,0.3024979303299915,colour,0.06
10,20,1,1,16,11,761,2402.7150164115737,2403.336549875501,"[54, 0, 200]",200,a,0.09828629628464114,colour,0.06
10,20,1,1,16,12,762,2405.356074014737,2406.0724925188842,"[87, 0, 167]",167,l,0.19326192112930585,colour,0.06
10,20,1,1,16,13,763,2408.0905101962853,2408.7284776819142,"[71, 0, 183]",183,a,0.11486643493117299,colour,0.06
10,20,1,1,16,14,764,2410.734694544677,2411.288464401412,"[70, 0, 184]",184,l,0.030493150610709563,colour,0.06
10,20,1,1,16,15,765,2413.297608329376,2413.8565005502023,"[59, 0, 195]",195,a,0.03570846242655534,colour,0.06
10,20,1,1,16,16,766,2415.8615102742624,2416.4164900266333,"[78, 0, 176]",176,l,0.03800025364034809,colour,0.06
10,20,1,1,16,17,767,2418.4335396299866,2418.984463553861,"[50, 0, 204]",204,a,0.021553628859692253,colour,0.06
10,20,1,1,16,18,768,2421.0022000250465,2421.6804764909175,"[51, 0, 203]",203,a,0.1548827874212293,colour,0.06
10,20,1,1,16,19,769,2423.6899417974055,2424.392526452677,"[12, 0, 242]",242,a,0.1792268168355804,colour,0.06
10,20,1,1,16,20,770,2426.4089155758993,2427.024453912498,"[80, 0, 174]",174,l,0.0926653228525538,colour,0.06
10,20,1,1,16,21,771,2429.0341216559464,2429.6404821938195,"[60, 0, 194]",194,a,0.08165141301287804,colour,0.06
10,20,1,1,16,22,772,2431.6614257548645,2432.4164939650946,"[39, 0, 215]",215,a,0.23238069807121065,colour,0.06
10,20,1,1,16,23,773,2434.426602028616,2435.0964911451447,"[69, 0, 185]",185,a,0.14658759809390176,colour,0.06
10,20,1,1,16,24,774,2437.11571989971,2437.744501709676,"[92, 0, 162]",162,l,0.10551849461626261,colour,0.06
10,20,1,1,16,25,775,2439.75653646898,2440.3125039876904,"[62, 0, 192]",192,a,0.03252697255811654,colour,0.06
10,20,1,1,16,26,776,2442.3191788936238,2443.032465138691,"[79, 0, 175]",175,a,0.19023993899463676,colour,0.06
10,20,1,1,16,27,777,2445.05380963521,2445.656482984661,"[76, 0, 178]",178,l,0.07934544331510551,colour,0.06
10,20,1,1,16,28,778,2447.663420979865,2448.272449038268,"[52, 0, 202]",202,a,0.08596166616189294,colour,0.06
10,20,1,1,16,29,779,2450.2903875525662,2450.816496013096,"[55, 0, 199]",199,a,0.0026281359023414552,colour,0.06
10,20,1,1,16,30,780,2452.8376179864863,2453.5284376671334,"[98, 0, 156]",156,l,0.16757802684151102,colour,0.06
10,20,1,1,16,31,781,2455.540941103449,2456.088496066659,"[89, 0, 165]",165,l,0.024630355619592592,colour,0.06
10,20,1,1,16,32,782,2458.1037406727264,2458.648514293862,"[97, 0, 157]",157,l,0.02132519804581534,colour,0.06
10,20,1,1,16,33,783,2460.6663779773808,2461.2245045611344,"[64, 0, 190]",190,a,0.034734874541754834,colour,0.06
10,20,1,1,16,34,784,2463.2447273835714,2463.792511171443,"[81, 0, 173]",173,l,0.024432250967947766,colour,0.06
10,20,1,1,16,35,785,2465.80862066384,2466.400519955787,"[94, 0, 160]",160,l,0.06881045046611689,colour,0.06
10,20,1,1,16,36,786,2468.418243823893,2469.2564750289603,"[63, 0, 191]",191,a,0.3148674589319853,colour,0.06
10,20,1,1,16,37,787,2471.2658265138743,2471.9364757536387,"[91, 0, 163]",163,l,0.14733354285999667,colour,0.06
10,20,1,1,16,38,788,2473.9535584400874,2477.0645545480947,"[84, 0, 170]",170,l,2.58657842935645,colour,0.06
10,20,1,1,16,39,789,2479.080964939014,2479.8086017592286,"[72, 0, 182]",182,l,0.20258504911907949,colour,0.06
10,20,1,1,16,40,790,2481.817320727103,2482.3445075386117,"[13, 0, 241]",241,a,0.003818733064690605,colour,0.06
10,20,1,1,16,41,791,2484.3645401333197,2485.976646887706,"[65, 0, 189]",189,a,1.088996645223233,colour,0.06
10,20,1,1,16,42,792,2487.9909651674534,2488.6165540660295,"[56, 0, 198]",198,a,0.10229171245009638,colour,0.06
10,20,1,1,16,43,793,2490.631828210564,2491.3525246724894,"[73, 0, 181]",181,a,0.19717045113793574,colour,0.06
10,20,1,1,16,44,794,2493.3687554695352,2494.016492704788,"[85, 0, 169]",169,l,0.12428526756411884,colour,0.06
10,20,1,1,16,45,795,2496.0251789834147,2496.584539093572,"[58, 0, 196]",196,a,0.036212191756931134,colour,0.06
10,20,1,1,16,46,796,2498.603589829625,2499.224497078045,"[75, 0, 179]",179,l,0.09627059125341475,colour,0.06
10,20,1,1,16,47,797,2501.245730903771,2501.9285330566927,"[88, 0, 166]",166,a,0.15997128073649947,colour,0.06
10,20,1,1,16,48,798,2503.9490985253506,2504.6325087768637,"[83, 0, 171]",171,l,0.1588247943582246,colour,0.06
10,20,1,1,16,49,799,2506.6537961656722,2507.2565494659066,"[96, 0, 158]",158,l,0.07967824338993523,colour,0.06
10,20,1,1,16,50,800,2509.2634059349366,2509.904507255036,"[74, 0, 180]",180,a,0.11768913087144028,colour,0.06
