id,age,condition,counterbalance,block,trialinblock,trial,tstart,tend,trialstim,trialintensity,response,RT,trialtype,colourfreq
16,20,1,2,Practice,1,NA,5.513837095350027e-06,1.0082928132032976,"[36, 0, 218]",218,a,0.39507834770483896,colour,0.5
16,20,1,2,Practice,2,NA,3.017541095847264,3.7523282183683477,"[21, 0, 233]",233,a,0.21783167513785884,colour,0.5
16,20,1,2,Practice,3,NA,5.7620471465052105,6.448433006473351,"[85, 0, 169]",169,l,0.17000975948758423,colour,0.5
16,20,1,2,Practice,4,NA,8.45720079750754,9.000404873280786,"[91, 0, 163]",163,l,0.025137196062132716,colour,0.5
16,20,1,2,Practice,5,NA,11.009784700407181,11.552408247778658,"[32, 0, 222]",222,a,0.026162376219872385,colour,0.5
16,20,1,2,Practice,6,NA,13.560821577731986,14.312356984824874,"[58, 0, 196]",196,a,0.2335311488714069,colour,0.5
16,20,1,2,Practice,7,NA,16.320857354672626,17.744407589256298,"[56, 0, 198]",198,a,0.905924855847843,colour,0.5
16,20,1,2,Practice,8,NA,19.75362003193004,20.4483077636105,"[11, 0, 243]",243,a,0.17788115789880976,colour,0.5
16,20,1,2,Practice,9,NA,22.45735518494621,23.168274081894197,"[54, 0, 200]",200,a,0.19387719733640552,colour,0.5
16,20,1,2,Practice,10,NA,25.17736246320419,26.16031288675731,"[25, 0, 229]",229,a,0.46643017552560195,colour,0.5
16,20,1,2,1,1,1,5.744311884744093,6.448007653176319,"[29, 0, 225]",225,a,0.18559659336460754,colour,0.5
16,20,1,2,1,2,2,8.458162568451371,9.191954049223568,"[33, 0, 221]",221,a,0.2140306711080484,colour,0.5
16,20,1,2,1,3,3,11.200559969700407,11.927940431633033,"[27, 0, 227]",227,a,0.21138363477075472,colour,0.5
16,20,1,2,1,4,4,13.936972886847798,14.535951802739874,"[81, 0, 173]",173,l,0.0826890675816685,colour,0.5
16,20,1,2,1,5,5,16.545092171698343,17.232038474001456,"[19, 0, 235]",235,a,0.17025315610226244,colour,0.5
16,20,1,2,1,6,6,19.24133519962197,19.959914787556045,"[78, 0, 176]",176,l,0.19965097401291132,colour,0.5
16,20,1,2,1,7,7,21.968762135365978,22.607926300435793,"[48, 0, 206]",206,a,0.12255096953595057,colour,0.5
16,20,1,2,1,8,8,24.616846509685274,25.311975742224604,"[34, 0, 220]",220,a,0.17877361201681197,colour,0.5
16,20,1,2,1,9,9,27.32103655434912,28.191926086205058,"[96, 0, 158]",158,l,0.3546670311479829,colour,0.5
16,20,1,2,1,10,10,30.200483957480174,30.927954216196667,"[73, 0, 181]",181,l,0.21040965453721583,colour,0.5
16,20,1,2,1,11,11,32.93707568058744,33.6639725001296,"[37, 0, 217]",217,a,0.21013159956783056,colour,0.5
16,20,1,2,1,12,12,35.67302504146937,36.34393749508308,"[39, 0, 215]",215,a,0.15459936839761212,colour,0.5
16,20,1,2,1,13,13,38.35302036261419,39.15190900902962,"[60, 0, 194]",194,a,0.2826291242381558,colour,0.5
16,20,1,2,1,14,14,41.161934742936864,41.895981041830964,"[44, 0, 210]",210,a,0.21775684447493404,colour,0.5
16,20,1,2,1,15,15,43.90509069082327,44.623906192253344,"[53, 0, 201]",201,a,0.2017639557016082,colour,0.5
16,20,1,2,1,16,16,46.63292604446178,47.35993668535957,"[86, 0, 168]",168,l,0.2092801053659059,colour,0.5
16,20,1,2,1,17,17,49.36913652496878,50.079907729814295,"[43, 0, 211]",211,a,0.19389846501871943,colour,0.5
16,20,1,2,1,18,18,52.088992172677536,52.71190626785392,"[82, 0, 172]",172,l,0.10640999482711777,colour,0.5
16,20,1,2,1,19,19,54.72029399784515,55.43991806433769,"[5, 0, 249]",249,a,0.20259575766976923,colour,0.5
16,20,1,2,1,20,20,57.4489977810299,58.00792889983859,"[32, 0, 222]",222,a,0.04273815650958568,colour,0.5
16,20,1,2,1,21,21,60.01657262945082,60.67191321530845,"[45, 0, 209]",209,a,0.13851707673165947,colour,0.5
16,20,1,2,1,22,22,62.68085114762653,63.37591894023353,"[26, 0, 228]",228,a,0.17759561981074512,colour,0.5
16,20,1,2,1,23,23,65.38480291567976,65.90391506167362,"[6, 0, 248]",248,a,0.0021149509702809155,colour,0.5
16,20,1,2,1,24,24,67.92387948953547,68.4878872781992,"[47, 0, 207]",207,a,0.0452083561103791,colour,0.5
16,20,1,2,1,25,25,70.49698944413103,71.1199823084171,"[17, 0, 237]",237,a,0.10672900977078825,colour,0.5
16,20,1,2,1,26,26,73.12739133206196,73.80790810479084,"[94, 0, 160]",160,l,0.16398116474738345,colour,0.5
16,20,1,2,1,27,27,75.81616980413673,76.57587593229255,"[57, 0, 197]",197,l,0.2422091430053115,colour,0.5
16,20,1,2,1,28,28,78.58477999386378,79.31186704087304,"[49, 0, 205]",205,a,0.21017492259852588,colour,0.5
16,20,1,2,1,29,29,81.32074904709589,82.05586227372987,"[84, 0, 170]",170,l,0.21849451726302505,colour,0.5
16,20,1,2,1,30,30,84.06486715981737,84.79185613919981,"[63, 0, 191]",191,l,0.20995239983312786,colour,0.5
16,20,1,2,1,31,31,86.80048450885806,87.36786912981188,"[70, 0, 184]",184,l,0.050626096373889595,colour,0.5
16,20,1,2,1,32,32,89.3765483055613,90.11185806116555,"[52, 0, 202]",202,a,0.21865402476396412,colour,0.5
16,20,1,2,1,33,33,92.12075188278686,92.70385606359923,"[85, 0, 169]",169,l,0.06650043756235391,colour,0.5
16,20,1,2,1,34,34,94.71357893018285,95.4158418882871,"[56, 0, 198]",198,l,0.1855323965428397,colour,0.5
16,20,1,2,1,35,35,97.42495783878257,98.17587884678505,"[97, 0, 157]",157,l,0.23330547532532364,colour,0.5
16,20,1,2,1,36,36,100.18481914215954,100.9278967147693,"[11, 0, 243]",243,a,0.22601736232172698,colour,0.5
16,20,1,2,1,37,37,102.93712766817771,103.63185872283066,"[67, 0, 187]",187,l,0.17755150911398232,colour,0.5
16,20,1,2,1,38,38,105.64099594100844,106.3438441536855,"[98, 0, 156]",156,l,0.18587386066792533,colour,0.5
16,20,1,2,1,39,39,108.3524575572228,109.07182562403614,"[68, 0, 186]",186,l,0.20253668079385534,colour,0.5
16,20,1,2,1,40,40,111.080952602264,111.80786084331339,"[9, 0, 245]",245,a,0.21037184540182352,colour,0.5
16,20,1,2,1,41,41,113.81643210531911,114.43984717212152,"[21, 0, 233]",233,a,0.10649270244175568,colour,0.5
16,20,1,2,1,42,42,116.44875556603074,117.16782391635934,"[30, 0, 224]",224,a,0.20272139442386106,colour,0.5
16,20,1,2,1,43,43,119.17665432876674,119.93581301154336,"[58, 0, 196]",196,a,0.2420011925860308,colour,0.5
16,20,1,2,1,44,44,121.94490493746707,122.75981207261793,"[54, 0, 200]",200,l,0.29872441285988316,colour,0.5
16,20,1,2,1,45,45,124.76888076163596,125.49580751347821,"[88, 0, 166]",166,l,0.20985551382182166,colour,0.5
16,20,1,2,1,46,46,127.5049726946745,128.21594436693704,"[74, 0, 180]",180,l,0.19395281572360545,colour,0.5
16,20,1,2,1,47,47,130.22507331433007,130.8878264684463,"[64, 0, 190]",190,l,0.14564450073521584,colour,0.5
16,20,1,2,1,48,48,132.89693966205232,133.57579913240625,"[41, 0, 213]",213,a,0.16182958614081144,colour,0.5
16,20,1,2,1,49,49,135.58459606795805,136.26378439943073,"[3, 0, 251]",251,a,0.16308949823724106,colour,0.5
16,20,1,2,1,50,50,138.2732886817539,138.90380124025978,"[46, 0, 208]",208,a,0.11430541781010106,colour,0.5
16,20,1,2,2,1,51,147.40089111507405,148.13576645898866,"[64, 0, 190]",190,a,0.21747682022396475,colour,0.5
16,20,1,2,2,2,52,150.14484696340514,150.84781451127492,"[56, 0, 198]",198,l,0.1862480139825493,colour,0.5
16,20,1,2,2,3,53,152.85671936057042,153.83184210257605,"[55, 0, 199]",199,a,0.4577888089697808,colour,0.5
16,20,1,2,2,4,54,155.84084462554893,156.39179682603572,"[21, 0, 233]",233,a,0.03458594612311572,colour,0.5
16,20,1,2,2,5,55,158.40093758882722,159.14377255254658,"[19, 0, 235]",235,a,0.22683341038646176,colour,0.5
16,20,1,2,2,6,56,161.15288062614854,161.69575347786304,"[68, 0, 186]",186,l,0.026720849331468344,colour,0.5
16,20,1,2,2,7,57,163.70511715725297,164.42384246806614,"[92, 0, 162]",162,l,0.2026382929761894,colour,0.5
16,20,1,2,2,8,58,166.43281427107286,167.1277489438653,"[80, 0, 174]",174,l,0.178533366182819,colour,0.5
16,20,1,2,2,9,59,169.13671917153988,169.75974314962514,"[87, 0, 167]",167,l,0.10663054836913943,colour,0.5
16,20,1,2,2,10,60,171.7688401955529,172.45575892867055,"[85, 0, 169]",169,l,0.16989830118836835,colour,0.5
16,20,1,2,2,11,61,174.46486424532486,175.14374183258042,"[63, 0, 191]",191,l,0.1618067430681549,colour,0.5
16,20,1,2,2,12,62,177.15276759245899,177.76778153853957,"[27, 0, 227]",227,a,0.09865793166682124,colour,0.5
16,20,1,2,2,13,63,179.77678327384638,180.3917432630551,"[52, 0, 202]",202,a,0.09894819592591375,colour,0.5
16,20,1,2,2,14,64,182.40043976798188,182.94372182525694,"[43, 0, 211]",211,a,0.02693273825570941,colour,0.5
16,20,1,2,2,15,65,184.95320956601063,185.65573167451657,"[70, 0, 184]",184,l,0.18617278948659077,colour,0.5
16,20,1,2,2,16,66,187.6640059769852,188.37592209101422,"[69, 0, 185]",185,l,0.19535766303306445,colour,0.5
16,20,1,2,2,17,67,190.38519636745332,190.99172648525564,"[10, 0, 244]",244,a,0.09037378313951194,colour,0.5
16,20,1,2,2,18,68,193.00151630560867,193.7037355468492,"[1, 0, 253]",253,a,0.18448949337471277,colour,0.5
16,20,1,2,2,19,69,195.71283377427608,196.41571231308626,"[66, 0, 188]",188,l,0.18656033359002322,colour,0.5
16,20,1,2,2,20,70,198.42559311178047,199.10374956775922,"[49, 0, 205]",205,a,0.16122700239066035,colour,0.5
16,20,1,2,2,21,71,201.1134574682219,201.63178507372504,"[4, 0, 250]",250,a,0.0012012291117571294,colour,0.5
16,20,1,2,2,22,72,203.64322038099635,204.19972029083874,"[98, 0, 156]",156,l,0.039582665427587926,colour,0.5
16,20,1,2,2,23,73,206.20888113975525,206.77568050613627,"[47, 0, 207]",207,a,0.048424893291667104,colour,0.5
16,20,1,2,2,24,74,208.78477991512045,209.5437097735703,"[59, 0, 195]",195,a,0.2418598019867204,colour,0.5
16,20,1,2,2,25,75,211.5537528366549,212.29570676776348,"[30, 0, 224]",224,a,0.2256861381465569,colour,0.5
16,20,1,2,2,26,76,214.30485934589524,215.0316647932632,"[5, 0, 249]",249,a,0.2094691512756981,colour,0.5
16,20,1,2,2,27,77,217.04083273140714,217.62371675251052,"[7, 0, 247]",247,a,0.06630548398243263,colour,0.5
16,20,1,2,2,28,78,219.63227068533888,220.359663356503,"[53, 0, 201]",201,a,0.21031434391625226,colour,0.5
16,20,1,2,2,29,79,222.36874149786308,223.135647911462,"[57, 0, 197]",197,a,0.2504070394206792,colour,0.5
16,20,1,2,2,30,80,225.14473708049627,225.8796592919971,"[62, 0, 192]",192,a,0.2177974104997702,colour,0.5
16,20,1,2,2,31,81,227.8887488548644,228.79165645950707,"[33, 0, 221]",221,a,0.3860061140730977,colour,0.5
16,20,1,2,2,32,82,230.80083896988072,231.47165965748718,"[35, 0, 219]",219,a,0.15412163367727771,colour,0.5
16,20,1,2,2,33,83,233.48145105323056,234.1036759185954,"[74, 0, 180]",180,l,0.10494764609029517,colour,0.5
16,20,1,2,2,34,84,236.11281156138284,236.8396859317436,"[9, 0, 245]",245,a,0.2098263692460023,colour,0.5
16,20,1,2,2,35,85,238.8487790392246,239.44767564133508,"[97, 0, 157]",157,l,0.08306361472932622,colour,0.5
16,20,1,2,2,36,86,241.4564737584442,242.40766841033474,"[77, 0, 177]",177,l,0.4340930877951905,colour,0.5
16,20,1,2,2,37,87,244.4166063426528,245.07966315170052,"[25, 0, 229]",229,a,0.14673230232438073,colour,0.5
16,20,1,2,2,38,88,247.08875625918154,247.8236599600059,"[54, 0, 200]",200,a,0.21753117092885077,colour,0.5
16,20,1,2,2,39,89,249.83289445802802,250.5676225036732,"[38, 0, 216]",216,a,0.2177804751554504,colour,0.5
16,20,1,2,2,40,90,252.57672270038165,253.20762280299095,"[90, 0, 164]",164,l,0.11421680252533406,colour,0.5
16,20,1,2,2,41,91,255.21620745578548,256.1356187668862,"[45, 0, 209]",209,a,0.4027764539932832,colour,0.5
16,20,1,2,2,42,92,258.1455988146481,258.7676503879484,"[32, 0, 222]",222,a,0.10593816777691245,colour,0.5
16,20,1,2,2,43,93,260.77670292934636,261.3516285122023,"[75, 0, 179]",179,l,0.057478616130538285,colour,0.5
16,20,1,2,2,44,94,263.36066845053574,263.98362271796213,"[22, 0, 232]",232,a,0.10581016802461818,colour,0.5
16,20,1,2,2,45,95,265.9920356540242,266.6796239246614,"[84, 0, 170]",170,l,0.16878686886047944,colour,0.5
16,20,1,2,2,46,96,268.6888367612264,269.37558417150285,"[36, 0, 218]",218,a,0.17003339022630826,colour,0.5
16,20,1,2,2,47,97,271.38478046649834,272.087646796077,"[29, 0, 225]",225,a,0.1864142168778926,colour,0.5
16,20,1,2,2,48,98,274.09757131163497,274.7835987721337,"[0, 0, 254]",254,l,0.16917795757763088,colour,0.5
16,20,1,2,2,49,99,276.7927860086784,277.5116267162375,"[46, 0, 208]",208,a,0.20333933812798932,colour,0.5
16,20,1,2,2,50,100,279.52068201452494,280.1275811656378,"[48, 0, 206]",206,a,0.09032337088137865,colour,0.5
16,20,1,2,3,1,101,288.26390137156704,288.98357388109434,"[99, 0, 155]",155,l,0.20194906316464767,colour,0.5
16,20,1,2,3,2,102,290.9917662636144,291.6875906336936,"[67, 0, 187]",187,l,0.17715648195007816,colour,0.5
16,20,1,2,3,3,103,293.69664396275766,294.34364329243544,"[41, 0, 213]",213,a,0.130808730435092,colour,0.5
16,20,1,2,3,4,104,296.3528356489842,297.0235732352012,"[54, 0, 200]",200,a,0.15428586734924465,colour,0.5
16,20,1,2,3,5,105,299.03257575817406,299.5915974614327,"[7, 0, 247]",247,a,0.04220528336009011,colour,0.5
16,20,1,2,3,6,106,301.6005578429322,302.2395483221044,"[75, 0, 179]",179,l,0.12189600430428982,colour,0.5
16,20,1,2,3,7,107,304.24892145377817,304.78366848279256,"[18, 0, 236]",236,a,0.01767657871823758,colour,0.5
16,20,1,2,3,8,108,306.7932913126424,307.71963745722314,"[42, 0, 212]",212,l,0.41022092377534136,colour,0.5
16,20,1,2,3,9,109,309.7288089399808,310.39155264175497,"[24, 0, 230]",230,a,0.14618131233146414,colour,0.5
16,20,1,2,3,10,110,312.3999647902092,313.09552725293906,"[3, 0, 251]",251,a,0.17940415890188888,colour,0.5
16,20,1,2,3,11,111,315.1045880650636,315.70353350404184,"[98, 0, 156]",156,l,0.08196636085631326,colour,0.5
16,20,1,2,3,12,112,317.71261322073406,318.3595522920368,"[65, 0, 189]",189,l,0.1299162763170898,colour,0.5
16,20,1,2,3,13,113,320.3689140022034,321.15952243853826,"[4, 0, 250]",250,a,0.2739247424178757,colour,0.5
16,20,1,2,3,14,114,323.1686726536136,323.7914969520061,"[84, 0, 170]",170,l,0.10634973645210266,colour,0.5
16,20,1,2,3,15,115,325.8000741217402,326.4075435613049,"[82, 0, 172]",172,l,0.09137612022459507,colour,0.5
16,20,1,2,3,16,116,328.4161644478445,328.9515069714398,"[81, 0, 173]",173,l,0.01760608033509925,colour,0.5
16,20,1,2,3,17,117,330.9607056295499,331.5515496642911,"[70, 0, 184]",184,l,0.07383069203933701,colour,0.5
16,20,1,2,3,18,118,333.5602599538397,334.15152225265047,"[69, 0, 185]",185,l,0.07503113348502666,colour,0.5
16,20,1,2,3,19,119,336.16085284901783,336.7755371463136,"[25, 0, 229]",229,a,0.09746812412049621,colour,0.5
16,20,1,2,3,20,120,338.78349046461517,339.5275270512793,"[10, 0, 244]",244,a,0.22778454754734412,colour,0.5
16,20,1,2,3,21,121,341.5369080598466,342.239521540585,"[85, 0, 169]",169,l,0.18640240153763443,colour,0.5
16,20,1,2,3,22,122,344.24864654953126,344.99146733479574,"[90, 0, 164]",164,l,0.22643917088862509,colour,0.5
16,20,1,2,3,23,123,347.0000791629427,347.6794998632977,"[40, 0, 214]",214,a,0.16328208876075223,colour,0.5
16,20,1,2,3,24,124,349.688574066211,350.22348729806254,"[19, 0, 235]",235,a,0.01817124878289178,colour,0.5
16,20,1,2,3,25,125,352.23259379627416,352.89548479637597,"[32, 0, 222]",222,a,0.14603913406608626,colour,0.5
16,20,1,2,3,26,126,354.90465430985205,355.55148901208304,"[52, 0, 202]",202,a,0.1305511554237455,colour,0.5
16,20,1,2,3,27,127,357.56055533804465,358.1274704950629,"[95, 0, 159]",159,l,0.049895512755028903,colour,0.5
16,20,1,2,3,28,128,360.13664867315674,360.8554885930498,"[8, 0, 246]",246,a,0.20241301332134753,colour,0.5
16,20,1,2,3,29,129,362.8639802982216,363.67151700664544,"[55, 0, 199]",199,a,0.29050446109613404,colour,0.5
16,20,1,2,3,30,130,365.6805904218345,366.49548219697317,"[57, 0, 197]",197,a,0.2986558837001212,colour,0.5
16,20,1,2,3,31,131,368.5045453721541,369.09547802223824,"[28, 0, 226]",226,a,0.07399886415805668,colour,0.5
16,20,1,2,3,32,132,371.10451559745707,371.89548125176225,"[73, 0, 181]",181,l,0.2740113884792663,colour,0.5
16,20,1,2,3,33,133,373.9045290669892,374.4474657216342,"[14, 0, 240]",240,a,0.02568267227616161,colour,0.5
16,20,1,2,3,34,134,376.4567522073048,377.19143299147254,"[21, 0, 233]",233,a,0.21826726832659915,colour,0.5
16,20,1,2,3,35,135,379.1995127341943,379.751465696434,"[76, 0, 178]",178,l,0.035823015263304114,colour,0.5
16,20,1,2,3,36,136,381.7606163053424,382.4074986628839,"[96, 0, 158]",158,l,0.12980087957112119,colour,0.5
16,20,1,2,3,37,137,384.41618414013647,384.9674872570904,"[1, 0, 253]",253,a,0.03436893719481304,colour,0.5
16,20,1,2,3,38,138,386.9771979145007,387.5514594736742,"[31, 0, 223]",223,a,0.057670025154948235,colour,0.5
16,20,1,2,3,39,139,389.5613004939514,390.1834513163194,"[72, 0, 182]",182,l,0.10530171327991411,colour,0.5
16,20,1,2,3,40,140,392.1931407060474,393.0074180820375,"[51, 0, 203]",203,l,0.2970868027769029,colour,0.5
16,20,1,2,3,41,141,395.01614688232075,395.7114643731038,"[89, 0, 165]",165,l,0.1789276056806557,colour,0.5
16,20,1,2,3,42,142,397.7204905268154,398.4234214471071,"[34, 0, 220]",220,a,0.18607826658990234,colour,0.5
16,20,1,2,3,43,143,400.43252400681376,401.09543233615113,"[71, 0, 183]",183,a,0.14565710385795683,colour,0.5
16,20,1,2,3,44,144,403.1045037820586,403.7674893051153,"[6, 0, 248]",248,a,0.14570909144822508,colour,0.5
16,20,1,2,3,45,145,405.77673286158824,406.35140323248925,"[0, 0, 254]",254,a,0.057598739047534764,colour,0.5
16,20,1,2,3,46,146,408.3600942235789,409.26342166762333,"[46, 0, 208]",208,a,0.3860876400722191,colour,0.5
16,20,1,2,3,47,147,411.2731961280224,412.0154340217705,"[47, 0, 207]",207,a,0.2254758245544508,colour,0.5
16,20,1,2,3,48,148,414.024454661645,414.62341664219275,"[27, 0, 227]",227,a,0.08043942146468908,colour,0.5
16,20,1,2,3,49,149,416.6325487403665,417.255448657088,"[58, 0, 196]",196,a,0.10511975665576756,colour,0.5
16,20,1,2,3,50,150,419.26456342608435,419.94341383798746,"[22, 0, 232]",232,a,0.1626334250322543,colour,0.5
16,20,1,2,4,1,151,428.21575295797084,428.7994179749512,"[47, 0, 207]",207,a,0.06648980372119695,colour,0.5
16,20,1,2,4,2,152,430.8084917839733,431.82335591118317,"[26, 0, 228]",228,a,0.49659244780195877,colour,0.5
16,20,1,2,4,3,153,433.83246516628424,434.5513814922306,"[66, 0, 188]",188,a,0.20217355515342206,colour,0.5
16,20,1,2,4,4,154,436.5604994119494,437.1193769677193,"[3, 0, 251]",251,a,0.042056803533341736,colour,0.5
16,20,1,2,4,5,155,439.12861304113176,439.69537105376367,"[57, 0, 197]",197,a,0.04992229427443817,colour,0.5
16,20,1,2,4,6,156,441.7045330841793,442.4953443509876,"[12, 0, 242]",242,a,0.27353719831444323,colour,0.5
16,20,1,2,4,7,157,444.5040759082185,445.1913569792523,"[29, 0, 225]",225,a,0.17110386257991195,colour,0.5
16,20,1,2,4,8,158,447.2009451506892,447.79943412262946,"[85, 0, 169]",169,l,0.08156148757552728,colour,0.5
16,20,1,2,4,9,159,449.80773363116896,450.3913671405171,"[65, 0, 189]",189,l,0.06562846340239048,colour,0.5
16,20,1,2,4,10,160,452.399989602447,453.3753797656391,"[39, 0, 215]",215,a,0.4588502229307778,colour,0.5
16,20,1,2,4,11,161,455.38484938949114,456.0713904246222,"[18, 0, 236]",236,a,0.16993020265363157,colour,0.5
16,20,1,2,4,12,162,458.08049140905496,458.6393484848086,"[72, 0, 182]",182,l,0.04145933978725225,colour,0.5
16,20,1,2,4,13,163,460.64839866309194,461.23933446389856,"[46, 0, 208]",208,a,0.07478537381393835,colour,0.5
16,20,1,2,4,14,164,463.24832714075455,463.82341459416784,"[92, 0, 162]",162,l,0.05885983270127326,colour,0.5
16,20,1,2,4,15,165,465.83255772001576,466.42336315795546,"[63, 0, 191]",191,a,0.07391143043059856,colour,0.5
16,20,1,2,4,16,166,468.4323373240186,469.02336134621873,"[49, 0, 205]",205,a,0.07427534373709932,colour,0.5
16,20,1,2,4,17,167,471.03251904441277,471.7832896033069,"[55, 0, 199]",199,a,0.2338572529843077,colour,0.5
16,20,1,2,4,18,168,473.79210465576034,474.35936245846096,"[50, 0, 204]",204,a,0.04936303349677473,colour,0.5
16,20,1,2,4,19,169,476.3682641569758,476.9913302765344,"[81, 0, 173]",173,l,0.10623355198185891,colour,0.5
16,20,1,2,4,20,170,478.99947657919256,479.6473490645876,"[95, 0, 159]",159,l,0.13170945539604872,colour,0.5
16,20,1,2,4,21,171,481.6575299735996,482.38337640691316,"[67, 0, 187]",187,l,0.20842821733094752,colour,0.5
16,20,1,2,4,22,172,484.3920646410552,485.0553030129522,"[31, 0, 223]",223,a,0.14507657539797947,colour,0.5
16,20,1,2,4,23,173,487.06487700593425,487.7513762934832,"[74, 0, 180]",180,l,0.16945640643825755,colour,0.5
16,20,1,2,4,24,174,489.7604402563884,490.44734678027453,"[84, 0, 170]",170,l,0.17056350642815232,colour,0.5
16,20,1,2,4,25,175,492.4564505215385,493.0634375002119,"[90, 0, 164]",164,l,0.09083773323800415,colour,0.5
16,20,1,2,4,26,176,495.0727523427922,495.67147683439543,"[23, 0, 231]",231,a,0.08252719702431932,colour,0.5
16,20,1,2,4,27,177,497.6806093264022,498.19996171817183,"[99, 0, 155]",155,l,0.0024595658178441226,colour,0.5
16,20,1,2,4,28,178,500.22162362065865,500.8713089773664,"[77, 0, 177]",177,l,0.1323963220929727,colour,0.5
16,20,1,2,4,29,179,502.8804458017112,503.47936130844755,"[34, 0, 220]",220,a,0.08259927079780027,colour,0.5
16,20,1,2,4,30,180,505.4890577873448,506.11130628344836,"[13, 0, 241]",241,a,0.10540608235169202,colour,0.5
16,20,1,2,4,31,181,508.12010991439456,508.7432504708413,"[56, 0, 198]",198,a,0.10622449358925223,colour,0.5
16,20,1,2,4,32,182,510.7522911968408,511.4392883052351,"[4, 0, 250]",250,a,0.1707450692774728,colour,0.5
16,20,1,2,4,33,183,513.4483987418935,514.3112581555615,"[27, 0, 227]",227,a,0.3466546360286884,colour,0.5
16,20,1,2,4,34,184,516.3200310665416,516.9593145668623,"[40, 0, 214]",214,a,0.12202361028175801,colour,0.5
16,20,1,2,4,35,185,518.968261557573,519.6312963113305,"[33, 0, 221]",221,a,0.14640383515506983,colour,0.5
16,20,1,2,4,36,186,521.6401696529356,522.3272632534499,"[93, 0, 161]",161,l,0.1703271990409121,colour,0.5
16,20,1,2,4,37,187,524.3361291120527,525.0952291117865,"[8, 0, 246]",246,a,0.24299486505333334,colour,0.5
16,20,1,2,4,38,188,527.1040201396681,527.7192416423932,"[80, 0, 174]",174,l,0.0979419203940779,colour,0.5
16,20,1,2,4,39,189,529.7282855191734,530.3512370296521,"[86, 0, 168]",168,l,0.10675382206682116,colour,0.5
16,20,1,2,4,40,190,532.3602805125993,532.9672544943751,"[69, 0, 185]",185,l,0.0900417712982744,colour,0.5
16,20,1,2,4,41,191,534.9764098293963,535.5592682505958,"[53, 0, 201]",201,a,0.06661504664225504,colour,0.5
16,20,1,2,4,42,192,537.5681085091783,538.1272322184523,"[24, 0, 230]",230,a,0.04234588623512536,colour,0.5
16,20,1,2,4,43,193,540.135907849588,540.7192770884722,"[44, 0, 210]",210,a,0.06642206228571013,colour,0.5
16,20,1,2,4,44,194,542.7290822688374,543.2473531605792,"[19, 0, 235]",235,a,0.0013457704917527735,colour,0.5
16,20,1,2,4,45,195,545.258655348036,545.8392160739168,"[41, 0, 213]",213,a,0.06230204337043688,colour,0.5
16,20,1,2,4,46,196,547.8482166276663,548.3912225991371,"[10, 0, 244]",244,a,0.02649320656200871,colour,0.5
16,20,1,2,4,47,197,550.4000345008681,551.0232349217986,"[79, 0, 175]",175,l,0.10549784841714427,colour,0.5
16,20,1,2,4,48,198,553.0323236969416,554.0152701819898,"[42, 0, 212]",212,l,0.4656925026793033,colour,0.5
16,20,1,2,4,49,199,556.024279006524,556.7352431957261,"[17, 0, 237]",237,a,0.19373462529620156,colour,0.5
16,20,1,2,4,50,200,558.744301644736,559.3911851838348,"[82, 0, 172]",172,l,0.12995999318081886,colour,0.5
16,20,1,2,5,1,201,569.0554822127451,569.5992156170541,"[54, 0, 200]",200,a,0.025903619651217014,colour,0.4
16,20,1,2,5,2,202,571.6089054006152,572.3592041325173,"[28, 0, 226]",226,a,0.23118540440918878,colour,0.4
16,20,1,2,5,3,203,574.3682436769595,574.9991674103658,"[42, 0, 212]",212,a,0.11378436005907133,colour,0.4
16,20,1,2,5,4,204,577.0082211332629,577.9991618965287,"[48, 0, 206]",206,a,0.47281244362238795,colour,0.4
16,20,1,2,5,5,205,580.008291237813,580.6231756086345,"[32, 0, 222]",222,a,0.09700653702020645,colour,0.4
16,20,1,2,5,6,206,582.6323356698849,583.3031760497834,"[25, 0, 229]",229,a,0.1540235661668703,colour,0.4
16,20,1,2,5,7,207,585.3121651819674,586.0711856249254,"[23, 0, 231]",231,a,0.24259235482895747,colour,0.4
16,20,1,2,5,8,208,588.0810707558994,588.6472179139964,"[76, 0, 178]",178,l,0.04978917445987463,colour,0.4
16,20,1,2,5,9,209,590.6563492244459,591.5591300107772,"[79, 0, 175]",175,l,0.38649802724830806,colour,0.4
16,20,1,2,5,10,210,593.568267622788,594.1592294173897,"[88, 0, 166]",166,l,0.07391694420948625,colour,0.4
16,20,1,2,5,11,211,596.1680314729456,596.7911602139939,"[38, 0, 216]",216,a,0.10696925560478121,colour,0.4
16,20,1,2,5,12,212,598.8003057029564,599.4391240715631,"[66, 0, 188]",188,l,0.1226789693464525,colour,0.4
16,20,1,2,5,13,213,601.4481982744765,602.0871635475196,"[95, 0, 159]",159,l,0.12269905547145754,colour,0.4
16,20,1,2,5,14,214,604.0965126546216,604.7911070448463,"[99, 0, 155]",155,l,0.17791542242048308,colour,0.4
16,20,1,2,5,15,215,606.7995058025117,607.479103339545,"[64, 0, 190]",190,l,0.16334234713576734,colour,0.4
16,20,1,2,5,16,216,609.4884185759583,610.1671559541719,"[17, 0, 237]",237,a,0.16155822650762275,colour,0.4
16,20,1,2,5,17,217,612.1753499121405,612.8871305432403,"[5, 0, 249]",249,a,0.1932840658701025,colour,0.4
16,20,1,2,5,18,218,614.8962437368464,615.9591408809065,"[60, 0, 194]",194,a,0.5466210803133436,colour,0.4
16,20,1,2,5,19,219,617.967966173368,618.8391254894086,"[68, 0, 186]",186,a,0.35490373231004924,colour,0.4
16,20,1,2,5,20,220,620.8489590266254,621.3911635223194,"[55, 0, 199]",199,a,0.02466143062338233,colour,0.4
16,20,1,2,5,21,221,623.4006752876448,624.0231329157832,"[50, 0, 204]",204,a,0.10662700375542045,colour,0.4
16,20,1,2,5,22,222,626.032910920796,626.679120196146,"[74, 0, 180]",180,l,0.12841611838666722,colour,0.4
16,20,1,2,5,23,223,628.6882066082326,629.3671121585649,"[15, 0, 239]",239,a,0.16264445276465267,colour,0.4
16,20,1,2,5,24,224,631.3760319739231,632.1191473557265,"[6, 0, 248]",248,a,0.22593662393046543,colour,0.4
16,20,1,2,5,25,225,634.1282034417382,634.7430945079541,"[71, 0, 183]",183,l,0.09766819764627144,colour,0.4
16,20,1,2,5,26,226,636.752217153844,637.3511188759585,"[36, 0, 218]",218,a,0.08280840277438983,colour,0.4
16,20,1,2,5,27,227,639.3602623956976,640.1431475195568,"[56, 0, 198]",198,a,0.2666874354472384,colour,0.4
16,20,1,2,5,28,228,642.1522540178266,643.095126318105,"[62, 0, 192]",192,a,0.42664034728659317,colour,0.4
16,20,1,2,5,29,229,645.1038665398955,645.8390557787498,"[21, 0, 233]",233,a,0.2178360074176453,colour,0.4
16,20,1,2,5,30,230,647.8481433723937,648.4471077159978,"[16, 0, 238]",238,a,0.08271309215342626,colour,0.4
16,20,1,2,5,31,231,650.4561945219175,651.079094044806,"[34, 0, 220]",220,a,0.10642023483524099,colour,0.4
16,20,1,2,5,32,232,653.0881611584336,653.7350608452107,"[73, 0, 181]",181,l,0.13045111863175407,colour,0.4
16,20,1,2,5,33,233,655.7443032201263,656.4550693049678,"[43, 0, 211]",211,a,0.19438959046965465,colour,0.4
16,20,1,2,5,34,234,658.4641828924068,659.0071108824923,"[83, 0, 171]",171,l,0.025974118034355342,colour,0.4
16,20,1,2,5,35,235,661.0162362852716,661.5590890508611,"[59, 0, 195]",195,a,0.026754326245281845,colour,0.4
16,20,1,2,5,36,236,663.568097087671,664.2790872706682,"[82, 0, 172]",172,l,0.19492049439577386,colour,0.4
16,20,1,2,5,37,237,666.2881748643122,667.2630679942667,"[47, 0, 207]",207,a,0.45837406354257837,colour,0.4
16,20,1,2,5,38,238,669.2721910339897,669.8550722982036,"[29, 0, 225]",225,a,0.06659692974062636,colour,0.4
16,20,1,2,5,39,239,671.8644336145371,672.5110650924034,"[75, 0, 179]",179,l,0.1297158088418655,colour,0.4
16,20,1,2,5,40,240,674.5201089691836,675.2870748534915,"[69, 0, 185]",185,l,0.2505889961030334,colour,0.4
16,20,1,2,5,41,241,677.2962045886088,678.0310669356259,"[84, 0, 170]",170,l,0.21777417365228757,colour,0.4
16,20,1,2,5,42,242,680.0397276005824,680.6870301914169,"[89, 0, 165]",165,l,0.1310544901061803,colour,0.4
16,20,1,2,5,43,243,682.6962327879737,683.23109009373,"[80, 0, 174]",174,l,0.01801292283926159,colour,0.4
16,20,1,2,5,44,244,685.2402820564457,685.7990343692945,"[22, 0, 232]",232,a,0.04244749841745943,colour,0.4
16,20,1,2,5,45,245,687.8084019871894,688.3590328096761,"[78, 0, 176]",176,l,0.031945211347192526,colour,0.4
16,20,1,2,5,46,246,690.3680014619604,690.9031848718878,"[39, 0, 215]",215,a,0.019392170186620206,colour,0.4
16,20,1,2,5,47,247,692.9130168337142,693.535036111658,"[92, 0, 162]",162,l,0.10508706740802154,colour,0.4
16,20,1,2,5,48,248,695.5441016499535,696.1510917794076,"[81, 0, 173]",173,l,0.09023987560067326,colour,0.4
16,20,1,2,5,49,249,698.1602738959482,698.7110205090721,"[67, 0, 187]",187,a,0.03347293846309185,colour,0.4
16,20,1,2,5,50,250,700.7202215302386,701.2390564089292,"[77, 0, 177]",177,l,0.00256196572445333,colour,0.4
16,20,1,2,6,1,251,708.727246554452,709.3429887210368,"[42, 0, 212]",212,a,0.09836845519021153,colour,0.28
16,20,1,2,6,2,252,711.3521105792024,712.7669753365917,"[9, 0, 245]",245,a,0.8977446825010702,colour,0.28
16,20,1,2,6,3,253,714.7760424502194,715.4870090024779,"[56, 0, 198]",198,a,0.19444354734150693,colour,0.28
16,20,1,2,6,4,254,717.4961533098831,718.2150219805189,"[23, 0, 231]",231,a,0.20236181339714676,colour,0.28
16,20,1,2,6,5,255,720.2247409086558,720.895004698541,"[16, 0, 238]",238,a,0.15116188389947638,colour,0.28
16,20,1,2,6,6,256,722.904012735351,723.5349955455749,"[59, 0, 195]",195,l,0.11471895570866764,colour,0.28
16,20,1,2,6,7,257,725.5442028683028,726.3909591164556,"[41, 0, 213]",213,a,0.3305089352070354,colour,0.28
16,20,1,2,6,8,258,728.3999754239921,729.0949892597855,"[39, 0, 215]",215,a,0.17744871537433937,colour,0.28
16,20,1,2,6,9,259,731.1040973333875,731.6549849432777,"[54, 0, 200]",200,a,0.03409206378273666,colour,0.28
16,20,1,2,6,10,260,733.6641607583151,734.2629825297627,"[61, 0, 193]",193,a,0.08264062454691157,colour,0.28
16,20,1,2,6,11,261,736.2720650034025,736.8469937370392,"[90, 0, 164]",164,l,0.058143033704254776,colour,0.28
16,20,1,2,6,12,262,738.856136075221,739.9269597560633,"[70, 0, 184]",184,l,0.5546236293157563,colour,0.28
16,20,1,2,6,13,263,741.9368708808324,742.6629603168694,"[78, 0, 176]",176,l,0.2091398963239044,colour,0.28
16,20,1,2,6,14,264,744.6719781998545,745.2869740290334,"[8, 0, 246]",246,a,0.09830228914506733,colour,0.28
16,20,1,2,6,15,265,747.296095887199,747.9029513214482,"[50, 0, 204]",204,a,0.09054037980968133,colour,0.28
16,20,1,2,6,16,266,749.9119546321454,750.4709530984983,"[97, 0, 157]",157,l,0.04206428665202111,colour,0.28
16,20,1,2,6,17,267,752.4802100457018,753.0789443834801,"[67, 0, 187]",187,a,0.08247481554280967,colour,0.28
16,20,1,2,6,18,268,755.0878015774069,755.6869151885039,"[62, 0, 192]",192,a,0.08232239732751623,colour,0.28
16,20,1,2,6,19,269,757.6962272740784,758.3109667098033,"[91, 0, 163]",163,l,0.09819122467888519,colour,0.28
16,20,1,2,6,20,270,760.3200629680068,761.0549367365893,"[65, 0, 189]",189,a,0.21738623577402905,colour,0.28
16,20,1,2,6,21,271,763.0641302746371,763.7669402843458,"[36, 0, 218]",218,a,0.1858234484679997,colour,0.28
16,20,1,2,6,22,272,765.7760326041025,766.4709129262483,"[79, 0, 175]",175,l,0.17819505283841863,colour,0.28
16,20,1,2,6,23,273,768.4797622432816,772.0629581901012,"[60, 0, 194]",194,a,3.0666296189301647,colour,0.28
16,20,1,2,6,24,274,774.0726782997954,774.6869002223248,"[49, 0, 205]",205,a,0.09706600772915408,colour,0.28
16,20,1,2,6,25,275,776.6954525797628,777.3589024468092,"[73, 0, 181]",181,l,0.14720688632223755,colour,0.28
16,20,1,2,6,26,276,779.3673051429214,780.1029059504508,"[6, 0, 248]",248,a,0.21874972921796143,colour,0.28
16,20,1,2,6,27,277,782.1126059739618,782.854918304598,"[58, 0, 196]",196,a,0.22548133844975382,colour,0.28
16,20,1,2,6,28,278,784.8639850243926,785.4149537664489,"[76, 0, 178]",178,l,0.0343354603392072,colour,0.28
16,20,1,2,6,29,279,787.4241134338081,788.3028916932526,"[84, 0, 170]",170,l,0.36181454127654433,colour,0.28
16,20,1,2,6,30,280,790.3125921105966,791.3509121070383,"[72, 0, 182]",182,l,0.5215874656569213,colour,0.28
16,20,1,2,6,31,281,793.3599110853975,793.9829642080585,"[53, 0, 201]",201,a,0.10675303434254602,colour,0.28
16,20,1,2,6,32,282,795.9916622883757,796.5828981995583,"[29, 0, 225]",225,a,0.0727035059244372,colour,0.28
16,20,1,2,6,33,283,798.591895208694,799.2948899319745,"[52, 0, 202]",202,a,0.18494280969025567,colour,0.28
16,20,1,2,6,34,284,801.3039598025498,801.8628641397809,"[85, 0, 169]",169,l,0.04263654426904395,colour,0.28
16,20,1,2,6,35,285,803.8731281502405,804.5429051470128,"[94, 0, 160]",160,l,0.1536257821135223,colour,0.28
16,20,1,2,6,36,286,806.5523030909826,807.2549405962345,"[69, 0, 185]",185,a,0.18565960868727416,colour,0.28
16,20,1,2,6,37,287,809.2639888052945,809.9028906692402,"[55, 0, 199]",199,a,0.12194996111793444,colour,0.28
16,20,1,2,6,38,288,811.9118045769283,812.6388766577584,"[40, 0, 214]",214,a,0.21051362977596,colour,0.28
16,20,1,2,6,39,289,814.6478799684555,815.6228329629521,"[66, 0, 188]",188,a,0.45871473994338885,colour,0.28
16,20,1,2,6,40,290,817.6319217381533,818.3988801394007,"[51, 0, 203]",203,a,0.2500194953754544,colour,0.28
16,20,1,2,6,41,291,820.4078980223276,821.1028681412572,"[48, 0, 206]",206,a,0.17874919361202046,colour,0.28
16,20,1,2,6,42,292,823.1119632179616,823.8228517887765,"[64, 0, 190]",190,a,0.1946251101908274,colour,0.28
16,20,1,2,6,43,293,825.8319216593518,826.5108342989115,"[99, 0, 155]",155,l,0.1625097575597465,colour,0.28
16,20,1,2,6,44,294,828.5198683295166,829.062866817927,"[3, 0, 251]",251,a,0.0262915575876832,colour,0.28
16,20,1,2,6,45,295,831.0720375129604,831.7991978152422,"[81, 0, 173]",173,l,0.21007567347260192,colour,0.28
16,20,1,2,6,46,296,833.8088797219098,834.5108894372825,"[93, 0, 161]",161,l,0.18394677410833538,colour,0.28
16,20,1,2,6,47,297,836.5207568451879,837.2868436661083,"[68, 0, 186]",186,a,0.24987298477208242,colour,0.28
16,20,1,2,6,48,298,839.295859973703,839.942845518759,"[77, 0, 177]",177,l,0.12988949479768053,colour,0.28
16,20,1,2,6,49,299,841.9517684849561,842.5828836272703,"[96, 0, 158]",158,l,0.11397970747202635,colour,0.28
16,20,1,2,6,50,300,844.5915490183979,845.4628040389507,"[86, 0, 168]",168,l,0.3533070822013542,colour,0.28
16,20,1,2,7,1,301,852.9750026190304,853.5908369455137,"[78, 0, 176]",176,l,0.09630352258682251,colour,0.14
16,20,1,2,7,2,302,855.6000277267303,856.1908071708167,"[53, 0, 201]",201,a,0.07420208846451715,colour,0.14
16,20,1,2,7,3,303,858.2005544558051,858.9908147326205,"[59, 0, 195]",195,a,0.27354231831850484,colour,0.14
16,20,1,2,7,4,304,860.9999369846773,861.5427747840877,"[97, 0, 157]",157,l,0.02603792102308944,colour,0.14
16,20,1,2,7,5,305,863.5525275829714,864.1828440063982,"[10, 0, 244]",244,a,0.11351024353643879,colour,0.14
16,20,1,2,7,6,306,866.1921182828373,867.0307888805983,"[92, 0, 162]",162,l,0.32004918344318867,colour,0.14
16,20,1,2,7,7,307,869.0398540250608,869.7348146917066,"[72, 0, 182]",182,l,0.1770662913331762,colour,0.14
16,20,1,2,7,8,308,871.744707305741,872.3507785933907,"[71, 0, 183]",183,a,0.08910363103495911,colour,0.14
16,20,1,2,7,9,309,874.3601048574201,874.9587478230242,"[24, 0, 230]",230,a,0.08165955514414236,colour,0.14
16,20,1,2,7,10,310,876.9670311838854,877.6627897817525,"[70, 0, 184]",184,a,0.17974522919394076,colour,0.14
16,20,1,2,7,11,311,879.6718521692674,880.2308301556623,"[65, 0, 189]",189,a,0.042911054741125554,colour,0.14
16,20,1,2,7,12,312,882.2399409861537,882.8387789052795,"[81, 0, 173]",173,l,0.08190728398039937,colour,0.14
16,20,1,2,7,13,313,884.847799938987,885.4227814479382,"[82, 0, 172]",172,l,0.05793784011621028,colour,0.14
16,20,1,2,7,14,314,887.4318272939418,888.2467430937104,"[60, 0, 194]",194,l,0.29887761879945174,colour,0.14
16,20,1,2,7,15,315,890.2558716472704,890.9427947126678,"[94, 0, 160]",160,l,0.17016257159411907,colour,0.14
16,20,1,2,7,16,316,892.9513868485228,893.6147642479627,"[89, 0, 165]",165,l,0.14723091089399531,colour,0.14
16,20,1,2,7,17,317,895.6238018231816,896.2147829162423,"[62, 0, 192]",192,a,0.07458766334457323,colour,0.14
16,20,1,2,7,18,318,898.2232293292182,898.8067375956452,"[88, 0, 166]",166,l,0.06730821495875716,colour,0.14
16,20,1,2,7,19,319,900.815789743152,901.4387384967413,"[50, 0, 204]",204,a,0.10670695442240685,colour,0.14
16,20,1,2,7,20,320,903.4483239112305,904.054700035369,"[6, 0, 248]",248,a,0.08921587705845013,colour,0.14
16,20,1,2,7,21,321,906.0636576599209,906.766811496811,"[69, 0, 185]",185,l,0.18686950241681188,colour,0.14
16,20,1,2,7,22,322,908.7759042104008,909.4307552461978,"[42, 0, 212]",212,a,0.13829022168647498,colour,0.14
16,20,1,2,7,23,323,911.4403379037394,912.0157451598207,"[56, 0, 198]",198,a,0.058448657917324454,colour,0.14
16,20,1,2,7,24,324,914.0243447787361,915.5587172606029,"[91, 0, 163]",163,l,1.017078327247873,colour,0.14
16,20,1,2,7,25,325,917.56727079954,918.3187195606297,"[96, 0, 158]",158,l,0.23546808154787868,colour,0.14
16,20,1,2,7,26,326,920.3284061934683,920.8947597265942,"[64, 0, 190]",190,a,0.04915980919031426,colour,0.14
16,20,1,2,7,27,327,922.9039229385671,923.5987571807927,"[84, 0, 170]",170,l,0.17793984088348225,colour,0.14
16,20,1,2,7,28,328,925.6083465337288,926.2627182593569,"[77, 0, 177]",177,l,0.1356727237580344,colour,0.14
16,20,1,2,7,29,329,928.2718582344824,929.1826998589095,"[67, 0, 187]",187,a,0.3944072347949259,colour,0.14
16,20,1,2,7,30,330,931.1911553303362,931.7746761998278,"[73, 0, 181]",181,a,0.06569581100484356,colour,0.14
16,20,1,2,7,31,331,933.7827535794349,934.4786657770746,"[61, 0, 193]",193,a,0.1789189410628751,colour,0.14
16,20,1,2,7,32,332,936.4877147738589,937.150703053805,"[51, 0, 203]",203,a,0.14675750851165503,colour,0.14
16,20,1,2,7,33,333,939.1597083336674,941.7827094687382,"[99, 0, 155]",155,l,2.106187078228686,colour,0.14
16,20,1,2,7,34,334,943.7921034742612,944.4866899875342,"[75, 0, 179]",179,l,0.17622188630048186,colour,0.14
16,20,1,2,7,35,335,946.4958465041709,947.2226649484364,"[74, 0, 180]",180,l,0.2105384420719929,colour,0.14
16,20,1,2,7,36,336,949.2316934652044,949.8546776649309,"[83, 0, 171]",171,l,0.10679517587414011,colour,0.14
16,20,1,2,7,37,337,951.8640145628015,952.4866699014092,"[57, 0, 197]",197,a,0.10615084442542866,colour,0.14
16,20,1,2,7,38,338,954.4958374457201,956.7826763857156,"[90, 0, 164]",164,l,1.770196993718855,colour,0.14
16,20,1,2,7,39,339,958.7917139609344,959.3746775388718,"[52, 0, 202]",202,a,0.0639510749024339,colour,0.14
16,20,1,2,7,40,340,961.383786794031,962.1026456184918,"[8, 0, 246]",246,a,0.2019396108807996,colour,0.14
16,20,1,2,7,41,341,964.1127312168828,964.8306641103118,"[27, 0, 227]",227,a,0.2011511319433339,colour,0.14
16,20,1,2,7,42,342,966.8397363440017,967.5506402747706,"[79, 0, 175]",175,l,0.1948878052062355,colour,0.14
16,20,1,2,7,43,343,969.5597637083847,970.3186325207353,"[55, 0, 199]",199,a,0.24271208385471255,colour,0.14
16,20,1,2,7,44,344,972.3277378374478,973.078637971601,"[63, 0, 191]",191,a,0.23292265739291906,colour,0.14
16,20,1,2,7,45,345,975.0877208390739,975.806636377296,"[68, 0, 186]",186,l,0.20259457611246035,colour,0.14
16,20,1,2,7,46,346,977.8158488199697,978.4626212946023,"[87, 0, 167]",167,l,0.1302860973519273,colour,0.14
16,20,1,2,7,47,347,980.4716844697832,982.3906416769023,"[3, 0, 251]",251,l,1.4016390279284678,colour,0.14
16,20,1,2,7,48,348,984.3998560887994,985.4146107269335,"[76, 0, 178]",178,l,0.49865698645589873,colour,0.14
16,20,1,2,7,49,349,987.4237176189781,988.1106426535989,"[58, 0, 196]",196,a,0.17062100785551593,colour,0.14
16,20,1,2,7,50,350,990.1201481174212,990.9346212347155,"[86, 0, 168]",168,l,0.2980816568015143,colour,0.14
16,20,1,2,8,1,351,1049.4147162775625,1050.1905354173505,"[67, 0, 187]",187,a,0.25841628381749615,colour,0.06
16,20,1,2,8,2,352,1052.1995891402476,1052.886542531778,"[53, 0, 201]",201,a,0.17040793743217364,colour,0.06
16,20,1,2,8,3,353,1054.8955871962244,1055.4385140047525,"[63, 0, 191]",191,a,0.026047767198178917,colour,0.06
16,20,1,2,8,4,354,1057.4477469273843,1057.974603653478,"[92, 0, 162]",162,l,0.009912700217682868,colour,0.06
16,20,1,2,8,5,355,1059.9831103248289,1060.8625175556517,"[65, 0, 189]",189,a,0.36306815181160346,colour,0.06
16,20,1,2,8,6,356,1062.8715464662528,1063.6145058852271,"[76, 0, 178]",178,a,0.22682986577274278,colour,0.06
16,20,1,2,8,7,357,1065.6228825875442,1066.166564398096,"[94, 0, 160]",160,l,0.02740377763984725,colour,0.06
16,20,1,2,8,8,358,1068.1757299731253,1068.8384882472456,"[97, 0, 157]",157,l,0.14464176987530664,colour,0.06
16,20,1,2,8,9,359,1070.8481473108404,1071.6465235641808,"[79, 0, 175]",175,l,0.28214272495824844,colour,0.06
16,20,1,2,8,10,360,1073.6556718100328,1074.6865213428973,"[59, 0, 195]",195,a,0.5145904045202769,colour,0.06
16,20,1,2,8,11,361,1076.6956416256726,1077.4785755864577,"[84, 0, 170]",170,l,0.2660805194173008,colour,0.06
16,20,1,2,8,12,362,1079.4876785400556,1080.2384715481894,"[50, 0, 204]",204,a,0.23447283369023353,colour,0.06
16,20,1,2,8,13,363,1082.2478659475455,1082.7985219761613,"[66, 0, 188]",188,a,0.033640322857536376,colour,0.06
16,20,1,2,8,14,364,1084.8077025173698,1085.4064896304044,"[52, 0, 202]",202,a,0.08180645952234045,colour,0.06
16,20,1,2,8,15,365,1087.415555956366,1087.9665294245933,"[75, 0, 179]",179,a,0.03408339916495606,colour,0.06
16,20,1,2,8,16,366,1089.9766815829207,1090.5665311575285,"[56, 0, 198]",198,a,0.07308514235774055,colour,0.06
16,20,1,2,8,17,367,1092.5756908248877,1093.1988687966368,"[44, 0, 210]",210,a,0.10449944983702153,colour,0.06
16,20,1,2,8,18,368,1095.2073939787224,1095.9344971733517,"[87, 0, 167]",167,l,0.20979958772659302,colour,0.06
16,20,1,2,8,19,369,1097.9441168524208,1098.8704614216113,"[96, 0, 158]",158,l,0.40894250088604167,colour,0.06
16,20,1,2,8,20,370,1100.8799779131077,1102.0144265647396,"[70, 0, 184]",184,l,0.6176058440469205,colour,0.06
16,20,1,2,8,21,371,1104.0234909214196,1104.774467067793,"[24, 0, 230]",230,a,0.23374146240530536,colour,0.06
16,20,1,2,8,22,372,1106.782833530102,1107.5104774747742,"[62, 0, 192]",192,l,0.211352520971559,colour,0.06
16,20,1,2,8,23,373,1109.519875024911,1110.4384246018017,"[85, 0, 169]",169,l,0.40240663301665336,colour,0.06
16,20,1,2,8,24,374,1112.4476012045052,1113.2304465500056,"[90, 0, 164]",164,l,0.2660147471469827,colour,0.06
16,20,1,2,8,25,375,1115.2395806174027,1119.134456134634,"[74, 0, 180]",180,l,3.378435613703914,colour,0.06
16,20,1,2,8,26,376,1121.1437272603507,1121.694456544239,"[61, 0, 193]",193,a,0.03416413749800995,colour,0.06
16,20,1,2,8,27,377,1123.7037674483145,1124.3184218133683,"[98, 0, 156]",156,l,0.09704592160414904,colour,0.06
16,20,1,2,8,28,378,1126.3274830193259,1126.8465553869028,"[68, 0, 186]",186,a,0.001777031400706619,colour,0.06
16,20,1,2,8,29,379,1128.8571868552826,1129.4705742190126,"[81, 0, 173]",173,l,0.0975244440487586,colour,0.06
16,20,1,2,8,30,380,1131.478432226635,1132.0624410708551,"[58, 0, 196]",196,a,0.0664870468317531,colour,0.06
16,20,1,2,8,31,381,1134.0706736256252,1134.6944293688866,"[93, 0, 161]",161,l,0.10765100235585123,colour,0.06
16,20,1,2,8,32,382,1136.702747782052,1138.0464548774762,"[73, 0, 181]",181,l,0.8259352060849778,colour,0.06
16,20,1,2,8,33,383,1140.0559048090945,1140.7665389556205,"[22, 0, 232]",232,a,0.19354006549110636,colour,0.06
16,20,1,2,8,34,384,1142.7751460576546,1143.7824416537187,"[78, 0, 176]",176,l,0.48880848311819136,colour,0.06
16,20,1,2,8,35,385,1145.7915083735134,1146.4063962890068,"[69, 0, 185]",185,a,0.09771585301496089,colour,0.06
16,20,1,2,8,36,386,1148.4163054446108,1149.0223790953169,"[95, 0, 159]",159,l,0.089012652693782,colour,0.06
16,20,1,2,8,37,387,1151.031533642672,1152.094384706812,"[88, 0, 166]",166,l,0.5465742127271369,colour,0.06
16,20,1,2,8,38,388,1154.1033659621025,1156.3823476821417,"[99, 0, 155]",155,l,1.7619187528034672,colour,0.06
16,20,1,2,8,39,389,1158.391752715339,1159.6783596802852,"[82, 0, 172]",172,l,0.7677224617218599,colour,0.06
16,20,1,2,8,40,390,1161.6874437293154,1162.374358523928,"[80, 0, 174]",174,l,0.17002630099887028,colour,0.06
16,20,1,2,8,41,391,1164.3832625854993,1165.0384027039981,"[72, 0, 182]",182,l,0.13910075597232208,colour,0.06
16,20,1,2,8,42,392,1167.0475340144476,1168.270337990427,"[54, 0, 200]",200,l,0.7061959003913216,colour,0.06
16,20,1,2,8,43,393,1170.2791349259787,1171.3984276107512,"[71, 0, 183]",183,l,0.6030185903073289,colour,0.06
16,20,1,2,8,44,394,1173.4076026381226,1174.3023639401072,"[83, 0, 171]",171,l,0.3773466306156479,colour,0.06
16,20,1,2,8,45,395,1176.3124723815708,1177.6223489267286,"[86, 0, 168]",168,l,0.7939671517233364,colour,0.06
16,20,1,2,8,46,396,1179.631464483391,1180.3983795616077,"[77, 0, 177]",177,l,0.2487469802144915,colour,0.06
16,20,1,2,8,47,397,1182.4075463181944,1183.3423526603729,"[89, 0, 165]",165,l,0.4183030295534991,colour,0.06
16,20,1,2,8,48,398,1185.3515784938354,1186.1263858442544,"[55, 0, 199]",199,a,0.25778888777131215,colour,0.06
16,20,1,2,8,49,399,1188.1354494132684,1188.9183491094736,"[64, 0, 190]",190,a,0.2664952388149686,colour,0.06
16,20,1,2,8,50,400,1190.9277572933934,1192.1023376312223,"[57, 0, 197]",197,a,0.6577694317675196,colour,0.06
16,20,1,2,9,1,401,1207.5663365977816,1208.2943330342532,"[82, 0, 172]",172,l,0.21110676130047068,colour,0.06
16,20,1,2,9,2,402,1210.3032217358705,1211.0143013218185,"[88, 0, 166]",166,l,0.19451562111498788,colour,0.06
16,20,1,2,9,3,403,1213.0233538631583,1213.7424482073402,"[60, 0, 194]",194,a,0.20150086685316637,colour,0.06
16,20,1,2,9,4,404,1215.7519784834003,1216.342337694252,"[57, 0, 197]",197,a,0.07331554201664403,colour,0.06
16,20,1,2,9,5,405,1218.351691921358,1219.0142769033555,"[13, 0, 241]",241,a,0.1460541001870297,colour,0.06
16,20,1,2,9,6,406,1221.022936780646,1221.6303093341994,"[68, 0, 186]",186,l,0.09080031793564558,colour,0.06
16,20,1,2,9,7,407,1223.6394839677378,1224.3023615770508,"[91, 0, 163]",163,l,0.14607103558955714,colour,0.06
16,20,1,2,9,8,408,1226.3111081003444,1227.0782874489669,"[81, 0, 173]",173,l,0.2509087987127714,colour,0.06
16,20,1,2,9,9,409,1229.0882261429797,1232.9343459366355,"[75, 0, 179]",179,l,3.3291088140103966,colour,0.06
16,20,1,2,9,10,410,1234.9436402991996,1235.6302207189146,"[95, 0, 159]",159,l,0.16992783959722146,colour,0.06
16,20,1,2,9,11,411,1237.6393449401949,1238.214286276896,"[53, 0, 201]",201,a,0.05878263898193836,colour,0.06
16,20,1,2,9,12,412,1240.223274621414,1240.8382617860334,"[89, 0, 165]",165,l,0.09851457190234214,colour,0.06
16,20,1,2,9,13,413,1242.8473820688087,1243.7902925721137,"[55, 0, 199]",199,l,0.4265005320776254,colour,0.06
16,20,1,2,9,14,414,1245.7994648425956,1250.6142766670673,"[94, 0, 160]",160,a,4.2978910355013795,colour,0.06
16,20,1,2,9,15,415,1252.6238380569848,1253.4622116951505,"[51, 0, 203]",203,a,0.32175453496165574,colour,0.06
16,20,1,2,9,16,416,1255.4712283965782,1256.7422634937102,"[67, 0, 187]",187,l,0.7549874638789333,colour,0.06
16,20,1,2,9,17,417,1258.7515696716728,1259.4622479289537,"[93, 0, 161]",161,l,0.19379724672762677,colour,0.06
16,20,1,2,9,18,418,1261.471382784017,1262.3582289707847,"[65, 0, 189]",189,a,0.369247195601929,colour,0.06
16,20,1,2,9,19,419,1264.367138940026,1266.8542235609493,"[52, 0, 202]",202,l,1.9702012472553179,colour,0.06
16,20,1,2,9,20,420,1268.8631288040197,1275.086223438033,"[78, 0, 176]",176,l,5.706800059531815,colour,0.06
16,20,1,2,9,21,421,1277.0953547485406,1277.8222354204045,"[66, 0, 188]",188,a,0.20978895388543606,colour,0.06
16,20,1,2,9,22,422,1279.8318834563252,1280.4782010392519,"[3, 0, 251]",251,a,0.12950825225561857,colour,0.06
16,20,1,2,9,23,423,1282.4868301965762,1283.1182056709076,"[87, 0, 167]",167,l,0.115069872175809,colour,0.06
16,20,1,2,9,24,424,1285.1272842061007,1285.886212095269,"[72, 0, 182]",182,l,0.24258526554331183,colour,0.06
16,20,1,2,9,25,425,1287.8953682180727,1288.6542606612202,"[85, 0, 169]",169,l,0.242557302583009,colour,0.06
16,20,1,2,9,26,426,1290.6633710978786,1291.254271846381,"[86, 0, 168]",168,l,0.07402603945229203,colour,0.06
16,20,1,2,9,27,427,1293.2635224921396,1294.5022327107145,"[99, 0, 155]",155,l,0.7217453189659864,colour,0.06
16,20,1,2,9,28,428,1296.5116527100326,1297.278244834859,"[98, 0, 156]",156,l,0.2499844430712983,colour,0.06
16,20,1,2,9,29,429,1299.2872686255723,1302.1261727737729,"[61, 0, 193]",193,a,2.3224264355376363,colour,0.06
16,20,1,2,9,30,430,1304.1359417203348,1304.7661907961592,"[84, 0, 170]",170,l,0.11408328893594444,colour,0.06
16,20,1,2,9,31,431,1306.7753071404295,1307.6781706344336,"[74, 0, 180]",180,l,0.38457054691389203,colour,0.06
16,20,1,2,9,32,432,1309.6873082463862,1310.422183590359,"[71, 0, 183]",183,l,0.21840708353556693,colour,0.06
16,20,1,2,9,33,433,1312.4312640947755,1313.062195705017,"[77, 0, 177]",177,l,0.11468075274024159,colour,0.06
16,20,1,2,9,34,434,1315.0712864494417,1316.2621554540237,"[80, 0, 174]",174,l,0.674249901319854,colour,0.06
16,20,1,2,9,35,435,1318.2712434415007,1318.87821506022,"[62, 0, 192]",192,a,0.09070697659626603,colour,0.06
16,20,1,2,9,36,436,1320.8870734357042,1325.5661601549946,"[92, 0, 162]",162,a,4.162590102059767,colour,0.06
16,20,1,2,9,37,437,1327.575552585069,1329.4221406611614,"[79, 0, 175]",175,l,1.329537711921148,colour,0.06
16,20,1,2,9,38,438,1331.4312286486384,1336.1742081537377,"[50, 0, 204]",204,l,4.225619184435345,colour,0.06
16,20,1,2,9,39,439,1338.1828703940846,1338.9101362469373,"[63, 0, 191]",191,a,0.2106223312439397,colour,0.06
16,20,1,2,9,40,440,1340.9192407758674,1341.686209417181,"[69, 0, 185]",185,a,0.2507741035660729,colour,0.06
16,20,1,2,9,41,441,1343.6952036693692,1344.3661480244482,"[73, 0, 181]",181,l,0.15307636745274067,colour,0.06
16,20,1,2,9,42,442,1346.3755215500714,1347.0141004605684,"[96, 0, 158]",158,l,0.1204612246947363,colour,0.06
16,20,1,2,9,43,443,1349.0232160171727,1349.6381007819436,"[27, 0, 227]",227,a,0.0984810950467363,colour,0.06
16,20,1,2,9,44,444,1351.647986700642,1352.2221308937296,"[97, 0, 157]",157,l,0.0579591077985242,colour,0.06
16,20,1,2,9,45,445,1354.2311893427977,1354.8781595278997,"[56, 0, 198]",198,a,0.13088474259711802,colour,0.06
16,20,1,2,9,46,446,1356.8872502723243,1357.67812691757,"[76, 0, 178]",178,a,0.2741173329995945,colour,0.06
16,20,1,2,9,47,447,1359.6873791386606,1360.7421217092779,"[83, 0, 171]",171,l,0.5379474184010178,colour,0.06
16,20,1,2,9,48,448,1362.7515692778397,1363.3661145475926,"[58, 0, 196]",196,a,0.09774696675594896,colour,0.06
16,20,1,2,9,49,449,1365.375209230464,1366.182187071885,"[59, 0, 195]",195,l,0.2887447588145733,colour,0.06
16,20,1,2,9,50,450,1368.1913424070226,1368.9020604427205,"[54, 0, 200]",200,a,0.19210252910852432,colour,0.06
16,20,1,2,10,1,451,1422.6465479825856,1423.3900906868512,"[68, 0, 186]",186,a,0.22543289535678923,colour,0.06
16,20,1,2,10,2,452,1425.399202305125,1426.0220419634134,"[91, 0, 163]",163,l,0.1053269193507731,colour,0.06
16,20,1,2,10,3,453,1428.0310956863686,1428.60604293074,"[99, 0, 155]",155,l,0.058603439247235656,colour,0.06
16,20,1,2,10,4,454,1430.615186844254,1431.222056456958,"[88, 0, 166]",166,l,0.089958276017569,colour,0.06
16,20,1,2,10,5,455,1433.23070451885,1433.837999484851,"[59, 0, 195]",195,a,0.09081725333817303,colour,0.06
16,20,1,2,10,6,456,1435.8479236065177,1436.4060087449616,"[55, 0, 199]",199,a,0.04191147454548627,colour,0.06
16,20,1,2,10,7,457,1438.415199132287,1438.9820678154938,"[81, 0, 173]",173,l,0.05057922878768295,colour,0.06
16,20,1,2,10,8,458,1440.9910750646377,1441.5820081084967,"[52, 0, 202]",202,a,0.07271532132290304,colour,0.06
16,20,1,2,10,9,459,1443.5910504098283,1444.2939844809007,"[58, 0, 196]",196,a,0.18668281962163746,colour,0.06
16,20,1,2,10,10,460,1446.3030433238018,1447.2939529732103,"[86, 0, 168]",168,l,0.47460010880604386,colour,0.06
16,20,1,2,10,11,461,1449.303014966892,1449.8779929312877,"[97, 0, 157]",157,l,0.058905125013552606,colour,0.06
16,20,1,2,10,12,462,1451.8871762293857,1452.6059464385035,"[54, 0, 200]",200,a,0.20225626265164465,colour,0.06
16,20,1,2,10,13,463,1454.6150159152457,1455.2379882995738,"[76, 0, 178]",178,l,0.10623552126344293,colour,0.06
16,20,1,2,10,14,464,1457.2470849517267,1457.8139815978939,"[82, 0, 172]",172,l,0.050143635482527316,colour,0.06
16,20,1,2,10,15,465,1459.8232716282364,1460.3419978055172,"[19, 0, 235]",235,a,0.0016163424588739872,colour,0.06
16,20,1,2,10,16,466,1462.357112418511,1462.981968960259,"[65, 0, 189]",189,l,0.10860804724507034,colour,0.06
16,20,1,2,10,17,467,1464.991342879599,1466.6139198429883,"[83, 0, 171]",171,l,1.1041122996248305,colour,0.06
16,20,1,2,10,18,468,1468.6233993129572,1469.3820456025423,"[73, 0, 181]",181,l,0.2418152973987162,colour,0.06
16,20,1,2,10,19,469,1471.3911414669128,1471.9579491041368,"[78, 0, 176]",176,l,0.048838037298992276,colour,0.06
16,20,1,2,10,20,470,1473.9671363406815,1474.8859214372933,"[87, 0, 167]",167,l,0.401688652462326,colour,0.06
16,20,1,2,10,21,471,1476.8942481211852,1477.6059354108293,"[72, 0, 182]",182,a,0.19489804515615106,colour,0.06
16,20,1,2,10,22,472,1479.6151029551402,1480.1659169158665,"[60, 0, 194]",194,a,0.034474487882107496,colour,0.06
16,20,1,2,10,23,473,1482.1760899480432,1483.149942537886,"[50, 0, 204]",204,a,0.4566754073603079,colour,0.06
16,20,1,2,10,24,474,1485.1590021684533,1485.9739191498375,"[98, 0, 156]",156,l,0.29665908648166806,colour,0.06
16,20,1,2,10,25,475,1487.9831804293208,1488.7259216577513,"[89, 0, 165]",165,l,0.2253379785688594,colour,0.06
16,20,1,2,10,26,476,1490.7348576209042,1499.6219259365462,"[71, 0, 183]",183,l,8.370554763125256,colour,0.06
16,20,1,2,10,27,477,1501.6316169016063,1502.3899815916084,"[79, 0, 175]",175,l,0.2409315078984946,colour,0.06
16,20,1,2,10,28,478,1504.3989841146395,1505.0619196192129,"[80, 0, 174]",174,l,0.14630852441769093,colour,0.06
16,20,1,2,10,29,479,1507.0709942160174,1507.597932468052,"[62, 0, 192]",192,a,0.01000801078043878,colour,0.06
16,20,1,2,10,30,480,1509.6087447116151,1510.197899148683,"[85, 0, 169]",169,l,0.0709477422060445,colour,0.06
16,20,1,2,10,31,481,1512.206881979364,1512.7419527495513,"[64, 0, 190]",190,a,0.01882897096220404,colour,0.06
16,20,1,2,10,32,482,1514.7517854990438,1515.509889069479,"[67, 0, 187]",187,a,0.24097798170987517,colour,0.06
16,20,1,2,10,33,483,1517.5187821033178,1518.0779168403242,"[39, 0, 215]",215,a,0.04293704859446734,colour,0.06
16,20,1,2,10,34,484,1520.0862667610636,1520.7498950401787,"[63, 0, 191]",191,a,0.1463557860115543,colour,0.06
16,20,1,2,10,35,485,1522.7589491568506,1523.29391713324,"[90, 0, 164]",164,l,0.018002288998104632,colour,0.06
16,20,1,2,10,36,486,1525.303139815922,1525.8218746578787,"[94, 0, 160]",160,l,0.0021054986864328384,colour,0.06
16,20,1,2,10,37,487,1527.8388690958964,1528.4138911709888,"[74, 0, 180]",180,l,0.05894726642873138,colour,0.06
16,20,1,2,10,38,488,1530.4230378414504,1531.0778794249054,"[66, 0, 188]",188,l,0.13816537254024297,colour,0.06
16,20,1,2,10,39,489,1533.0868945509428,1534.2138640744379,"[51, 0, 203]",203,a,0.6103870478691533,colour,0.06
16,20,1,2,10,40,490,1536.2229654525872,1537.2298868953949,"[69, 0, 185]",185,a,0.490374019369483,colour,0.06
16,20,1,2,10,41,491,1539.2390308089089,1540.9418605108513,"[93, 0, 161]",161,a,1.1861936632776633,colour,0.06
16,20,1,2,10,42,492,1542.9505735572893,1543.7099075013539,"[84, 0, 170]",170,l,0.24273689615074545,colour,0.06
16,20,1,2,10,43,493,1545.7186587508768,1546.5578988493653,"[92, 0, 162]",162,l,0.3224067431874573,colour,0.06
16,20,1,2,10,44,494,1548.567294430337,1549.2538626408204,"[53, 0, 201]",201,a,0.16923821589443833,colour,0.06
16,20,1,2,10,45,495,1551.2629805605393,1552.00587814569,"[70, 0, 184]",184,l,0.226176475873217,colour,0.06
16,20,1,2,10,46,496,1554.0155604461906,1554.5898546945537,"[95, 0, 159]",159,l,0.05800203699618578,colour,0.06
16,20,1,2,10,47,497,1556.5997859055642,1562.9018540675752,"[96, 0, 158]",158,a,5.7857141168788075,colour,0.06
16,20,1,2,10,48,498,1564.9113922205288,1565.6618386445334,"[77, 0, 177]",177,a,0.23401872965041548,colour,0.06
16,20,1,2,10,49,499,1567.6711211918155,1568.2938749918249,"[56, 0, 198]",198,a,0.10641393333207816,colour,0.06
16,20,1,2,10,50,500,1570.3024466476636,1570.981909489492,"[1, 0, 253]",253,a,0.16322931344620883,colour,0.06
16,20,1,2,11,1,501,1578.7100102951517,1579.4618210003246,"[82, 0, 172]",172,l,0.23445117217488587,colour,0.06
16,20,1,2,11,2,502,1581.4708475478692,1582.1498267472489,"[54, 0, 200]",200,a,0.16268501873128116,colour,0.06
16,20,1,2,11,3,503,1584.1589277316816,1584.869787945645,"[50, 0, 204]",204,a,0.19178784638643265,colour,0.06
16,20,1,2,11,4,504,1586.8788936561905,1587.4857845364604,"[61, 0, 193]",193,a,0.09022372786421329,colour,0.06
16,20,1,2,11,5,505,1589.4949264808092,1590.1817782601574,"[51, 0, 203]",203,a,0.16966632613912225,colour,0.06
16,20,1,2,11,6,506,1592.1910517489305,1592.893786927918,"[19, 0, 235]",235,a,0.18550246430095285,colour,0.06
16,20,1,2,11,7,507,1594.9029213892063,1595.5018069637008,"[88, 0, 166]",166,l,0.0827359352260828,colour,0.06
16,20,1,2,11,8,508,1597.511723602307,1598.189772538375,"[81, 0, 173]",173,l,0.16126756847370416,colour,0.06
16,20,1,2,11,9,509,1600.1988963658223,1601.0697669930523,"[49, 0, 205]",205,a,0.3540691734524444,colour,0.06
16,20,1,2,11,10,510,1603.0793980936287,1603.6537715049926,"[93, 0, 161]",161,l,0.057939415564760566,colour,0.06
16,20,1,2,11,11,511,1605.6627811171347,1606.253805927001,"[96, 0, 158]",158,l,0.07341439719311893,colour,0.06
16,20,1,2,11,12,512,1608.2634031568887,1608.9097518536728,"[59, 0, 195]",195,a,0.12994817784056067,colour,0.06
16,20,1,2,11,13,513,1610.9189245179296,1611.829733453109,"[76, 0, 178]",178,l,0.3940791613422334,colour,0.06
16,20,1,2,11,14,514,1613.8388549174415,1617.2457639934728,"[92, 0, 162]",162,l,2.890116680646315,colour,0.06
16,20,1,2,11,15,515,1619.2549354762305,1624.117742114584,"[91, 0, 163]",163,a,4.3467779096681625,colour,0.06
16,20,1,2,11,16,516,1626.1267643298488,1626.8297413301188,"[84, 0, 170]",170,l,0.18667336739599705,colour,0.06
16,20,1,2,11,17,517,1628.8381393000018,1629.4617426249897,"[74, 0, 180]",180,l,0.10735798114910722,colour,0.06
16,20,1,2,11,18,518,1631.471323313308,1632.037732378696,"[57, 0, 197]",197,a,0.04898179089650512,colour,0.06
16,20,1,2,11,19,519,1634.0470893627498,1634.6137670308817,"[55, 0, 199]",199,a,0.050109370960853994,colour,0.06
16,20,1,2,11,20,520,1636.6228644705843,1637.1417828445556,"[86, 0, 168]",168,l,0.0026139533147215843,colour,0.06
16,20,1,2,11,21,521,1639.156475648866,1639.7337580039166,"[53, 0, 201]",201,a,0.060244200052693486,colour,0.06
16,20,1,2,11,22,522,1641.743668734911,1642.349752625567,"[94, 0, 160]",160,l,0.08825961989350617,colour,0.06
16,20,1,2,11,23,523,1644.3592848709086,1645.1417603953741,"[83, 0, 171]",171,a,0.265918648801744,colour,0.06
16,20,1,2,11,24,524,1647.1502580082742,1647.7577530477429,"[64, 0, 190]",190,l,0.09076132718473673,colour,0.06
16,20,1,2,11,25,525,1649.7672352746595,1650.477690221509,"[60, 0, 194]",194,a,0.19441282737534493,colour,0.06
16,20,1,2,11,26,526,1652.486804202781,1653.093703353894,"[77, 0, 177]",177,l,0.08988777757622302,colour,0.06
16,20,1,2,11,27,527,1655.1027235998772,1656.14170919545,"[79, 0, 175]",175,a,0.522567747393623,colour,0.06
16,20,1,2,11,28,528,1658.150212715962,1658.8857233328745,"[95, 0, 159]",159,l,0.21896949503570795,colour,0.06
16,20,1,2,11,29,529,1660.8949152956484,1661.5176982402336,"[68, 0, 186]",186,a,0.10580150340683758,colour,0.06
16,20,1,2,11,30,530,1663.5269205290824,1667.0296892636688,"[58, 0, 196]",196,l,2.9857955641346052,colour,0.06
16,20,1,2,11,31,531,1669.0386362543795,1669.605667202035,"[75, 0, 179]",179,l,0.05002902646083385,colour,0.06
16,20,1,2,11,32,532,1671.614915484679,1672.4696683740476,"[67, 0, 187]",187,l,0.3380699831759557,colour,0.06
16,20,1,2,11,33,533,1674.4787410015706,1675.2136533670127,"[90, 0, 164]",164,a,0.2181266654515639,colour,0.06
16,20,1,2,11,34,534,1677.2218630787684,1678.3016392642166,"[66, 0, 188]",188,a,0.5635324170580134,colour,0.06
16,20,1,2,11,35,535,1680.3108497376088,1681.285653858562,"[65, 0, 189]",189,a,0.4589285982074216,colour,0.06
16,20,1,2,11,36,536,1683.2947138829622,1684.0616514104186,"[24, 0, 230]",230,a,0.25040822103619576,colour,0.06
16,20,1,2,11,37,537,1686.071404209244,1686.5976741053164,"[87, 0, 167]",167,l,0.009186055045574903,colour,0.06
16,20,1,2,11,38,538,1688.6084260905627,1689.189657141571,"[73, 0, 181]",181,l,0.06251944601535797,colour,0.06
16,20,1,2,11,39,539,1691.1987738797907,1692.1656317716697,"[56, 0, 198]",198,a,0.45065784035250545,colour,0.06
16,20,1,2,11,40,540,1694.1747508728877,1694.8936447496526,"[71, 0, 183]",183,a,0.20091876306105405,colour,0.06
16,20,1,2,11,41,541,1696.9028772785095,1697.4216491418192,"[98, 0, 156]",156,l,0.0018542251782491803,colour,0.06
16,20,1,2,11,42,542,1699.4397628891747,1700.141629638616,"[69, 0, 185]",185,a,0.18502118496689945,colour,0.06
16,20,1,2,11,43,543,1702.1510063149035,1702.7256459658965,"[99, 0, 155]",155,l,0.05737503478303552,colour,0.06
16,20,1,2,11,44,544,1704.734853288508,1705.2856349539943,"[63, 0, 191]",191,a,0.03385063644964248,colour,0.06
16,20,1,2,11,45,545,1707.2948978088098,1707.8856295975856,"[70, 0, 184]",184,a,0.07446320808958262,colour,0.06
16,20,1,2,11,46,546,1709.8944860039046,1710.6217081398936,"[62, 0, 192]",192,a,0.2109484353568405,colour,0.06
16,20,1,2,11,47,547,1712.6307748596882,1715.445666240994,"[89, 0, 165]",165,l,2.29808953369502,colour,0.06
16,20,1,2,11,48,548,1717.4548377237516,1718.0535917538218,"[85, 0, 169]",169,l,0.08176353038288653,colour,0.06
16,20,1,2,11,49,549,1720.0627037658123,1720.6376037487062,"[52, 0, 202]",202,a,0.05843054095748812,colour,0.06
16,20,1,2,11,50,550,1722.6476657164749,1723.1896374493372,"[78, 0, 176]",176,l,0.02557318320032209,colour,0.06
16,20,1,2,12,1,551,1815.54231989244,1816.1175333764404,"[86, 0, 168]",168,l,0.05786340334452689,colour,0.06
16,20,1,2,12,2,552,1818.1266528716078,1818.7335012166295,"[50, 0, 204]",204,a,0.08890040672849864,colour,0.06
16,20,1,2,12,3,553,1820.742643554695,1821.3334738048725,"[73, 0, 181]",181,l,0.07420366385485977,colour,0.06
16,20,1,2,12,4,554,1823.3420793315163,1823.8854397640098,"[96, 0, 158]",158,l,0.025055670063011348,colour,0.06
16,20,1,2,12,5,555,1825.8946793820942,1826.8054426312447,"[81, 0, 173]",173,l,0.39449545624665916,colour,0.06
16,20,1,2,12,6,556,1828.8145436156774,1829.341436181683,"[87, 0, 167]",167,l,0.010612957761622965,colour,0.06
16,20,1,2,12,7,557,1831.3504182245815,1831.885516170063,"[52, 0, 202]",202,a,0.018502079066820443,colour,0.06
16,20,1,2,12,8,558,1833.8947715419345,1834.4694415190024,"[76, 0, 178]",178,l,0.058010307722724974,colour,0.06
16,20,1,2,12,9,559,1836.4784605834866,1837.1014534478309,"[93, 0, 161]",161,l,0.10679872042965144,colour,0.06
16,20,1,2,12,10,560,1839.1105709737167,1840.0694991779746,"[61, 0, 193]",193,a,0.4427895926637575,colour,0.06
16,20,1,2,12,11,561,1842.0786273377016,1842.7894450164167,"[59, 0, 195]",195,a,0.19378267449792475,colour,0.06
16,20,1,2,12,12,562,1844.798705114401,1845.36549502844,"[55, 0, 199]",199,a,0.050258638337254524,colour,0.06
16,20,1,2,12,13,563,1847.3738547953544,1847.9174771353137,"[82, 0, 172]",172,l,0.027515235939063132,colour,0.06
16,20,1,2,12,14,564,1849.9266785503132,1850.517399311415,"[83, 0, 171]",171,l,0.07426392228808254,colour,0.06
16,20,1,2,12,15,565,1852.526488874224,1853.157466958277,"[54, 0, 200]",200,a,0.11407738120760769,colour,0.06
16,20,1,2,12,16,566,1855.1661847309442,1856.0694223780883,"[1, 0, 253]",253,a,0.38631528278347105,colour,0.06
16,20,1,2,12,17,567,1858.0786789315753,1858.637442665873,"[72, 0, 182]",182,l,0.04240929533261806,colour,0.06
16,20,1,2,12,18,568,1860.6466822839575,1861.5574187516468,"[56, 0, 198]",198,a,0.39395273698028177,colour,0.06
16,20,1,2,12,19,569,1863.5660849304404,1864.117447518045,"[36, 0, 218]",218,l,0.035325194359757006,colour,0.06
16,20,1,2,12,20,570,1866.126624514698,1866.7414702887181,"[84, 0, 170]",170,l,0.09907186345662922,colour,0.06
16,20,1,2,12,21,571,1868.751341241179,1869.5014209949877,"[85, 0, 169]",169,l,0.233280269196257,colour,0.06
16,20,1,2,12,22,572,1871.510505044018,1872.3014852704946,"[77, 0, 177]",177,l,0.27471203973982483,colour,0.06
16,20,1,2,12,23,573,1874.3106027964968,1875.0134013845818,"[62, 0, 192]",192,a,0.18572104861959815,colour,0.06
16,20,1,2,12,24,574,1877.022725285613,1877.6534536714898,"[60, 0, 194]",194,a,0.11241535271983594,colour,0.06
16,20,1,2,12,25,575,1879.6625849819975,1880.1893877512775,"[65, 0, 189]",189,a,0.010487714782357216,colour,0.06
16,20,1,2,12,26,576,1882.198409966426,1882.8213780184742,"[71, 0, 183]",183,a,0.10643677634652704,colour,0.06
16,20,1,2,12,27,577,1884.8304841228528,1885.3814524711343,"[79, 0, 175]",175,l,0.034478820161893964,colour,0.06
16,20,1,2,12,28,578,1887.3906471907394,1888.149396274006,"[66, 0, 188]",188,a,0.24153527314774692,colour,0.06
16,20,1,2,12,29,579,1890.1581211359007,1890.7654322495218,"[92, 0, 162]",162,l,0.08813989080954343,colour,0.06
16,20,1,2,12,30,580,1892.7745249631116,1893.3333812511992,"[80, 0, 174]",174,l,0.04025338450446725,colour,0.06
16,20,1,2,12,31,581,1895.3432124253595,1896.2133512874134,"[75, 0, 179]",179,l,0.3533181098755449,colour,0.06
16,20,1,2,12,32,582,1898.2235065965215,1899.1333411576925,"[53, 0, 201]",201,a,0.3936526265460998,colour,0.06
16,20,1,2,12,33,583,1901.1420786225935,1901.7973735224223,"[97, 0, 157]",157,l,0.1368676513666287,colour,0.06
16,20,1,2,12,34,584,1903.806410703808,1904.4533352027647,"[68, 0, 186]",186,a,0.13063031842466444,colour,0.06
16,20,1,2,12,35,585,1906.4624322486343,1907.0133793292334,"[64, 0, 190]",190,a,0.033979423926211894,colour,0.06
16,20,1,2,12,36,586,1909.0225838950137,1909.5654906174168,"[99, 0, 155]",155,l,0.025954425800591707,colour,0.06
16,20,1,2,12,37,587,1911.5746770662954,1912.133358880761,"[63, 0, 191]",191,a,0.04065038089174777,colour,0.06
16,20,1,2,12,38,588,1914.1435756298015,1914.8053485021228,"[58, 0, 196]",196,a,0.14484263106714934,colour,0.06
16,20,1,2,12,39,589,1916.8145164402667,1917.7654011356644,"[94, 0, 160]",160,l,0.43403913092333823,colour,0.06
16,20,1,2,12,40,590,1919.7745300830575,1920.4133082794724,"[90, 0, 164]",164,l,0.12035134178586304,colour,0.06
16,20,1,2,12,41,591,1922.422535688267,1923.1413389805239,"[91, 0, 163]",163,l,0.20190928468946368,colour,0.06
16,20,1,2,12,42,592,1925.1498665256659,1925.9093040511943,"[89, 0, 165]",165,l,0.24331624305341393,colour,0.06
16,20,1,2,12,43,593,1927.918034426868,1928.5253179712454,"[57, 0, 197]",197,a,0.09153129532933235,colour,0.06
16,20,1,2,12,44,594,1930.5339242855553,1931.1892995297676,"[67, 0, 187]",187,a,0.13797672057989985,colour,0.06
16,20,1,2,12,45,595,1933.1984253264964,1933.8453049270902,"[78, 0, 176]",176,l,0.13076619512867182,colour,0.06
16,20,1,2,12,46,596,1935.8553932823706,1936.8053008468123,"[74, 0, 180]",180,a,0.4336023561190814,colour,0.06
16,20,1,2,12,47,597,1938.8144585449481,1939.4372891448438,"[98, 0, 156]",156,l,0.10639621026348323,colour,0.06
16,20,1,2,12,48,598,1941.446443298366,1942.0692967413925,"[70, 0, 184]",184,a,0.10543916549067944,colour,0.06
16,20,1,2,12,49,599,1944.0783484950662,1944.6613215253456,"[95, 0, 159]",159,l,0.06581042008474469,colour,0.06
16,20,1,2,12,50,600,1946.6704039989272,1947.2852722221287,"[23, 0, 231]",231,a,0.09864020859822631,colour,0.06
16,20,1,2,13,1,601,1954.7575915710768,1955.5173130591866,"[80, 0, 174]",174,l,0.24247656424995512,colour,0.06
16,20,1,2,13,2,602,1957.5263659943594,1958.0932646099245,"[92, 0, 162]",162,l,0.049977432703599334,colour,0.06
16,20,1,2,13,3,603,1960.102586541674,1960.6773289863486,"[74, 0, 180]",180,a,0.05814539676066488,colour,0.06
16,20,1,2,13,4,604,1962.6865181920584,1963.2135025241878,"[98, 0, 156]",156,l,0.010622803820297122,colour,0.06
16,20,1,2,13,5,605,1965.2242214262951,1965.8612832435174,"[83, 0, 171]",171,l,0.1201764743309468,colour,0.06
16,20,1,2,13,6,606,1967.8703814710025,1968.3892911802977,"[4, 0, 250]",250,a,0.0026344333309680223,colour,0.06
16,20,1,2,13,7,607,1970.4067972238408,1971.0932614591438,"[76, 0, 178]",178,a,0.16980653523933142,colour,0.06
16,20,1,2,13,8,608,1973.1023978895973,1973.7172562666237,"[78, 0, 176]",176,a,0.09860082401428372,colour,0.06
16,20,1,2,13,9,609,1975.7256908642594,1976.3492540169973,"[59, 0, 195]",195,a,0.10665457299910486,colour,0.06
16,20,1,2,13,10,610,1978.359001302044,1979.2532340632752,"[91, 0, 163]",163,l,0.37641361041460186,colour,0.06
16,20,1,2,13,11,611,1981.2623767951736,1981.957239394309,"[62, 0, 192]",192,a,0.17858614155557007,colour,0.06
16,20,1,2,13,12,612,1983.966543996823,1984.5492499998072,"[51, 0, 203]",203,a,0.06617197033483535,colour,0.06
16,20,1,2,13,13,613,1986.5583757964196,1987.1412326422287,"[55, 0, 199]",199,a,0.06465763400774449,colour,0.06
16,20,1,2,13,14,614,1989.14945968322,1989.8372117936378,"[81, 0, 173]",173,l,0.17073364777024835,colour,0.06
16,20,1,2,13,15,615,1991.8463139595697,1992.557254518033,"[87, 0, 167]",167,l,0.19467827933840454,colour,0.06
16,20,1,2,13,16,616,1994.566357471631,1995.2532580877887,"[97, 0, 157]",157,l,0.1704429896781221,colour,0.06
16,20,1,2,13,17,617,1997.2622298907954,1998.0211806230946,"[79, 0, 175]",175,l,0.24229303211905062,colour,0.06
16,20,1,2,13,18,618,2000.0302879089722,2000.8452249764232,"[27, 0, 227]",227,a,0.29795523232314736,colour,0.06
16,20,1,2,13,19,619,2002.8550833258778,2005.045331629808,"[89, 0, 165]",165,l,1.6730447338195518,colour,0.06
16,20,1,2,13,20,620,2007.0548386690207,2007.597201096709,"[71, 0, 183]",183,a,0.025738992146216333,colour,0.06
16,20,1,2,13,21,621,2009.6063658841886,2010.1653257536236,"[88, 0, 166]",166,l,0.041841370053589344,colour,0.06
16,20,1,2,13,22,622,2012.1747299991548,2012.741235950496,"[53, 0, 201]",201,a,0.047647441970184445,colour,0.06
16,20,1,2,13,23,623,2014.7500663630199,2015.3572132429108,"[72, 0, 182]",182,a,0.09036236151587218,colour,0.06
16,20,1,2,13,24,624,2017.3661822890863,2018.2372423560591,"[56, 0, 198]",198,a,0.35400103824213147,colour,0.06
16,20,1,2,13,25,625,2020.2463921773015,2020.989237381029,"[66, 0, 188]",188,a,0.22594922711141407,colour,0.06
16,20,1,2,13,26,626,2022.9979523966322,2023.7251922556898,"[73, 0, 181]",181,a,0.2098838706733659,colour,0.06
16,20,1,2,13,27,627,2025.7348103594268,2026.3653067703126,"[11, 0, 243]",243,a,0.11370598489884287,colour,0.06
16,20,1,2,13,28,628,2028.3741493918933,2029.0291689935839,"[68, 0, 186]",186,a,0.137934185215272,colour,0.06
16,20,1,2,13,29,629,2031.0382794302423,2031.6132195855025,"[84, 0, 170]",170,l,0.057938234065659344,colour,0.06
16,20,1,2,13,30,630,2033.6227825507522,2034.453170181485,"[75, 0, 179]",179,l,0.31319390679709613,colour,0.06
16,20,1,2,13,31,631,2036.4622392643942,2037.2131858723005,"[63, 0, 191]",191,a,0.23382653307635337,colour,0.06
16,20,1,2,13,32,632,2039.2224699947983,2040.1011501867324,"[86, 0, 168]",168,l,0.3619512057630345,colour,0.06
16,20,1,2,13,33,633,2042.110031405231,2042.9971706131473,"[77, 0, 177]",177,l,0.37001992075238377,colour,0.06
16,20,1,2,13,34,634,2045.006327523617,2045.6371579155093,"[61, 0, 193]",193,a,0.11460789118427783,colour,0.06
16,20,1,2,13,35,635,2047.6461860385025,2048.229180336348,"[94, 0, 160]",160,l,0.06538782373536378,colour,0.06
16,20,1,2,13,36,636,2050.2383124345215,2051.0452343499055,"[65, 0, 189]",189,a,0.29016811691690236,colour,0.06
16,20,1,2,13,37,637,2053.0542675928446,2053.6051642611856,"[93, 0, 161]",161,l,0.03459736774675548,colour,0.06
16,20,1,2,13,38,638,2055.6144385376247,2056.349152798648,"[99, 0, 155]",155,l,0.21803332399576902,colour,0.06
16,20,1,2,13,39,639,2058.358475124347,2058.9811367643997,"[90, 0, 164]",164,l,0.10325017152354121,colour,0.06
16,20,1,2,13,40,640,2060.9901467704913,2061.821123988135,"[85, 0, 169]",169,l,0.3146928831702098,colour,0.06
16,20,1,2,13,41,641,2063.8302671139827,2064.501112219994,"[70, 0, 184]",184,a,0.15451035927981138,colour,0.06
16,20,1,2,13,42,642,2066.510602717637,2067.0931440931745,"[54, 0, 200]",200,a,0.06530866073444486,colour,0.06
16,20,1,2,13,43,643,2069.1027960674837,2069.8611682405462,"[58, 0, 196]",196,a,0.2414348425809294,colour,0.06
16,20,1,2,13,44,644,2071.870304671116,2072.4931329078972,"[67, 0, 187]",187,a,0.10678296664264053,colour,0.06
16,20,1,2,13,45,645,2074.5016124038957,2075.1251235690434,"[69, 0, 185]",185,a,0.10690820950549096,colour,0.06
16,20,1,2,13,46,646,2077.1338055017404,2077.877123713959,"[82, 0, 172]",172,l,0.22645019856281579,colour,0.06
16,20,1,2,13,47,647,2079.886602790095,2080.605117393541,"[95, 0, 159]",159,l,0.2023641763953492,colour,0.06
16,20,1,2,13,48,648,2082.6142266487004,2083.1571503063897,"[60, 0, 194]",194,a,0.025718118296936154,colour,0.06
16,20,1,2,13,49,649,2085.166194970836,2085.8691125004552,"[50, 0, 204]",204,a,0.18659105361439288,colour,0.06
16,20,1,2,13,50,650,2087.878140623332,2088.533122022054,"[96, 0, 158]",158,l,0.138637593598105,colour,0.06
16,20,1,2,14,1,651,2095.957414261764,2096.733082164894,"[34, 0, 220]",220,a,0.2592098827008158,colour,0.06
16,20,1,2,14,2,652,2098.7421299800044,2099.5010952845914,"[59, 0, 195]",195,a,0.24007725669071078,colour,0.06
16,20,1,2,14,3,653,2101.5100678753806,2102.3491086879512,"[51, 0, 203]",203,a,0.3213252432178706,colour,0.06
16,20,1,2,14,4,654,2104.358279776876,2105.1810575226555,"[80, 0, 174]",174,a,0.3038424365222454,colour,0.06
16,20,1,2,14,5,655,2107.1901494486956,2108.029059898341,"[74, 0, 180]",180,a,0.322650927468203,colour,0.06
16,20,1,2,14,6,656,2110.0380706920987,2110.757066574879,"[83, 0, 171]",171,l,0.20267334522213787,colour,0.06
16,20,1,2,14,7,657,2112.7668496997794,2113.4931033694884,"[68, 0, 186]",186,a,0.2099969043629244,colour,0.06
16,20,1,2,14,8,658,2115.5026718486333,2116.2050797418924,"[96, 0, 158]",158,l,0.18478133296594024,colour,0.06
16,20,1,2,14,9,659,2118.2138983389596,2118.757056728704,"[61, 0, 193]",193,a,0.025575546314939857,colour,0.06
16,20,1,2,14,10,660,2120.7661317193415,2121.525075362297,"[25, 0, 229]",229,a,0.24132732267025858,colour,0.06
16,20,1,2,14,11,661,2123.5338447287213,2124.5170736010186,"[71, 0, 183]",183,a,0.4663742494303733,colour,0.06
16,20,1,2,14,12,662,2126.526249022223,2127.1249991138466,"[53, 0, 201]",201,a,0.08238462486770004,colour,0.06
16,20,1,2,14,13,663,2129.134881881764,2130.3170055445516,"[90, 0, 164]",164,l,0.6654029473429546,colour,0.06
16,20,1,2,14,14,664,2132.3267890634015,2133.0850352058187,"[92, 0, 162]",162,l,0.24200828175526112,colour,0.06
16,20,1,2,14,15,665,2135.0947017525323,2136.8210251329,"[55, 0, 199]",199,a,1.2100536181824282,colour,0.06
16,20,1,2,14,16,666,2138.83005364961,2139.6290273667546,"[89, 0, 165]",165,l,0.2823396477615461,colour,0.06
16,20,1,2,14,17,667,2141.637812880799,2142.9330887814285,"[72, 0, 182]",182,a,0.7776359495474026,colour,0.06
16,20,1,2,14,18,668,2144.9420865782304,2145.7010967812967,"[67, 0, 187]",187,a,0.24045141017995775,colour,0.06
16,20,1,2,14,19,669,2147.710944103077,2148.333038605517,"[99, 0, 155]",155,l,0.10542774386703968,colour,0.06
16,20,1,2,14,20,670,2150.3420891776914,2150.9012589668855,"[58, 0, 196]",196,a,0.04206349898595363,colour,0.06
16,20,1,2,14,21,671,2152.911238226923,2153.765043523861,"[93, 0, 161]",161,l,0.33750796550884843,colour,0.06
16,20,1,2,14,22,672,2155.7741748343688,2156.4450073373737,"[91, 0, 163]",163,l,0.15447018714621663,colour,0.06
16,20,1,2,14,23,673,2158.45418866619,2159.0690060833003,"[22, 0, 232]",232,a,0.09866147628054023,colour,0.06
16,20,1,2,14,24,674,2161.0780995846726,2161.7089878718834,"[97, 0, 157]",157,l,0.1140076705487445,colour,0.06
16,20,1,2,14,25,675,2163.718088462483,2164.3250096689444,"[66, 0, 188]",188,a,0.09073848417028785,colour,0.06
16,20,1,2,14,26,676,2166.3338585920865,2167.2449743330944,"[77, 0, 177]",177,l,0.3940354445949197,colour,0.06
16,20,1,2,14,27,677,2169.2541391204577,2169.9250169156585,"[62, 0, 192]",192,l,0.15412478451617062,colour,0.06
16,20,1,2,14,28,678,2171.9338339373935,2172.6689526778646,"[98, 0, 156]",156,l,0.21895137813407928,colour,0.06
16,20,1,2,14,29,679,2174.678043028456,2180.084971796721,"[81, 0, 173]",173,l,4.890651523019187,colour,0.06
16,20,1,2,14,30,680,2182.09418620856,2182.828997355653,"[70, 0, 184]",184,a,0.21807782852556556,colour,0.06
16,20,1,2,14,31,681,2184.8382834475487,2185.492991517298,"[63, 0, 191]",191,a,0.13776916393544525,colour,0.06
16,20,1,2,14,32,682,2187.502585596405,2188.8290154725546,"[95, 0, 159]",159,l,0.8085528300143778,colour,0.06
16,20,1,2,14,33,683,2190.8381979829865,2191.461000226089,"[82, 0, 172]",172,l,0.10642220405861735,colour,0.06
16,20,1,2,14,34,684,2193.470020472072,2194.100928845466,"[79, 0, 175]",175,l,0.11468587268609554,colour,0.06
16,20,1,2,14,35,685,2196.110095995944,2196.684956594254,"[56, 0, 198]",198,a,0.05859359307214618,colour,0.06
16,20,1,2,14,36,686,2198.6950091096805,2199.436948468443,"[73, 0, 181]",181,a,0.22499021294061095,colour,0.06
16,20,1,2,14,37,687,2201.4460734773893,2202.0209541618824,"[78, 0, 176]",176,l,0.05808828922454268,colour,0.06
16,20,1,2,14,38,688,2204.0299582602456,2205.0129378283164,"[64, 0, 190]",190,a,0.4659571669762954,colour,0.06
16,20,1,2,14,39,689,2207.0220427510794,2207.604932286078,"[57, 0, 197]",197,a,0.0659612629096955,colour,0.06
16,20,1,2,14,40,690,2209.614631521981,2210.292934488505,"[94, 0, 160]",160,l,0.16099935956299305,colour,0.06
16,20,1,2,14,41,691,2212.3026010352187,2213.0689493695972,"[65, 0, 189]",189,l,0.2501975136110559,colour,0.06
16,20,1,2,14,42,692,2215.078056261642,2215.8689132145373,"[69, 0, 185]",185,a,0.2740082376403734,colour,0.06
16,20,1,2,14,43,693,2217.877593965619,2219.6529444291955,"[84, 0, 170]",170,l,1.2582906470634043,colour,0.06
16,20,1,2,14,44,694,2221.661990275141,2222.4129471230553,"[86, 0, 168]",168,l,0.2333665214246139,colour,0.06
16,20,1,2,14,45,695,2224.42195752298,2225.100888673216,"[88, 0, 166]",166,l,0.16262160963378847,colour,0.06
16,20,1,2,14,46,696,2227.1099384577246,2227.716887627146,"[54, 0, 200]",200,a,0.08995512523688376,colour,0.06
16,20,1,2,14,47,697,2229.726018149988,2231.0849288675236,"[87, 0, 167]",167,l,0.8424424572149292,colour,0.06
16,20,1,2,14,48,698,2233.0941921162885,2235.18891474267,"[85, 0, 169]",169,l,1.57856589788571,colour,0.06
16,20,1,2,14,49,699,2237.1975045154104,2242.060912556015,"[75, 0, 179]",179,l,4.347332050441764,colour,0.06
16,20,1,2,14,50,700,2244.070666930289,2248.2288841644768,"[52, 0, 202]",202,a,3.64170053077396,colour,0.06
16,20,1,2,15,1,701,2341.2060273344396,2341.956758114975,"[65, 0, 189]",189,a,0.23319362313486636,colour,0.06
16,20,1,2,15,2,702,2343.9659429885214,2344.57274289045,"[56, 0, 198]",198,a,0.09013983875047415,colour,0.06
16,20,1,2,15,3,703,2346.581673733541,2347.3167692371644,"[98, 0, 156]",156,l,0.21837675746064633,colour,0.06
16,20,1,2,15,4,704,2349.325865495368,2350.044730227557,"[83, 0, 171]",171,l,0.200923883006908,colour,0.06
16,20,1,2,15,5,705,2352.053723298246,2352.940715995501,"[93, 0, 161]",161,l,0.37073278124444187,colour,0.06
16,20,1,2,15,6,706,2354.9494451896753,2355.7007616186747,"[63, 0, 191]",191,a,0.2348757378058508,colour,0.06
16,20,1,2,15,7,707,2357.7098535445984,2358.2687381894793,"[54, 0, 200]",200,a,0.042072557378560305,colour,0.06
16,20,1,2,15,8,708,2360.2776071988046,2360.86072989041,"[55, 0, 199]",199,a,0.06598213675897568,colour,0.06
16,20,1,2,15,9,709,2362.8699005855015,2363.412699000328,"[80, 0, 174]",174,l,0.026149773155339062,colour,0.06
16,20,1,2,15,10,710,2365.4220323535847,2366.0767258511623,"[2, 0, 252]",252,a,0.13805194513406605,colour,0.06
16,20,1,2,15,11,711,2368.0857331003062,2368.652698669466,"[67, 0, 187]",187,l,0.04989354347344488,colour,0.06
16,20,1,2,15,12,712,2370.661879210733,2371.2846720013767,"[51, 0, 203]",203,a,0.10514614428393543,colour,0.06
16,20,1,2,15,13,713,2373.293160162051,2373.852778935223,"[87, 0, 167]",167,l,0.04239472304470837,colour,0.06
16,20,1,2,15,14,714,2375.862109137699,2376.4927260654513,"[13, 0, 241]",241,a,0.11440427310299128,colour,0.06
16,20,1,2,15,15,715,2378.5016462745843,2379.092721496825,"[50, 0, 204]",204,a,0.07421469152905047,colour,0.06
16,20,1,2,15,16,716,2381.1013644387713,2381.7726963378955,"[59, 0, 195]",195,a,0.15484867268241942,colour,0.06
16,20,1,2,15,17,717,2383.7814873658353,2384.444694623933,"[90, 0, 164]",164,l,0.14609624166041613,colour,0.06
16,20,1,2,15,18,718,2386.4541603092803,2387.012690099422,"[30, 0, 224]",224,a,0.04175905627198517,colour,0.06
16,20,1,2,15,19,719,2389.0218221975956,2389.7966693263734,"[52, 0, 202]",202,a,0.2584911143640056,colour,0.06
16,20,1,2,15,20,720,2391.805783701595,2392.3887228610693,"[72, 0, 182]",182,l,0.06598804437089711,colour,0.06
16,20,1,2,15,21,721,2394.3975560304243,2394.96465944557,"[92, 0, 162]",162,l,0.05054023792035878,colour,0.06
16,20,1,2,15,22,722,2396.9741361587076,2397.540686614695,"[97, 0, 157]",157,l,0.04922361217904836,colour,0.06
16,20,1,2,15,23,723,2399.5495406578993,2409.0126731640194,"[95, 0, 159]",159,l,8.946203052531928,colour,0.06
16,20,1,2,15,24,724,2411.0226925964234,2411.692613346735,"[91, 0, 163]",163,l,0.15367973886895925,colour,0.06
16,20,1,2,15,25,725,2413.7015930267517,2414.3006136901677,"[94, 0, 160]",160,l,0.08275759662501514,colour,0.06
16,20,1,2,15,26,726,2416.310483855079,2416.876641646959,"[88, 0, 166]",166,l,0.0496391193009913,colour,0.06
16,20,1,2,15,27,727,2418.8864641564433,2419.644667369779,"[82, 0, 172]",172,l,0.24125091661699116,colour,0.06
16,20,1,2,15,28,728,2421.6530677027768,2423.6446496467106,"[69, 0, 185]",185,a,1.4753153324127197,colour,0.06
16,20,1,2,15,29,729,2425.653714003507,2426.5806103503564,"[79, 0, 175]",175,l,0.4103044189978391,colour,0.06
16,20,1,2,15,30,730,2428.589745599311,2429.188669770723,"[85, 0, 169]",169,l,0.08261581230908632,colour,0.06
16,20,1,2,15,31,731,2431.197782964213,2432.092702198308,"[89, 0, 165]",165,l,0.37876801937818527,colour,0.06
16,20,1,2,15,32,732,2434.1017236259067,2434.6926338267513,"[66, 0, 188]",188,a,0.07394411962013692,colour,0.06
16,20,1,2,15,33,733,2436.701521346811,2437.388641728903,"[86, 0, 168]",168,l,0.1699920364189893,colour,0.06
16,20,1,2,15,34,734,2439.3977324732114,2439.932595686754,"[84, 0, 170]",170,l,0.017915643053129315,colour,0.06
16,20,1,2,15,35,735,2441.94171754492,2442.5406137532555,"[77, 0, 177]",177,l,0.08039255382027477,colour,0.06
16,20,1,2,15,36,736,2444.5494930024724,2446.404613743769,"[71, 0, 183]",183,l,1.3386004932690412,colour,0.06
16,20,1,2,15,37,737,2448.413755688118,2449.1405894923955,"[78, 0, 176]",176,l,0.21048054681159556,colour,0.06
16,20,1,2,15,38,738,2451.149527424597,2451.852618640056,"[96, 0, 158]",158,l,0.18613458645995706,colour,0.06
16,20,1,2,15,39,739,2453.8616601537215,2454.4605922020273,"[61, 0, 193]",193,a,0.08148193079978228,colour,0.06
16,20,1,2,15,40,740,2456.4691603132524,2457.1405749201076,"[74, 0, 180]",180,a,0.15442607644945383,colour,0.06
16,20,1,2,15,41,741,2459.1494486555457,2459.708624746301,"[57, 0, 197]",197,a,0.04295319621451199,colour,0.06
16,20,1,2,15,42,742,2461.7191034025745,2466.6365915655624,"[64, 0, 190]",190,a,4.4000215040287,colour,0.06
16,20,1,2,15,43,743,2468.6466066655703,2469.2685845897067,"[53, 0, 201]",201,a,0.1051110919797793,colour,0.06
16,20,1,2,15,44,744,2471.277273217798,2471.996559758554,"[68, 0, 186]",186,a,0.203100667684339,colour,0.06
16,20,1,2,15,45,745,2474.005530773895,2474.6125839186134,"[73, 0, 181]",181,a,0.08960027026478201,colour,0.06
16,20,1,2,15,46,746,2476.621740041417,2477.356552763842,"[99, 0, 155]",155,l,0.217528807814233,colour,0.06
16,20,1,2,15,47,747,2479.3656828928506,2483.2686090081697,"[62, 0, 192]",192,l,3.386265264474787,colour,0.06
16,20,1,2,15,48,748,2485.2776863618055,2490.900569343241,"[81, 0, 173]",173,l,5.10673334216699,colour,0.06
16,20,1,2,15,49,749,2492.91000864096,2493.7405325422296,"[76, 0, 178]",178,a,0.31439080357085913,colour,0.06
16,20,1,2,15,50,750,2495.749477957608,2496.3725425017765,"[70, 0, 184]",184,a,0.10659392073284835,colour,0.06
16,20,1,2,16,1,751,2503.81223410496,2504.5885156195145,"[78, 0, 176]",176,l,0.25896609225310385,colour,0.06
16,20,1,2,16,2,752,2506.597636296181,2507.5645221510204,"[97, 0, 157]",157,l,0.4501064564101398,colour,0.06
16,20,1,2,16,3,753,2509.574402949773,2510.2525389257353,"[68, 0, 186]",186,a,0.16112342104315758,colour,0.06
16,20,1,2,16,4,754,2512.26172616228,2512.828539707116,"[84, 0, 170]",170,l,0.049484337912872434,colour,0.06
16,20,1,2,16,5,755,2514.837478033267,2515.364527349826,"[79, 0, 175]",175,l,0.010317573440261185,colour,0.06
16,20,1,2,16,6,756,2517.37533053488,2517.916499216575,"[70, 0, 184]",184,a,0.022998614353127778,colour,0.06
16,20,1,2,16,7,757,2519.925679757842,2520.6525100173894,"[66, 0, 188]",188,a,0.21004692267160863,colour,0.06
16,20,1,2,16,8,758,2522.661645266344,2523.5324788721045,"[72, 0, 182]",182,l,0.35393605357967317,colour,0.06
16,20,1,2,16,9,759,2525.5415522872936,2526.356522043934,"[75, 0, 179]",179,l,0.2968725507380441,colour,0.06
16,20,1,2,16,10,760,2528.3653875086457,2529.052466143039,"[57, 0, 197]",197,a,0.17021140840370208,colour,0.06
16,20,1,2,16,11,761,2531.0615332566667,2531.7325039994903,"[53, 0, 201]",201,a,0.15460291306953877,colour,0.06
16,20,1,2,16,12,762,2533.741571506951,2534.5405334087554,"[76, 0, 178]",178,l,0.28060081938747317,colour,0.06
16,20,1,2,16,13,763,2536.5495386886178,2537.2525003288174,"[80, 0, 174]",174,l,0.18675725639332086,colour,0.06
16,20,1,2,16,14,764,2539.2624910104787,2540.0605033504544,"[77, 0, 177]",177,l,0.28167798707727343,colour,0.06
16,20,1,2,16,15,765,2542.0697878669016,2546.052491743001,"[67, 0, 187]",187,l,3.4666105568176135,colour,0.06
16,20,1,2,16,16,766,2548.061580124311,2548.7004745051963,"[62, 0, 192]",192,a,0.12207756715361029,colour,0.06
16,20,1,2,16,17,767,2550.709576277295,2551.332471861737,"[54, 0, 200]",200,a,0.10669120063539594,colour,0.06
16,20,1,2,16,18,768,2553.341547639924,2553.9404588143807,"[71, 0, 183]",183,l,0.08091006695758551,colour,0.06
16,20,1,2,16,19,769,2555.949555466417,2556.5724230878986,"[60, 0, 194]",194,a,0.10599054931662977,colour,0.06
16,20,1,2,16,20,770,2558.581559912185,2559.8764888348524,"[89, 0, 165]",165,a,0.7781325889518484,colour,0.06
16,20,1,2,16,21,771,2561.885540194693,2568.3164384068223,"[90, 0, 164]",164,l,5.914592609973624,colour,0.06
16,20,1,2,16,22,772,2570.325099859503,2571.692451082403,"[93, 0, 161]",161,l,0.8481209232704714,colour,0.06
16,20,1,2,16,23,773,2573.7015437959926,2574.532430429128,"[88, 0, 166]",166,l,0.3144565757829696,colour,0.06
16,20,1,2,16,24,774,2576.541479032021,2581.4684049173957,"[52, 0, 202]",202,l,4.4079326807986945,colour,0.06
16,20,1,2,16,25,775,2583.478200251586,2584.140396901872,"[69, 0, 185]",185,a,0.14499308017548174,colour,0.06
16,20,1,2,16,26,776,2586.14941951097,2586.8683728583856,"[50, 0, 204]",204,a,0.2027690497925505,colour,0.06
16,20,1,2,16,27,777,2588.877430913504,2589.4524258133024,"[63, 0, 191]",191,a,0.05797328625340015,colour,0.06
16,20,1,2,16,28,778,2591.46197932621,2591.9884453574196,"[35, 0, 219]",219,a,0.010154127492569387,colour,0.06
16,20,1,2,16,29,779,2593.997489628033,2594.9243879441638,"[56, 0, 198]",198,a,0.4106533662416041,colour,0.06
16,20,1,2,16,30,780,2596.932799304952,2597.588408099604,"[99, 0, 155]",155,a,0.13897039298899472,colour,0.06
16,20,1,2,16,31,781,2599.597466942505,2600.380405629403,"[83, 0, 171]",171,a,0.2659714240580797,colour,0.06
16,20,1,2,16,32,782,2602.389704718138,2608.7164224955486,"[91, 0, 163]",163,a,5.810193984769285,colour,0.06
16,20,1,2,16,33,783,2610.7258921193425,2613.2683471008204,"[96, 0, 158]",158,a,2.025904801208526,colour,0.06
16,20,1,2,16,34,784,2615.2774252421223,2615.8684130306356,"[82, 0, 172]",172,l,0.07447541737928987,colour,0.06
16,20,1,2,16,35,785,2617.8774466674076,2618.4923664843664,"[13, 0, 241]",241,a,0.09794388967566192,colour,0.06
16,20,1,2,16,36,786,2620.5011098568793,2621.0524133677827,"[98, 0, 156]",156,l,0.03488802583888173,colour,0.06
16,20,1,2,16,37,787,2623.0616262042895,2623.6203548863996,"[95, 0, 159]",159,l,0.042143449652940035,colour,0.06
16,20,1,2,16,38,788,2625.6298087564064,2626.404353018035,"[65, 0, 189]",189,l,0.2581673733657226,colour,0.06
16,20,1,2,16,39,789,2628.413850998739,2629.4283768126043,"[94, 0, 160]",160,l,0.4978121876483783,colour,0.06
16,20,1,2,16,40,790,2631.437854707241,2632.0603808644228,"[85, 0, 169]",169,l,0.10496261226944625,colour,0.06
16,20,1,2,16,41,791,2634.0695090241497,2634.6603857481387,"[64, 0, 190]",190,a,0.07366882148198783,colour,0.06
16,20,1,2,16,42,792,2636.669188591419,2637.3563278780784,"[55, 0, 199]",199,a,0.1698624612763524,colour,0.06
16,20,1,2,16,43,793,2639.3658636679174,2639.9483341511805,"[86, 0, 168]",168,l,0.06506605178583413,colour,0.06
16,20,1,2,16,44,794,2641.9574757016962,2646.3403464108706,"[81, 0, 173]",173,l,3.866046018549241,colour,0.06
16,20,1,2,16,45,795,2648.349488355103,2650.532334330841,"[59, 0, 195]",195,l,1.6666904287412763,colour,0.06
16,20,1,2,16,46,796,2652.5413817521185,2653.268315199297,"[74, 0, 180]",180,l,0.2088992566568777,colour,0.06
16,20,1,2,16,47,797,2655.278067998239,2656.044339926564,"[61, 0, 193]",193,a,0.24942557618487626,colour,0.06
16,20,1,2,16,48,798,2658.0534350032685,2658.7163342740387,"[51, 0, 203]",203,a,0.14583039586432278,colour,0.06
16,20,1,2,16,49,799,2660.725452587707,2661.2683120486327,"[87, 0, 167]",167,l,0.023983228486031294,colour,0.06
16,20,1,2,16,50,800,2663.2772184732603,2663.876295850496,"[40, 0, 214]",214,a,0.0827772889751941,colour,0.06
