id,age,condition,counterbalance,block,trialinblock,trial,tstart,tend,trialstim,trialintensity,response,RT,trialtype,colourfreq
02,20,2,1,Practice,1,NA,5.513662472367287e-06,1.7503931557293981,"[75, 0, 179]",179,l,1.1017932163085788,colour,0.5
02,20,2,1,Practice,2,NA,3.766547502251342,21.43832837929949,"[56, 0, 198]",198,l,17.1484890722204,colour,0.5
02,20,2,1,Practice,3,NA,23.45384233351797,24.142329334048554,"[33, 0, 221]",221,a,0.16513099893927574,colour,0.5
02,20,2,1,Practice,4,NA,26.157013850286603,36.910265140468255,"[3, 0, 251]",251,a,10.22984763327986,colour,0.5
02,20,2,1,Practice,5,NA,38.92296625254676,40.3182473576162,"[87, 0, 167]",167,l,0.8723740868736058,colour,0.5
02,20,2,1,Practice,6,NA,42.32873348449357,43.374274586327374,"[91, 0, 163]",163,l,0.5221811616793275,colour,0.5
02,20,2,1,Practice,7,NA,45.39125088765286,45.93423731299117,"[17, 0, 237]",237,a,0.019718644907698035,colour,0.5
02,20,2,1,Practice,8,NA,47.955625073518604,63.6621812954545,"[31, 0, 223]",223,l,15.18319313088432,colour,0.5
02,20,2,1,Practice,9,NA,65.67437119665556,66.28619702719152,"[15, 0, 239]",239,a,0.08850645646452904,colour,0.5
02,20,2,1,Practice,10,NA,68.29925929545425,78.14220763579942,"[70, 0, 184]",184,l,9.319528535706922,colour,0.5
02,20,2,1,1,1,1,5.82802160945721,6.488000129116699,"[90, 0, 164]",164,l,0.13611603318713605,colour,0.5
02,20,2,1,1,2,2,8.500726841157302,9.120044787880033,"[8, 0, 246]",246,a,0.09598557581193745,colour,0.5
02,20,2,1,1,3,3,11.14134787186049,11.832013229839504,"[13, 0, 241]",241,a,0.1658828491345048,colour,0.5
02,20,2,1,1,4,4,13.835706709651276,14.368567770114169,"[10, 0, 244]",244,a,0.009449132718145847,colour,0.5
02,20,2,1,1,5,5,16.38266073097475,30.04796521854587,"[2, 0, 252]",252,l,13.142085543833673,colour,0.5
02,20,2,1,1,6,6,32.05445499904454,32.807922903914005,"[9, 0, 245]",245,a,0.23002880183048546,colour,0.5
02,20,2,1,1,7,7,34.80772479972802,35.767947227694094,"[99, 0, 155]",155,l,0.43693141057156026,colour,0.5
02,20,2,1,1,8,8,37.776469642994925,45.8319092548918,"[66, 0, 188]",188,l,7.532454612432048,colour,0.5
02,20,2,1,1,9,9,47.83890827698633,48.487889064708725,"[4, 0, 250]",250,a,0.12637387961149216,colour,0.5
02,20,2,1,1,10,10,50.48520225309767,51.06389783020131,"[17, 0, 237]",237,a,0.055568399373441935,colour,0.5
02,20,2,1,1,11,11,53.07906244369224,54.00786311831325,"[72, 0, 182]",182,l,0.4056585307698697,colour,0.5
02,20,2,1,1,12,12,56.01659466512501,56.71989063709043,"[58, 0, 196]",196,a,0.1798761673271656,colour,0.5
02,20,2,1,1,13,13,58.7353423635941,59.391901125898585,"[89, 0, 165]",165,l,0.1332468711771071,colour,0.5
02,20,2,1,1,14,14,61.40721382503398,62.47990188514814,"[64, 0, 190]",190,a,0.5496451652143151,colour,0.5
02,20,2,1,1,15,15,64.4885373339057,65.11181815061718,"[55, 0, 199]",199,a,0.09991930122487247,colour,0.5
02,20,2,1,1,16,16,67.12919814302586,68.06384899327531,"[22, 0, 232]",232,a,0.41156975249759853,colour,0.5
02,20,2,1,1,17,17,70.06991499639116,70.72783016134053,"[5, 0, 249]",249,a,0.13453632034361362,colour,0.5
02,20,2,1,1,18,18,72.74177424865775,73.39985128398985,"[33, 0, 221]",221,a,0.13475135969929397,colour,0.5
02,20,2,1,1,19,19,75.41365634393878,83.02382329897955,"[34, 0, 220]",220,l,7.086948798969388,colour,0.5
02,20,2,1,1,20,20,85.03931401623413,85.67980862269178,"[14, 0, 240]",240,a,0.11725951521657407,colour,0.5
02,20,2,1,1,21,21,87.69551122863777,88.66383583890274,"[23, 0, 231]",231,a,0.44536639214493334,colour,0.5
02,20,2,1,1,22,22,90.67986612394452,91.68792340811342,"[67, 0, 187]",187,a,0.4846453561913222,colour,0.5
02,20,2,1,1,23,23,93.69540095189586,94.23183182487264,"[85, 0, 169]",169,l,0.013630586676299572,colour,0.5
02,20,2,1,1,24,24,96.24272991390899,96.8958594664,"[82, 0, 172]",172,l,0.12967272638343275,colour,0.5
02,20,2,1,1,25,25,98.91495426069014,104.55176405189559,"[86, 0, 168]",168,l,5.113478995626792,colour,0.5
02,20,2,1,1,26,26,106.57126805139706,107.43176337447949,"[62, 0, 192]",192,a,0.3372082442510873,colour,0.5
02,20,2,1,1,27,27,109.44615999003872,110.32785087754019,"[91, 0, 163]",163,l,0.3582277598325163,colour,0.5
02,20,2,1,1,28,28,112.33685575285926,113.02372798835859,"[12, 0, 242]",242,a,0.16348669538274407,colour,0.5
02,20,2,1,1,29,29,115.03996543609537,115.87973820324987,"[63, 0, 191]",191,a,0.31640022387728095,colour,0.5
02,20,2,1,1,30,30,117.89931663917378,122.94374709785916,"[21, 0, 233]",233,l,4.521153619745746,colour,0.5
02,20,2,1,1,31,31,124.96194510650821,125.6477181201335,"[18, 0, 236]",236,a,0.1627415402326733,colour,0.5
02,20,2,1,1,32,32,127.66491458076052,128.3837245067116,"[46, 0, 208]",208,a,0.19583122781477869,colour,0.5
02,20,2,1,1,33,33,130.39931959309615,131.35968065448105,"[57, 0, 197]",197,a,0.43730832054279745,colour,0.5
02,20,2,1,1,34,34,133.36807467602193,134.5517573566176,"[81, 0, 173]",173,l,0.6603495217859745,colour,0.5
02,20,2,1,1,35,35,136.57120897457935,137.48772128671408,"[59, 0, 195]",195,a,0.3932315348647535,colour,0.5
02,20,2,1,1,36,36,139.50864706700668,140.32766577019356,"[53, 0, 201]",201,a,0.2956989351660013,colour,0.5
02,20,2,1,1,37,37,142.33673759945668,143.0716731210705,"[36, 0, 218]",218,a,0.21159960608929396,colour,0.5
02,20,2,1,1,38,38,145.08675935934298,146.0796764481347,"[50, 0, 204]",204,a,0.4696386745199561,colour,0.5
02,20,2,1,1,39,39,148.0744264924433,148.71170299034566,"[31, 0, 223]",223,a,0.11397602828219533,colour,0.5
02,20,2,1,1,40,40,150.7182187642902,151.2476387997158,"[20, 0, 234]",234,a,0.006071516778320074,colour,0.5
02,20,2,1,1,41,41,153.26510386285372,154.17562618409283,"[15, 0, 239]",239,a,0.3874168051406741,colour,0.5
02,20,2,1,1,42,42,156.18706541648135,157.08760809572414,"[76, 0, 178]",178,l,0.37732570501975715,colour,0.5
02,20,2,1,1,43,43,159.10880247829482,159.66369996243156,"[54, 0, 200]",200,a,0.031506824074313045,colour,0.5
02,20,2,1,1,44,44,161.67135040438734,162.45565441506915,"[39, 0, 215]",215,a,0.260967307491228,colour,0.5
02,20,2,1,1,45,45,164.4681834166404,165.08762975712307,"[77, 0, 177]",177,l,0.09614941547624767,colour,0.5
02,20,2,1,1,46,46,167.1088725826703,167.93561498308554,"[25, 0, 229]",229,a,0.3035285766236484,colour,0.5
02,20,2,1,1,47,47,169.95255347527564,170.65572735504247,"[11, 0, 243]",243,a,0.17944096820428967,colour,0.5
02,20,2,1,1,48,48,172.67128935828805,173.44759043562226,"[74, 0, 180]",180,l,0.25300493999384344,colour,0.5
02,20,2,1,1,49,49,175.46807826007716,176.29558235709555,"[96, 0, 158]",158,l,0.3041114676743746,colour,0.5
02,20,2,1,1,50,50,178.3118552507367,179.03957749856636,"[16, 0, 238]",238,a,0.20525751751847565,colour,0.5
02,20,2,1,2,1,51,186.56426312145777,189.09558976138942,"[79, 0, 175]",175,l,2.0055165889207274,colour,0.5
02,20,2,1,2,2,52,191.1134337033145,191.9597265769262,"[82, 0, 172]",172,l,0.3229798008687794,colour,0.5
02,20,2,1,2,3,53,193.97265887609683,194.64760232972912,"[57, 0, 197]",197,a,0.151423612376675,colour,0.5
02,20,2,1,2,4,54,196.66025342349894,197.5436216974631,"[93, 0, 161]",161,l,0.36050418484956026,colour,0.5
02,20,2,1,2,5,55,199.55083378986456,200.39950627554208,"[73, 0, 181]",181,a,0.32594348560087383,colour,0.5
02,20,2,1,2,6,56,202.4103374108672,203.35956131946295,"[15, 0, 239]",239,a,0.42710497439838946,colour,0.5
02,20,2,1,2,7,57,205.37886209459975,206.32752871210687,"[39, 0, 215]",215,a,0.42613335815258324,colour,0.5
02,20,2,1,2,8,58,208.3493831793312,209.17565178405493,"[3, 0, 251]",251,a,0.30316387629136443,colour,0.5
02,20,2,1,2,9,59,211.19311487791128,211.80746328667738,"[8, 0, 246]",246,a,0.09173322981223464,colour,0.5
02,20,2,1,2,10,60,213.81807386875153,214.63959979009815,"[10, 0, 244]",244,a,0.2990281081292778,colour,0.5
02,20,2,1,2,11,61,216.64648026484065,218.76757071190514,"[70, 0, 184]",184,l,1.598641470540315,colour,0.5
02,20,2,1,2,12,62,220.78705108049326,221.62349546211772,"[47, 0, 207]",207,a,0.31410646974109113,colour,0.5
02,20,2,1,2,13,63,223.6305283550173,224.67948291264474,"[19, 0, 235]",235,a,0.5258577060885727,colour,0.5
02,20,2,1,2,14,64,226.6930603303481,227.81541383848526,"[46, 0, 208]",208,a,0.6001073620282114,colour,0.5
02,20,2,1,2,15,65,229.83371582254767,230.59155974094756,"[48, 0, 206]",206,a,0.23520550248213112,colour,0.5
02,20,2,1,2,16,66,232.59937008400448,233.43147626146674,"[30, 0, 224]",224,a,0.30829804157838225,colour,0.5
02,20,2,1,2,17,67,235.44309941935353,236.03944674204104,"[90, 0, 164]",164,l,0.07295233011245728,colour,0.5
02,20,2,1,2,18,68,238.0495260269381,238.8074179943651,"[13, 0, 241]",241,a,0.23454581177793443,colour,0.5
02,20,2,1,2,19,69,240.80670946696773,241.67942462372594,"[91, 0, 163]",163,l,0.34936466882936656,colour,0.5
02,20,2,1,2,20,70,243.6972882580012,244.46340765058994,"[84, 0, 170]",170,l,0.24277481250464916,colour,0.5
02,20,2,1,2,21,71,246.4786163745448,247.27137624053285,"[28, 0, 226]",226,a,0.27004977012984455,colour,0.5
02,20,2,1,2,22,72,249.29101769183762,250.15938873658888,"[0, 0, 254]",254,a,0.344965418567881,colour,0.5
02,20,2,1,2,23,73,252.1567739986349,253.01536665600725,"[81, 0, 173]",173,l,0.3352362618315965,colour,0.5
02,20,2,1,2,24,74,255.03169035562314,255.6953757458832,"[88, 0, 166]",166,l,0.14033726532943547,colour,0.5
02,20,2,1,2,25,75,257.70456297160126,264.12734076939523,"[25, 0, 229]",229,a,5.899470238946378,colour,0.5
02,20,2,1,2,26,76,266.1420122885611,270.35937621211633,"[29, 0, 225]",225,a,3.6939976818393916,colour,0.5
02,20,2,1,2,27,77,272.37638992862776,273.33532723993994,"[64, 0, 190]",190,a,0.43562620785087347,colour,0.5
02,20,2,1,2,28,78,275.34505560877733,276.0313922148198,"[37, 0, 217]",217,a,0.16320233908481896,colour,0.5
02,20,2,1,2,29,79,278.0481818334665,278.927416308783,"[16, 0, 238]",238,a,0.35656927805393934,colour,0.5
02,20,2,1,2,30,80,280.93889965163544,281.91147897113115,"[75, 0, 179]",179,l,0.44936195109039545,colour,0.5
02,20,2,1,2,31,81,283.92323367344216,284.54328889842145,"[32, 0, 222]",222,a,0.09664487279951572,colour,0.5
02,20,2,1,2,32,82,286.5638755778782,287.511281497078,"[66, 0, 188]",188,a,0.4240719727240503,colour,0.5
02,20,2,1,2,33,83,289.53259442723356,290.9034874592908,"[72, 0, 182]",182,l,0.8599033739883453,colour,0.5
02,20,2,1,2,34,84,292.91089726192877,293.5032915608026,"[96, 0, 158]",158,l,0.07387156481854618,colour,0.5
02,20,2,1,2,35,85,295.51540938811377,296.5832689066883,"[63, 0, 191]",191,a,0.5448044145014137,colour,0.5
02,20,2,1,2,36,86,298.5935431451071,299.45545040327124,"[89, 0, 165]",165,l,0.33855913346633315,colour,0.5
02,20,2,1,2,37,87,301.47009632270783,302.2712407577783,"[56, 0, 198]",198,a,0.2778010363690555,colour,0.5
02,20,2,1,2,38,88,304.2825913748238,305.00727589521557,"[94, 0, 160]",160,l,0.20123832789249718,colour,0.5
02,20,2,1,2,39,89,307.01698969188146,308.2232207946945,"[65, 0, 189]",189,l,0.6827758522704244,colour,0.5
02,20,2,1,2,40,90,310.23577894084156,311.09524278366007,"[92, 0, 162]",162,l,0.3362094529438764,colour,0.5
02,20,2,1,2,41,91,313.1107437410392,313.92739937338047,"[58, 0, 196]",196,a,0.2940621147863567,colour,0.5
02,20,2,1,2,42,92,315.9382950994186,316.77520855073817,"[27, 0, 227]",227,a,0.3136598493438214,colour,0.5
02,20,2,1,2,43,93,318.7696628172416,319.679218248697,"[2, 0, 252]",252,a,0.3861982482485473,colour,0.5
02,20,2,1,2,44,94,321.6914451713674,322.5512166072149,"[77, 0, 177]",177,l,0.33634217898361385,colour,0.5
02,20,2,1,2,45,95,324.5664304513484,325.4631776448805,"[61, 0, 193]",193,a,0.3733321148902178,colour,0.5
02,20,2,1,2,46,96,327.46033723372966,328.30318868835457,"[24, 0, 230]",230,a,0.3196301478892565,colour,0.5
02,20,2,1,2,47,97,330.31967268302105,331.1994483016897,"[43, 0, 211]",211,a,0.3564070137217641,colour,0.5
02,20,2,1,2,48,98,333.2014100442175,334.02319038985297,"[31, 0, 223]",223,a,0.29840110684745014,colour,0.5
02,20,2,1,2,49,99,336.0296033702325,336.83915167325176,"[9, 0, 245]",245,a,0.2862045103684068,colour,0.5
02,20,2,1,2,50,100,338.857724228641,340.9112781099975,"[41, 0, 213]",213,a,1.5303542360197753,colour,0.5
02,20,2,1,3,1,101,350.184916991042,350.87911080778576,"[2, 0, 252]",252,a,0.17001861706376076,colour,0.5
02,20,2,1,3,2,102,352.87686470896006,353.6310836765915,"[23, 0, 231]",231,a,0.23096654703840613,colour,0.5
02,20,2,1,3,3,103,355.64251306280494,356.3351216528099,"[90, 0, 164]",164,l,0.16924431757070124,colour,0.5
02,20,2,1,3,4,104,358.33327097445726,359.1910913013853,"[22, 0, 232]",232,a,0.33433671947568655,colour,0.5
02,20,2,1,3,5,105,361.2065079759341,362.0312173475977,"[78, 0, 176]",176,l,0.3014530127402395,colour,0.5
02,20,2,1,3,6,106,364.0502278590575,365.07908489275724,"[49, 0, 205]",205,a,0.5055731057655066,colour,0.5
02,20,2,1,3,7,107,367.0845794265624,367.8950642931741,"[51, 0, 203]",203,a,0.28701780061237514,colour,0.5
02,20,2,1,3,8,108,369.91283694910817,370.72705704323016,"[79, 0, 175]",175,l,0.2955142220016569,colour,0.5
02,20,2,1,3,9,109,372.7362466319464,373.35904183774255,"[31, 0, 223]",223,a,0.09939981950446963,colour,0.5
02,20,2,1,3,10,110,375.3671247216407,376.44704732322134,"[74, 0, 180]",180,l,0.5566737258341163,colour,0.5
02,20,2,1,3,11,111,378.46075392188504,379.27106273989193,"[62, 0, 192]",192,a,0.2870918435510248,colour,0.5
02,20,2,1,3,12,112,381.2794977212325,382.1750436872244,"[35, 0, 219]",219,a,0.384602781618014,colour,0.5
02,20,2,1,3,13,113,384.18916342942975,384.88707908289507,"[11, 0, 243]",243,a,0.1746273930184543,colour,0.5
02,20,2,1,3,14,114,386.91013241466135,388.8230359237641,"[99, 0, 155]",155,l,1.3896085533779114,colour,0.5
02,20,2,1,3,15,115,390.83199353772216,391.63109391671605,"[61, 0, 193]",193,a,0.2758003033231944,colour,0.5
02,20,2,1,3,16,116,393.64444959932007,394.5031139366329,"[41, 0, 213]",213,a,0.33543830434791744,colour,0.5
02,20,2,1,3,17,117,396.5194825346116,397.28700086520985,"[30, 0, 224]",224,a,0.24432144220918417,colour,0.5
02,20,2,1,3,18,118,399.3009252604097,400.47909056418575,"[84, 0, 170]",170,l,0.6577907099854201,colour,0.5
02,20,2,1,3,19,119,402.4749406178016,403.3030161841307,"[19, 0, 235]",235,a,0.30511537892743945,colour,0.5
02,20,2,1,3,20,120,405.3198377043009,406.3589780346956,"[42, 0, 212]",212,a,0.5158032332547009,colour,0.5
02,20,2,1,3,21,121,408.3666875534691,409.19895441969857,"[94, 0, 160]",160,l,0.3088324891868979,colour,0.5
02,20,2,1,3,22,122,411.2007503537461,412.0549319454003,"[95, 0, 159]",159,l,0.3305656521115452,colour,0.5
02,20,2,1,3,23,123,414.0757127907127,414.7989688345697,"[92, 0, 162]",162,l,0.21240501943975687,colour,0.5
02,20,2,1,3,24,124,416.81335048377514,417.63896885025315,"[48, 0, 206]",206,a,0.3023052937351167,colour,0.5
02,20,2,1,3,25,125,419.64464455260895,420.894960711943,"[71, 0, 183]",183,l,0.7274875161238015,colour,0.5
02,20,2,1,3,26,126,422.91014462383464,423.85497361421585,"[85, 0, 169]",169,l,0.4255465290043503,colour,0.5
02,20,2,1,3,27,127,425.87472376669757,426.8789749313146,"[96, 0, 158]",158,l,0.48091091657988727,colour,0.5
02,20,2,1,3,28,128,428.8903598128818,429.94297476741485,"[81, 0, 173]",173,l,0.5296787917613983,colour,0.5
02,20,2,1,3,29,129,431.9519477414433,432.75118635990657,"[58, 0, 196]",196,a,0.27595784119330347,colour,0.5
02,20,2,1,3,30,130,434.7644073476549,435.62290508835576,"[5, 0, 249]",249,a,0.33513031736947596,colour,0.5
02,20,2,1,3,31,131,437.63940798770636,438.3749157662969,"[97, 0, 157]",157,l,0.21283864276483655,colour,0.5
02,20,2,1,3,32,132,440.376961003989,441.1348927500658,"[4, 0, 250]",250,a,0.23469823016785085,colour,0.5
02,20,2,1,3,33,133,443.14259242266417,443.7028903113678,"[7, 0, 247]",247,a,0.03695764089934528,colour,0.5
02,20,2,1,3,34,134,445.7224419657141,446.4788704046514,"[33, 0, 221]",221,a,0.2329672803170979,colour,0.5
02,20,2,1,3,35,135,448.488139156485,452.06286831898615,"[56, 0, 198]",198,a,3.051538575673476,colour,0.5
02,20,2,1,3,36,136,454.0820036791265,454.9028947222978,"[10, 0, 244]",244,a,0.29759214888326824,colour,0.5
02,20,2,1,3,37,137,456.9111552303657,457.88688294799067,"[46, 0, 208]",208,a,0.4572601218242198,colour,0.5
02,20,2,1,3,38,138,459.9062687936239,460.66284413682297,"[3, 0, 251]",251,a,0.23315829527564347,colour,0.5
02,20,2,1,3,39,139,462.67186673521064,463.43083744472824,"[54, 0, 200]",200,a,0.2355898953974247,colour,0.5
02,20,2,1,3,40,140,465.4374946090393,466.1988276017364,"[52, 0, 202]",202,a,0.23798526148311794,colour,0.5
02,20,2,1,3,41,141,468.21879555052146,469.35886775818653,"[27, 0, 227]",227,a,0.616788673447445,colour,0.5
02,20,2,1,3,42,142,471.37698621023446,472.0629136110656,"[13, 0, 241]",241,a,0.1627214541658759,colour,0.5
02,20,2,1,3,43,143,474.0800285458099,474.9587963146623,"[25, 0, 229]",229,a,0.3554062533657998,colour,0.5
02,20,2,1,3,44,144,476.9706924073398,478.0547877980862,"[38, 0, 216]",216,a,0.5607834998518229,colour,0.5
02,20,2,1,3,45,145,480.0673561843578,480.8468706442509,"[8, 0, 246]",246,a,0.25670117675326765,colour,0.5
02,20,2,1,3,46,146,482.8547503040172,483.7188252857886,"[69, 0, 185]",185,l,0.340536629781127,colour,0.5
02,20,2,1,3,47,147,485.73258426599205,486.8388098157011,"[75, 0, 179]",179,a,0.5826848344877362,colour,0.5
02,20,2,1,3,48,148,488.854233185295,489.478810146451,"[89, 0, 165]",165,l,0.10171996103599668,colour,0.5
02,20,2,1,3,49,149,491.49532249802724,492.3827379248105,"[16, 0, 238]",238,a,0.36454700538888574,colour,0.5
02,20,2,1,3,50,150,494.4015692365356,495.2787832862232,"[82, 0, 172]",172,l,0.35370996221899986,colour,0.5
02,20,2,1,4,1,151,502.9359418747481,503.8787713132333,"[87, 0, 167]",167,l,0.4186640849802643,colour,0.5
02,20,2,1,4,2,152,505.88991240481846,506.43070747563615,"[21, 0, 233]",233,a,0.017606847221031785,colour,0.5
02,20,2,1,4,3,153,508.4524225217756,509.750718471827,"[61, 0, 193]",193,a,0.7751329324673861,colour,0.5
02,20,2,1,4,4,154,511.7648224604782,512.5267328298651,"[3, 0, 251]",251,a,0.2386142322793603,colour,0.5
02,20,2,1,4,5,155,514.5461730263196,522.4787325588986,"[14, 0, 240]",240,a,7.40928190597333,colour,0.5
02,20,2,1,4,6,156,524.4992018726189,525.0227532216813,"[1, 0, 253]",253,a,0.0005230263341218233,colour,0.5
02,20,2,1,4,7,157,527.0460609772708,527.998677861644,"[59, 0, 195]",195,a,0.4293404391501099,colour,0.5
02,20,2,1,4,8,158,530.014699482359,530.830750168534,"[27, 0, 227]",227,a,0.29264151537790895,colour,0.5
02,20,2,1,4,9,159,532.84450205951,533.7506298567168,"[28, 0, 226]",226,a,0.3831183791626245,colour,0.5
02,20,2,1,4,10,160,535.7681953501888,536.7106707221828,"[77, 0, 177]",177,l,0.4190595056861639,colour,0.5
02,20,2,1,4,11,161,538.7213395931758,540.9586308996659,"[69, 0, 185]",185,a,1.713954603066668,colour,0.5
02,20,2,1,4,12,162,542.9713194086216,543.6866887034848,"[50, 0, 204]",204,a,0.19197233323939145,colour,0.5
02,20,2,1,4,13,163,545.7061304752715,546.4626412277576,"[96, 0, 158]",158,l,0.2335793157108128,colour,0.5
02,20,2,1,4,14,164,548.4717292045243,549.1586337352637,"[33, 0, 221]",221,a,0.16172699513845146,colour,0.5
02,20,2,1,4,15,165,551.1779675935395,551.950606698636,"[20, 0, 234]",234,a,0.24955643177963793,colour,0.5
02,20,2,1,4,16,166,553.9591216307599,554.5025944546796,"[7, 0, 247]",247,a,0.020096342312172055,colour,0.5
02,20,2,1,4,17,167,556.5215974829625,557.2866082014516,"[47, 0, 207]",207,a,0.2416425074916333,colour,0.5
02,20,2,1,4,18,168,559.3029500180855,560.3106004600413,"[79, 0, 175]",175,l,0.4843850245233625,colour,0.5
02,20,2,1,4,19,169,562.3185049321037,562.958594272146,"[90, 0, 164]",164,l,0.1171216694638133,colour,0.5
02,20,2,1,4,20,170,564.9746304647997,565.8545766184106,"[15, 0, 239]",239,a,0.3564853889402002,colour,0.5
02,20,2,1,4,21,171,567.8654053905047,568.7106073130853,"[80, 0, 174]",174,l,0.3219778588972986,colour,0.5
02,20,2,1,4,22,172,570.7247231169604,571.4945509554818,"[65, 0, 189]",189,a,0.24651279672980309,colour,0.5
02,20,2,1,4,23,173,573.5059858553577,574.1986054729205,"[62, 0, 192]",192,a,0.1696306795347482,colour,0.5
02,20,2,1,4,24,174,576.2090593047906,577.1026214726735,"[52, 0, 202]",202,a,0.37021798151545227,colour,0.5
02,20,2,1,4,25,175,579.1152926525101,579.766566012986,"[44, 0, 210]",210,a,0.1279083003755659,colour,0.5
02,20,2,1,4,26,176,581.7871660832316,582.4785076733679,"[5, 0, 249]",249,a,0.16803166829049587,colour,0.5
02,20,2,1,4,27,177,584.4934607921168,585.2625241770875,"[88, 0, 166]",166,l,0.2500826090108603,colour,0.5
02,20,2,1,4,28,178,587.2703912337311,587.9505153265782,"[9, 0, 245]",245,a,0.15688309376128018,colour,0.5
02,20,2,1,4,29,179,589.9578459663317,590.7745874568354,"[23, 0, 231]",231,a,0.2933886395767331,colour,0.5
02,20,2,1,4,30,180,592.7795365150087,593.5985115014482,"[49, 0, 205]",205,a,0.29568554437719285,colour,0.5
02,20,2,1,4,31,181,595.6096502300352,596.8465268174186,"[8, 0, 246]",246,a,0.7135351579636335,colour,0.5
02,20,2,1,4,32,182,598.8517625946552,600.0385023013223,"[67, 0, 187]",187,a,0.6634471139404923,colour,0.5
02,20,2,1,4,33,183,602.0547834658064,603.110558239976,"[6, 0, 248]",248,a,0.5323431540746242,colour,0.5
02,20,2,1,4,34,184,605.1172760566697,605.9264710803982,"[36, 0, 218]",218,a,0.28583035757765174,colour,0.5
02,20,2,1,4,35,185,607.9385085634422,608.7984599866904,"[70, 0, 184]",184,a,0.3367439010180533,colour,0.5
02,20,2,1,4,36,186,610.8133693884593,611.6145075222012,"[42, 0, 212]",212,a,0.2777821319177747,colour,0.5
02,20,2,1,4,37,187,613.6258920098189,614.39850472752,"[86, 0, 168]",168,l,0.24960290570743382,colour,0.5
02,20,2,1,4,38,188,616.4071063054726,617.174404870253,"[84, 0, 170]",170,l,0.24425133760087192,colour,0.5
02,20,2,1,4,39,189,619.1883316284511,619.8944380793255,"[37, 0, 217]",217,a,0.18273469526320696,colour,0.5
02,20,2,1,4,40,190,621.8965510586277,622.4944410726894,"[92, 0, 162]",162,l,0.074582455214113,colour,0.5
02,20,2,1,4,41,191,624.5059448955581,625.1344071389176,"[85, 0, 169]",169,l,0.10542801325209439,colour,0.5
02,20,2,1,4,42,192,627.1465867999941,629.2143750325777,"[34, 0, 220]",220,a,1.544849312864244,colour,0.5
02,20,2,1,4,43,193,631.2246748709586,631.8143945673946,"[93, 0, 161]",161,l,0.06633179332129657,colour,0.5
02,20,2,1,4,44,194,633.834027353907,634.4463533679955,"[13, 0, 241]",241,a,0.08889596932567656,colour,0.5
02,20,2,1,4,45,195,636.4589623203501,637.2384370018262,"[78, 0, 176]",176,l,0.2560430613812059,colour,0.5
02,20,2,1,4,46,196,639.2559359355364,639.8624117737636,"[76, 0, 178]",178,a,0.08311550435610116,colour,0.5
02,20,2,1,4,47,197,641.8808709017467,642.5183557437267,"[89, 0, 165]",165,l,0.11417570780031383,colour,0.5
02,20,2,1,4,48,198,644.5370937141124,645.2303844438866,"[19, 0, 235]",235,a,0.169958358630538,colour,0.5
02,20,2,1,4,49,199,647.2421005493961,648.254388517933,"[55, 0, 199]",199,a,0.48890518536791205,colour,0.5
02,20,2,1,4,50,200,650.2733939092141,650.9263797083404,"[39, 0, 215]",215,a,0.1301461283583194,colour,0.5
02,20,2,1,5,1,201,658.5194793839473,659.1663838201202,"[86, 0, 168]",168,l,0.12369533884339035,colour,0.6
02,20,2,1,5,2,202,661.1690450317692,661.7823269078508,"[7, 0, 247]",247,a,0.09000149252824485,colour,0.6
02,20,2,1,5,3,203,663.7941241452936,664.6222863576841,"[68, 0, 186]",186,a,0.3051264067180455,colour,0.6
02,20,2,1,5,4,204,666.6254705956671,667.1583088131156,"[31, 0, 223]",223,a,0.00946685578674078,colour,0.6
02,20,2,1,5,5,205,669.1722225744743,672.5663327777293,"[17, 0, 237]",237,a,2.8707301770336926,colour,0.6
02,20,2,1,5,6,206,674.5793639321346,675.1742650552187,"[97, 0, 157]",157,l,0.07290034252218902,colour,0.6
02,20,2,1,5,7,207,677.1879334510304,678.1823065856006,"[53, 0, 201]",201,a,0.4710482466034591,colour,0.6
02,20,2,1,5,8,208,680.1910397077445,680.9102883771993,"[24, 0, 230]",230,a,0.19590527075342834,colour,0.6
02,20,2,1,5,9,209,682.9131291822996,683.5743120803963,"[11, 0, 243]",243,a,0.1378422563429922,colour,0.6
02,20,2,1,5,10,210,685.5865862644278,686.4862632718869,"[98, 0, 156]",156,l,0.37661638972349465,colour,0.6
02,20,2,1,5,11,211,688.492721150862,689.3902272840496,"[92, 0, 162]",162,l,0.37450301670469344,colour,0.6
02,20,2,1,5,12,212,691.3991305474192,692.9342763035093,"[74, 0, 180]",180,a,1.0116499394644052,colour,0.6
02,20,2,1,5,13,213,694.9459289999213,695.6942950347438,"[45, 0, 209]",209,a,0.22510652523487806,colour,0.6
02,20,2,1,5,14,214,697.7115356060676,698.2462560094427,"[57, 0, 197]",197,a,0.01196304615586996,colour,0.6
02,20,2,1,5,15,215,700.2584419720806,700.9022791422904,"[48, 0, 206]",206,a,0.12086201668716967,colour,0.6
02,20,2,1,5,16,216,702.9147116520908,704.3823996116407,"[13, 0, 241]",241,a,0.9443469238467515,colour,0.6
02,20,2,1,5,17,217,706.399132516468,707.3902623362374,"[80, 0, 174]",174,l,0.4678608577232808,colour,0.6
02,20,2,1,5,18,218,709.399086830439,710.1741776217241,"[5, 0, 249]",249,a,0.25172297400422394,colour,0.6
02,20,2,1,5,19,219,712.1802900983021,712.8542170377914,"[10, 0, 244]",244,a,0.15063158981502056,colour,0.6
02,20,2,1,5,20,220,714.8676948123612,715.8062277943827,"[88, 0, 166]",166,l,0.4151655586902052,colour,0.6
02,20,2,1,5,21,221,717.8219867201988,718.6941536443774,"[44, 0, 210]",210,a,0.3487419995944947,colour,0.6
02,20,2,1,5,22,222,720.7127478613984,721.5022029727697,"[69, 0, 185]",185,a,0.2660364881157875,colour,0.6
02,20,2,1,5,23,223,723.5107809200417,724.1181295190472,"[9, 0, 245]",245,a,0.08420330449007452,colour,0.6
02,20,2,1,5,24,224,726.1358206490986,726.6701956503093,"[22, 0, 232]",232,a,0.02339597698301077,colour,0.6
02,20,2,1,5,25,225,728.6858647793997,729.6541783621069,"[71, 0, 183]",183,a,0.45747319189831614,colour,0.6
02,20,2,1,5,26,226,731.6734456603881,732.2542483089492,"[1, 0, 253]",253,a,0.05769043695181608,colour,0.6
02,20,2,1,5,27,227,734.2671518574934,734.9581685254816,"[27, 0, 227]",227,a,0.16790327476337552,colour,0.6
02,20,2,1,5,28,228,736.9702418483794,738.0301228519529,"[36, 0, 218]",218,a,0.536602589301765,colour,0.6
02,20,2,1,5,29,229,740.048385451315,740.6541578820907,"[4, 0, 250]",250,a,0.07480458379723132,colour,0.6
02,20,2,1,5,30,230,742.6654049179051,743.2461043791845,"[82, 0, 172]",172,l,0.05603786278516054,colour,0.6
02,20,2,1,5,31,231,745.2605569206644,745.8781328904442,"[62, 0, 192]",192,a,0.09435820789076388,colour,0.6
02,20,2,1,5,32,232,747.8855308776256,748.5740879825316,"[29, 0, 225]",225,a,0.16530429059639573,colour,0.6
02,20,2,1,5,33,233,750.5886397729628,756.1661034023855,"[39, 0, 215]",215,a,5.05411708005704,colour,0.6
02,20,2,1,5,34,234,758.1823865361512,758.7261082702316,"[28, 0, 226]",226,a,0.020374003099277616,colour,0.6
02,20,2,1,5,35,235,760.7448501791805,761.4300883512478,"[47, 0, 207]",207,a,0.16212792973965406,colour,0.6
02,20,2,1,5,36,236,763.4479933392722,766.830116865458,"[40, 0, 214]",214,a,2.858793912222609,colour,0.6
02,20,2,1,5,37,237,768.8386038346216,770.7420507278293,"[70, 0, 184]",184,l,1.3801838390063494,colour,0.6
02,20,2,1,5,38,238,772.7604381763376,773.3661070256494,"[3, 0, 251]",251,a,0.08256215159781277,colour,0.6
02,20,2,1,5,39,239,775.3854018931743,776.0140535761602,"[66, 0, 188]",188,a,0.10533782257698476,colour,0.6
02,20,2,1,5,40,240,778.0260197732132,783.5820160852745,"[64, 0, 190]",190,a,5.033424062188715,colour,0.6
02,20,2,1,5,41,241,785.5885988131631,786.5340961588081,"[2, 0, 252]",252,a,0.4222153867594898,colour,0.6
02,20,2,1,5,42,242,788.541685948614,789.3740662422497,"[46, 0, 208]",208,a,0.309115270152688,colour,0.6
02,20,2,1,5,43,243,791.3884841254912,792.1740764034912,"[26, 0, 228]",228,a,0.26343317166902125,colour,0.6
02,20,2,1,5,44,244,794.1852324611973,794.870158707723,"[75, 0, 179]",179,l,0.162420162698254,colour,0.6
02,20,2,1,5,45,245,796.8882677075453,797.5739899151959,"[65, 0, 189]",189,l,0.16307433950714767,colour,0.6
02,20,2,1,5,46,246,799.5914620673284,800.5259912195615,"[79, 0, 175]",175,l,0.41239919047802687,colour,0.6
02,20,2,1,5,47,247,802.5445236028172,803.2460204900708,"[43, 0, 211]",211,a,0.17889903741888702,colour,0.6
02,20,2,1,5,48,248,805.2633374673314,805.8780584535562,"[35, 0, 219]",219,a,0.09222789923660457,colour,0.6
02,20,2,1,5,49,249,807.8883736517746,808.7259416738525,"[32, 0, 222]",222,a,0.31427976163104177,colour,0.6
02,20,2,1,5,50,250,810.7321510363836,811.3419288722798,"[23, 0, 231]",231,a,0.08648406178690493,colour,0.6
02,20,2,1,6,1,251,818.6843634417746,819.5819215625525,"[88, 0, 166]",166,l,0.37351013300940394,colour,0.72
02,20,2,1,6,2,252,821.5914317411371,825.182003718568,"[20, 0, 234]",234,a,3.0672774154227227,colour,0.72
02,20,2,1,6,3,253,827.2007251475006,828.0059190986212,"[14, 0, 240]",240,a,0.2817784787621349,colour,0.72
02,20,2,1,6,4,254,830.0008436162025,831.0219556852244,"[64, 0, 190]",190,a,0.49779072566889226,colour,0.72
02,20,2,1,6,5,255,833.032241738867,833.7658913561609,"[19, 0, 235]",235,a,0.21044130739755929,colour,0.72
02,20,2,1,6,6,256,835.7821622805204,836.5739198105875,"[98, 0, 156]",156,l,0.26848029717803,colour,0.72
02,20,2,1,6,7,257,838.5946372468024,839.2221093636472,"[30, 0, 224]",224,a,0.10437408369034529,colour,0.72
02,20,2,1,6,8,258,841.2352972682565,841.9818291664124,"[34, 0, 220]",220,a,0.22342126187868416,colour,0.72
02,20,2,1,6,9,259,844.0017502477858,844.8138486980461,"[46, 0, 208]",208,a,0.2888621774036437,colour,0.72
02,20,2,1,6,10,260,846.8297982448712,847.5178484711796,"[84, 0, 170]",170,l,0.16469028615392745,colour,0.72
02,20,2,1,6,11,261,849.5329634600785,850.6378235486336,"[40, 0, 214]",214,a,0.5816352372057736,colour,0.72
02,20,2,1,6,12,262,852.6486251456663,853.7098290750291,"[48, 0, 206]",206,a,0.5378534414339811,colour,0.72
02,20,2,1,6,13,263,855.7267856840044,856.509845537832,"[41, 0, 213]",213,a,0.25976607971824706,colour,0.72
02,20,2,1,6,14,264,858.5236246041022,859.3498250734992,"[92, 0, 162]",162,l,0.3028614029753953,colour,0.72
02,20,2,1,6,15,265,861.3679762147367,861.9977724116761,"[87, 0, 167]",167,l,0.10641617048531771,colour,0.72
02,20,2,1,6,16,266,864.0086220577359,864.7178209808189,"[9, 0, 245]",245,a,0.18592050881125033,colour,0.72
02,20,2,1,6,17,267,866.7273201318458,867.4697891233955,"[2, 0, 252]",252,a,0.21933157392777503,colour,0.72
02,20,2,1,6,18,268,869.4773241686635,871.1018093638122,"[12, 0, 242]",242,a,1.1014344233553857,colour,0.72
02,20,2,1,6,19,269,873.1075421737041,873.9738518330269,"[70, 0, 184]",184,a,0.3429981619119644,colour,0.72
02,20,2,1,6,20,270,875.9733248681296,879.0537795545533,"[17, 0, 237]",237,a,2.5573436561971903,colour,0.72
02,20,2,1,6,21,271,881.0545042296872,882.4857654517982,"[8, 0, 246]",246,a,0.90796666033566,colour,0.72
02,20,2,1,6,22,272,884.4920453126542,885.0777194316033,"[13, 0, 241]",241,a,0.062381920171901584,colour,0.72
02,20,2,1,6,23,273,887.0857637187,888.0217185905203,"[15, 0, 239]",239,a,0.42210983647964895,colour,0.72
02,20,2,1,6,24,274,890.0295592595357,890.9020270814653,"[44, 0, 210]",210,a,0.3491858630441129,colour,0.72
02,20,2,1,6,25,275,892.9208300365135,893.9257231685333,"[61, 0, 193]",193,a,0.48151704436168075,colour,0.72
02,20,2,1,6,26,276,895.9367240511347,896.9097330556251,"[26, 0, 228]",228,a,0.4496439443901181,colour,0.72
02,20,2,1,6,27,277,898.9211179371923,899.6937385315541,"[33, 0, 221]",221,a,0.249246081802994,colour,0.72
02,20,2,1,6,28,278,901.7022830019705,902.7497102282941,"[10, 0, 244]",244,a,0.5240913105662912,colour,0.72
02,20,2,1,6,29,279,904.7647637773771,905.3417118636426,"[11, 0, 243]",243,a,0.053634619573131204,colour,0.72
02,20,2,1,6,30,280,907.3586346018128,907.9417187953368,"[43, 0, 211]",211,a,0.059830591548234224,colour,0.72
02,20,2,1,6,31,281,909.9522466699127,910.6616976535879,"[53, 0, 201]",201,a,0.18603275436908007,colour,0.72
02,20,2,1,6,32,282,912.6710632911418,913.3897011068184,"[3, 0, 251]",251,a,0.19539405964314938,colour,0.72
02,20,2,1,6,33,283,915.405384020647,916.3496671416797,"[1, 0, 253]",253,a,0.42095587006770074,colour,0.72
02,20,2,1,6,34,284,918.3585255066864,919.0296978931874,"[35, 0, 219]",219,a,0.1478321384638548,colour,0.72
02,20,2,1,6,35,285,921.046025137417,921.6376707367599,"[27, 0, 227]",227,a,0.07317012664861977,colour,0.72
02,20,2,1,6,36,286,923.6413980871439,924.3096784686204,"[79, 0, 175]",175,l,0.1448936597444117,colour,0.72
02,20,2,1,6,37,287,926.3288925979286,927.1096311283763,"[89, 0, 165]",165,l,0.2573923747986555,colour,0.72
02,20,2,1,6,38,288,929.1257350626402,929.8376975969877,"[21, 0, 233]",233,a,0.18858565879054368,colour,0.72
02,20,2,1,6,39,289,931.8444894563872,932.6216723530088,"[75, 0, 179]",179,l,0.2544475947506726,colour,0.72
02,20,2,1,6,40,290,934.6290069310926,935.3016877444461,"[0, 0, 254]",254,a,0.14963004156015813,colour,0.72
02,20,2,1,6,41,291,937.3165443711914,938.0216248552315,"[94, 0, 160]",160,l,0.18241213611327112,colour,0.72
02,20,2,1,6,42,292,940.0352786788717,940.6696151224896,"[25, 0, 229]",229,a,0.11116042919456959,colour,0.72
02,20,2,1,6,43,293,942.6757937653456,943.7416080459952,"[78, 0, 176]",176,l,0.5424559158273041,colour,0.72
02,20,2,1,6,44,294,945.74465325661,946.5655730504077,"[23, 0, 231]",231,a,0.2979017111938447,colour,0.72
02,20,2,1,6,45,295,948.5727233090438,949.2296140829567,"[4, 0, 250]",250,a,0.13386481441557407,colour,0.72
02,20,2,1,6,46,296,951.2446436074097,951.9897907460108,"[24, 0, 230]",230,a,0.22210503136739135,colour,0.72
02,20,2,1,6,47,297,953.9990756453481,954.9735792921856,"[39, 0, 215]",215,a,0.4513402353040874,colour,0.72
02,20,2,1,6,48,298,956.9834553529508,957.7015815638006,"[37, 0, 217]",217,a,0.1948438580147922,colour,0.72
02,20,2,1,6,49,299,959.7191750202328,960.4776049803477,"[18, 0, 236]",236,a,0.24181698099710047,colour,0.72
02,20,2,1,6,50,300,962.4938396711368,963.2375528195407,"[5, 0, 249]",249,a,0.22062299214303493,colour,0.72
02,20,2,1,7,1,301,980.5289576612413,981.9255030089989,"[29, 0, 225]",225,l,0.87232761294581,colour,0.86
02,20,2,1,7,2,302,983.9461054424755,984.5495786052197,"[93, 0, 161]",161,l,0.08027076069265604,colour,0.86
02,20,2,1,7,3,303,986.5439308658242,987.6214691288769,"[49, 0, 205]",205,a,0.554456771351397,colour,0.86
02,20,2,1,7,4,304,989.6376671921462,990.4535158358049,"[0, 0, 254]",254,a,0.29247885732911527,colour,0.86
02,20,2,1,7,5,305,992.4657514230348,993.437483187532,"[41, 0, 213]",213,a,0.4483580398373306,colour,0.86
02,20,2,1,7,6,306,995.4502555856016,996.9094557885546,"[7, 0, 247]",247,a,0.9361840893980116,colour,0.86
02,20,2,1,7,7,307,998.9200955152046,999.62142935046,"[89, 0, 165]",165,l,0.17795892897993326,colour,0.86
02,20,2,1,7,8,308,1001.6389353733975,1002.3654760858044,"[17, 0, 237]",237,a,0.20330168260261416,colour,0.86
02,20,2,1,7,9,309,1004.3732041153125,1005.6134323249571,"[28, 0, 226]",226,a,0.7168509403709322,colour,0.86
02,20,2,1,7,10,310,1007.6232607304119,1008.6775274716783,"[76, 0, 178]",178,l,0.5308461487293243,colour,0.86
02,20,2,1,7,11,311,1010.6856824292336,1011.3814264202956,"[18, 0, 236]",236,a,0.17244470305740833,colour,0.86
02,20,2,1,7,12,312,1013.388867336791,1014.3894242336974,"[36, 0, 218]",218,a,0.47716387384571135,colour,0.86
02,20,2,1,7,13,313,1016.4044651798904,1017.2294443356805,"[33, 0, 221]",221,a,0.3017204338684678,colour,0.86
02,20,2,1,7,14,314,1019.2493626598734,1019.773499262752,"[12, 0, 242]",242,a,0.0008176225237548351,colour,0.86
02,20,2,1,7,15,315,1021.7962028600741,1022.5013881071936,"[32, 0, 222]",222,a,0.1819084081798792,colour,0.86
02,20,2,1,7,16,316,1024.5148938449565,1025.2294407910667,"[27, 0, 227]",227,a,0.1913776269648224,colour,0.86
02,20,2,1,7,17,317,1027.249264986487,1028.0214137542062,"[64, 0, 190]",190,a,0.24687710334546864,colour,0.86
02,20,2,1,7,18,318,1030.032557602739,1031.093426370062,"[4, 0, 250]",250,a,0.5375454546883702,colour,0.86
02,20,2,1,7,19,319,1033.1105834459886,1034.4934044722468,"[56, 0, 198]",198,a,0.859773799078539,colour,0.86
02,20,2,1,7,20,320,1036.5011470739264,1037.693383677164,"[14, 0, 240]",240,a,0.6690062382258475,colour,0.86
02,20,2,1,7,21,321,1039.7042415940668,1040.6773529981729,"[39, 0, 215]",215,a,0.4497238949406892,colour,0.86
02,20,2,1,7,22,322,1042.688538987888,1043.2454080609605,"[47, 0, 207]",207,a,0.033492591232061386,colour,0.86
02,20,2,1,7,23,323,1045.266672941856,1045.8773085724097,"[34, 0, 220]",220,a,0.08733594859950244,colour,0.86
02,20,2,1,7,24,324,1047.891674468061,1048.7012948445044,"[37, 0, 217]",217,a,0.2862029350362718,colour,0.86
02,20,2,1,7,25,325,1050.7197803603485,1051.8613184595015,"[35, 0, 219]",219,a,0.6181273530237377,colour,0.86
02,20,2,1,7,26,326,1053.876064809505,1054.853394295089,"[24, 0, 230]",230,a,0.45408376050181687,colour,0.86
02,20,2,1,7,27,327,1056.848088413477,1057.8692969745025,"[16, 0, 238]",238,a,0.4979388115461916,colour,0.86
02,20,2,1,7,28,328,1059.8792128136847,1060.6452817940153,"[3, 0, 251]",251,a,0.24270116328261793,colour,0.86
02,20,2,1,7,29,329,1062.6605200567283,1063.3652850708459,"[23, 0, 231]",231,a,0.1817441745661199,colour,0.86
02,20,2,1,7,30,330,1065.3792795704212,1066.4373047756962,"[92, 0, 162]",162,l,0.534645966719836,colour,0.86
02,20,2,1,7,31,331,1068.4573479490355,1069.3093566971365,"[48, 0, 206]",206,a,0.32869764463976026,colour,0.86
02,20,2,1,7,32,332,1071.3173726273235,1072.309252721956,"[42, 0, 212]",212,a,0.4693342321552336,colour,0.86
02,20,2,1,7,33,333,1074.3173879873939,1075.1255141154397,"[1, 0, 253]",253,a,0.28544714604504406,colour,0.86
02,20,2,1,7,34,334,1077.145495061297,1077.9973096437752,"[11, 0, 243]",243,a,0.32846527616493404,colour,0.86
02,20,2,1,7,35,335,1080.0048872244079,1080.9732342837378,"[40, 0, 214]",214,a,0.44507455290295184,colour,0.86
02,20,2,1,7,36,336,1082.989216913702,1083.9012488434091,"[22, 0, 232]",232,a,0.38872043252922595,colour,0.86
02,20,2,1,7,37,337,1085.9111134829,1086.7492986600846,"[31, 0, 223]",223,a,0.31505563645623624,colour,0.86
02,20,2,1,7,38,338,1088.770459172083,1089.4612241729628,"[5, 0, 249]",249,a,0.16737591614946723,colour,0.86
02,20,2,1,7,39,339,1091.475635754643,1092.2692069415934,"[9, 0, 245]",245,a,0.27019943157210946,colour,0.86
02,20,2,1,7,40,340,1094.2880524317734,1095.0292575741187,"[38, 0, 216]",216,a,0.22045206325128675,colour,0.86
02,20,2,1,7,41,341,1097.035402740119,1097.7252106971573,"[44, 0, 210]",210,a,0.16647519217804074,colour,0.86
02,20,2,1,7,42,342,1099.738521875348,1100.4692003249656,"[25, 0, 229]",229,a,0.20743508753366768,colour,0.86
02,20,2,1,7,43,343,1102.4761193965096,1103.1652901121415,"[8, 0, 246]",246,a,0.16589505830779672,colour,0.86
02,20,2,1,7,44,344,1105.1792251411825,1106.0372534184717,"[45, 0, 209]",209,a,0.33465337101370096,colour,0.86
02,20,2,1,7,45,345,1108.0542293256149,1108.8534061105456,"[19, 0, 235]",235,a,0.2758133001625538,colour,0.86
02,20,2,1,7,46,346,1110.866666088812,1111.629195583053,"[26, 0, 228]",228,a,0.23917428008280694,colour,0.86
02,20,2,1,7,47,347,1113.6479780580848,1114.5091354348697,"[15, 0, 239]",239,a,0.3379183472134173,colour,0.86
02,20,2,1,7,48,348,1116.5248719116207,1117.1572080159094,"[10, 0, 244]",244,a,0.10905296402052045,colour,0.86
02,20,2,1,7,49,349,1119.1576109195594,1119.9171790918335,"[77, 0, 177]",177,l,0.23618578305467963,colour,0.86
02,20,2,1,7,50,350,1121.9232273718808,1122.9651238308288,"[20, 0, 234]",234,a,0.5184994973242283,colour,0.86
02,20,2,1,8,1,351,1131.7985017341562,1132.6211245143786,"[5, 0, 249]",249,a,0.2984660912770778,colour,0.94
02,20,2,1,8,2,352,1134.627448091982,1135.3972534814384,"[37, 0, 217]",217,a,0.24671956547535956,colour,0.94
02,20,2,1,8,3,353,1137.4086127630435,1138.261159109883,"[30, 0, 224]",224,a,0.3292167326435447,colour,0.94
02,20,2,1,8,4,354,1140.2680163476616,1140.9331105218735,"[14, 0, 240]",240,a,0.1418130029924214,colour,0.94
02,20,2,1,8,5,355,1142.9398815075401,1143.7411070750095,"[83, 0, 171]",171,l,0.2782567155081779,colour,0.94
02,20,2,1,8,6,356,1145.75256048562,1146.3890591391828,"[43, 0, 211]",211,a,0.11317770392633975,colour,0.94
02,20,2,1,8,7,357,1148.410604438046,1149.2611063346267,"[35, 0, 219]",219,a,0.3273770820815116,colour,0.94
02,20,2,1,8,8,358,1151.269947764231,1152.1491865718272,"[36, 0, 218]",218,a,0.3557729229796678,colour,0.94
02,20,2,1,8,9,359,1154.1606655823998,1154.7731188083999,"[19, 0, 235]",235,a,0.08947492181323469,colour,0.94
02,20,2,1,8,10,360,1156.7855528935324,1157.9330400235485,"[48, 0, 206]",206,a,0.6240771715529263,colour,0.94
02,20,2,1,8,11,361,1159.9324630405754,1160.99705049349,"[11, 0, 243]",243,a,0.5412605958990753,colour,0.94
02,20,2,1,8,12,362,1163.010614914354,1163.8050352314021,"[41, 0, 213]",213,a,0.27142271446064115,colour,0.94
02,20,2,1,8,13,363,1165.823041831376,1166.5650082766078,"[40, 0, 214]",214,a,0.21859390195459127,colour,0.94
02,20,2,1,8,14,364,1168.573044686811,1169.3332485251594,"[10, 0, 244]",244,a,0.23686595354229212,colour,0.94
02,20,2,1,8,15,365,1171.3543271173257,1172.061047178926,"[1, 0, 253]",253,a,0.1834743362851441,colour,0.94
02,20,2,1,8,16,366,1174.0827055112459,1174.8450258735102,"[3, 0, 251]",251,a,0.23901280341669917,colour,0.94
02,20,2,1,8,17,367,1176.8639513142407,1177.669022779446,"[42, 0, 212]",212,a,0.2818174692802131,colour,0.94
02,20,2,1,8,18,368,1179.6763467239216,1181.0849937514868,"[29, 0, 225]",225,a,0.8854095733258873,colour,0.94
02,20,2,1,8,19,369,1183.099139093887,1184.0209730416536,"[45, 0, 209]",209,a,0.3993558268994093,colour,0.94
02,20,2,1,8,20,370,1186.0356890654657,1187.3490586508997,"[26, 0, 228]",228,a,0.7899647469166666,colour,0.94
02,20,2,1,8,21,371,1189.3638585638255,1190.349014540203,"[9, 0, 245]",245,a,0.4621867306996137,colour,0.94
02,20,2,1,8,22,372,1192.3655438271817,1193.0609495053068,"[6, 0, 248]",248,a,0.17200320260599256,colour,0.94
02,20,2,1,8,23,373,1195.0685286612716,1196.0609416284133,"[93, 0, 161]",161,l,0.46899828244931996,colour,0.94
02,20,2,1,8,24,374,1198.068600341212,1198.8849716174882,"[39, 0, 215]",215,a,0.2930585974827409,colour,0.94
02,20,2,1,8,25,375,1200.8966814212035,1201.5889615444466,"[15, 0, 239]",239,a,0.16927897580899298,colour,0.94
02,20,2,1,8,26,376,1203.5998879903927,1204.1890051036607,"[23, 0, 231]",231,a,0.06597181875258684,colour,0.94
02,20,2,1,8,27,377,1206.2092038458213,1207.5569876201916,"[18, 0, 236]",236,a,0.8245455322321504,colour,0.94
02,20,2,1,8,28,378,1209.568667491898,1210.8449053568766,"[34, 0, 220]",220,a,0.7530283736996353,colour,0.94
02,20,2,1,8,29,379,1212.8654778581113,1213.836910694372,"[21, 0, 233]",233,a,0.44803114840760827,colour,0.94
02,20,2,1,8,30,380,1215.8498032151256,1216.6209181395825,"[33, 0, 221]",221,a,0.2477419872302562,colour,0.94
02,20,2,1,8,31,381,1218.6310821012594,1219.9729172384832,"[13, 0, 241]",241,a,0.8185047353617847,colour,0.94
02,20,2,1,8,32,382,1221.9904232614208,1222.7888856111094,"[44, 0, 210]",210,a,0.2755053131841123,colour,0.94
02,20,2,1,8,33,383,1224.8045649803244,1225.9016155132558,"[47, 0, 207]",207,a,0.5737091035116464,colour,0.94
02,20,2,1,8,34,384,1227.9139058450237,1228.6289250114933,"[46, 0, 208]",208,a,0.19170845695771277,colour,0.94
02,20,2,1,8,35,385,1230.6482222420163,1231.5169119073544,"[8, 0, 246]",246,a,0.3452269316185266,colour,0.94
02,20,2,1,8,36,386,1233.52328904788,1234.5888091262896,"[12, 0, 242]",242,a,0.5422751409932971,colour,0.94
02,20,2,1,8,37,387,1236.6013247375377,1237.1888262981083,"[20, 0, 234]",234,a,0.06455673323944211,colour,0.94
02,20,2,1,8,38,388,1239.1951175804716,1239.7888600111473,"[22, 0, 232]",232,a,0.07040927209891379,colour,0.94
02,20,2,1,8,39,389,1241.804390506819,1242.372902035946,"[32, 0, 222]",222,a,0.04518270259723067,colour,0.94
02,20,2,1,8,40,390,1244.3825681775343,1244.9248673429247,"[28, 0, 226]",226,a,0.018993575824424624,colour,0.94
02,20,2,1,8,41,391,1246.9451389464084,1248.0769868798088,"[7, 0, 247]",247,a,0.608655771240592,colour,0.94
02,20,2,1,8,42,392,1250.0855518300086,1251.332790483255,"[4, 0, 250]",250,a,0.7237069965340197,colour,0.94
02,20,2,1,8,43,393,1253.3513142021839,1254.0928572637495,"[31, 0, 223]",223,a,0.218256376683712,colour,0.94
02,20,2,1,8,44,394,1256.10140921711,1256.7968464030419,"[96, 0, 158]",158,l,0.1752035883255303,colour,0.94
02,20,2,1,8,45,395,1258.816864764085,1259.9168915848713,"[38, 0, 216]",216,a,0.5765727516263723,colour,0.94
02,20,2,1,8,46,396,1261.926310391631,1262.9488718106877,"[2, 0, 252]",252,a,0.49966109613887966,colour,0.94
02,20,2,1,8,47,397,1264.9575320717413,1265.5249030254781,"[16, 0, 238]",238,a,0.04402637365274131,colour,0.94
02,20,2,1,8,48,398,1267.5356687824242,1268.6288072515745,"[25, 0, 229]",229,a,0.5697651382070035,colour,0.94
02,20,2,1,8,49,399,1270.64706945722,1271.4687899381388,"[24, 0, 230]",230,a,0.29842710052616894,colour,0.94
02,20,2,1,8,50,400,1273.475138328271,1274.2687709548045,"[17, 0, 237]",237,a,0.27031758474186063,colour,0.94
02,20,2,1,9,1,401,1283.1930069641676,1284.412753257202,"[53, 0, 201]",201,a,0.6958589940331876,colour,0.94
02,20,2,1,9,2,402,1286.4162612357177,1287.204738035798,"[4, 0, 250]",250,a,0.26532362843863666,colour,0.94
02,20,2,1,9,3,403,1289.2006081754807,1290.0607281643897,"[33, 0, 221]",221,a,0.33669663965702057,colour,0.94
02,20,2,1,9,4,404,1292.0755887294654,1293.3407114970032,"[25, 0, 229]",229,a,0.7418037871830165,colour,0.94
02,20,2,1,9,5,405,1295.3475293503143,1296.2847047480755,"[2, 0, 252]",252,a,0.4138162452727556,colour,0.94
02,20,2,1,9,6,406,1298.3006129411515,1299.020694986917,"[38, 0, 216]",216,a,0.19668941642157733,colour,0.94
02,20,2,1,9,7,407,1301.0350360702723,1301.8846963196993,"[24, 0, 230]",230,a,0.33868437609635293,colour,0.94
02,20,2,1,9,8,408,1303.8977093570866,1304.7567856563255,"[43, 0, 211]",211,a,0.33574589737690985,colour,0.94
02,20,2,1,9,9,409,1306.7625523370225,1307.4846603223123,"[46, 0, 208]",208,a,0.1988122418988496,colour,0.94
02,20,2,1,9,10,410,1309.4938936277758,1310.2126314800698,"[20, 0, 234]",234,a,0.1956012223381549,colour,0.94
02,20,2,1,9,11,411,1312.2282572863623,1312.8686471299734,"[17, 0, 237]",237,a,0.11707007559016347,colour,0.94
02,20,2,1,9,12,412,1314.8845305109862,1315.812614387367,"[40, 0, 214]",214,a,0.40479640383273363,colour,0.94
02,20,2,1,9,13,413,1317.8220493416302,1318.8206133821514,"[29, 0, 225]",225,a,0.47530098631978035,colour,0.94
02,20,2,1,9,14,414,1320.837550692726,1321.8526117249858,"[41, 0, 213]",213,a,0.491658556740731,colour,0.94
02,20,2,1,9,15,415,1323.8570235781372,1324.7086392687634,"[9, 0, 245]",245,a,0.32833688240498304,colour,0.94
02,20,2,1,9,16,416,1326.7163787197787,1327.7326374351978,"[1, 0, 253]",253,a,0.49293815973214805,colour,0.94
02,20,2,1,9,17,417,1329.7476177290082,1330.6606110348366,"[47, 0, 207]",207,a,0.38994450331665576,colour,0.94
02,20,2,1,9,18,418,1332.6712834506761,1333.652641184628,"[42, 0, 212]",212,a,0.4582632454112172,colour,0.94
02,20,2,1,9,19,419,1335.671305112075,1336.6686104235705,"[14, 0, 240]",240,a,0.4740308355540037,colour,0.94
02,20,2,1,9,20,420,1338.6868482108694,1339.4686178278644,"[93, 0, 161]",161,l,0.25839313538745046,colour,0.94
02,20,2,1,9,21,421,1341.4836792540736,1342.2525799809955,"[19, 0, 235]",235,a,0.24543366092257202,colour,0.94
02,20,2,1,9,22,422,1344.2649904354475,1345.0205886487383,"[44, 0, 210]",210,a,0.2322103101760149,colour,0.94
02,20,2,1,9,23,423,1347.0305706539657,1347.8605855137575,"[45, 0, 209]",209,a,0.30665767658501863,colour,0.94
02,20,2,1,9,24,424,1349.874295657035,1350.636565607274,"[6, 0, 248]",248,a,0.2389178869780153,colour,0.94
02,20,2,1,9,25,425,1352.655578481499,1353.5885779391974,"[69, 0, 185]",185,l,0.4096229758579284,colour,0.94
02,20,2,1,9,26,426,1355.608667192515,1356.4605479408056,"[26, 0, 228]",228,a,0.32858342956751585,colour,0.94
02,20,2,1,9,27,427,1358.4679845250212,1359.4525552475825,"[16, 0, 238]",238,a,0.46117179188877344,colour,0.94
02,20,2,1,9,28,428,1361.4679384450428,1362.2605135976337,"[21, 0, 233]",233,a,0.2691829171963036,colour,0.94
02,20,2,1,9,29,429,1364.2804476758465,1364.9804940314498,"[13, 0, 241]",241,a,0.1766430924180895,colour,0.94
02,20,2,1,9,30,430,1366.9993139216676,1367.7325259768404,"[27, 0, 227]",227,a,0.21002422529272735,colour,0.94
02,20,2,1,9,31,431,1369.7493593122344,1370.5164751331322,"[5, 0, 249]",249,a,0.24418792873620987,colour,0.94
02,20,2,1,9,32,432,1372.5304723896552,1373.3004652492236,"[28, 0, 226]",226,a,0.2464927106630057,colour,0.94
02,20,2,1,9,33,433,1375.3218723081518,1376.1725002352614,"[18, 0, 236]",236,a,0.3406150049995631,colour,0.94
02,20,2,1,9,34,434,1378.1756667501759,1378.868499831995,"[10, 0, 244]",244,a,0.1696228028740734,colour,0.94
02,20,2,1,9,35,435,1380.878733504098,1381.724480508361,"[22, 0, 232]",232,a,0.3224181777331978,colour,0.94
02,20,2,1,9,36,436,1383.7381012488622,1384.5644655579235,"[39, 0, 215]",215,a,0.30295710754580796,colour,0.94
02,20,2,1,9,37,437,1386.581881390186,1387.3485084492713,"[37, 0, 217]",217,a,0.24323718645609915,colour,0.94
02,20,2,1,9,38,438,1389.3652031510137,1390.3644670546055,"[31, 0, 223]",223,a,0.4757877788506448,colour,0.94
02,20,2,1,9,39,439,1392.3808959110174,1392.9804581913631,"[35, 0, 219]",219,a,0.0751322628930211,colour,0.94
02,20,2,1,9,40,440,1394.9912440346088,1395.548454964999,"[34, 0, 220]",220,a,0.03380569792352617,colour,0.94
02,20,2,1,9,41,441,1397.570206244709,1398.3164266112726,"[0, 0, 254]",254,a,0.22287106001749635,colour,0.94
02,20,2,1,9,42,442,1400.335895952303,1401.1084299008362,"[23, 0, 231]",231,a,0.2492189067415893,colour,0.94
02,20,2,1,9,43,443,1403.1045363475569,1403.8363916063681,"[36, 0, 218]",218,a,0.20843151560984552,colour,0.94
02,20,2,1,9,44,444,1405.8545600767247,1406.5803914740682,"[48, 0, 206]",206,a,0.2013269430026412,colour,0.94
02,20,2,1,9,45,445,1408.5779681450222,1409.8044137437828,"[32, 0, 222]",222,a,0.7031313446350396,colour,0.94
02,20,2,1,9,46,446,1411.8123753233813,1412.6604152938817,"[12, 0, 242]",242,a,0.324743045726791,colour,0.94
02,20,2,1,9,47,447,1414.6717682739254,1415.7084171401802,"[7, 0, 247]",247,a,0.5133885687682778,colour,0.94
02,20,2,1,9,48,448,1417.72011749167,1418.4764139924664,"[15, 0, 239]",239,a,0.2329507388640195,colour,0.94
02,20,2,1,9,49,449,1420.4857461533975,1421.4044344599824,"[11, 0, 243]",243,a,0.39618261670693755,colour,0.94
02,20,2,1,9,50,450,1423.4235450078268,1424.252388966037,"[30, 0, 224]",224,a,0.30548441177234054,colour,0.94
02,20,2,1,10,1,451,1432.1536917665508,1432.9243592827115,"[28, 0, 226]",226,a,0.24639936909079552,colour,0.94
02,20,2,1,10,2,452,1434.9358631055802,1435.5083571970463,"[26, 0, 228]",228,a,0.04917747410945594,colour,0.94
02,20,2,1,10,3,453,1437.5295630011242,1438.3324045150075,"[5, 0, 249]",249,a,0.2793145834002644,colour,0.94
02,20,2,1,10,4,454,1440.3522665195633,1441.10835310095,"[60, 0, 194]",194,l,0.2328172253910452,colour,0.94
02,20,2,1,10,5,455,1443.1178565842565,1443.860326363705,"[24, 0, 230]",230,a,0.21921617747284472,colour,0.94
02,20,2,1,10,6,456,1445.867826750502,1446.812322548125,"[43, 0, 211]",211,a,0.421204780228436,colour,0.94
02,20,2,1,10,7,457,1448.820923732128,1449.732314876048,"[41, 0, 213]",213,a,0.38804262527264655,colour,0.94
02,20,2,1,10,8,458,1451.742551699048,1452.5083056031726,"[13, 0, 241]",241,a,0.2470756012480706,colour,0.94
02,20,2,1,10,9,459,1454.519490411505,1455.5162750596646,"[31, 0, 223]",223,a,0.4731305055320263,colour,0.94
02,20,2,1,10,10,460,1457.535098494729,1458.2122675671708,"[12, 0, 242]",242,a,0.15385993826203048,colour,0.94
02,20,2,1,10,11,461,1460.2226083653513,1461.0042873981874,"[33, 0, 221]",221,a,0.2583498125895858,colour,0.94
02,20,2,1,10,12,462,1463.019478005357,1464.0442870988045,"[30, 0, 224]",224,a,0.5016240205150098,colour,0.94
02,20,2,1,10,13,463,1466.039255333133,1466.828278002562,"[1, 0, 253]",253,a,0.26569541823118925,colour,0.94
02,20,2,1,10,14,464,1468.8238133739214,1469.484261750942,"[77, 0, 177]",177,l,0.13714199978858232,colour,0.94
02,20,2,1,10,15,465,1471.4956214264967,1472.4682511580177,"[8, 0, 246]",246,a,0.44965182105079293,colour,0.94
02,20,2,1,10,16,466,1474.479900309816,1475.188261130359,"[20, 0, 234]",234,a,0.18492132355459034,colour,0.94
02,20,2,1,10,17,467,1477.1987059034873,1477.9002717137337,"[37, 0, 217]",217,a,0.1782543130684644,colour,0.94
02,20,2,1,10,18,468,1479.916223623557,1480.9323031392414,"[27, 0, 227]",227,a,0.4930708853062242,colour,0.94
02,20,2,1,10,19,469,1482.9474193099886,1484.124523201026,"[29, 0, 225]",225,a,0.6538558029569685,colour,0.94
02,20,2,1,10,20,470,1486.1255499552935,1486.8602231761906,"[25, 0, 229]",229,a,0.22368986438959837,colour,0.94
02,20,2,1,10,21,471,1488.8787528024986,1489.5961882090196,"[15, 0, 239]",239,a,0.1941101246047765,colour,0.94
02,20,2,1,10,22,472,1491.613904939033,1492.2842120476998,"[16, 0, 238]",238,a,0.14777739392593503,colour,0.94
02,20,2,1,10,23,473,1494.2955008312128,1495.0842367811128,"[45, 0, 209]",209,a,0.2660805988125503,colour,0.94
02,20,2,1,10,24,474,1497.0792081663385,1497.7482258260716,"[22, 0, 232]",232,a,0.14580462384037673,colour,0.94
02,20,2,1,10,25,475,1499.766656597145,1500.5241708671674,"[38, 0, 216]",216,a,0.23443711060099304,colour,0.94
02,20,2,1,10,26,476,1502.532275806414,1503.3481835268904,"[18, 0, 236]",236,a,0.29231738089583814,colour,0.94
02,20,2,1,10,27,477,1505.3679923624732,1506.1401647611056,"[69, 0, 185]",185,l,0.24929964495822787,colour,0.94
02,20,2,1,10,28,478,1508.1492665223777,1509.132263833657,"[47, 0, 207]",207,a,0.45968187553808093,colour,0.94
02,20,2,1,10,29,479,1511.1417972492054,1511.7641312622,"[4, 0, 250]",250,a,0.09898706967942417,colour,0.94
02,20,2,1,10,30,480,1513.782441122923,1514.5562148960307,"[6, 0, 248]",248,a,0.2505205648485571,colour,0.94
02,20,2,1,10,31,481,1516.5636160338763,1517.1961388208438,"[17, 0, 237]",237,a,0.10962640237994492,colour,0.94
02,20,2,1,10,32,482,1519.2042295816354,1520.0841977905948,"[35, 0, 219]",219,a,0.3566665577236563,colour,0.94
02,20,2,1,10,33,483,1522.0948154618964,1522.9321735643316,"[42, 0, 212]",212,a,0.3139957992825657,colour,0.94
02,20,2,1,10,34,484,1524.9386184462346,1525.9081557057798,"[23, 0, 231]",231,a,0.44615250709466636,colour,0.94
02,20,2,1,10,35,485,1527.9229772801045,1528.5401097803842,"[46, 0, 208]",208,a,0.09380721836350858,colour,0.94
02,20,2,1,10,36,486,1530.5479209111072,1531.3240786287934,"[21, 0, 233]",233,a,0.252811168320477,colour,0.94
02,20,2,1,10,37,487,1533.3447968526743,1534.292144876672,"[34, 0, 220]",220,a,0.4238600842654705,colour,0.94
02,20,2,1,10,38,488,1536.3135050681885,1537.044104354689,"[11, 0, 243]",243,a,0.20799710438586771,colour,0.94
02,20,2,1,10,39,489,1539.0597518223803,1539.8281114061829,"[7, 0, 247]",247,a,0.24798105144873261,colour,0.94
02,20,2,1,10,40,490,1541.838018186856,1542.5001455256715,"[10, 0, 244]",244,a,0.1387343155220151,colour,0.94
02,20,2,1,10,41,491,1544.5036621689796,1545.2920724090654,"[19, 0, 235]",235,a,0.26544887106865644,colour,0.94
02,20,2,1,10,42,492,1547.3004372862633,1548.5000545475632,"[36, 0, 218]",218,a,0.6762281765695661,colour,0.94
02,20,2,1,10,43,493,1550.519189513754,1551.22009917791,"[44, 0, 210]",210,a,0.177012518979609,colour,0.94
02,20,2,1,10,44,494,1553.2379175201058,1553.93207864766,"[32, 0, 222]",222,a,0.17078267666511238,colour,0.94
02,20,2,1,10,45,495,1555.9430074566044,1556.820055697579,"[40, 0, 214]",214,a,0.3539659616071731,colour,0.94
02,20,2,1,10,46,496,1558.833588610636,1559.6921706341673,"[48, 0, 206]",206,a,0.3352142064832151,colour,0.94
02,20,2,1,10,47,497,1561.7086628996767,1562.4759949413128,"[3, 0, 251]",251,a,0.2440540213137865,colour,0.94
02,20,2,1,10,48,498,1564.4910354935564,1565.1640026322566,"[39, 0, 215]",215,a,0.14960444159805775,colour,0.94
02,20,2,1,10,49,499,1567.1785969580524,1567.9240453881212,"[0, 0, 254]",254,a,0.22211881587281823,colour,0.94
02,20,2,1,10,50,500,1569.9441980505362,1570.9159967687447,"[49, 0, 205]",205,a,0.44906735490076244,colour,0.94
02,20,2,1,11,1,501,1584.0286672003567,1585.8359611337073,"[33, 0, 221]",221,a,1.2830880137626082,colour,0.94
02,20,2,1,11,2,502,1587.8324220411014,1588.580040951958,"[23, 0, 231]",231,a,0.22540112142451108,colour,0.94
02,20,2,1,11,3,503,1590.5979049799498,1591.5239231386222,"[99, 0, 155]",155,l,0.402736593503505,colour,0.94
02,20,2,1,11,4,504,1593.5353379524313,1594.3159673879854,"[43, 0, 211]",211,a,0.25726240617223084,colour,0.94
02,20,2,1,11,5,505,1596.3198723625392,1597.1159082322847,"[38, 0, 216]",216,a,0.2727259478997439,colour,0.94
02,20,2,1,11,6,506,1599.1199853173457,1599.8919111688156,"[45, 0, 209]",209,a,0.24861592962406576,colour,0.94
02,20,2,1,11,7,507,1601.901278775651,1602.5799413090572,"[10, 0, 244]",244,a,0.1554640696849674,colour,0.94
02,20,2,1,11,8,508,1604.5886842773762,1605.123923768755,"[6, 0, 248]",248,a,0.011876006377860904,colour,0.94
02,20,2,1,11,9,509,1607.135567406658,1608.0918986445758,"[16, 0, 238]",238,a,0.43303982680663466,colour,0.94
02,20,2,1,11,10,510,1610.1043252467643,1610.8999361575115,"[95, 0, 159]",159,l,0.27233682898804545,colour,0.94
02,20,2,1,11,11,511,1612.9168269943912,1614.0758474858012,"[3, 0, 251]",251,a,0.6356857572682202,colour,0.94
02,20,2,1,11,12,512,1616.0888112925459,1616.8518890191335,"[0, 0, 254]",254,a,0.23967525106854737,colour,0.94
02,20,2,1,11,13,513,1618.8699901420623,1619.619907139102,"[42, 0, 212]",212,a,0.2265995922498405,colour,0.94
02,20,2,1,11,14,514,1621.635713326279,1622.4118997945916,"[34, 0, 220]",220,a,0.2533196222502738,colour,0.94
02,20,2,1,11,15,515,1624.4324821420014,1625.2838221408892,"[8, 0, 246]",246,a,0.32799463090486825,colour,0.94
02,20,2,1,11,16,516,1627.2918250744697,1627.96383713861,"[17, 0, 237]",237,a,0.14872183464467525,colour,0.94
02,20,2,1,11,17,517,1629.9793849634007,1630.9558137252461,"[4, 0, 250]",250,a,0.4563641238491982,colour,0.94
02,20,2,1,11,18,518,1632.9762527130079,1633.707842913922,"[2, 0, 252]",252,a,0.20870996406301856,colour,0.94
02,20,2,1,11,19,519,1635.726253992878,1637.443946186453,"[11, 0, 243]",243,a,1.1945417788811028,colour,0.94
02,20,2,1,11,20,520,1639.4605262794066,1640.2518761795945,"[7, 0, 247]",247,a,0.2682424148079008,colour,0.94
02,20,2,1,11,21,521,1642.2730760762934,1643.0838106407318,"[66, 0, 188]",188,a,0.2873127907514572,colour,0.94
02,20,2,1,11,22,522,1645.1012162331026,1645.9798268578015,"[35, 0, 219]",219,a,0.3553326043765992,colour,0.94
02,20,2,1,11,23,523,1647.9917895102408,1648.8037765021436,"[49, 0, 205]",205,a,0.28870227630250156,colour,0.94
02,20,2,1,11,24,524,1650.8202341094147,1651.7638264261186,"[19, 0, 235]",235,a,0.42103148833848536,colour,0.94
02,20,2,1,11,25,525,1653.7732917063404,1654.5558612230234,"[31, 0, 223]",223,a,0.2591973671223968,colour,0.94
02,20,2,1,11,26,526,1656.5702172724996,1657.4038456613198,"[47, 0, 207]",207,a,0.3107639057561755,colour,0.94
02,20,2,1,11,27,527,1659.413961180253,1660.4117993642576,"[27, 0, 227]",227,a,0.4745940344873816,colour,0.94
02,20,2,1,11,28,528,1662.4295164879877,1663.195755609544,"[20, 0, 234]",234,a,0.2429362889379263,colour,0.94
02,20,2,1,11,29,529,1665.2107422049157,1665.8917674154509,"[26, 0, 228]",228,a,0.15778893767856061,colour,0.94
02,20,2,1,11,30,530,1667.898254438769,1668.5157228889875,"[22, 0, 232]",232,a,0.09405888547189534,colour,0.94
02,20,2,1,11,31,531,1670.5232677804306,1671.1557527580298,"[30, 0, 224]",224,a,0.10892299492843449,colour,0.94
02,20,2,1,11,32,532,1673.1649116268381,1673.8277246500365,"[5, 0, 249]",249,a,0.13941527367569506,colour,0.94
02,20,2,1,11,33,533,1675.836744885426,1676.579741629539,"[24, 0, 230]",230,a,0.22004522127099335,colour,0.94
02,20,2,1,11,34,534,1678.574307354167,1679.5157500642817,"[12, 0, 242]",242,a,0.417983127059415,colour,0.94
02,20,2,1,11,35,535,1681.5274594742805,1682.5797014574055,"[44, 0, 210]",210,a,0.5289793226402253,colour,0.94
02,20,2,1,11,36,536,1684.589874083642,1685.2117406025063,"[37, 0, 217]",217,a,0.11072798725217581,colour,0.94
02,20,2,1,11,37,537,1687.218166579958,1688.019721007906,"[39, 0, 215]",215,a,0.2780786973889917,colour,0.94
02,20,2,1,11,38,538,1690.032626525499,1691.0917379558086,"[29, 0, 225]",225,a,0.5362311934586614,colour,0.94
02,20,2,1,11,39,539,1693.1002950293478,1693.7477575440425,"[15, 0, 239]",239,a,0.12498833239078522,colour,0.94
02,20,2,1,11,40,540,1695.7476354520768,1696.5956864503678,"[28, 0, 226]",226,a,0.324526036856696,colour,0.94
02,20,2,1,11,41,541,1698.6077235394623,1699.2276795154903,"[48, 0, 206]",206,a,0.0973195293918252,colour,0.94
02,20,2,1,11,42,542,1701.2477971254848,1702.075700975256,"[1, 0, 253]",253,a,0.3048223580699414,colour,0.94
02,20,2,1,11,43,543,1704.091735986527,1704.827692748746,"[40, 0, 214]",214,a,0.2129493134561926,colour,0.94
02,20,2,1,11,44,544,1706.8324783609714,1707.5237104622647,"[21, 0, 233]",233,a,0.16816951404325664,colour,0.94
02,20,2,1,11,45,545,1709.534589646617,1710.843678923091,"[25, 0, 229]",229,a,0.7860136923845857,colour,0.94
02,20,2,1,11,46,546,1712.8534525842406,1713.5156866551843,"[46, 0, 208]",208,a,0.139062782516703,colour,0.94
02,20,2,1,11,47,547,1715.5250944341533,1716.2436936530285,"[32, 0, 222]",222,a,0.19521013414487243,colour,0.94
02,20,2,1,11,48,548,1718.2595088987146,1718.9636922036298,"[9, 0, 245]",245,a,0.18091394915245473,colour,0.94
02,20,2,1,11,49,549,1720.96601746534,1721.5876764277928,"[14, 0, 240]",240,a,0.0985979507677257,colour,0.94
02,20,2,1,11,50,550,1723.6085754265077,1724.227580266539,"[36, 0, 218]",218,a,0.09565907809883356,colour,0.94
02,20,2,1,12,1,551,1731.7639532440808,1733.1076024321374,"[39, 0, 215]",215,a,0.8194558713585138,colour,0.94
02,20,2,1,12,2,552,1735.1186194624752,1735.747607882833,"[10, 0, 244]",244,a,0.10598569782450795,colour,0.94
02,20,2,1,12,3,553,1737.7591837793589,1738.411930120783,"[14, 0, 240]",240,a,0.12948564998805523,colour,0.94
02,20,2,1,12,4,554,1740.4340913931374,1741.0595434783027,"[32, 0, 222]",222,a,0.10213349852710962,colour,0.94
02,20,2,1,12,5,555,1743.0746706763748,1744.0115668380167,"[21, 0, 233]",233,a,0.41357087972573936,colour,0.94
02,20,2,1,12,6,556,1746.0277270919178,1746.5715713121463,"[46, 0, 208]",208,a,0.020420083310455084,colour,0.94
02,20,2,1,12,7,557,1748.5909949669149,1749.1955220594537,"[29, 0, 225]",225,a,0.08189773513004184,colour,0.94
02,20,2,1,12,8,558,1751.21524700569,1751.8995549154934,"[62, 0, 192]",192,a,0.16166004142723978,colour,0.94
02,20,2,1,12,9,559,1753.9182999751065,1754.5636569939088,"[4, 0, 250]",250,a,0.12192106642760336,colour,0.94
02,20,2,1,12,10,560,1756.574685445521,1757.5555587499402,"[1, 0, 253]",253,a,0.4577276159543544,colour,0.94
02,20,2,1,12,11,561,1759.5745680797845,1760.203529325081,"[31, 0, 223]",223,a,0.1056473848875612,colour,0.94
02,20,2,1,12,12,562,1762.2152895410545,1762.9394998718053,"[0, 0, 254]",254,a,0.20171842514537275,colour,0.94
02,20,2,1,12,13,563,1764.949517322937,1765.643526032567,"[28, 0, 226]",226,a,0.17068264004774392,colour,0.94
02,20,2,1,12,14,564,1767.652687658323,1768.443534224527,"[24, 0, 230]",230,a,0.26719360519200563,colour,0.94
02,20,2,1,12,15,565,1770.4495112183504,1771.2035147526767,"[18, 0, 236]",236,a,0.230617206543684,colour,0.94
02,20,2,1,12,16,566,1773.2152206180617,1773.867451022379,"[35, 0, 219]",219,a,0.12977355089969933,colour,0.94
02,20,2,1,12,17,567,1775.8870093722362,1776.5795198946726,"[33, 0, 221]",221,a,0.1691899667493999,colour,0.94
02,20,2,1,12,18,568,1778.5900524954777,1779.3634615677875,"[6, 0, 248]",248,a,0.24993846169672906,colour,0.94
02,20,2,1,12,19,569,1781.3713270493317,1782.0194335009437,"[34, 0, 220]",220,a,0.1247130346018821,colour,0.94
02,20,2,1,12,20,570,1784.0275471047498,1784.8834549197927,"[40, 0, 214]",214,a,0.3329629877116531,colour,0.94
02,20,2,1,12,21,571,1786.9026580213103,1787.4354178637732,"[15, 0, 239]",239,a,0.009670867584645748,colour,0.94
02,20,2,1,12,22,572,1789.449371403316,1790.1556499644648,"[42, 0, 212]",212,a,0.18276856583543122,colour,0.94
02,20,2,1,12,23,573,1792.1681143757887,1793.227443602169,"[37, 0, 217]",217,a,0.5359373849350959,colour,0.94
02,20,2,1,12,24,574,1795.2462174126413,1796.059405632317,"[49, 0, 205]",205,a,0.28985112253576517,colour,0.94
02,20,2,1,12,25,575,1798.074359538732,1798.6916416999884,"[2, 0, 252]",252,a,0.0945244103204459,colour,0.94
02,20,2,1,12,26,576,1800.6897413972765,1801.563406508416,"[30, 0, 224]",224,a,0.3503012324217707,colour,0.94
02,20,2,1,12,27,577,1803.5803938370664,1804.2914607676212,"[36, 0, 218]",218,a,0.18770462716929615,colour,0.94
02,20,2,1,12,28,578,1806.2991332649253,1807.1873934892938,"[12, 0, 242]",242,a,0.36493336712010205,colour,0.94
02,20,2,1,12,29,579,1809.205344163347,1810.1314001311548,"[16, 0, 238]",238,a,0.4030512757599354,colour,0.94
02,20,2,1,12,30,580,1812.1429535786156,1812.9233990882058,"[13, 0, 241]",241,a,0.25741009786725044,colour,0.94
02,20,2,1,12,31,581,1814.9396629235707,1815.755395776825,"[22, 0, 232]",232,a,0.29232683312147856,colour,0.94
02,20,2,1,12,32,582,1817.7677810250316,1818.4597023553215,"[26, 0, 228]",228,a,0.16846686718054116,colour,0.94
02,20,2,1,12,33,583,1820.4709159142803,1821.131441484904,"[38, 0, 216]",216,a,0.13716444885358214,colour,0.94
02,20,2,1,12,34,584,1823.1428086436354,1823.9713816363364,"[84, 0, 170]",170,l,0.30530757550150156,colour,0.94
02,20,2,1,12,35,585,1825.9865620036144,1826.5953378973063,"[8, 0, 246]",246,a,0.08548763347789645,colour,0.94
02,20,2,1,12,36,586,1828.611456010025,1829.2593592375051,"[5, 0, 249]",249,a,0.12451296136714518,colour,0.94
02,20,2,1,12,37,587,1831.2677174191922,1832.0033591052052,"[47, 0, 207]",207,a,0.2122021890245378,colour,0.94
02,20,2,1,12,38,588,1834.0177435113583,1835.0673723320942,"[20, 0, 234]",234,a,0.5263405602890998,colour,0.94
02,20,2,1,12,39,589,1837.0802081392612,1838.083380955737,"[41, 0, 213]",213,a,0.4798093317076564,colour,0.94
02,20,2,1,12,40,590,1840.0832013622858,1840.7633459349163,"[17, 0, 237]",237,a,0.15656329155899584,colour,0.94
02,20,2,1,12,41,591,1842.7708396264352,1843.4113590451889,"[23, 0, 231]",231,a,0.11715081380680203,colour,0.94
02,20,2,1,12,42,592,1845.4272881122306,1846.1554128697608,"[3, 0, 251]",251,a,0.205216164002195,colour,0.94
02,20,2,1,12,43,593,1848.1619896898046,1849.0752783794887,"[69, 0, 185]",185,l,0.3907365258783102,colour,0.94
02,20,2,1,12,44,594,1851.0832746175583,1851.9716262139846,"[19, 0, 235]",235,a,0.36492864112369716,colour,0.94
02,20,2,1,12,45,595,1853.9894831529818,1854.6592491182964,"[7, 0, 247]",247,a,0.14632725599221885,colour,0.94
02,20,2,1,12,46,596,1856.6770343773533,1857.2752871229313,"[9, 0, 245]",245,a,0.07502750027924776,colour,0.94
02,20,2,1,12,47,597,1859.286149371881,1860.0752429333515,"[48, 0, 206]",206,a,0.265450052684173,colour,0.94
02,20,2,1,12,48,598,1862.0832628021017,1862.9792947729584,"[45, 0, 209]",209,a,0.372733470518142,colour,0.94
02,20,2,1,12,49,599,1864.9895465620793,1865.6592337584589,"[11, 0, 243]",243,a,0.14632765017449856,colour,0.94
02,20,2,1,12,50,600,1867.6769693929236,1868.259254080709,"[43, 0, 211]",211,a,0.05903226719237864,colour,0.94
02,20,2,1,13,1,601,1875.8168226226699,1876.6992819020525,"[27, 0, 227]",227,a,0.35851605446077883,colour,0.94
02,20,2,1,13,2,602,1878.7082210052758,1879.2592198161874,"[98, 0, 156]",156,l,0.027758599491789937,colour,0.94
02,20,2,1,13,3,603,1881.2706405378412,1881.9071884220466,"[32, 0, 222]",222,a,0.11309381504543126,colour,0.94
02,20,2,1,13,4,604,1883.9269149438478,1885.107171565527,"[8, 0, 246]",246,a,0.6573106127325445,colour,0.94
02,20,2,1,13,5,605,1887.1143367902841,1887.7551614390686,"[0, 0, 254]",254,a,0.1173434043303132,colour,0.94
02,20,2,1,13,6,606,1889.7706592455506,1890.499195965007,"[12, 0, 242]",242,a,0.20551312319003046,colour,0.94
02,20,2,1,13,7,607,1892.5205285872798,1893.107201497769,"[7, 0, 247]",247,a,0.0632562565151602,colour,0.94
02,20,2,1,13,8,608,1895.1143497871235,1896.0592047714163,"[40, 0, 214]",214,a,0.42151119164191186,colour,0.94
02,20,2,1,13,9,609,1898.0673943874426,1898.8192053858656,"[47, 0, 207]",207,a,0.22846090444363654,colour,0.94
02,20,2,1,13,10,610,1900.8329797259066,1901.6191619841848,"[25, 0, 229]",229,a,0.2626966815441847,colour,0.94
02,20,2,1,13,11,611,1903.6299360119738,1904.2591308073606,"[48, 0, 206]",206,a,0.10613378370180726,colour,0.94
02,20,2,1,13,12,612,1906.2704089567997,1907.0031543057412,"[34, 0, 220]",220,a,0.20985172130167484,colour,0.94
02,20,2,1,13,13,613,1909.0205283903051,1909.6511394530535,"[29, 0, 225]",225,a,0.10723143024370074,colour,0.94
02,20,2,1,13,14,614,1911.6611175197177,1912.6031155514065,"[11, 0, 243]",243,a,0.41862982069142163,colour,0.94
02,20,2,1,13,15,615,1914.6142129260115,1915.8511639500502,"[49, 0, 205]",205,a,0.7135599700268358,colour,0.94
02,20,2,1,13,16,616,1917.86427426734,1918.6191214181017,"[26, 0, 228]",228,a,0.23145885369740427,colour,0.94
02,20,2,1,13,17,617,1920.6298379444052,1921.563125303015,"[70, 0, 184]",184,l,0.4101735716685653,colour,0.94
02,20,2,1,13,18,618,1923.5828321324661,1924.3071968504228,"[16, 0, 238]",238,a,0.20077004609629512,colour,0.94
02,20,2,1,13,19,619,1926.3173643567134,1927.3231633326504,"[38, 0, 216]",216,a,0.48322199983522296,colour,0.94
02,20,2,1,13,20,620,1929.3328637385275,1930.0674195934553,"[3, 0, 251]",251,a,0.21106673358008265,colour,0.94
02,20,2,1,13,21,621,1932.0829075537622,1933.803089636378,"[5, 0, 249]",249,a,1.1967961485497653,colour,0.94
02,20,2,1,13,22,622,1935.8172050463036,1937.8351458741818,"[17, 0, 237]",237,l,1.4946714721154422,colour,0.94
02,20,2,1,13,23,623,1939.8485819012858,1940.715081000002,"[39, 0, 215]",215,a,0.3432537673506886,colour,0.94
02,20,2,1,13,24,624,1942.7234612370376,1943.3070097740274,"[20, 0, 234]",234,a,0.060145667754113674,colour,0.94
02,20,2,1,13,25,625,1945.31724777841,1946.1630577978212,"[2, 0, 252]",252,a,0.32342563359998167,colour,0.94
02,20,2,1,13,26,626,1948.1867066235282,1948.9871157498565,"[10, 0, 244]",244,a,0.2771618259139359,colour,0.94
02,20,2,1,13,27,627,1950.9992115218192,1951.7950378661044,"[21, 0, 233]",233,a,0.2724057517480105,colour,0.94
02,20,2,1,13,28,628,1953.8117093311157,1954.5949968274217,"[6, 0, 248]",248,a,0.2599858450703323,colour,0.94
02,20,2,1,13,29,629,1956.6084899620619,1957.3629936799407,"[41, 0, 213]",213,a,0.23121388209983706,colour,0.94
02,20,2,1,13,30,630,1959.3741536759771,1960.2110119890422,"[37, 0, 217]",217,a,0.3134652900043875,colour,0.94
02,20,2,1,13,31,631,1962.2179483897053,1962.9870196515694,"[1, 0, 253]",253,a,0.2457455862313509,colour,0.94
02,20,2,1,13,32,632,1964.9992154603824,1965.7150869078469,"[19, 0, 235]",235,a,0.1926280853804201,colour,0.94
02,20,2,1,13,33,633,1967.7335515497252,1968.4829927817918,"[23, 0, 231]",231,a,0.2264385095331818,colour,0.94
02,20,2,1,13,34,634,1970.4991124698427,1971.6910095785279,"[4, 0, 250]",250,a,0.6688778444658965,colour,0.94
02,20,2,1,13,35,635,1973.702380281873,1974.4189374134876,"[18, 0, 236]",236,a,0.19333424954675138,colour,0.94
02,20,2,1,13,36,636,1976.4366356327664,1977.2509376467206,"[14, 0, 240]",240,a,0.29092119983397424,colour,0.94
02,20,2,1,13,37,637,1979.2647407376207,1979.890939159086,"[24, 0, 230]",230,a,0.10330991400405765,colour,0.94
02,20,2,1,13,38,638,1981.905274728546,1982.986941276351,"[31, 0, 223]",223,a,0.5582175985909998,colour,0.94
02,20,2,1,13,39,639,1984.998993725516,1985.818965534214,"[44, 0, 210]",210,a,0.2964114013593644,colour,0.94
02,20,2,1,13,40,640,1987.8271642085165,1989.026949247811,"[13, 0, 241]",241,a,0.6769831776618958,colour,0.94
02,20,2,1,13,41,641,1991.0458656302653,1992.1632622035686,"[46, 0, 208]",208,a,0.5940063071902841,colour,0.94
02,20,2,1,13,42,642,1994.1710335558746,1995.050929690944,"[43, 0, 211]",211,a,0.35666576982475817,colour,0.94
02,20,2,1,13,43,643,1997.0615241255146,1997.9149845866486,"[36, 0, 218]",218,a,0.3300540472846478,colour,0.94
02,20,2,1,13,44,644,1999.9209194392897,2000.5949755597394,"[9, 0, 245]",245,a,0.1507812507916242,colour,0.94
02,20,2,1,13,45,645,2002.6083757469896,2003.3868965355214,"[28, 0, 226]",226,a,0.25526364194229245,colour,0.94
02,20,2,1,13,46,646,2005.4052359347697,2008.1149708810262,"[15, 0, 239]",239,a,2.1863883966580033,colour,0.94
02,20,2,1,13,47,647,2010.123928888701,2010.7149569387548,"[30, 0, 224]",224,a,0.06772364187054336,colour,0.94
02,20,2,1,13,48,648,2012.7332289905753,2013.6508633675985,"[45, 0, 209]",209,a,0.39417558163404465,colour,0.94
02,20,2,1,13,49,649,2015.6707958702464,2016.3629334215075,"[80, 0, 174]",174,l,0.1693069387692958,colour,0.94
02,20,2,1,13,50,650,2018.373879559571,2019.0188340686727,"[42, 0, 212]",212,a,0.12160165794193745,colour,0.94
02,20,2,1,14,1,651,2026.9669067678042,2027.6588529101573,"[22, 0, 232]",232,a,0.16796904685907066,colour,0.94
02,20,2,1,14,2,652,2029.6708112303168,2030.4028606547508,"[5, 0, 249]",249,a,0.20880054868757725,colour,0.94
02,20,2,1,14,3,653,2032.4208365348168,2033.138842229033,"[38, 0, 216]",216,a,0.19498682394623756,colour,0.94
02,20,2,1,14,4,654,2035.1552120086271,2035.9467860069126,"[24, 0, 230]",230,a,0.2682546239811927,colour,0.94
02,20,2,1,14,5,655,2037.9675739414524,2038.8988881355617,"[20, 0, 234]",234,a,0.40785067272372544,colour,0.94
02,20,2,1,14,6,656,2040.9051266426686,2042.1633736616932,"[25, 0, 229]",229,a,0.7348658111877739,colour,0.94
02,20,2,1,14,7,657,2044.1858748225495,2044.9628225935157,"[16, 0, 238]",238,a,0.25374024896882474,colour,0.94
02,20,2,1,14,8,658,2046.9826014968567,2047.8347878688946,"[57, 0, 197]",197,a,0.32875002594664693,colour,0.94
02,20,2,1,14,9,659,2049.842015715083,2050.634787396295,"[35, 0, 219]",219,a,0.26959960511885583,colour,0.94
02,20,2,1,14,10,660,2052.6544946196955,2053.6907543670386,"[44, 0, 210]",210,a,0.5126883122138679,colour,0.94
02,20,2,1,14,11,661,2055.7014074842446,2056.3947872230783,"[64, 0, 190]",190,a,0.17011432140134275,colour,0.94
02,20,2,1,14,12,662,2058.4044848720077,2059.0347300525755,"[9, 0, 245]",245,a,0.10676787444390357,colour,0.94
02,20,2,1,14,13,663,2061.045174431987,2062.002766761929,"[78, 0, 176]",176,l,0.4342875280417502,colour,0.94
02,20,2,1,14,14,664,2064.013869650429,2064.6667101208586,"[36, 0, 218]",218,a,0.12942696711979806,colour,0.94
02,20,2,1,14,15,665,2066.685806490481,2070.8187095348258,"[42, 0, 212]",212,a,3.609540347242728,colour,0.94
02,20,2,1,14,16,666,2072.8263477676082,2073.634759827284,"[40, 0, 214]",214,a,0.28531048190779984,colour,0.94
02,20,2,1,14,17,667,2075.6544280599337,2077.0506969285198,"[30, 0, 224]",224,a,0.8728608791716397,colour,0.94
02,20,2,1,14,18,668,2079.060734465951,2079.8986719145905,"[17, 0, 237]",237,a,0.31462398217990994,colour,0.94
02,20,2,1,14,19,669,2081.9200273801107,2082.6026921677403,"[13, 0, 241]",241,a,0.15937258885242045,colour,0.94
02,20,2,1,14,20,670,2084.623147696955,2085.3386662590783,"[43, 0, 211]",211,a,0.19200738542713225,colour,0.94
02,20,2,1,14,21,671,2087.3574089556932,2088.1629140444566,"[45, 0, 209]",209,a,0.282039204146713,colour,0.94
02,20,2,1,14,22,672,2090.1700678477064,2090.898692788556,"[31, 0, 223]",223,a,0.20535834203474224,colour,0.94
02,20,2,1,14,23,673,2092.920028955443,2094.2027050070465,"[21, 0, 233]",233,a,0.7593873974401504,colour,0.94
02,20,2,1,14,24,674,2096.2168448355515,2097.282679990167,"[39, 0, 215]",215,a,0.5425047527533025,colour,0.94
02,20,2,1,14,25,675,2099.296384619549,2100.338850578526,"[26, 0, 228]",228,a,0.5189882589038461,colour,0.94
02,20,2,1,14,26,676,2102.3588787857443,2103.0346264713444,"[2, 0, 252]",252,a,0.15251456340774894,colour,0.94
02,20,2,1,14,27,677,2105.0463362750597,2105.8826369033195,"[0, 0, 254]",254,a,0.3129410818219185,colour,0.94
02,20,2,1,14,28,678,2107.890065216692,2108.74660397158,"[11, 0, 243]",243,a,0.3332154422532767,colour,0.94
02,20,2,1,14,29,679,2110.7643073110376,2111.498628827976,"[32, 0, 222]",222,a,0.21091589075513184,colour,0.94
02,20,2,1,14,30,680,2113.5143062279094,2114.2426251510624,"[47, 0, 207]",207,a,0.20480380789376795,colour,0.94
02,20,2,1,14,31,681,2116.24871399696,2117.05862384988,"[37, 0, 217]",217,a,0.2872596215456724,colour,0.94
02,20,2,1,14,32,682,2119.0769124429207,2120.4745593757834,"[46, 0, 208]",208,a,0.8746142778545618,colour,0.94
02,20,2,1,14,33,683,2122.4830112925265,2123.21058781771,"[48, 0, 206]",206,a,0.20401257299818099,colour,0.94
02,20,2,1,14,34,684,2125.2174009447917,2126.0025521165226,"[7, 0, 247]",247,a,0.2617546038236469,colour,0.94
02,20,2,1,14,35,685,2128.0142579819076,2128.6986253622454,"[33, 0, 221]",221,a,0.16094796964898705,colour,0.94
02,20,2,1,14,36,686,2130.717395627871,2131.842543861363,"[28, 0, 226]",226,a,0.6019863972906023,colour,0.94
02,20,2,1,14,37,687,2133.8580089788884,2134.802490991773,"[34, 0, 220]",220,a,0.42142809042707086,colour,0.94
02,20,2,1,14,38,688,2136.8110953266732,2137.6825879877433,"[3, 0, 251]",251,a,0.3481429610401392,colour,0.94
02,20,2,1,14,39,689,2139.701730437344,2140.498566600494,"[23, 0, 231]",231,a,0.27348646288737655,colour,0.94
02,20,2,1,14,40,690,2142.5141593236476,2143.2905691021588,"[41, 0, 213]",213,a,0.25300060771405697,colour,0.94
02,20,2,1,14,41,691,2145.3110443237238,2145.9706254536286,"[1, 0, 253]",253,a,0.13695413572713733,colour,0.94
02,20,2,1,14,42,692,2147.9828452868387,2148.5865374275018,"[12, 0, 242]",242,a,0.08017860073596239,colour,0.94
02,20,2,1,14,43,693,2150.6079689050093,2152.5465196100995,"[29, 0, 225]",225,a,1.4153242784086615,colour,0.94
02,20,2,1,14,44,694,2154.561017049942,2155.3225197896827,"[27, 0, 227]",227,a,0.2381089290138334,colour,0.94
02,20,2,1,14,45,695,2157.342410544865,2158.3384839086793,"[19, 0, 235]",235,a,0.4730659150518477,colour,0.94
02,20,2,1,14,46,696,2160.3577992562205,2161.4185057592113,"[18, 0, 236]",236,a,0.5379550536163151,colour,0.94
02,20,2,1,14,47,697,2163.423405586742,2164.1944933359046,"[10, 0, 244]",244,a,0.2476919691544026,colour,0.94
02,20,2,1,14,48,698,2166.2112935881596,2166.994492863305,"[14, 0, 240]",240,a,0.2604466441553086,colour,0.94
02,20,2,1,14,49,699,2168.9988090121187,2170.1064846995287,"[6, 0, 248]",248,a,0.5917854141443968,colour,0.94
02,20,2,1,14,50,700,2172.116634089034,2173.170481778914,"[4, 0, 250]",250,a,0.530709090642631,colour,0.94
02,20,2,1,15,1,701,2180.7150912401266,2182.1304600229487,"[33, 0, 221]",221,a,0.8911601065192372,colour,0.94
02,20,2,1,15,2,702,2184.1376662075054,2185.0024516859557,"[35, 0, 219]",219,a,0.3413956060539931,colour,0.94
02,20,2,1,15,3,703,2187.0126440045424,2187.546810267726,"[2, 0, 252]",252,a,0.010710618691518903,colour,0.94
02,20,2,1,15,4,704,2189.5596661609598,2190.2023950510193,"[14, 0, 240]",240,a,0.11969820433296263,colour,0.94
02,20,2,1,15,5,705,2192.2158476195764,2192.898447423009,"[22, 0, 232]",232,a,0.15911186346784234,colour,0.94
02,20,2,1,15,6,706,2194.9190029888414,2195.474387265509,"[15, 0, 239]",239,a,0.031978650484234095,colour,0.94
02,20,2,1,15,7,707,2197.4814678134862,2198.178391764639,"[47, 0, 207]",207,a,0.17359236790798604,colour,0.94
02,20,2,1,15,8,708,2200.173427346628,2200.7463790860493,"[34, 0, 220]",220,a,0.04992499225772917,colour,0.94
02,20,2,1,15,9,709,2202.767056743847,2203.338387022959,"[23, 0, 231]",231,a,0.04798333579674363,colour,0.94
02,20,2,1,15,10,710,2205.3451674608514,2206.27437812835,"[7, 0, 247]",247,a,0.40589444409124553,colour,0.94
02,20,2,1,15,11,711,2208.2826083102264,2209.0743674156256,"[30, 0, 224]",224,a,0.2690505851060152,colour,0.94
02,20,2,1,15,12,712,2211.0951636207756,2212.0263907753397,"[21, 0, 233]",233,a,0.4083374652545899,colour,0.94
02,20,2,1,15,13,713,2214.0325918672606,2214.7943545447197,"[42, 0, 212]",212,a,0.23826331621967256,colour,0.94
02,20,2,1,15,14,714,2216.8138849318493,2217.6183085215744,"[13, 0, 241]",241,a,0.28140471945516765,colour,0.94
02,20,2,1,15,15,715,2219.6262937318534,2220.4184805531986,"[28, 0, 226]",226,a,0.27404414769262075,colour,0.94
02,20,2,1,15,16,716,2222.4339484274387,2223.098348252708,"[44, 0, 210]",210,a,0.14183584600687027,colour,0.94
02,20,2,1,15,17,717,2225.1059195317794,2225.6903617032804,"[1, 0, 253]",253,a,0.061811238527297974,colour,0.94
02,20,2,1,15,18,718,2227.699403206352,2228.7463739661034,"[9, 0, 245]",245,a,0.5236710777971894,colour,0.94
02,20,2,1,15,19,719,2230.7620513660368,2231.5464042134117,"[48, 0, 206]",206,a,0.26103347330354154,colour,0.94
02,20,2,1,15,20,720,2233.5589284889866,2234.338339761365,"[69, 0, 185]",185,l,0.25610686419531703,colour,0.94
02,20,2,1,15,21,721,2236.355872171931,2237.170306124026,"[32, 0, 222]",222,a,0.29117326089181006,colour,0.94
02,20,2,1,15,22,722,2239.183901264565,2240.5143034709617,"[16, 0, 238]",238,a,0.8070930722169578,colour,0.94
02,20,2,1,15,23,723,2242.527618193766,2243.234301233897,"[18, 0, 236]",236,a,0.18324354314245284,colour,0.94
02,20,2,1,15,24,724,2245.2463351723272,2246.0662742918357,"[38, 0, 216]",216,a,0.2965323117095977,colour,0.94
02,20,2,1,15,25,725,2248.074537162902,2248.9062483138405,"[46, 0, 208]",208,a,0.30876474804244936,colour,0.94
02,20,2,1,15,26,726,2250.9181790647563,2251.9702591774985,"[37, 0, 217]",217,a,0.5286035942845047,colour,0.94
02,20,2,1,15,27,727,2253.980628332589,2255.082316392334,"[4, 0, 250]",250,a,0.5784600577317178,colour,0.94
02,20,2,1,15,28,728,2257.090077898465,2257.746240058681,"[11, 0, 243]",243,a,0.13291879813186824,colour,0.94
02,20,2,1,15,29,729,2259.761874529533,2260.410221620463,"[39, 0, 215]",215,a,0.12527741468511522,colour,0.94
02,20,2,1,15,30,730,2262.4181879262906,2263.122263317695,"[43, 0, 211]",211,a,0.18068945757113397,colour,0.94
02,20,2,1,15,31,731,2265.1368245603517,2265.8502084817737,"[45, 0, 209]",209,a,0.19002319360151887,colour,0.94
02,20,2,1,15,32,732,2267.8713248830754,2268.7142657407094,"[29, 0, 225]",225,a,0.3196108494885266,colour,0.94
02,20,2,1,15,33,733,2270.730796996737,2271.418170990888,"[31, 0, 223]",223,a,0.16414284124039114,colour,0.94
02,20,2,1,15,34,734,2273.4337838001084,2274.2182079334743,"[6, 0, 248]",248,a,0.2612107035238296,colour,0.94
02,20,2,1,15,35,735,2276.2306506831665,2276.9941616393626,"[5, 0, 249]",249,a,0.24064056552015245,colour,0.94
02,20,2,1,15,36,736,2279.011744855903,2280.050191231305,"[67, 0, 187]",187,l,0.5150958874728531,colour,0.94
02,20,2,1,15,37,737,2282.058677018853,2282.698138175765,"[26, 0, 228]",228,a,0.11622409638948739,colour,0.94
02,20,2,1,15,38,738,2284.7157005185727,2285.322185415076,"[19, 0, 235]",235,a,0.08389807445928454,colour,0.94
02,20,2,1,15,39,739,2287.3398781204596,2288.0101446630433,"[49, 0, 205]",205,a,0.14681956241838634,colour,0.94
02,20,2,1,15,40,740,2290.02750614495,2290.9781447451096,"[41, 0, 213]",213,a,0.427373576676473,colour,0.94
02,20,2,1,15,41,741,2292.996205695672,2293.7302735764533,"[20, 0, 234]",234,a,0.2107772573363036,colour,0.94
02,20,2,1,15,42,742,2295.746099062264,2296.4101613622624,"[0, 0, 254]",254,a,0.1405822371598333,colour,0.94
02,20,2,1,15,43,743,2298.417994548334,2302.506172144087,"[8, 0, 246]",246,a,3.5650921657215804,colour,0.94
02,20,2,1,15,44,744,2304.527362982044,2305.0581343004014,"[10, 0, 244]",244,a,0.007479513296857476,colour,0.94
02,20,2,1,15,45,745,2307.0742224806454,2308.1061215742957,"[17, 0, 237]",237,a,0.508632494835183,colour,0.94
02,20,2,1,15,46,746,2310.112541250186,2310.834274295019,"[3, 0, 251]",251,a,0.19835735065862536,colour,0.94
02,20,2,1,15,47,747,2312.8470242437907,2313.6021266060416,"[66, 0, 188]",188,l,0.23176487116143107,colour,0.94
02,20,2,1,15,48,748,2315.612585163908,2316.170098961331,"[24, 0, 230]",230,a,0.034130620304495096,colour,0.94
02,20,2,1,15,49,749,2318.1907588960603,2318.94609599025,"[40, 0, 214]",214,a,0.23203229228965938,colour,0.94
02,20,2,1,15,50,750,2320.9563056379557,2321.682109859772,"[12, 0, 242]",242,a,0.20243482943624258,colour,0.94
02,20,2,1,16,1,751,2329.3305183907505,2329.9300818527117,"[3, 0, 251]",251,a,0.07537762844003737,colour,0.94
02,20,2,1,16,2,752,2331.940699130064,2332.802045946708,"[1, 0, 253]",253,a,0.33806328219361603,colour,0.94
02,20,2,1,16,3,753,2334.815591462655,2335.890072699869,"[21, 0, 233]",233,a,0.5510673401877284,colour,0.94
02,20,2,1,16,4,754,2337.9093281826936,2338.474174195202,"[17, 0, 237]",237,a,0.041590441251173615,colour,0.94
02,20,2,1,16,5,755,2340.4874648936093,2341.1302063865587,"[26, 0, 228]",228,a,0.119318931363523,colour,0.94
02,20,2,1,16,6,756,2343.143683767412,2343.9380316170864,"[49, 0, 205]",205,a,0.270966641837731,colour,0.94
02,20,2,1,16,7,757,2345.9562185981777,2346.5460040667094,"[24, 0, 230]",230,a,0.06647357740439475,colour,0.94
02,20,2,1,16,8,758,2348.5655332722235,2349.3939762958325,"[7, 0, 247]",247,a,0.3050342467613518,colour,0.94
02,20,2,1,16,9,759,2351.4092976597603,2352.0980512935203,"[4, 0, 250]",250,a,0.1656823819503188,colour,0.94
02,20,2,1,16,10,760,2354.1124195521697,2355.08999912953,"[29, 0, 225]",225,a,0.45490532158873975,colour,0.94
02,20,2,1,16,11,761,2357.096840219572,2357.8900333151687,"[41, 0, 213]",213,a,0.26990365353412926,colour,0.94
02,20,2,1,16,12,762,2359.90928801056,2360.4659790655132,"[6, 0, 248]",248,a,0.03361074486747384,colour,0.94
02,20,2,1,16,13,763,2362.4874349613674,2363.0819835930597,"[38, 0, 216]",216,a,0.0712690360378474,colour,0.94
02,20,2,1,16,14,764,2365.0967130076606,2365.6740131913684,"[37, 0, 217]",217,a,0.05395402805879712,colour,0.94
02,20,2,1,16,15,765,2367.6905306628905,2368.3859769070987,"[23, 0, 231]",231,a,0.17215916537679732,colour,0.94
02,20,2,1,16,16,766,2370.393671459751,2370.969948827522,"[18, 0, 236]",236,a,0.053009587340056896,colour,0.94
02,20,2,1,16,17,767,2372.9873985305894,2373.577935061883,"[19, 0, 235]",235,a,0.06722464016638696,colour,0.94
02,20,2,1,16,18,768,2375.5967155676335,2376.225960381329,"[74, 0, 180]",180,l,0.1062476048246026,colour,0.94
02,20,2,1,16,19,769,2378.237259798683,2378.8739411963616,"[0, 0, 254]",254,a,0.11328916228376329,colour,0.94
02,20,2,1,16,20,770,2380.89354956476,2381.6898906645365,"[94, 0, 160]",160,l,0.27301227347925305,colour,0.94
02,20,2,1,16,21,771,2383.706006414024,2384.4099522305187,"[20, 0, 234]",234,a,0.1805913900025189,colour,0.94
02,20,2,1,16,22,772,2386.4247856200673,2387.089916422032,"[16, 0, 238]",238,a,0.1418937414418906,colour,0.94
02,20,2,1,16,23,773,2389.096610608045,2389.7138919816352,"[13, 0, 241]",241,a,0.0938918951433152,colour,0.94
02,20,2,1,16,24,774,2391.7216148909647,2392.2819257767405,"[9, 0, 245]",245,a,0.03693204093724489,colour,0.94
02,20,2,1,16,25,775,2394.2998020139057,2394.921837098431,"[25, 0, 229]",229,a,0.09878463321365416,colour,0.94
02,20,2,1,16,26,776,2396.940294257365,2397.529898163397,"[11, 0, 243]",243,a,0.06618882762268186,colour,0.94
02,20,2,1,16,27,777,2399.5497247218154,2400.417838585563,"[42, 0, 212]",212,a,0.3448866493999958,colour,0.94
02,20,2,1,16,28,778,2402.42466155882,2403.2579236719757,"[12, 0, 242]",242,a,0.309924622066319,colour,0.94
02,20,2,1,16,29,779,2405.268373171333,2406.161867597839,"[27, 0, 227]",227,a,0.37041017785668373,colour,0.94
02,20,2,1,16,30,780,2408.1746986787766,2409.201873206068,"[34, 0, 220]",220,a,0.5039449497126043,colour,0.94
02,20,2,1,16,31,781,2411.2215934265405,2412.0098252547905,"[48, 0, 206]",206,a,0.26504478603601456,colour,0.94
02,20,2,1,16,32,782,2414.0183386113495,2414.5538348897826,"[47, 0, 207]",207,a,0.01215524272993207,colour,0.94
02,20,2,1,16,33,783,2416.565250885207,2417.169847688172,"[33, 0, 221]",221,a,0.08118329988792539,colour,0.94
02,20,2,1,16,34,784,2419.1902248421684,2420.0338273595553,"[44, 0, 210]",210,a,0.3206092470791191,colour,0.94
02,20,2,1,16,35,785,2422.049604008207,2422.745858816663,"[36, 0, 218]",218,a,0.17291337880305946,colour,0.94
02,20,2,1,16,36,786,2424.752685728483,2425.5218278823886,"[43, 0, 211]",211,a,0.24577118619345129,colour,0.94
02,20,2,1,16,37,787,2427.534063863568,2428.1137921023183,"[8, 0, 246]",246,a,0.05638247705064714,colour,0.94
02,20,2,1,16,38,788,2430.127701531397,2431.1298026952427,"[5, 0, 249]",249,a,0.47937295120209455,colour,0.94
02,20,2,1,16,39,789,2433.1432560516987,2433.849773676833,"[22, 0, 232]",232,a,0.1832466940395534,colour,0.94
02,20,2,1,16,40,790,2435.8620147777256,2436.8098094221205,"[77, 0, 177]",177,l,0.42480491870082915,colour,0.94
02,20,2,1,16,41,791,2438.8307537131477,2439.449772731634,"[30, 0, 224]",224,a,0.09566104738041759,colour,0.94
02,20,2,1,16,42,792,2441.4557103409898,2442.8339241666254,"[15, 0, 239]",239,a,0.854869639268145,colour,0.94
02,20,2,1,16,43,793,2444.8463023256045,2445.8338725729845,"[14, 0, 240]",240,a,0.464083882747218,colour,0.94
02,20,2,1,16,44,794,2447.8462979933247,2448.9137683929875,"[46, 0, 208]",208,a,0.544733916176483,colour,0.94
02,20,2,1,16,45,795,2450.9244380518794,2451.5537254007068,"[45, 0, 209]",209,a,0.10650281654670835,colour,0.94
02,20,2,1,16,46,796,2453.5650460857432,2454.457755184965,"[35, 0, 219]",219,a,0.3694948817137629,colour,0.94
02,20,2,1,16,47,797,2456.471466509858,2457.137709530536,"[40, 0, 214]",214,a,0.14310717838816345,colour,0.94
02,20,2,1,16,48,798,2459.158675876679,2460.2899086237885,"[10, 0, 244]",244,a,0.6079846587963402,colour,0.94
02,20,2,1,16,49,799,2462.300673987018,2463.105712369317,"[2, 0, 252]",252,a,0.282922598766163,colour,0.94
02,20,2,1,16,50,800,2465.1118138183374,2465.9856947564986,"[39, 0, 215]",215,a,0.3609070882666856,colour,0.94
