id,age,condition,counterbalance,block,trialinblock,trial,tstart,tend,trialstim,trialintensity,response,RT,trialtype,colourfreq
13,18,1,2,Practice,1,NA,5.9076701290905476e-06,2.688013623934239,"[39, 0, 215]",215,a,2.1323510298971087,colour,0.5
13,18,1,2,Practice,2,NA,4.691842984757386,6.632277774566319,"[32, 0, 222]",222,a,1.4172613078844734,colour,0.5
13,18,1,2,Practice,3,NA,8.64520930137951,10.68794903322123,"[90, 0, 164]",164,a,1.5195185946067795,colour,0.5
13,18,1,2,Practice,4,NA,12.708025707106572,13.647984731418546,"[67, 0, 187]",187,a,0.41668668715283275,colour,0.5
13,18,1,2,Practice,5,NA,15.661650780239142,16.479941049183253,"[54, 0, 200]",200,a,0.295971825835295,colour,0.5
13,18,1,2,Practice,6,NA,18.47714080690639,19.087924457271583,"[51, 0, 203]",203,a,0.08748295635450631,colour,0.5
13,18,1,2,Practice,7,NA,21.104967338382266,26.93588862993056,"[59, 0, 195]",195,a,5.319892039056867,colour,0.5
13,18,1,2,Practice,8,NA,28.952494736236986,30.46389617281966,"[26, 0, 228]",228,a,0.9879849519347772,colour,0.5
13,18,1,2,Practice,9,NA,32.48410557268653,33.863914526067674,"[5, 0, 249]",249,a,0.8569064372568391,colour,0.5
13,18,1,2,Practice,10,NA,35.87508989527123,37.02387492090929,"[23, 0, 231]",231,a,0.6255201715393923,colour,0.5
13,18,1,2,1,1,1,6.197160688228905,8.12000160687603,"[33, 0, 221]",221,a,1.398727327294182,colour,0.5
13,18,1,2,1,2,2,10.135776305163745,11.44792140100617,"[75, 0, 179]",179,l,0.7887995034107007,colour,0.5
13,18,1,2,1,3,3,13.451677112781908,14.255911819578614,"[34, 0, 220]",220,a,0.28090762509964406,colour,0.5
13,18,1,2,1,4,4,16.26430900185369,17.351960917934775,"[40, 0, 214]",214,a,0.564222828426864,colour,0.5
13,18,1,2,1,5,5,19.35836012143409,20.471956223307643,"[48, 0, 206]",206,a,0.5901863126200624,colour,0.5
13,18,1,2,1,6,6,22.48361484106863,23.60798065114068,"[82, 0, 172]",172,l,0.6009875284507871,colour,0.5
13,18,1,2,1,7,7,25.62722709850641,26.47990048310021,"[80, 0, 174]",174,l,0.32940459210658446,colour,0.5
13,18,1,2,1,8,8,28.48675221519079,34.29593480436597,"[60, 0, 194]",194,a,5.285780676815193,colour,0.5
13,18,1,2,1,9,9,36.31566883256892,38.159902893414255,"[97, 0, 157]",157,l,1.3212708925129846,colour,0.5
13,18,1,2,1,10,10,40.17526759841712,41.98394094523974,"[32, 0, 222]",222,a,1.2854230650118552,colour,0.5
13,18,1,2,1,11,11,44.00364346575225,45.20789928268641,"[73, 0, 181]",181,l,0.680914556782227,colour,0.5
13,18,1,2,1,12,12,47.22256136708893,48.479897332319524,"[30, 0, 224]",224,a,0.7338336222455837,colour,0.5
13,18,1,2,1,13,13,50.48841109289788,51.55991967127193,"[51, 0, 203]",203,a,0.548039318411611,colour,0.5
13,18,1,2,1,14,14,53.566843870969024,54.74390425457386,"[57, 0, 197]",197,a,0.6537017942755483,colour,0.5
13,18,1,2,1,15,15,56.75456959370058,58.45586290390929,"[50, 0, 204]",204,a,1.1779185732011683,colour,0.5
13,18,1,2,1,16,16,60.47363203635905,62.167869602446444,"[46, 0, 208]",208,a,1.170877795200795,colour,0.5
13,18,1,2,1,17,17,64.17703242058633,65.11989802552853,"[13, 0, 241]",241,a,0.41949283715803176,colour,0.5
13,18,1,2,1,18,18,67.11981059180107,71.58393440739019,"[55, 0, 199]",199,a,3.940814456960652,colour,0.5
13,18,1,2,1,19,19,73.60559985443251,74.6158910402446,"[79, 0, 175]",175,l,0.4867904182174243,colour,0.5
13,18,1,2,1,20,20,76.63725637696916,77.84789721888956,"[56, 0, 198]",198,a,0.6873050956055522,colour,0.5
13,18,1,2,1,21,21,79.8562172074453,80.76782131695654,"[23, 0, 231]",231,a,0.38834910158766434,colour,0.5
13,18,1,2,1,22,22,82.77258369809715,83.35986303625396,"[41, 0, 213]",213,a,0.0638821519096382,colour,0.5
13,18,1,2,1,23,23,85.36659031314775,86.57587160001276,"[78, 0, 176]",176,l,0.6858970975736156,colour,0.5
13,18,1,2,1,24,24,88.58563424507156,90.01585346739739,"[31, 0, 223]",223,a,0.9069098636973649,colour,0.5
13,18,1,2,1,25,25,92.02343184466008,93.17580756073585,"[88, 0, 166]",166,l,0.6291195265948772,colour,0.5
13,18,1,2,1,26,26,95.19549117668066,96.29583319224184,"[35, 0, 219]",219,a,0.5770826752996072,colour,0.5
13,18,1,2,1,27,27,98.30506296409294,99.58380010601832,"[38, 0, 216]",216,a,0.7552485835039988,colour,0.5
13,18,1,2,1,28,28,101.60316707013408,102.96783344744472,"[67, 0, 187]",187,l,0.8397292547742836,colour,0.5
13,18,1,2,1,29,29,104.98038845782867,106.15182472608285,"[26, 0, 228]",228,a,0.6481339988531545,colour,0.5
13,18,1,2,1,30,30,108.16810669749975,109.23985591554083,"[63, 0, 191]",191,l,0.5483957486576401,colour,0.5
13,18,1,2,1,31,31,111.24648906331277,113.36786873597885,"[54, 0, 200]",200,a,1.598068738647271,colour,0.5
13,18,1,2,1,32,32,115.38737315218896,116.47187154646963,"[29, 0, 225]",225,a,0.5610819096327759,colour,0.5
13,18,1,2,1,33,33,118.48141560715158,119.11983382864855,"[19, 0, 235]",235,a,0.11508759518619627,colour,0.5
13,18,1,2,1,34,34,121.13795072678477,122.06381125975167,"[93, 0, 161]",161,l,0.40261379576986656,colour,0.5
13,18,1,2,1,35,35,124.06327484204667,124.92784905945882,"[15, 0, 239]",239,a,0.3412451664917171,colour,0.5
13,18,1,2,1,36,36,126.93843287258642,128.26378243026556,"[36, 0, 218]",218,a,0.8019968760199845,colour,0.5
13,18,1,2,1,37,37,130.28335537557723,131.07983250537654,"[9, 0, 245]",245,a,0.27307994361035526,colour,0.5
13,18,1,2,1,38,38,133.0960963598336,133.96784408128588,"[91, 0, 163]",163,l,0.3484757781261578,colour,0.5
13,18,1,2,1,39,39,135.98692905186908,137.2237960730563,"[24, 0, 230]",230,a,0.713439115032088,colour,0.5
13,18,1,2,1,40,40,139.23723132838495,144.9437580590602,"[7, 0, 247]",247,a,5.183196892088745,colour,0.5
13,18,1,2,1,41,41,146.95654228760395,148.01576721522724,"[28, 0, 226]",226,a,0.5359057228197344,colour,0.5
13,18,1,2,1,42,42,150.03497782256454,151.51980610191822,"[94, 0, 160]",160,l,0.9615567299188115,colour,0.5
13,18,1,2,1,43,43,153.53516017307993,154.79176319169346,"[69, 0, 185]",185,l,0.7332397031132132,colour,0.5
13,18,1,2,1,44,44,156.80111623724224,157.91175455856137,"[92, 0, 162]",162,l,0.5881883337860927,colour,0.5
13,18,1,2,1,45,45,159.92632487695664,160.92777462262893,"[66, 0, 188]",188,l,0.4781813469599001,colour,0.5
13,18,1,2,1,46,46,162.94011538103223,165.0717728487798,"[64, 0, 190]",190,l,1.6084505089675076,colour,0.5
13,18,1,2,1,47,47,167.0810550021124,168.17576384387212,"[21, 0, 233]",233,a,0.5714404430473223,colour,0.5
13,18,1,2,1,48,48,170.18229577335296,171.0557323047542,"[70, 0, 184]",184,l,0.3503307909704745,colour,0.5
13,18,1,2,1,49,49,173.07277518586488,173.99973927420797,"[45, 0, 209]",209,a,0.4036153451888822,colour,0.5
13,18,1,2,1,50,50,176.01052237319527,177.27977965126047,"[27, 0, 227]",227,a,0.7459632793907076,colour,0.5
13,18,1,2,2,1,51,185.6510764194536,187.51169839617796,"[32, 0, 222]",222,a,1.3365469822310843,colour,0.5
13,18,1,2,2,2,52,189.52722891018493,190.4877738507348,"[68, 0, 186]",186,l,0.43727378494804725,colour,0.5
13,18,1,2,2,3,53,192.49623404827435,193.73571502277628,"[62, 0, 192]",192,a,0.7162165142362937,colour,0.5
13,18,1,2,2,4,54,195.74639178346843,196.74367464258103,"[91, 0, 163]",163,l,0.47259149624733254,colour,0.5
13,18,1,2,2,5,55,198.76435862638755,200.00770165096037,"[40, 0, 214]",214,a,0.7207697634003125,colour,0.5
13,18,1,2,2,6,56,202.02957347308984,207.14367881731596,"[12, 0, 242]",242,a,4.590921622351743,colour,0.5
13,18,1,2,2,7,57,209.15503023553174,209.9436812591739,"[86, 0, 168]",168,l,0.2653306373395026,colour,0.5
13,18,1,2,2,8,58,211.95214460749412,213.41565323626855,"[60, 0, 194]",194,a,0.9401626424514689,colour,0.5
13,18,1,2,2,9,59,215.43680550251156,216.47967087110737,"[35, 0, 219]",219,a,0.519432736269664,colour,0.5
13,18,1,2,2,10,60,218.49951950839022,219.6076939315535,"[72, 0, 182]",182,l,0.5849875505082309,colour,0.5
13,18,1,2,2,11,61,221.6248014033772,222.77564702928066,"[92, 0, 162]",162,l,0.6276252763927914,colour,0.5
13,18,1,2,2,12,62,224.79686782462522,225.8476695761201,"[98, 0, 156]",156,l,0.5280315674608573,colour,0.5
13,18,1,2,2,13,63,227.85956568282563,228.911697057134,"[23, 0, 231]",231,a,0.528794840327464,colour,0.5
13,18,1,2,2,14,64,230.92228283942677,234.46365592704387,"[47, 0, 207]",207,a,3.0178699569078162,colour,0.5
13,18,1,2,2,15,65,236.4822426829487,239.24762530787848,"[80, 0, 174]",174,a,2.242781400680542,colour,0.5
13,18,1,2,2,16,66,241.2639364238712,243.30368450446986,"[33, 0, 221]",221,a,1.516503312624991,colour,0.5
13,18,1,2,2,17,67,245.31110967579298,249.51961626834236,"[41, 0, 213]",213,a,3.685296483046841,colour,0.5
13,18,1,2,2,18,68,251.53023867832962,252.75160866242368,"[34, 0, 220]",220,a,0.6979160841437988,colour,0.5
13,18,1,2,2,19,69,254.76491946249735,255.6716178311617,"[30, 0, 224]",224,a,0.3834153976640664,colour,0.5
13,18,1,2,2,20,70,257.6870695760008,258.83957526116865,"[83, 0, 171]",171,l,0.6291274035465904,colour,0.5
13,18,1,2,2,21,71,260.8591690802714,261.85565046360716,"[16, 0, 238]",238,a,0.4731566646951251,colour,0.5
13,18,1,2,2,22,72,263.8750292430632,265.4076447796542,"[81, 0, 173]",173,l,1.009375100955367,colour,0.5
13,18,1,2,2,23,73,267.4198106705444,268.2316272991593,"[88, 0, 166]",166,l,0.28704649658175185,colour,0.5
13,18,1,2,2,24,74,270.2500868429779,271.61562007450266,"[19, 0, 235]",235,a,0.8421911837067455,colour,0.5
13,18,1,2,2,25,75,273.62529725499917,274.8956041316269,"[13, 0, 241]",241,a,0.7495260068099014,colour,0.5
13,18,1,2,2,26,76,276.9042565258569,278.1436146204942,"[31, 0, 223]",223,a,0.7159412161563523,colour,0.5
13,18,1,2,2,27,77,280.15451744856546,281.6155649360735,"[79, 0, 175]",175,l,0.937820048769936,colour,0.5
13,18,1,2,2,28,78,283.6235363712767,285.05557397881057,"[67, 0, 187]",187,l,0.9087503042537719,colour,0.5
13,18,1,2,2,29,79,287.07690386939794,288.5515918058227,"[58, 0, 196]",196,a,0.9512777533382177,colour,0.5
13,18,1,2,2,30,80,290.5615919397096,291.68762214138405,"[56, 0, 198]",198,a,0.6027551075676456,colour,0.5
13,18,1,2,2,31,81,293.70438460441073,294.7915497273789,"[51, 0, 203]",203,a,0.5638971180887893,colour,0.5
13,18,1,2,2,32,82,296.7983171764645,297.95953551423736,"[27, 0, 227]",227,a,0.6389345530769788,colour,0.5
13,18,1,2,2,33,83,299.9704221946304,300.76756098505575,"[42, 0, 212]",212,a,0.27381761639844626,colour,0.5
13,18,1,2,2,34,84,302.78317538811825,304.3275200408534,"[87, 0, 167]",167,l,1.021225915348623,colour,0.5
13,18,1,2,2,35,85,306.33863751473837,307.93557473499095,"[63, 0, 191]",191,a,1.0736400707974099,colour,0.5
13,18,1,2,2,36,86,309.9482435667305,311.3435594033799,"[78, 0, 176]",176,l,0.8720218379748985,colour,0.5
13,18,1,2,2,37,87,313.3548017262947,314.43152560823364,"[14, 0, 240]",240,a,0.5533381172572263,colour,0.5
13,18,1,2,2,38,88,316.44968464784324,317.65552333026426,"[39, 0, 215]",215,a,0.6828711818088777,colour,0.5
13,18,1,2,2,39,89,319.6686415398726,320.49556332919747,"[49, 0, 205]",205,a,0.3035513846552931,colour,0.5
13,18,1,2,2,40,90,322.5126144810929,323.5915009692544,"[66, 0, 188]",188,l,0.555508206540253,colour,0.5
13,18,1,2,2,41,91,325.60660494846525,326.9835155919427,"[43, 0, 211]",211,a,0.8536394878756255,colour,0.5
13,18,1,2,2,42,92,328.99758021259913,330.3195139472373,"[6, 0, 248]",248,a,0.7986743944347836,colour,0.5
13,18,1,2,2,43,93,332.3260324859875,333.5195351361763,"[3, 0, 251]",251,a,0.6702511868788861,colour,0.5
13,18,1,2,2,44,94,335.52935095032444,336.9755555783049,"[50, 0, 204]",204,a,0.9202923437114805,colour,0.5
13,18,1,2,2,45,95,338.98543322621845,340.29552599263843,"[54, 0, 200]",200,a,0.786797586188186,colour,0.5
13,18,1,2,2,46,96,342.31375434907386,343.5115117133828,"[93, 0, 161]",161,l,0.6743743565748446,colour,0.5
13,18,1,2,2,47,97,345.5327919794363,347.3595333874691,"[10, 0, 244]",244,a,1.3036065230262466,colour,0.5
13,18,1,2,2,48,98,349.3768511728267,350.72753957560053,"[15, 0, 239]",239,a,0.827330207277555,colour,0.5
13,18,1,2,2,49,99,352.7375913032447,354.0635024847579,"[25, 0, 229]",229,a,0.8026289981789887,colour,0.5
13,18,1,2,2,50,100,356.06913762778277,357.46346333652036,"[55, 0, 199]",199,a,0.8709568794001825,colour,0.5
13,18,1,2,3,1,101,365.7314638532698,366.93552038428606,"[20, 0, 234]",234,a,0.6800130441552028,colour,0.5
13,18,1,2,3,2,102,368.95122458419064,370.0154517448391,"[59, 0, 195]",195,a,0.5408244606223889,colour,0.5
13,18,1,2,3,3,103,372.0296664206544,372.99947657919256,"[60, 0, 194]",194,a,0.447614201460965,colour,0.5
13,18,1,2,3,4,104,375.01424736500485,376.1194580999436,"[29, 0, 225]",225,a,0.5818990132538602,colour,0.5
13,18,1,2,3,5,105,378.1394835739047,379.3114574414212,"[92, 0, 162]",162,l,0.6486656904453412,colour,0.5
13,18,1,2,3,6,106,381.3272274135379,382.65545086265774,"[64, 0, 190]",190,a,0.8053579544648528,colour,0.5
13,18,1,2,3,7,107,384.6712964531034,385.7754402603023,"[36, 0, 218]",218,a,0.5808190885582007,colour,0.5
13,18,1,2,3,8,108,387.7970289075165,388.919447938737,"[58, 0, 196]",196,a,0.5999347791657783,colour,0.5
13,18,1,2,3,9,109,390.93789133487735,392.00740666058846,"[14, 0, 240]",240,a,0.5462303855456412,colour,0.5
13,18,1,2,3,10,110,394.016207534587,395.2794184948434,"[70, 0, 184]",184,l,0.740159570472315,colour,0.5
13,18,1,2,3,11,111,397.29772050038446,398.43143344839336,"[23, 0, 231]",231,a,0.610360266349744,colour,0.5
13,18,1,2,3,12,112,400.43866012146464,401.6874744492816,"[72, 0, 182]",182,l,0.7262548512080684,colour,0.5
13,18,1,2,3,13,113,403.7044543151278,404.57542970526265,"[13, 0, 241]",241,a,0.3475463024806231,colour,0.5
13,18,1,2,3,14,114,406.5953894069535,407.6794163680752,"[50, 0, 204]",204,a,0.5606750671286136,colour,0.5
13,18,1,2,3,15,115,409.67697058682097,410.7514066196163,"[99, 0, 155]",155,l,0.5512180463410914,colour,0.5
13,18,1,2,3,16,116,412.7708204513183,414.4233879702515,"[96, 0, 158]",158,l,1.1290549359400757,colour,0.5
13,18,1,2,3,17,117,416.4453582537826,417.4074254076113,"[39, 0, 215]",215,a,0.4393402928253636,colour,0.5
13,18,1,2,3,18,118,419.4137678973493,420.52746049140114,"[65, 0, 189]",189,a,0.5904186815023422,colour,0.5
13,18,1,2,3,19,119,422.5388859525556,423.52738959918497,"[11, 0, 243]",243,a,0.46495994983706623,colour,0.5
13,18,1,2,3,20,120,425.53223271865863,426.4474019186455,"[4, 0, 250]",250,a,0.3919547581463121,colour,0.5
13,18,1,2,3,21,121,428.4544119766797,429.3274196102284,"[25, 0, 229]",229,a,0.34969709336292,colour,0.5
13,18,1,2,3,22,122,431.34666999598267,432.26339055388235,"[79, 0, 175]",175,l,0.3933859931421466,colour,0.5
13,18,1,2,3,23,123,434.2845113124349,435.503546973574,"[87, 0, 167]",167,l,0.6957066102186218,colour,0.5
13,18,1,2,3,24,124,437.5191007244284,438.4153547012829,"[76, 0, 178]",178,l,0.37290799053153023,colour,0.5
13,18,1,2,3,25,125,440.4255635733716,441.4313846115256,"[91, 0, 163]",163,l,0.48258060246007517,colour,0.5
13,18,1,2,3,26,126,443.44141743460204,444.4793404346565,"[52, 0, 202]",202,a,0.5145978875807486,colour,0.5
13,18,1,2,3,27,127,446.4885323973722,447.495335292595,"[68, 0, 186]",186,a,0.4842784709180705,colour,0.5
13,18,1,2,3,28,128,449.5044217046816,450.39136438362766,"[49, 0, 205]",205,a,0.3636510433279909,colour,0.5
13,18,1,2,3,29,129,452.4109081843635,453.5433982417453,"[81, 0, 173]",173,l,0.6217148352880031,colour,0.5
13,18,1,2,3,30,130,455.55500841647154,456.4874012727523,"[46, 0, 208]",208,a,0.42121118551585823,colour,0.5
13,18,1,2,3,31,131,458.4961812729598,459.84735843812814,"[94, 0, 160]",160,l,0.8259261476341635,colour,0.5
13,18,1,2,3,32,132,461.8584058075212,463.5994019060745,"[10, 0, 244]",244,a,1.2176390846143477,colour,0.5
13,18,1,2,3,33,133,465.59626492578536,466.8873550352873,"[34, 0, 220]",220,a,0.7678288000170141,colour,0.5
13,18,1,2,3,34,134,468.9089799162466,471.07932838296983,"[74, 0, 180]",180,l,1.6469965727301314,colour,0.5
13,18,1,2,3,35,135,473.096879718767,474.1433456239756,"[32, 0, 222]",222,a,0.5231530019664206,colour,0.5
13,18,1,2,3,36,136,476.1595897861989,477.1433440485853,"[85, 0, 169]",169,l,0.4604437222587876,colour,0.5
13,18,1,2,3,37,137,479.1598067951272,485.07928427227307,"[19, 0, 235]",235,l,5.396131884714123,colour,0.5
13,18,1,2,3,38,138,487.09796594496584,487.7033747842652,"[15, 0, 239]",239,a,0.08206994226202369,colour,0.5
13,18,1,2,3,39,139,489.7240288358298,490.31926858145744,"[12, 0, 242]",242,a,0.07188863935880363,colour,0.5
13,18,1,2,3,40,140,492.33358447556384,493.40726668783464,"[47, 0, 207]",207,a,0.5504098751116544,colour,0.5
13,18,1,2,3,41,141,495.42760329978773,496.31930560292676,"[30, 0, 224]",224,a,0.36840082140406594,colour,0.5
13,18,1,2,3,42,142,498.33420438854955,499.1273680952145,"[41, 0, 213]",213,a,0.26993863098323345,colour,0.5
13,18,1,2,3,43,143,501.1385363751906,502.1673186124535,"[51, 0, 203]",203,a,0.5054197094868869,colour,0.5
13,18,1,2,3,44,144,504.1856351902825,505.03128473227844,"[56, 0, 198]",198,a,0.32246070011751726,colour,0.5
13,18,1,2,3,45,145,507.0452264730702,508.0552663853741,"[35, 0, 219]",219,a,0.48678372282302007,colour,0.5
13,18,1,2,3,46,146,510.0766730758478,510.9192844927893,"[0, 0, 254]",254,a,0.3193418366718106,colour,0.5
13,18,1,2,3,47,147,512.9367822656059,514.0152445820859,"[95, 0, 159]",159,l,0.5551045148167759,colour,0.5
13,18,1,2,3,48,148,516.0198021634715,516.8952398244292,"[57, 0, 197]",197,a,0.352062136225868,colour,0.5
13,18,1,2,3,49,149,518.9107427691924,520.3432671698974,"[24, 0, 230]",230,a,0.9092150420765392,colour,0.5
13,18,1,2,3,50,150,522.3639984151814,523.1993055714411,"[21, 0, 233]",233,a,0.3119402961456217,colour,0.5
13,18,1,2,4,1,151,531.3001670693047,532.3112589432858,"[46, 0, 208]",208,a,0.48693456570617855,colour,0.5
13,18,1,2,4,2,152,534.33247816324,535.2472562745679,"[3, 0, 251]",251,a,0.3916790662333369,colour,0.5
13,18,1,2,4,3,153,537.2545892859926,538.3752265596995,"[67, 0, 187]",187,l,0.5964555470272899,colour,0.5
13,18,1,2,4,4,154,540.3963303829078,541.8393192614894,"[66, 0, 188]",188,l,0.91972008603625,colour,0.5
13,18,1,2,4,5,155,543.8496746441233,544.8712790451245,"[17, 0, 237]",237,a,0.4984415529179387,colour,0.5
13,18,1,2,4,6,156,546.8812082868535,547.7432028155308,"[47, 0, 207]",207,a,0.338751336093992,colour,0.5
13,18,1,2,4,7,157,549.743970814452,550.6712109885993,"[50, 0, 204]",204,a,0.40381856949534267,colour,0.5
13,18,1,2,4,8,158,552.681695158768,553.7032156706555,"[75, 0, 179]",179,l,0.4982560516218655,colour,0.5
13,18,1,2,4,9,159,555.7131854784675,556.6872105727089,"[82, 0, 172]",172,l,0.45068580337101594,colour,0.5
13,18,1,2,4,10,160,558.697842828813,560.8551766673336,"[92, 0, 162]",162,l,1.6340819813194685,colour,0.5
13,18,1,2,4,11,161,562.8700171638047,563.9991760749836,"[58, 0, 196]",196,a,0.6057731464970857,colour,0.5
13,18,1,2,4,12,162,566.0109741141205,567.0391915767686,"[71, 0, 183]",183,l,0.5049218885833398,colour,0.5
13,18,1,2,4,13,163,569.0579717108631,569.9991552011925,"[77, 0, 177]",177,l,0.41783986712107435,colour,0.5
13,18,1,2,4,14,164,572.0113092767424,573.0151839298778,"[4, 0, 250]",250,a,0.48050542996497825,colour,0.5
13,18,1,2,4,15,165,575.0272978331777,575.9191635822062,"[76, 0, 178]",178,l,0.36859380576061085,colour,0.5
13,18,1,2,4,16,166,577.9338036112604,579.1592313866713,"[69, 0, 185]",185,a,0.7021526813623495,colour,0.5
13,18,1,2,4,17,167,581.1559719204088,582.2791605259408,"[26, 0, 228]",228,a,0.5970321369823068,colour,0.5
13,18,1,2,4,18,168,584.2996160793118,585.2792058181949,"[2, 0, 252]",252,a,0.4645152981393039,colour,0.5
13,18,1,2,4,19,169,587.2916533087264,588.383149945701,"[87, 0, 167]",167,l,0.5681691614445299,colour,0.5
13,18,1,2,4,20,170,590.4013243452646,591.5831534115132,"[94, 0, 160]",160,l,0.6585330983507447,colour,0.5
13,18,1,2,4,21,171,593.6046825880185,594.6311572838458,"[85, 0, 169]",169,l,0.5031042910995893,colour,0.5
13,18,1,2,4,22,172,596.6518259076402,597.6791339807678,"[89, 0, 165]",165,l,0.5040121052297764,colour,0.5
13,18,1,2,4,23,173,599.6947349930997,600.7031561999465,"[53, 0, 201]",201,a,0.48504213750129566,colour,0.5
13,18,1,2,4,24,174,602.71058294666,603.5751477117883,"[48, 0, 206]",206,a,0.34125934494659305,colour,0.5
13,18,1,2,4,25,175,605.5876416761312,606.8471170107368,"[72, 0, 182]",182,l,0.7344062738120556,colour,0.5
13,18,1,2,4,26,176,608.8553164825425,609.8471335522481,"[44, 0, 210]",210,a,0.46843839425127953,colour,0.5
13,18,1,2,4,27,177,611.8555437314208,612.8631181702367,"[8, 0, 246]",246,a,0.4841323542059399,colour,0.5
13,18,1,2,4,28,178,614.8610859268811,615.7351136205252,"[41, 0, 213]",213,a,0.3506179043906741,colour,0.5
13,18,1,2,4,29,179,617.7520745817455,618.5751437733416,"[36, 0, 218]",218,a,0.2998232420650311,colour,0.5
13,18,1,2,4,30,180,620.5960333445692,621.9191281361273,"[61, 0, 193]",193,a,0.7998842881643213,colour,0.5
13,18,1,2,4,31,181,623.93690790236,624.9751266804524,"[45, 0, 209]",209,a,0.514887364115566,colour,0.5
13,18,1,2,4,32,182,626.9840071112849,627.9671678483719,"[33, 0, 221]",221,a,0.4598017539246939,colour,0.5
13,18,1,2,4,33,183,629.9841997018084,631.0870883230236,"[27, 0, 227]",227,a,0.5795977733214386,colour,0.5
13,18,1,2,4,34,184,633.0938601044472,634.0551663485821,"[12, 0, 242]",242,a,0.43830250966129825,colour,0.5
13,18,1,2,4,35,185,636.0519458730123,637.0311996616074,"[59, 0, 195]",195,a,0.4561515927198343,colour,0.5
13,18,1,2,4,36,186,639.0534464247758,640.0630901284167,"[63, 0, 191]",191,a,0.48631780344294384,colour,0.5
13,18,1,2,4,37,187,642.0692238799529,643.0630680730683,"[83, 0, 171]",171,l,0.470484028395731,colour,0.5
13,18,1,2,4,38,188,645.0694712150143,646.0950987489196,"[35, 0, 219]",219,a,0.5023288091178983,colour,0.5
13,18,1,2,4,39,189,648.1168587189168,649.0950963858631,"[20, 0, 234]",234,a,0.454907828301657,colour,0.5
13,18,1,2,4,40,190,651.1014510847745,652.1190918235225,"[64, 0, 190]",190,l,0.4942644263501279,colour,0.5
13,18,1,2,4,41,191,654.13294219214,655.2470955855679,"[74, 0, 180]",180,l,0.5909944837912917,colour,0.5
13,18,1,2,4,42,192,657.2582000625553,658.2390934304567,"[16, 0, 238]",238,a,0.4575796769349836,colour,0.5
13,18,1,2,4,43,193,660.258439126832,661.2310605553212,"[5, 0, 249]",249,a,0.44961730018258095,colour,0.5
13,18,1,2,4,44,194,663.2339990374749,664.319081504771,"[55, 0, 199]",199,a,0.561858179338742,colour,0.5
13,18,1,2,4,45,195,666.3279406679794,667.519113327493,"[37, 0, 217]",217,a,0.6678380947560072,colour,0.5
13,18,1,2,4,46,196,669.5312461354188,671.1510760256206,"[39, 0, 215]",215,a,1.0958450863836333,colour,0.5
13,18,1,2,4,47,197,673.1614412543713,674.2150751496665,"[42, 0, 212]",212,a,0.5302973613142967,colour,0.5
13,18,1,2,4,48,198,676.2241796786548,677.4870369655546,"[65, 0, 189]",189,l,0.7394829437253065,colour,0.5
13,18,1,2,4,49,199,679.5063074374921,680.8070747274905,"[30, 0, 224]",224,a,0.7774406021926552,colour,0.5
13,18,1,2,4,50,200,682.8217580795754,683.6710747180623,"[23, 0, 231]",231,a,0.3259163015172817,colour,0.5
13,18,1,2,5,1,201,691.9466705473606,692.9829740542336,"[13, 0, 241]",241,a,0.5121458047651686,colour,0.4
13,18,1,2,5,2,202,694.99456374906,695.9590924379299,"[91, 0, 163]",163,l,0.44111062883166596,colour,0.4
13,18,1,2,5,3,203,697.979252607096,698.871069913148,"[61, 0, 193]",193,l,0.3685721442452632,colour,0.4
13,18,1,2,5,4,204,700.8860293509788,701.7990430339705,"[99, 0, 155]",155,l,0.3897929396480322,colour,0.4
13,18,1,2,5,5,205,703.8080093231401,704.6310347978724,"[92, 0, 162]",162,l,0.2997086330433376,colour,0.4
13,18,1,2,5,6,206,706.6520161351073,707.4789910935797,"[20, 0, 234]",234,a,0.3036998644238338,colour,0.4
13,18,1,2,5,7,207,709.4959185779444,710.3430166841135,"[88, 0, 166]",166,l,0.3236816215212457,colour,0.4
13,18,1,2,5,8,208,712.3555212822394,714.1589848393342,"[66, 0, 188]",188,l,1.280176253814716,colour,0.4
13,18,1,2,5,9,209,716.1708096599323,717.1670078682364,"[10, 0, 244]",244,a,0.4727848744369112,colour,0.4
13,18,1,2,5,10,210,719.1866631273297,720.0789739219472,"[1, 0, 253]",253,a,0.3689470852841623,colour,0.4
13,18,1,2,5,11,211,722.0930830470752,723.1589994116221,"[19, 0, 235]",235,a,0.5424719168804586,colour,0.4
13,18,1,2,5,12,212,725.1714413883165,726.134955530928,"[96, 0, 158]",158,l,0.44014610099839047,colour,0.4
13,18,1,2,5,13,213,728.1560770771466,729.543000851525,"[79, 0, 175]",175,l,0.8655529238167219,colour,0.4
13,18,1,2,5,14,214,731.5605324950302,732.9509291999857,"[93, 0, 161]",161,l,0.8670853771036491,colour,0.4
13,18,1,2,5,15,215,734.9670831715339,736.1589446670841,"[73, 0, 181]",181,l,0.6685572569258511,colour,0.4
13,18,1,2,5,16,216,738.1708214753307,739.2469341088436,"[69, 0, 185]",185,l,0.5527378965052776,colour,0.4
13,18,1,2,5,17,217,741.2648233642103,742.1909674659837,"[62, 0, 192]",192,a,0.40288003539899364,colour,0.4
13,18,1,2,5,18,218,744.2025571608101,745.2549531993573,"[52, 0, 202]",202,a,0.5290646245703101,colour,0.4
13,18,1,2,5,19,219,747.265242809779,748.2229725418729,"[68, 0, 186]",186,a,0.4455035828286782,colour,0.4
13,18,1,2,5,20,220,750.2385680403677,752.2869830874843,"[42, 0, 212]",212,a,1.525039522384759,colour,0.4
13,18,1,2,5,21,221,754.3014640029287,755.2229638772551,"[45, 0, 209]",209,a,0.398162946512457,colour,0.4
13,18,1,2,5,22,222,757.2391741687898,758.1509472380858,"[14, 0, 240]",240,a,0.38877524255076423,colour,0.4
13,18,1,2,5,23,223,760.1613116791705,761.1589852331672,"[17, 0, 237]",237,a,0.474261007795576,colour,0.4
13,18,1,2,5,24,224,763.1771938973106,764.062895962561,"[56, 0, 198]",198,a,0.3624675372848287,colour,0.4
13,18,1,2,5,25,225,766.0836161801126,767.1749143188936,"[86, 0, 168]",168,l,0.5679174940451048,colour,0.4
13,18,1,2,5,26,226,769.1911785672419,770.350915257819,"[40, 0, 214]",214,a,0.6363438366679475,colour,0.4
13,18,1,2,5,27,227,772.3632812222932,773.3028881486389,"[41, 0, 213]",213,a,0.41655632422771305,colour,0.4
13,18,1,2,5,28,228,775.3166199697298,776.214931396069,"[89, 0, 165]",165,l,0.3750457845744677,colour,0.4
13,18,1,2,5,29,229,778.223163557006,779.2389142306638,"[74, 0, 180]",180,a,0.49247006577206776,colour,0.4
13,18,1,2,5,30,230,781.2550843499484,782.2868739922415,"[98, 0, 156]",156,l,0.5085964681347832,colour,0.4
13,18,1,2,5,31,231,784.3020937620313,785.2468537643435,"[75, 0, 179]",179,l,0.4214112590998411,colour,0.4
13,18,1,2,5,32,232,787.2553600418614,788.3749343262753,"[94, 0, 160]",160,l,0.5961113260127604,colour,0.4
13,18,1,2,5,33,233,790.3962598845246,791.5269055629033,"[59, 0, 195]",195,a,0.6073111136211082,colour,0.4
13,18,1,2,5,34,234,793.5374818929704,794.5748850167729,"[36, 0, 218]",218,a,0.5140610759845003,colour,0.4
13,18,1,2,5,35,235,796.5854849775787,798.046868415433,"[90, 0, 164]",164,l,0.9380862884572707,colour,0.4
13,18,1,2,5,36,236,800.0545657339972,801.126864366699,"[97, 0, 157]",157,l,0.5490507139475085,colour,0.4
13,18,1,2,5,37,237,803.1484541953541,804.1268230128917,"[39, 0, 215]",215,a,0.4551323202904314,colour,0.4
13,18,1,2,5,38,238,806.1330335643142,806.8948597633862,"[16, 0, 238]",238,a,0.23856607114430517,colour,0.4
13,18,1,2,5,39,239,808.9146111207665,809.9428656049422,"[58, 0, 196]",196,a,0.5050282269367017,colour,0.4
13,18,1,2,5,40,240,811.961672914389,812.9509083261364,"[4, 0, 250]",250,a,0.4658862747019157,colour,0.4
13,18,1,2,5,41,241,814.9618812586996,815.6948523591273,"[9, 0, 245]",245,a,0.21001462743151933,colour,0.4
13,18,1,2,5,42,242,817.712055929238,818.5988379191258,"[0, 0, 254]",254,a,0.36343009589472786,colour,0.4
13,18,1,2,5,43,243,820.6186215718626,821.5908633332001,"[28, 0, 226]",226,a,0.4489946303074248,colour,0.4
13,18,1,2,5,44,244,823.6031950331526,824.3988659609458,"[31, 0, 223]",223,a,0.2726577410358004,colour,0.4
13,18,1,2,5,45,245,826.4163842137204,827.7108736046939,"[51, 0, 203]",203,a,0.7713741982006468,colour,0.4
13,18,1,2,5,46,246,829.7181046101032,830.5029333621496,"[64, 0, 190]",190,a,0.261541448708158,colour,0.4
13,18,1,2,5,47,247,832.5152189821238,833.3028219825937,"[6, 0, 248]",248,a,0.27658556337701157,colour,0.4
13,18,1,2,5,48,248,835.3156172388117,836.1028575074743,"[60, 0, 194]",194,a,0.2641254697809927,colour,0.4
13,18,1,2,5,49,249,838.115737440472,839.094800607767,"[80, 0, 174]",174,l,0.45609684818191454,colour,0.4
13,18,1,2,5,50,250,841.1158993110294,841.9107782153296,"[76, 0, 178]",178,l,0.27176843769848347,colour,0.4
13,18,1,2,6,1,251,850.0844987881719,850.7348158732639,"[88, 0, 166]",166,l,0.12606879853410646,colour,0.28
13,18,1,2,6,2,252,852.7418633466004,853.5587668851367,"[12, 0, 242]",242,a,0.29331848793663085,colour,0.28
13,18,1,2,6,3,253,855.5701994355768,856.5427944763796,"[92, 0, 162]",162,l,0.44935460516717285,colour,0.28
13,18,1,2,6,4,254,858.5565999466344,859.446797365672,"[66, 0, 188]",188,a,0.3668376482091844,colour,0.28
13,18,1,2,6,5,255,861.4630706724711,862.4387566136429,"[79, 0, 175]",175,l,0.4522962380433455,colour,0.28
13,18,1,2,6,6,256,864.4477729212376,865.2788190618157,"[61, 0, 193]",193,a,0.3078049172181636,colour,0.28
13,18,1,2,6,7,257,867.2916974194814,870.5187844664324,"[52, 0, 202]",202,a,2.7037958052242175,colour,0.28
13,18,1,2,6,8,258,872.5264754834934,873.6308020350989,"[46, 0, 208]",208,a,0.581071937456727,colour,0.28
13,18,1,2,6,9,259,875.6516872739885,877.1107612011838,"[10, 0, 244]",244,a,0.9357322732103057,colour,0.28
13,18,1,2,6,10,260,879.1209306886885,879.9907556558028,"[54, 0, 200]",200,a,0.3466967774438672,colour,0.28
13,18,1,2,6,11,261,882.0115648825304,882.7347300149268,"[6, 0, 248]",248,a,0.1997900015558116,colour,0.28
13,18,1,2,6,12,262,884.7461976175546,885.7588432124467,"[40, 0, 214]",214,a,0.48929488245630637,colour,0.28
13,18,1,2,6,13,263,887.7782302626292,888.8307483933168,"[64, 0, 190]",190,a,0.529192624380812,colour,0.28
13,18,1,2,6,14,264,890.8409643546329,891.7347311964259,"[59, 0, 195]",195,a,0.3706162029411644,colour,0.28
13,18,1,2,6,15,265,893.7474724958302,894.7987232313026,"[33, 0, 221]",221,a,0.5279681583633646,colour,0.28
13,18,1,2,6,16,266,896.8101353017264,897.8867961683427,"[82, 0, 172]",172,l,0.5532526526949368,colour,0.28
13,18,1,2,6,17,267,899.9049843525281,900.4307721816003,"[51, 0, 203]",203,a,0.003344536933582276,colour,0.28
13,18,1,2,6,18,268,902.4518720663618,903.4947327087866,"[36, 0, 218]",218,a,0.5195063853752799,colour,0.28
13,18,1,2,6,19,269,905.5146640536259,906.5427302795579,"[1, 0, 253]",253,a,0.5041019020136446,colour,0.28
13,18,1,2,6,20,270,908.562631298264,909.4067149101174,"[27, 0, 227]",227,a,0.3206608256441541,colour,0.28
13,18,1,2,6,21,271,911.4246297654463,912.7747459104867,"[2, 0, 252]",252,a,0.8267646449385211,colour,0.28
13,18,1,2,6,22,272,914.7843592880527,915.7587018218474,"[67, 0, 187]",187,l,0.4510327813331969,colour,0.28
13,18,1,2,6,23,273,917.7689713461441,918.934703548497,"[89, 0, 165]",165,l,0.6424492313526571,colour,0.28
13,18,1,2,6,24,274,920.9410251643858,924.9587281307322,"[91, 0, 163]",163,l,3.494385336933192,colour,0.28
13,18,1,2,6,25,275,926.9727754221531,928.3186978991725,"[70, 0, 184]",184,l,0.8226430506329052,colour,0.28
13,18,1,2,6,26,276,930.332418298698,931.7987133851857,"[71, 0, 183]",183,l,0.94315783836646,colour,0.28
13,18,1,2,6,27,277,933.8170929782791,934.8946845020982,"[69, 0, 185]",185,a,0.5542159990873188,colour,0.28
13,18,1,2,6,28,278,936.9054439703468,937.8466944143875,"[98, 0, 156]",156,l,0.4186039275373332,colour,0.28
13,18,1,2,6,29,279,939.8588217084762,940.9746509149554,"[83, 0, 171]",171,l,0.5925135463476181,colour,0.28
13,18,1,2,6,30,280,942.9841138434713,943.8946392098442,"[75, 0, 179]",179,a,0.38730422919616103,colour,0.28
13,18,1,2,6,31,281,945.9061816431931,946.8466782667674,"[47, 0, 207]",207,a,0.4297182507580146,colour,0.28
13,18,1,2,6,32,282,948.8626821831567,949.4226459651254,"[96, 0, 158]",158,l,0.036713106324896216,colour,0.28
13,18,1,2,6,33,283,951.4410027152044,952.4946653611842,"[73, 0, 181]",181,l,0.5303434412344359,colour,0.28
13,18,1,2,6,34,284,954.5052798942779,955.4786602632958,"[76, 0, 178]",178,l,0.4499532505287789,colour,0.28
13,18,1,2,6,35,285,957.4899876568816,958.4147064314457,"[84, 0, 170]",170,l,0.41386005718959495,colour,0.28
13,18,1,2,6,36,286,960.4309899781947,961.3826430664049,"[28, 0, 226]",226,a,0.42838390183169395,colour,0.28
13,18,1,2,6,37,287,963.399873811868,964.3586547179148,"[77, 0, 177]",177,l,0.43590320216026157,colour,0.28
13,18,1,2,6,38,288,966.3688431100454,967.326811906416,"[58, 0, 196]",196,a,0.43463974545011297,colour,0.28
13,18,1,2,6,39,289,969.3407725518337,970.1506762722856,"[57, 0, 197]",197,a,0.28660538949770853,colour,0.28
13,18,1,2,6,40,290,972.1691472376115,972.982620380877,"[56, 0, 198]",198,a,0.29015787690877914,colour,0.28
13,18,1,2,6,41,291,974.9977086062427,975.8546741203172,"[86, 0, 168]",168,l,0.33364040160086006,colour,0.28
13,18,1,2,6,42,292,977.8728914490785,978.6866359519772,"[29, 0, 225]",225,a,0.2904067873605527,colour,0.28
13,18,1,2,6,43,293,980.7012783440878,981.5506698132376,"[99, 0, 155]",155,l,0.32607423356967047,colour,0.28
13,18,1,2,6,44,294,983.5608613560908,984.3666978330002,"[80, 0, 174]",174,l,0.2825105767115019,colour,0.28
13,18,1,2,6,45,295,986.3736149434699,987.3906310430611,"[60, 0, 194]",194,a,0.49376030394341797,colour,0.28
13,18,1,2,6,46,296,989.4050461862935,990.5826516522211,"[14, 0, 240]",240,a,0.6542972888564691,colour,0.28
13,18,1,2,6,47,297,992.5812152972794,993.3986213828321,"[95, 0, 159]",159,l,0.2942897112807259,colour,0.28
13,18,1,2,6,48,298,995.4095395708573,996.3346305295127,"[93, 0, 161]",161,l,0.40172252315096557,colour,0.28
13,18,1,2,6,49,299,998.3473564689048,999.2306060575065,"[50, 0, 204]",204,a,0.3599646484362893,colour,0.28
13,18,1,2,6,50,300,1001.2381308717304,1002.0945981711266,"[97, 0, 157]",157,l,0.3330846854369156,colour,0.28
13,18,1,2,7,1,301,1010.3630106503842,1011.4386423984542,"[96, 0, 158]",158,l,0.5514677444589324,colour,0.14
13,18,1,2,7,2,302,1013.4578155904892,1014.3745475698379,"[40, 0, 214]",214,a,0.3939464354189113,colour,0.14
13,18,1,2,7,3,303,1016.3955950731761,1017.2385881264927,"[71, 0, 183]",183,l,0.3197041746461764,colour,0.14
13,18,1,2,7,4,304,1019.2551453959895,1020.0865968037397,"[56, 0, 198]",198,a,0.307980572397355,colour,0.14
13,18,1,2,7,5,305,1022.0991147925961,1023.0625615876052,"[62, 0, 192]",192,a,0.44026740541448817,colour,0.14
13,18,1,2,7,6,306,1025.083803650632,1025.9585497186636,"[97, 0, 157]",157,l,0.3514949985546991,colour,0.14
13,18,1,2,7,7,307,1027.974563481228,1028.886581522529,"[98, 0, 156]",156,l,0.38854129827814177,colour,0.14
13,18,1,2,7,8,308,1030.896862862166,1031.7985775084235,"[86, 0, 168]",168,l,0.3784029245143756,colour,0.14
13,18,1,2,7,9,309,1033.8189105757629,1034.5665161914076,"[72, 0, 182]",182,a,0.22425844782264903,colour,0.14
13,18,1,2,7,10,310,1036.5847437601187,1037.358529868885,"[77, 0, 177]",177,a,0.2504783255280927,colour,0.14
13,18,1,2,7,11,311,1039.3662933535525,1040.0225740488968,"[50, 0, 204]",204,a,0.1332167024957016,colour,0.14
13,18,1,2,7,12,312,1042.0260548564256,1042.7905895317672,"[54, 0, 200]",200,a,0.24128399969777092,colour,0.14
13,18,1,2,7,13,313,1044.8074154039496,1045.534523718583,"[65, 0, 189]",189,a,0.20375878375489265,colour,0.14
13,18,1,2,7,14,314,1047.5419878805988,1048.2305840021581,"[87, 0, 167]",167,l,0.16524855990428478,colour,0.14
13,18,1,2,7,15,315,1050.2453323387308,1050.9665392707684,"[81, 0, 173]",173,l,0.19780383812030777,colour,0.14
13,18,1,2,7,16,316,1052.979950107634,1053.710588066664,"[83, 0, 171]",171,l,0.20706039149081334,colour,0.14
13,18,1,2,7,17,317,1055.730297676404,1056.4785180850304,"[4, 0, 250]",250,a,0.22484173317207024,colour,0.14
13,18,1,2,7,18,318,1058.496252165176,1059.1985170925036,"[79, 0, 175]",175,l,0.17884214117657393,colour,0.14
13,18,1,2,7,19,319,1061.2151543126674,1061.9184944385197,"[70, 0, 184]",184,a,0.17998193035600707,colour,0.14
13,18,1,2,7,20,320,1063.9342069091508,1064.6784715324757,"[64, 0, 190]",190,a,0.22090130782453343,colour,0.14
13,18,1,2,7,21,321,1066.6874275816372,1067.4144909979077,"[61, 0, 193]",193,a,0.20362999627832323,colour,0.14
13,18,1,2,7,22,322,1069.4219886367791,1070.158493713825,"[90, 0, 164]",164,l,0.21306811243994161,colour,0.14
13,18,1,2,7,23,323,1072.1721991472295,1072.814551886404,"[51, 0, 203]",203,a,0.11889608227647841,colour,0.14
13,18,1,2,7,24,324,1074.830698768783,1075.4544903519563,"[57, 0, 197]",197,a,0.10043102462077513,colour,0.14
13,18,1,2,7,25,325,1077.4715403222945,1078.1025384925306,"[94, 0, 160]",160,l,0.10770062694791704,colour,0.14
13,18,1,2,7,26,326,1080.1123082267586,1080.9104966156883,"[66, 0, 188]",188,a,0.27474472898757085,colour,0.14
13,18,1,2,7,27,327,1082.9250362141174,1083.5744919588906,"[60, 0, 194]",194,a,0.12613102613249794,colour,0.14
13,18,1,2,7,28,328,1085.5814980784198,1086.318529727112,"[78, 0, 176]",176,l,0.21380184683948755,colour,0.14
13,18,1,2,7,29,329,1088.3316900781938,1089.174485027208,"[55, 0, 199]",199,a,0.3195891717914492,colour,0.14
13,18,1,2,7,30,330,1091.1913309855154,1091.87846633367,"[85, 0, 169]",169,l,0.16391224169638008,colour,0.14
13,18,1,2,7,31,331,1093.8946695359773,1094.6464325858396,"[52, 0, 202]",202,a,0.22850607271539047,colour,0.14
13,18,1,2,7,32,332,1096.6612459069584,1097.6944447288988,"[30, 0, 224]",224,a,0.5106401329976507,colour,0.14
13,18,1,2,7,33,333,1099.7076633691322,1100.6784845293732,"[68, 0, 186]",186,a,0.44764570909319445,colour,0.14
13,18,1,2,7,34,334,1102.692231316585,1103.3824615035555,"[74, 0, 180]",180,l,0.1669283114024438,colour,0.14
13,18,1,2,7,35,335,1105.3978069100995,1106.0065484709921,"[53, 0, 201]",201,a,0.0853463439270854,colour,0.14
13,18,1,2,7,36,336,1108.0107992466656,1108.8624462696025,"[39, 0, 215]",215,a,0.32838728884235024,colour,0.14
13,18,1,2,7,37,337,1110.8603860632284,1111.5904722445412,"[99, 0, 155]",155,l,0.20667993667302653,colour,0.14
13,18,1,2,7,38,338,1113.6105949983466,1114.3904427848756,"[91, 0, 163]",163,l,0.2566203477908857,colour,0.14
13,18,1,2,7,39,339,1116.4076554134372,1117.0944272421766,"[27, 0, 227]",227,a,0.16338251944398507,colour,0.14
13,18,1,2,7,40,340,1119.111017594696,1119.990415373235,"[58, 0, 196]",196,a,0.35606439533876255,colour,0.14
13,18,1,2,7,41,341,1122.0019050312112,1122.8224488847773,"[92, 0, 162]",162,l,0.29714903043350205,colour,0.14
13,18,1,2,7,42,342,1124.8302316679037,1125.5984239873942,"[23, 0, 231]",231,a,0.24487350857816637,colour,0.14
13,18,1,2,7,43,343,1127.6134913389687,1128.3824429928209,"[75, 0, 179]",179,l,0.24569782748585567,colour,0.14
13,18,1,2,7,44,344,1130.3949759478564,1131.1264023857657,"[95, 0, 159]",159,l,0.2081489807460457,colour,0.14
13,18,1,2,7,45,345,1133.1451647968497,1134.1505935647292,"[73, 0, 181]",181,l,0.4821698215091601,colour,0.14
13,18,1,2,7,46,346,1136.1499984640395,1137.0144761892734,"[76, 0, 178]",178,l,0.34137828630628064,colour,0.14
13,18,1,2,7,47,347,1139.0252541682567,1139.6544548270758,"[89, 0, 165]",165,l,0.1059767646365799,colour,0.14
13,18,1,2,7,48,348,1141.668001934595,1142.4383753711008,"[80, 0, 174]",174,l,0.2471148839686066,colour,0.14
13,18,1,2,7,49,349,1144.4494254974416,1145.5583836733713,"[19, 0, 235]",235,a,0.5858677954529412,colour,0.14
13,18,1,2,7,50,350,1147.5748680814286,1148.4624133441248,"[88, 0, 166]",166,l,0.36412168882088736,colour,0.14
13,18,1,2,8,1,351,1156.668498573883,1157.574354900571,"[84, 0, 170]",170,l,0.3816454554325901,colour,0.06
13,18,1,2,8,2,352,1159.5823227911605,1160.3183426504256,"[98, 0, 156]",156,l,0.21291293727699667,colour,0.06
13,18,1,2,8,3,353,1162.332482889411,1162.9824017965584,"[95, 0, 159]",159,l,0.1267958374810405,colour,0.06
13,18,1,2,8,4,354,1164.988882526115,1165.8143600836047,"[74, 0, 180]",180,a,0.30206028517568484,colour,0.06
13,18,1,2,8,5,355,1167.8328905195813,1168.5743883774849,"[76, 0, 178]",178,l,0.2183503697742708,colour,0.06
13,18,1,2,8,6,356,1170.583121116215,1171.334357200656,"[96, 0, 158]",158,l,0.22809450404020026,colour,0.06
13,18,1,2,8,7,357,1173.3489389405586,1174.1103346663876,"[62, 0, 192]",192,a,0.23825138848042116,colour,0.06
13,18,1,2,8,8,358,1176.1304050387116,1176.8783690538257,"[58, 0, 196]",196,a,0.22453925968147814,colour,0.06
13,18,1,2,8,9,359,1178.8962764260941,1179.4463436555234,"[55, 0, 199]",199,a,0.02706467657117173,colour,0.06
13,18,1,2,8,10,360,1181.4589435642702,1182.4383296850137,"[94, 0, 160]",160,l,0.45605667593190446,colour,0.06
13,18,1,2,8,11,361,1184.4591814470477,1185.9503691514838,"[73, 0, 181]",181,a,0.9677983951405622,colour,0.06
13,18,1,2,8,12,362,1187.9504640682717,1190.0703093184857,"[64, 0, 190]",190,a,1.596445700910408,colour,0.06
13,18,1,2,8,13,363,1192.0874778363504,1192.99035511486,"[70, 0, 184]",184,a,0.3795498029794544,colour,0.06
13,18,1,2,8,14,364,1195.009553906857,1195.8142899790546,"[83, 0, 171]",171,l,0.2813916613231413,colour,0.06
13,18,1,2,8,15,365,1197.8223453033715,1198.6143085685908,"[81, 0, 173]",173,l,0.2685834082076326,colour,0.06
13,18,1,2,8,16,366,1200.6349732539384,1201.9182872757083,"[20, 0, 234]",234,a,0.759992060076911,colour,0.06
13,18,1,2,8,17,367,1203.932178210409,1205.0143040787661,"[79, 0, 175]",175,l,0.5589571126038209,colour,0.06
13,18,1,2,8,18,368,1207.0261292931973,1207.7983321426436,"[88, 0, 166]",166,l,0.24889742926461622,colour,0.06
13,18,1,2,8,19,369,1209.8076001175214,1210.622336323664,"[67, 0, 187]",187,a,0.29215979418950155,colour,0.06
13,18,1,2,8,20,370,1212.637521041208,1213.4063096430036,"[91, 0, 163]",163,l,0.2454473416437395,colour,0.06
13,18,1,2,8,21,371,1215.418921760982,1216.2222848874517,"[68, 0, 186]",186,a,0.2800230478751473,colour,0.06
13,18,1,2,8,22,372,1218.2316729852464,1219.030315084383,"[15, 0, 239]",239,a,0.2754201741772704,colour,0.06
13,18,1,2,8,23,373,1221.0443966403254,1221.990334634902,"[61, 0, 193]",193,a,0.4210406503989361,colour,0.06
13,18,1,2,8,24,374,1223.9993273116997,1224.7023240042035,"[93, 0, 161]",161,l,0.17982321057934314,colour,0.06
13,18,1,2,8,25,375,1226.7183858159115,1227.7663077682955,"[82, 0, 172]",172,l,0.5247161751613021,colour,0.06
13,18,1,2,8,26,376,1229.780969065032,1230.9102610960254,"[52, 0, 202]",202,a,0.6059783400851302,colour,0.06
13,18,1,2,8,27,377,1232.9218145569903,1234.3502224833937,"[75, 0, 179]",179,l,0.9050197986070998,colour,0.06
13,18,1,2,8,28,378,1236.3478023021016,1237.1663328168797,"[69, 0, 185]",185,a,0.2953310390585102,colour,0.06
13,18,1,2,8,29,379,1239.1666482872097,1240.046228022431,"[59, 0, 195]",195,a,0.35620696743717417,colour,0.06
13,18,1,2,8,30,380,1242.0575369053404,1242.806286248553,"[63, 0, 191]",191,a,0.2379780596238561,colour,0.06
13,18,1,2,8,31,381,1244.8265066760941,1245.7822663924308,"[72, 0, 182]",182,l,0.43240939773386344,colour,0.06
13,18,1,2,8,32,382,1247.7953479744028,1248.6622364287032,"[53, 0, 201]",201,a,0.34428526082774624,colour,0.06
13,18,1,2,8,33,383,1250.6707608230645,1251.5342779589118,"[71, 0, 183]",183,l,0.3402266817865893,colour,0.06
13,18,1,2,8,34,384,1253.540992238908,1254.2942286651814,"[32, 0, 222]",222,a,0.2299254922545515,colour,0.06
13,18,1,2,8,35,385,1256.3068553555058,1257.0142544542323,"[54, 0, 200]",200,a,0.1841338507947512,colour,0.06
13,18,1,2,8,36,386,1259.0257602598867,1259.7982403765782,"[57, 0, 197]",197,a,0.24943857308244333,colour,0.06
13,18,1,2,8,37,387,1261.8073110348778,1262.5262194838724,"[80, 0, 174]",174,l,0.19562744727591053,colour,0.06
13,18,1,2,8,38,388,1264.541889025364,1265.2222285675234,"[86, 0, 168]",168,l,0.15704948198981583,colour,0.06
13,18,1,2,8,39,389,1267.229575757403,1269.2542427018634,"[66, 0, 188]",188,a,1.5013201704714447,colour,0.06
13,18,1,2,8,40,390,1271.2618395898608,1272.1822331518633,"[89, 0, 165]",165,l,0.39703536650631577,colour,0.06
13,18,1,2,8,41,391,1274.1994993434637,1278.030245767557,"[92, 0, 162]",162,a,3.307706849707756,colour,0.06
13,18,1,2,8,42,392,1280.0437314350856,1280.9661678743432,"[90, 0, 164]",164,l,0.3990439791814424,colour,0.06
13,18,1,2,8,43,393,1282.9821276800358,1284.1661902447813,"[87, 0, 167]",167,l,0.6611498086131178,colour,0.06
13,18,1,2,8,44,394,1286.1855107350857,1286.9822481967858,"[51, 0, 203]",203,a,0.2734288907959126,colour,0.06
13,18,1,2,8,45,395,1288.9982639285736,1289.9183199648978,"[56, 0, 198]",198,a,0.3968297791434452,colour,0.06
13,18,1,2,8,46,396,1291.9358799653128,1292.8062137810048,"[50, 0, 204]",204,a,0.34768651152262464,colour,0.06
13,18,1,2,8,47,397,1294.8268461709959,1295.654230335087,"[85, 0, 169]",169,l,0.3040661408449523,colour,0.06
13,18,1,2,8,48,398,1297.6709636535961,1298.4462692186935,"[78, 0, 176]",176,l,0.2521041201543994,colour,0.06
13,18,1,2,8,49,399,1300.4596544556553,1301.2702060521697,"[60, 0, 194]",194,a,0.2872453886666335,colour,0.06
13,18,1,2,8,50,400,1303.287918076967,1304.0461839117343,"[77, 0, 177]",177,l,0.2349060638807714,colour,0.06
13,18,1,2,9,1,401,1312.0798037546338,1313.0301335215336,"[53, 0, 201]",201,a,0.42688098695361987,colour,0.06
13,18,1,2,9,2,402,1315.049694651505,1315.854187327146,"[67, 0, 187]",187,a,0.28139481210382655,colour,0.06
13,18,1,2,9,3,403,1317.8624139743042,1318.8541892963694,"[63, 0, 191]",191,a,0.4684608434326947,colour,0.06
13,18,1,2,9,4,404,1320.8627022692817,1321.614139608806,"[79, 0, 175]",175,l,0.2281512178014964,colour,0.06
13,18,1,2,9,5,405,1323.628477558319,1324.4381745098508,"[66, 0, 188]",188,a,0.28641437442274764,colour,0.06
13,18,1,2,9,6,406,1326.4568258564686,1327.262166481698,"[73, 0, 181]",181,l,0.28207262040814385,colour,0.06
13,18,1,2,9,7,407,1329.269507370016,1330.038137252035,"[78, 0, 176]",176,l,0.24597863934468478,colour,0.06
13,18,1,2,9,8,408,1332.0510632650112,1332.814161979244,"[93, 0, 161]",161,l,0.2398665493237786,colour,0.06
13,18,1,2,9,9,409,1334.83251242782,1335.5821758867241,"[85, 0, 169]",169,l,0.22655535535886884,colour,0.06
13,18,1,2,9,10,410,1337.5983499444555,1338.3181217030506,"[0, 0, 254]",254,a,0.19653368601575494,colour,0.06
13,18,1,2,9,11,411,1340.3328605873394,1341.1661228971789,"[64, 0, 190]",190,a,0.3099966680747457,colour,0.06
13,18,1,2,9,12,412,1343.1779859208036,1343.798108438321,"[96, 0, 158]",158,l,0.09688050649128854,colour,0.06
13,18,1,2,9,13,413,1345.8187770621153,1346.7181692008162,"[70, 0, 184]",184,l,0.3760796292917803,colour,0.06
13,18,1,2,9,14,414,1348.725287566369,1349.4380807746202,"[57, 0, 197]",197,a,0.189479123451747,colour,0.06
13,18,1,2,9,15,415,1351.4598222338827,1352.2221033246024,"[80, 0, 174]",174,l,0.23904971353476867,colour,0.06
13,18,1,2,9,16,416,1354.241320233501,1355.0060849147267,"[88, 0, 166]",166,l,0.24141948262695223,colour,0.06
13,18,1,2,9,17,417,1357.0227922393824,1357.8780713065644,"[94, 0, 160]",160,a,0.3319771916139871,colour,0.06
13,18,1,2,9,18,418,1359.8979467253084,1360.806090113474,"[71, 0, 183]",183,l,0.38484269415494055,colour,0.06
13,18,1,2,9,19,419,1362.820122832607,1363.7340612650733,"[59, 0, 195]",195,a,0.39051997859496623,colour,0.06
13,18,1,2,9,20,420,1365.7355192815303,1366.3900950191892,"[76, 0, 178]",178,l,0.13120730221271515,colour,0.06
13,18,1,2,9,21,421,1368.4074714875314,1369.1580809636507,"[89, 0, 165]",165,l,0.2271114654140547,colour,0.06
13,18,1,2,9,22,422,1371.1698092920706,1372.0061089392984,"[99, 0, 155]",155,l,0.31290167331462726,colour,0.06
13,18,1,2,9,23,423,1374.0137251256965,1374.9820942031802,"[69, 0, 185]",185,l,0.4450171834905632,colour,0.06
13,18,1,2,9,24,424,1376.998356482305,1377.9821257108124,"[68, 0, 186]",186,l,0.4605134329176508,colour,0.06
13,18,1,2,9,25,425,1379.998666438798,1380.6460899401573,"[95, 0, 159]",159,l,0.12414446886396036,colour,0.06
13,18,1,2,9,26,426,1382.655061349331,1384.0461149887415,"[74, 0, 180]",180,l,0.8677407361683436,colour,0.06
13,18,1,2,9,27,427,1386.0616171458387,1386.870068757562,"[56, 0, 198]",198,a,0.2851414653705433,colour,0.06
13,18,1,2,9,28,428,1388.8898898256593,1389.6541326614097,"[55, 0, 199]",199,a,0.24089724331861362,colour,0.06
13,18,1,2,9,29,429,1391.6714272098616,1392.3580466203275,"[65, 0, 189]",189,a,0.16329863033024594,colour,0.06
13,18,1,2,9,30,430,1394.374723225017,1395.0300630232086,"[98, 0, 156]",156,l,0.13201350421877578,colour,0.06
13,18,1,2,9,31,431,1397.0469062245684,1397.7740547114518,"[62, 0, 192]",192,a,0.2039434973266907,colour,0.06
13,18,1,2,9,32,432,1399.7814440428047,1400.5900094759418,"[54, 0, 200]",200,a,0.28533129900461063,colour,0.06
13,18,1,2,9,33,433,1402.6097694979399,1403.2940341054928,"[51, 0, 203]",203,a,0.16098163655260578,colour,0.06
13,18,1,2,9,34,434,1405.3130765407695,1405.926105898805,"[52, 0, 202]",202,a,0.09026311250636354,colour,0.06
13,18,1,2,9,35,435,1407.9384379925905,1408.6699947933666,"[77, 0, 177]",177,l,0.20836717123165727,colour,0.06
13,18,1,2,9,36,436,1410.6792816728703,1411.4300876779016,"[91, 0, 163]",163,l,0.22755690477788448,colour,0.06
13,18,1,2,9,37,437,1413.4451077679987,1414.3499999606283,"[81, 0, 173]",173,l,0.3816643600584939,colour,0.06
13,18,1,2,9,38,438,1416.367102706281,1417.2940644315677,"[50, 0, 204]",204,a,0.4035527236992493,colour,0.06
13,18,1,2,9,39,439,1419.3050322441268,1420.1099869007012,"[72, 0, 182]",182,l,0.28176305774832144,colour,0.06
13,18,1,2,9,40,440,1422.117596391763,1422.774036200717,"[90, 0, 164]",164,l,0.1330989426933229,colour,0.06
13,18,1,2,9,41,441,1424.789741582179,1425.565987650596,"[84, 0, 170]",170,l,0.25300838972907513,colour,0.06
13,18,1,2,9,42,442,1427.5867358312244,1428.1740147755481,"[61, 0, 193]",193,a,0.06381480436539277,colour,0.06
13,18,1,2,9,43,443,1430.1808153077145,1430.893992121506,"[97, 0, 157]",157,l,0.18993086431873962,colour,0.06
13,18,1,2,9,44,444,1432.9153826643596,1433.6779827700811,"[18, 0, 236]",236,a,0.23943843919551,colour,0.06
13,18,1,2,9,45,445,1435.6974651308847,1436.3500125636929,"[82, 0, 172]",172,l,0.12919041886925697,colour,0.06
13,18,1,2,9,46,446,1438.3694697184255,1439.2219737494015,"[83, 0, 171]",171,l,0.32915962010156363,colour,0.06
13,18,1,2,9,47,447,1441.2198875492322,1442.4299419550225,"[92, 0, 162]",162,l,0.6867682840675116,colour,0.06
13,18,1,2,9,48,448,1444.438746767526,1445.1900509872357,"[87, 0, 167]",167,l,0.2278428366407752,colour,0.06
13,18,1,2,9,49,449,1447.2047374901013,1447.8380022417987,"[9, 0, 245]",245,a,0.1100010791560635,colour,0.06
13,18,1,2,9,50,450,1449.8454786129878,1450.6459513065056,"[60, 0, 194]",194,a,0.27707590110367164,colour,0.06
13,18,1,2,10,1,451,1458.5600791787147,1459.4459482345264,"[46, 0, 208]",208,a,0.3685343350516632,colour,0.06
13,18,1,2,10,2,452,1461.4604968914064,1462.2779565399396,"[70, 0, 184]",184,l,0.29416486219270155,colour,0.06
13,18,1,2,10,3,453,1464.2887037989567,1465.7659438549308,"[67, 0, 187]",187,a,0.9537711898447014,colour,0.06
13,18,1,2,10,4,454,1467.7738310071873,1468.5659510229598,"[72, 0, 182]",182,l,0.2687263741972856,colour,0.06
13,18,1,2,10,5,455,1470.5865621453268,1471.237933161261,"[83, 0, 171]",171,l,0.12801006354857236,colour,0.06
13,18,1,2,10,6,456,1473.258665588044,1474.1258990510833,"[87, 0, 167]",167,l,0.3439150459016673,colour,0.06
13,18,1,2,10,7,457,1476.1339067200315,1476.8859245880158,"[89, 0, 165]",165,l,0.22868251550244167,colour,0.06
13,18,1,2,10,8,458,1478.899698944413,1479.78194186365,"[95, 0, 159]",159,l,0.35889929602853954,colour,0.06
13,18,1,2,10,9,459,1481.7906005594414,1482.573957904242,"[79, 0, 175]",175,l,0.2600657092407346,colour,0.06
13,18,1,2,10,10,460,1484.5752729547094,1485.229931399983,"[77, 0, 177]",177,l,0.13131009589415044,colour,0.06
13,18,1,2,10,11,461,1487.2491601242218,1488.1179256467149,"[98, 0, 156]",156,l,0.34567120351130143,colour,0.06
13,18,1,2,10,12,462,1490.124404013157,1490.8859785448876,"[99, 0, 155]",155,l,0.23815450246911496,colour,0.06
13,18,1,2,10,13,463,1492.905775588355,1493.7899511079886,"[66, 0, 188]",188,a,0.3607775457203388,colour,0.06
13,18,1,2,10,14,464,1495.7967650309438,1496.7179214719217,"[57, 0, 197]",197,a,0.39848117379006,colour,0.06
13,18,1,2,10,15,465,1498.734511430608,1499.5818761702394,"[64, 0, 190]",190,a,0.32411839632550254,colour,0.06
13,18,1,2,10,16,466,1501.5848237107857,1502.3578977466677,"[76, 0, 178]",178,l,0.24980012333253399,colour,0.06
13,18,1,2,10,17,467,1504.3550955351675,1505.1659212482045,"[69, 0, 185]",185,a,0.2875037513440475,colour,0.06
13,18,1,2,10,18,468,1507.185207080096,1508.1339122338686,"[54, 0, 200]",200,a,0.42538634286029264,colour,0.06
13,18,1,2,10,19,469,1510.1541188767878,1510.9419168308377,"[92, 0, 162]",162,l,0.2643594140536152,colour,0.06
13,18,1,2,10,20,470,1512.9511844119406,1513.6459402788314,"[88, 0, 166]",166,l,0.1713586807018146,colour,0.06
13,18,1,2,10,21,471,1515.6545229624026,1516.3018692700425,"[56, 0, 198]",198,a,0.12397235835669562,colour,0.06
13,18,1,2,10,22,472,1518.3109875836526,1519.0219726466457,"[94, 0, 160]",160,l,0.1876091444864869,colour,0.06
13,18,1,2,10,23,473,1521.0198722680216,1521.717847822816,"[91, 0, 163]",163,l,0.1746240546926856,colour,0.06
13,18,1,2,10,24,474,1523.7387401509332,1524.445886006928,"[96, 0, 158]",158,l,0.1837337036849931,colour,0.06
13,18,1,2,10,25,475,1526.4577888089698,1527.197887727234,"[84, 0, 170]",170,l,0.21678128885105252,colour,0.06
13,18,1,2,10,26,476,1529.2080170424888,1530.4218547292985,"[85, 0, 169]",169,l,0.690472008252982,colour,0.06
13,18,1,2,10,27,477,1532.442629691388,1533.2378512413707,"[50, 0, 204]",204,a,0.2718854098347947,colour,0.06
13,18,1,2,10,28,478,1535.2560126440367,1536.0140283868532,"[60, 0, 194]",194,a,0.23460083355894312,colour,0.06
13,18,1,2,10,29,479,1538.0217556377174,1538.8138547796989,"[1, 0, 253]",253,a,0.2686708419932984,colour,0.06
13,18,1,2,10,30,480,1540.8345312803867,1541.6698329228093,"[53, 0, 201]",201,a,0.3119820437859744,colour,0.06
13,18,1,2,10,31,481,1543.6784801970352,1544.4458525300142,"[41, 0, 213]",213,a,0.24428155861096457,colour,0.06
13,18,1,2,10,32,482,1546.4599904059432,1547.1978518872638,"[81, 0, 173]",173,l,0.214581661100965,colour,0.06
13,18,1,2,10,33,483,1549.2070883545675,1550.0218060499756,"[55, 0, 199]",199,a,0.2913193276617676,colour,0.06
13,18,1,2,10,34,484,1552.037590200489,1552.8378510050825,"[97, 0, 157]",157,l,0.27545483264839277,colour,0.06
13,18,1,2,10,35,485,1554.8518108627177,1556.1178275791463,"[52, 0, 202]",202,a,0.7426612778217532,colour,0.06
13,18,1,2,10,36,486,1558.1332820808748,1558.8777995530982,"[78, 0, 176]",176,l,0.22129712265450507,colour,0.06
13,18,1,2,10,37,487,1560.8990987237194,1561.557836227992,"[93, 0, 161]",161,l,0.13561167771695182,colour,0.06
13,18,1,2,10,38,488,1563.5714077538578,1564.341792218096,"[63, 0, 191]",191,a,0.2472338253282942,colour,0.06
13,18,1,2,10,39,489,1566.3526875630487,1567.1098281809245,"[62, 0, 192]",192,a,0.23374776396667585,colour,0.06
13,18,1,2,10,40,490,1569.1185313812457,1570.1498247780837,"[71, 0, 183]",183,l,0.5079001490958035,colour,0.06
13,18,1,2,10,41,491,1572.15327250259,1573.4538030913682,"[86, 0, 168]",168,l,0.7772346208803356,colour,0.06
13,18,1,2,10,42,492,1575.4677826413536,1576.1818298539729,"[82, 0, 172]",172,l,0.19093556446023285,colour,0.06
13,18,1,2,10,43,493,1578.2023618133971,1578.9818216619897,"[61, 0, 193]",193,a,0.25604257627855986,colour,0.06
13,18,1,2,10,44,494,1580.9995297483401,1581.7577617123607,"[74, 0, 180]",180,l,0.23502776212990284,colour,0.06
13,18,1,2,10,45,495,1583.7604757024674,1584.525786647515,"[68, 0, 186]",186,a,0.2419980417471379,colour,0.06
13,18,1,2,10,46,496,1586.5295077008777,1587.2297711048159,"[90, 0, 164]",164,l,0.17695483297575265,colour,0.06
13,18,1,2,10,47,497,1589.2484307221603,1589.9577781751286,"[73, 0, 181]",181,l,0.18617357721086591,colour,0.06
13,18,1,2,10,48,498,1591.9673754049581,1592.8537702446338,"[75, 0, 179]",179,l,0.3630208903341554,colour,0.06
13,18,1,2,10,49,499,1594.873986339895,1595.6378345423145,"[80, 0, 174]",174,l,0.24059595144353807,colour,0.06
13,18,1,2,10,50,500,1597.6565406334703,1598.4538097867626,"[51, 0, 203]",203,a,0.2740137515356764,colour,0.06
13,18,1,2,11,1,501,1605.8440072058002,1607.1977297951235,"[86, 0, 168]",168,l,0.8296759516815655,colour,0.06
13,18,1,2,11,2,502,1609.204495668877,1610.365764025075,"[61, 0, 193]",193,a,0.6382149971905164,colour,0.06
13,18,1,2,11,3,503,1612.3765297948266,1613.2937950411579,"[83, 0, 171]",171,l,0.39390665700193495,colour,0.06
13,18,1,2,11,4,504,1615.3071798842866,1616.0777829327853,"[53, 0, 201]",201,a,0.24726178840501234,colour,0.06
13,18,1,2,11,5,505,1618.076849912526,1618.9178182056057,"[71, 0, 183]",183,l,0.31764121138257906,colour,0.06
13,18,1,2,11,6,506,1620.936411263072,1621.5817773150047,"[91, 0, 163]",163,l,0.12200234259944409,colour,0.06
13,18,1,2,11,7,507,1623.5928298043436,1624.477800498309,"[96, 0, 158]",158,l,0.3615313662448898,colour,0.06
13,18,1,2,11,8,508,1626.4837046378525,1629.061753810267,"[80, 0, 174]",174,l,2.0546661646221764,colour,0.06
13,18,1,2,11,9,509,1631.0778435849934,1631.8217793471995,"[85, 0, 169]",169,l,0.220624040463008,colour,0.06
13,18,1,2,11,10,510,1633.843705520092,1634.9257092962507,"[69, 0, 185]",185,a,0.5587231682729907,colour,0.06
13,18,1,2,11,11,511,1636.9377085904707,1637.7656953383703,"[58, 0, 196]",196,a,0.3046301277936436,colour,0.06
13,18,1,2,11,12,512,1639.7816346641048,1640.557671206654,"[67, 0, 187]",187,a,0.25283115915954113,colour,0.06
13,18,1,2,11,13,513,1642.5787191038253,1643.2457458766294,"[60, 0, 194]",194,a,0.14449998538475484,colour,0.06
13,18,1,2,11,14,514,1645.2572024516412,1646.06972957775,"[88, 0, 166]",166,l,0.28918310906738043,colour,0.06
13,18,1,2,11,15,515,1648.0855487805675,1648.9737096239696,"[98, 0, 156]",156,l,0.36485030327457935,colour,0.06
13,18,1,2,11,16,516,1650.9920210817945,1651.9657570933923,"[15, 0, 239]",239,a,0.4504301975830458,colour,0.06
13,18,1,2,11,17,517,1653.976648106065,1655.3896653336706,"[72, 0, 182]",182,a,0.8896988105261698,colour,0.06
13,18,1,2,11,18,518,1657.398735598079,1658.0617049733992,"[87, 0, 167]",167,l,0.13967065053293481,colour,0.06
13,18,1,2,11,19,519,1660.070846523915,1660.8136787306867,"[76, 0, 178]",178,l,0.21937121759401634,colour,0.06
13,18,1,2,11,20,520,1662.8211940926267,1664.1897122800583,"[82, 0, 172]",172,l,0.8452982317539863,colour,0.06
13,18,1,2,11,21,521,1666.196314707864,1666.9976818247233,"[62, 0, 192]",192,a,0.277938422979787,colour,0.06
13,18,1,2,11,22,522,1669.0090344244963,1670.5737011168967,"[84, 0, 170]",170,l,1.0412789584952407,colour,0.06
13,18,1,2,11,23,523,1672.5875865377602,1673.4536601254367,"[77, 0, 177]",177,l,0.34348929882980883,colour,0.06
13,18,1,2,11,24,524,1675.462679583754,1676.229686428036,"[79, 0, 175]",175,l,0.2436254118802026,colour,0.06
13,18,1,2,11,25,525,1678.2440964512061,1679.1097513810382,"[57, 0, 197]",197,a,0.3423766850028187,colour,0.06
13,18,1,2,11,26,526,1681.1193616077653,1682.1096816703794,"[56, 0, 198]",198,a,0.4669622609508224,colour,0.06
13,18,1,2,11,27,527,1684.1210358454846,1685.0136896796175,"[54, 0, 200]",200,a,0.3694579030270688,colour,0.06
13,18,1,2,11,28,528,1687.0273309162003,1687.7896383946063,"[52, 0, 202]",202,a,0.2389051722129807,colour,0.06
13,18,1,2,11,29,529,1689.8088092235848,1690.5416093949461,"[90, 0, 164]",164,l,0.20945969893364236,colour,0.06
13,18,1,2,11,30,530,1692.5609125560732,1693.0856779619353,"[78, 0, 176]",176,l,0.0014040596433915198,colour,0.06
13,18,1,2,11,31,531,1695.108042484906,1695.909617946134,"[68, 0, 186]",186,l,0.27837874239776284,colour,0.06
13,18,1,2,11,32,532,1697.9208949275198,1698.6856544886832,"[94, 0, 160]",160,l,0.24156284239143133,colour,0.06
13,18,1,2,11,33,533,1700.702241296589,1701.47762051085,"[64, 0, 190]",190,a,0.2521017570979893,colour,0.06
13,18,1,2,11,34,534,1703.4992875332828,1704.2696385206073,"[89, 0, 165]",165,l,0.24733149906387553,colour,0.06
13,18,1,2,11,35,535,1706.2807520561037,1707.237707487715,"[70, 0, 184]",184,a,0.4336626144940965,colour,0.06
13,18,1,2,11,36,536,1709.2497142649954,1710.029669177602,"[97, 0, 157]",157,l,0.25682278448948637,colour,0.06
13,18,1,2,11,37,537,1712.0447786705918,1713.26162967016,"[99, 0, 155]",155,l,0.6935455793864094,colour,0.06
13,18,1,2,11,38,538,1715.2793633564725,1716.0136309966329,"[51, 0, 203]",203,a,0.21096891537308693,colour,0.06
13,18,1,2,11,39,539,1718.0304942841176,1718.789617520757,"[92, 0, 162]",162,l,0.23580009338911623,colour,0.06
13,18,1,2,11,40,540,1720.7963794560637,1721.4856076998403,"[93, 0, 161]",161,l,0.16686765919439495,colour,0.06
13,18,1,2,11,41,541,1723.4997361234273,1724.3415984460735,"[75, 0, 179]",179,a,0.31868962838780135,colour,0.06
13,18,1,2,11,42,542,1726.359321498545,1727.2296001758077,"[59, 0, 195]",195,a,0.3469035464222543,colour,0.06
13,18,1,2,11,43,543,1729.250172307482,1730.02972982981,"[17, 0, 237]",237,a,0.2562497390899807,colour,0.06
13,18,1,2,11,44,544,1732.0472315410734,1732.8695736936643,"[41, 0, 213]",213,a,0.29903633857611567,colour,0.06
13,18,1,2,11,45,545,1734.8869513435639,1735.669565895514,"[55, 0, 199]",199,a,0.2592465103371069,colour,0.06
13,18,1,2,11,46,546,1737.6840684724157,1738.4936055226717,"[81, 0, 173]",173,l,0.2861989408847876,colour,0.06
13,18,1,2,11,47,547,1740.5124360690243,1741.8375768885016,"[65, 0, 189]",189,a,0.8018200393416919,colour,0.06
13,18,1,2,11,48,548,1743.856395225681,1744.6615535003948,"[50, 0, 204]",204,a,0.2818126822821796,colour,0.06
13,18,1,2,11,49,549,1746.6709624720388,1747.5095708422014,"[95, 0, 159]",159,l,0.31537541758734733,colour,0.06
13,18,1,2,11,50,550,1749.530421816511,1750.3255661727744,"[63, 0, 191]",191,a,0.271740474679973,colour,0.06
13,18,1,2,12,1,551,1758.0458956167568,1758.9255084350007,"[51, 0, 203]",203,a,0.35542912234086543,colour,0.06
13,18,1,2,12,2,552,1760.937664085941,1761.7255262368126,"[59, 0, 195]",195,a,0.26452955533750355,colour,0.06
13,18,1,2,12,3,553,1763.7346291904105,1764.4535636332585,"[79, 0, 175]",175,l,0.19560775498393923,colour,0.06
13,18,1,2,12,4,554,1766.4692524731508,1767.57358256937,"[75, 0, 179]",179,l,0.5809604792157188,colour,0.06
13,18,1,2,12,5,555,1769.6166452546022,1770.9895300082862,"[58, 0, 196]",196,a,0.8560155584709719,colour,0.06
13,18,1,2,12,6,556,1773.0010350262746,1773.7495299452567,"[76, 0, 178]",178,l,0.22511388041311875,colour,0.06
13,18,1,2,12,7,557,1775.7668721490772,1777.2695404530969,"[30, 0, 224]",224,a,0.9792908101226203,colour,0.06
13,18,1,2,12,8,558,1779.282963105361,1780.2215220084763,"[81, 0, 173]",173,l,0.4156717470032163,colour,0.06
13,18,1,2,12,9,559,1782.2362222959055,1783.0295230608317,"[60, 0, 194]",194,a,0.27005402772920206,colour,0.06
13,18,1,2,12,10,560,1785.048823071178,1786.2375227741431,"[71, 0, 183]",183,l,0.6655104672536254,colour,0.06
13,18,1,2,12,11,561,1788.2529087467701,1788.9574938185979,"[28, 0, 226]",226,a,0.18189444462768734,colour,0.06
13,18,1,2,12,12,562,1790.9712335165823,1791.7414939194568,"[80, 0, 174]",174,l,0.24687739508226514,colour,0.06
13,18,1,2,12,13,563,1793.7531281187548,1794.5174895020318,"[62, 0, 192]",192,a,0.2411804182920605,colour,0.06
13,18,1,2,12,14,564,1796.534669047629,1797.4054880810436,"[63, 0, 191]",191,a,0.34764318843372166,colour,0.06
13,18,1,2,12,15,565,1799.4254194258829,1800.1974997892976,"[86, 0, 168]",168,l,0.2487174417474307,colour,0.06
13,18,1,2,12,16,566,1802.20747708017,1803.4535065256641,"[83, 0, 171]",171,l,0.7226224131300114,colour,0.06
13,18,1,2,12,17,567,1805.4734075443703,1806.2934882354457,"[53, 0, 201]",201,a,0.2968504953896627,colour,0.06
13,18,1,2,12,18,568,1808.3017377256183,1809.1014924385818,"[77, 0, 177]",177,l,0.2763610713882372,colour,0.06
13,18,1,2,12,19,569,1811.114514943678,1811.9014775512042,"[89, 0, 165]",165,l,0.2636930272565223,colour,0.06
13,18,1,2,12,20,570,1813.9115863865009,1814.781445224362,"[68, 0, 186]",186,a,0.346509700815659,colour,0.06
13,18,1,2,12,21,571,1816.8024206539267,1817.55747113307,"[84, 0, 170]",170,l,0.2320940062054433,colour,0.06
13,18,1,2,12,22,572,1819.5682849520235,1820.1734815085656,"[87, 0, 167]",167,l,0.0819202809361741,colour,0.06
13,18,1,2,12,23,573,1822.1951548325596,1822.9254395120079,"[96, 0, 158]",158,l,0.2068642563535832,colour,0.06
13,18,1,2,12,24,574,1824.9452936631278,1825.6935262809275,"[65, 0, 189]",189,a,0.2248732408042997,colour,0.06
13,18,1,2,12,25,575,1827.6987919967505,1828.5974224380334,"[57, 0, 197]",197,l,0.38813681883038953,colour,0.06
13,18,1,2,12,26,576,1830.6083611060167,1831.4454744382529,"[52, 0, 202]",202,a,0.313824059732724,colour,0.06
13,18,1,2,12,27,577,1833.4523305026232,1834.3414401201298,"[69, 0, 185]",185,a,0.365804984990973,colour,0.06
13,18,1,2,12,28,578,1836.358855973056,1837.5414802135783,"[74, 0, 180]",180,l,0.659316063451115,colour,0.06
13,18,1,2,12,29,579,1839.5603383291163,1840.3494647244224,"[14, 0, 240]",240,a,0.26571069832425565,colour,0.06
13,18,1,2,12,30,580,1842.3573944119853,1843.2054219937418,"[90, 0, 164]",164,l,0.32460755249485373,colour,0.06
13,18,1,2,12,31,581,1845.2170112947351,1846.0374645637348,"[91, 0, 163]",163,l,0.2971702980576083,colour,0.06
13,18,1,2,12,32,582,1848.0471815226483,1849.0214153550914,"[94, 0, 160]",160,l,0.4508524000411853,colour,0.06
13,18,1,2,12,33,583,1851.0343905987684,1851.8294424013002,"[97, 0, 157]",157,l,0.27167549013393,colour,0.06
13,18,1,2,12,34,584,1853.8471300076344,1854.5174272744334,"[99, 0, 155]",155,l,0.14693985896883532,colour,0.06
13,18,1,2,12,35,585,1856.5349727025605,1857.3174009655486,"[93, 0, 161]",161,l,0.25919215963222086,colour,0.06
13,18,1,2,12,36,586,1859.3320890438044,1860.0934213604778,"[82, 0, 172]",172,l,0.2381332348450087,colour,0.06
13,18,1,2,12,37,587,1862.1135523850098,1863.1493958802312,"[56, 0, 198]",198,a,0.5125357119250111,colour,0.06
13,18,1,2,12,38,588,1865.160666953947,1866.0294179040939,"[50, 0, 204]",204,a,0.3453458870644681,colour,0.06
13,18,1,2,12,39,589,1868.0359313227818,1868.7734355861903,"[95, 0, 159]",159,l,0.21485026384470984,colour,0.06
13,18,1,2,12,40,590,1870.7860736979637,1871.6774057862349,"[72, 0, 182]",182,l,0.3678884282708168,colour,0.06
13,18,1,2,12,41,591,1873.6926491867634,1874.31741317478,"[66, 0, 188]",188,a,0.10157002613414079,colour,0.06
13,18,1,2,12,42,592,1876.3264137285296,1877.093371735944,"[88, 0, 166]",166,l,0.24377389170695096,colour,0.06
13,18,1,2,12,43,593,1879.1078152360278,1879.7253899662173,"[55, 0, 199]",199,a,0.09426143311429769,colour,0.06
13,18,1,2,12,44,594,1881.7328560975147,1882.4773578158347,"[67, 0, 187]",187,a,0.21938500221585855,colour,0.06
13,18,1,2,12,45,595,1884.4848960208474,1885.2533400077373,"[85, 0, 169]",169,l,0.24509957601549104,colour,0.06
13,18,1,2,12,46,596,1887.2663676328375,1888.0213653367246,"[70, 0, 184]",184,a,0.23181595123605803,colour,0.06
13,18,1,2,12,47,597,1890.0322567432304,1890.7334311120794,"[98, 0, 156]",156,l,0.17801939765922725,colour,0.06
13,18,1,2,12,48,598,1892.742051210953,1893.3413487479556,"[73, 0, 181]",181,a,0.07598266453715041,colour,0.06
13,18,1,2,12,49,599,1895.3517533612903,1896.0855176667683,"[54, 0, 200]",200,a,0.21059003588743508,colour,0.06
13,18,1,2,12,50,600,1898.1018488688278,1898.7253234063392,"[92, 0, 162]",162,l,0.10010885895462707,colour,0.06
13,18,1,2,13,1,601,1913.1543914179783,1914.885339727276,"[71, 0, 183]",183,l,1.2067291673156433,colour,0.06
13,18,1,2,13,2,602,1916.9054920194903,1917.6693339204649,"[95, 0, 159]",159,l,0.24047425313619897,colour,0.06
13,18,1,2,13,3,603,1919.6888611796894,1920.965295506292,"[68, 0, 186]",186,l,0.7530544695910066,colour,0.06
13,18,1,2,13,4,604,1922.9859574347502,1923.6773100817227,"[98, 0, 156]",156,l,0.16797712224069983,colour,0.06
13,18,1,2,13,5,605,1925.6893424590235,1926.6532914071577,"[38, 0, 216]",216,a,0.44059744803234935,colour,0.06
13,18,1,2,13,6,606,1928.6747193653136,1929.5813578693778,"[86, 0, 168]",168,l,0.3840447628754191,colour,0.06
13,18,1,2,13,7,607,1931.596063276811,1932.3333103590412,"[50, 0, 204]",204,a,0.2139302405412309,colour,0.06
13,18,1,2,13,8,608,1934.3462682734826,1935.1653289044043,"[70, 0, 184]",184,l,0.29573551850626245,colour,0.06
13,18,1,2,13,9,609,1937.1747229099274,1937.9892842486151,"[73, 0, 181]",181,l,0.29137407219968736,colour,0.06
13,18,1,2,13,10,610,1940.0028817683342,1940.6532717148657,"[91, 0, 163]",163,l,0.12690256966743618,colour,0.06
13,18,1,2,13,11,611,1942.675002540287,1943.397253163159,"[94, 0, 160]",160,l,0.1989408703520894,colour,0.06
13,18,1,2,13,12,612,1945.4097916320316,1946.189309376001,"[2, 0, 252]",252,a,0.2562485575908795,colour,0.06
13,18,1,2,13,13,613,1948.2069083671086,1948.9973135790788,"[67, 0, 187]",187,a,0.2671513855457306,colour,0.06
13,18,1,2,13,14,614,1951.003947120742,1951.8532680915087,"[56, 0, 198]",198,a,0.32590369845274836,colour,0.06
13,18,1,2,13,15,615,1953.8635336773586,1954.8772552584414,"[58, 0, 196]",196,a,0.49038268404547125,colour,0.06
13,18,1,2,13,16,616,1956.8950369939557,1957.7732957709813,"[61, 0, 193]",193,a,0.3677017454756424,colour,0.06
13,18,1,2,13,17,617,1959.7915221581352,1960.5652740023215,"[51, 0, 203]",203,a,0.2505287377280183,colour,0.06
13,18,1,2,13,18,618,1962.5729279979714,1963.229265407077,"[33, 0, 221]",221,a,0.13315486878855154,colour,0.06
13,18,1,2,13,19,619,1965.244987723825,1965.9092800266226,"[80, 0, 174]",174,l,0.13945915549993515,colour,0.06
13,18,1,2,13,20,620,1967.9186007768149,1969.0532900681137,"[82, 0, 172]",172,l,0.6113338526920415,colour,0.06
13,18,1,2,13,21,621,1971.0751579517964,1971.9332467135391,"[69, 0, 185]",185,l,0.3350495811901055,colour,0.06
13,18,1,2,13,22,622,1973.950304166996,1974.821255138726,"[76, 0, 178]",178,l,0.34762782853795215,colour,0.06
13,18,1,2,13,23,623,1976.8411723051104,1977.645256562857,"[92, 0, 162]",162,l,0.28076820372371003,colour,0.06
13,18,1,2,13,24,624,1979.6538628771668,1980.6292455572402,"[99, 0, 155]",155,l,0.451980767713394,colour,0.06
13,18,1,2,13,25,625,1982.638497384498,1984.013282049389,"[60, 0, 194]",194,a,0.8514753062627278,colour,0.06
13,18,1,2,13,26,626,1986.0293678856688,1987.0052168789553,"[77, 0, 177]",177,l,0.45256680995225906,colour,0.06
13,18,1,2,13,27,627,1989.013978762261,1990.2132599152974,"[89, 0, 165]",165,l,0.6758882991271093,colour,0.06
13,18,1,2,13,28,628,1992.2336347302771,1992.9011821669992,"[90, 0, 164]",164,l,0.1429537475341931,colour,0.06
13,18,1,2,13,29,629,1994.9225451406091,1995.6612734761438,"[81, 0, 173]",173,l,0.21539928461425006,colour,0.06
13,18,1,2,13,30,630,1997.6734716624487,1998.5412336662412,"[96, 0, 158]",158,l,0.3445704050245695,colour,0.06
13,18,1,2,13,31,631,2000.5485446223174,2001.3252373116557,"[64, 0, 190]",190,a,0.25329156464431435,colour,0.06
13,18,1,2,13,32,632,2003.3457007419202,2004.0692124584457,"[53, 0, 201]",201,a,0.20018936094129458,colour,0.06
13,18,1,2,13,33,633,2006.0802929108613,2006.8612281051464,"[62, 0, 192]",192,a,0.2575632141670212,colour,0.06
13,18,1,2,13,34,634,2008.8798999317223,2009.5731855729828,"[88, 0, 166]",166,l,0.16985143354395404,colour,0.06
13,18,1,2,13,35,635,2011.5831951591535,2012.4052096322412,"[65, 0, 189]",189,a,0.2987409543711692,colour,0.06
13,18,1,2,13,36,636,2014.4115505465306,2015.4931636279216,"[85, 0, 169]",169,l,0.5582300735986792,colour,0.06
13,18,1,2,13,37,637,2017.5055768538732,2018.5812105711666,"[79, 0, 175]",175,l,0.552255435672123,colour,0.06
13,18,1,2,13,38,638,2020.5995476289536,2021.349207149411,"[78, 0, 176]",176,l,0.226579773821868,colour,0.06
13,18,1,2,13,39,639,2023.3654410716263,2024.4212131547974,"[66, 0, 188]",188,a,0.5308786774403416,colour,0.06
13,18,1,2,13,40,640,2026.4199008612195,2027.2531615956686,"[84, 0, 170]",170,l,0.3099391666473821,colour,0.06
13,18,1,2,13,41,641,2029.2637615564163,2031.0771925582085,"[83, 0, 171]",171,l,1.2902220737887546,colour,0.06
13,18,1,2,13,42,642,2033.0928774596541,2034.2372758329147,"[97, 0, 157]",157,l,0.6210567192756571,colour,0.06
13,18,1,2,13,43,643,2036.2402655149926,2037.317193015071,"[93, 0, 161]",161,l,0.553709119791165,colour,0.06
13,18,1,2,13,44,644,2039.335333543946,2040.4531788461027,"[55, 0, 199]",199,a,0.594413457554765,colour,0.06
13,18,1,2,13,45,645,2042.4607016911032,2043.7411752983462,"[59, 0, 195]",195,a,0.7571327409823425,colour,0.06
13,18,1,2,13,46,646,2045.7578944383422,2047.0612110910006,"[87, 0, 167]",167,l,0.7799911463516764,colour,0.06
13,18,1,2,13,47,647,2049.0708457361907,2049.7651656160015,"[52, 0, 202]",202,a,0.17093057051533833,colour,0.06
13,18,1,2,13,48,648,2051.7741791667067,2053.0691419600626,"[72, 0, 182]",182,l,0.7716250778757967,colour,0.06
13,18,1,2,13,49,649,2055.0868480771896,2055.957178742101,"[54, 0, 200]",200,a,0.34685864800121635,colour,0.06
13,18,1,2,13,50,650,2057.9777788367937,2059.101162789797,"[74, 0, 180]",180,l,0.5999883421463892,colour,0.06
13,18,1,2,14,1,651,2066.493351492274,2067.589133563277,"[59, 0, 195]",195,a,0.5716913226642646,colour,0.06
13,18,1,2,14,2,652,2069.603686946328,2070.7891945305746,"[74, 0, 180]",180,l,0.6621419056900777,colour,0.06
13,18,1,2,14,3,653,2072.80710741668,2073.733112490969,"[64, 0, 190]",190,a,0.4036354312556796,colour,0.06
13,18,1,2,14,4,654,2075.744786468742,2076.7651341083692,"[84, 0, 170]",170,l,0.4969941703020595,colour,0.06
13,18,1,2,14,5,655,2078.7762964806752,2079.653163013514,"[80, 0, 174]",174,l,0.3535760787781328,colour,0.06
13,18,1,2,14,6,656,2081.6670590681606,2082.7011657042312,"[82, 0, 172]",172,l,0.5107189021073282,colour,0.06
13,18,1,2,14,7,657,2084.7031751045724,2085.7650561269256,"[85, 0, 169]",169,l,0.5385350360884331,colour,0.06
13,18,1,2,14,8,658,2087.781479488942,2088.6290903820773,"[51, 0, 203]",203,a,0.3244760081288405,colour,0.06
13,18,1,2,14,9,659,2090.6322639900027,2091.5650522672804,"[58, 0, 196]",196,a,0.4096144015202299,colour,0.06
13,18,1,2,14,10,660,2093.585711044958,2094.637119712541,"[94, 0, 160]",160,l,0.5281666565570049,colour,0.06
13,18,1,2,14,11,661,2096.648494367604,2097.2050954957376,"[56, 0, 198]",198,a,0.03354422451229766,colour,0.06
13,18,1,2,14,12,662,2099.22682513966,2099.981051299954,"[91, 0, 163]",163,l,0.23099123849533498,colour,0.06
13,18,1,2,14,13,663,2101.992515751859,2102.8450343551813,"[79, 0, 175]",175,l,0.3292273615952581,colour,0.06
13,18,1,2,14,14,664,2104.8521251515485,2105.621147303784,"[81, 0, 173]",173,l,0.24569467670517042,colour,0.06
13,18,1,2,14,15,665,2107.6335802220274,2108.9730897109257,"[57, 0, 197]",197,a,0.8161552318488248,colour,0.06
13,18,1,2,14,16,666,2110.9932483047014,2111.6130431426573,"[97, 0, 157]",157,l,0.0965039900620468,colour,0.06
13,18,1,2,14,17,667,2113.634389574756,2115.0050683991867,"[61, 0, 193]",193,a,0.8474269672296941,colour,0.06
13,18,1,2,14,18,668,2117.0252687405446,2118.0690604340634,"[53, 0, 201]",201,a,0.5204614610411227,colour,0.06
13,18,1,2,14,19,669,2120.088020161784,2121.2610369324684,"[65, 0, 189]",189,a,0.6497208028449677,colour,0.06
13,18,1,2,14,20,670,2123.2757525799097,2124.133057195053,"[77, 0, 177]",177,l,0.33392318279948086,colour,0.06
13,18,1,2,14,21,671,2126.1509858349455,2127.1490670191706,"[62, 0, 192]",192,a,0.47478876094100997,colour,0.06
13,18,1,2,14,22,672,2129.166939339135,2129.9090905868798,"[98, 0, 156]",156,l,0.21878635691246018,colour,0.06
13,18,1,2,14,23,673,2131.917067535862,2132.8690786297084,"[78, 0, 176]",176,l,0.4285004800767638,colour,0.06
13,18,1,2,14,24,674,2134.8860581016634,2135.629023034475,"[73, 0, 181]",181,l,0.21950158051913604,colour,0.06
13,18,1,2,14,25,675,2137.637425336754,2138.421070188808,"[87, 0, 167]",167,l,0.26030674268258736,colour,0.06
13,18,1,2,14,26,676,2140.434498354909,2141.868986469868,"[50, 0, 204]",204,a,0.9111377963563427,colour,0.06
13,18,1,2,14,27,677,2143.8878922407166,2144.6370318849804,"[71, 0, 183]",183,l,0.22582319640787318,colour,0.06
13,18,1,2,14,28,678,2146.6538301879773,2147.365048013744,"[92, 0, 162]",162,l,0.18801244237693027,colour,0.06
13,18,1,2,14,29,679,2149.372774870775,2150.0050223192666,"[83, 0, 171]",171,l,0.10897904977900907,colour,0.06
13,18,1,2,14,30,680,2152.01357231359,2152.7650309208548,"[86, 0, 168]",168,l,0.2284351804992184,colour,0.06
13,18,1,2,14,31,681,2154.779546494654,2155.7089835396037,"[95, 0, 159]",159,l,0.4061532862833701,colour,0.06
13,18,1,2,14,32,682,2157.717251146678,2159.100988710008,"[63, 0, 191]",191,a,0.8604778292356059,colour,0.06
13,18,1,2,14,33,683,2161.108091321774,2162.261014483287,"[55, 0, 199]",199,a,0.6295799321378581,colour,0.06
13,18,1,2,14,34,684,2164.2821147618815,2165.0449834702886,"[2, 0, 252]",252,a,0.23957037745276466,colour,0.06
13,18,1,2,14,35,685,2167.063647813804,2167.9410401305067,"[16, 0, 238]",238,a,0.354181025584694,colour,0.06
13,18,1,2,14,36,686,2169.9544509674306,2171.4369457115536,"[93, 0, 161]",161,l,0.9591968070017174,colour,0.06
13,18,1,2,14,37,687,2173.454738868575,2174.4610451244516,"[66, 0, 188]",188,l,0.4830622756271623,colour,0.06
13,18,1,2,14,38,688,2176.4712504519266,2177.477004142478,"[70, 0, 184]",184,l,0.48260108241811395,colour,0.06
13,18,1,2,14,39,689,2179.4871515746345,2180.5890480987728,"[10, 0, 244]",244,a,0.5909302869113162,colour,0.06
13,18,1,2,14,40,690,2182.600425904675,2183.3329527471797,"[54, 0, 200]",200,a,0.2094687573844567,colour,0.06
13,18,1,2,14,41,691,2185.3505730059696,2186.156949445198,"[52, 0, 202]",202,a,0.2829564099665731,colour,0.06
13,18,1,2,14,42,692,2188.163357313315,2189.196981094661,"[67, 0, 187]",187,l,0.5103349026758224,colour,0.06
13,18,1,2,14,43,693,2191.2104447068414,2191.9649713714025,"[68, 0, 186]",186,l,0.23112475220113993,colour,0.06
13,18,1,2,14,44,694,2193.9764003771706,2194.5889110405114,"[69, 0, 185]",185,l,0.08927377231884748,colour,0.06
13,18,1,2,14,45,695,2196.601578690752,2197.21294759569,"[99, 0, 155]",155,l,0.0880449740216136,colour,0.06
13,18,1,2,14,46,696,2199.226679022948,2200.3009212836623,"[60, 0, 194]",194,a,0.5482468750560656,colour,0.06
13,18,1,2,14,47,697,2202.3077596250223,2203.0929329919163,"[90, 0, 164]",164,l,0.2618718851590529,colour,0.06
13,18,1,2,14,48,698,2205.104860606254,2205.9329131263075,"[72, 0, 182]",182,l,0.3047573398798704,colour,0.06
13,18,1,2,14,49,699,2207.94878667983,2208.8209778714227,"[96, 0, 158]",158,l,0.3489791128085926,colour,0.06
13,18,1,2,14,50,700,2210.8396099195816,2211.572916576406,"[75, 0, 179]",179,l,0.21006661502178758,colour,0.06
13,18,1,2,15,1,701,2218.9676420384785,2219.740939384792,"[81, 0, 173]",173,l,0.24919163185404614,colour,0.06
13,18,1,2,15,2,702,2221.74996199389,2222.3809195979848,"[88, 0, 166]",166,l,0.10781838675029576,colour,0.06
13,18,1,2,15,3,703,2224.378291072382,2225.0049313409254,"[97, 0, 157]",157,l,0.10335257137194276,colour,0.06
13,18,1,2,15,4,704,2227.0190306199365,2227.6528845646535,"[55, 0, 199]",199,l,0.11049496155465022,colour,0.06
13,18,1,2,15,5,705,2229.65989186574,2230.42907116242,"[76, 0, 178]",178,l,0.24583055346738547,colour,0.06
13,18,1,2,15,6,706,2232.4323156625615,2233.532886896224,"[49, 0, 205]",205,a,0.5775099977618083,colour,0.06
13,18,1,2,15,7,707,2235.54196858214,2237.124895138608,"[62, 0, 192]",192,a,1.0596077454974875,colour,0.06
13,18,1,2,15,8,708,2239.1358913080767,2239.9168788838433,"[72, 0, 182]",182,l,0.2576014172518626,colour,0.06
13,18,1,2,15,9,709,2241.9330068615964,2242.6768733069766,"[84, 0, 170]",170,l,0.22111043985933065,colour,0.06
13,18,1,2,15,10,710,2244.6832449412905,2245.428881328844,"[90, 0, 164]",164,l,0.22244006261462346,colour,0.06
13,18,1,2,15,11,711,2247.449106482498,2248.2449002900976,"[67, 0, 187]",187,a,0.27266049798345193,colour,0.06
13,18,1,2,15,12,712,2250.2630262466846,2251.2689032108756,"[50, 0, 204]",204,a,0.482588873244822,colour,0.06
13,18,1,2,15,13,713,2253.2788572648424,2254.1248782032635,"[59, 0, 195]",195,a,0.32269149366766214,colour,0.06
13,18,1,2,15,14,714,2256.140382329584,2257.2209261200624,"[71, 0, 183]",183,l,0.5572501856950112,colour,0.06
13,18,1,2,15,15,715,2259.234409818426,2260.3488625345053,"[99, 0, 155]",155,l,0.5912213388946839,colour,0.06
13,18,1,2,15,16,716,2262.3596212150296,2263.0128771761083,"[68, 0, 186]",186,a,0.12993439321871847,colour,0.06
13,18,1,2,15,17,717,2265.0317155993544,2266.972899483517,"[95, 0, 159]",159,l,1.4180072514573112,colour,0.06
13,18,1,2,15,18,718,2268.9851232697256,2270.076858970977,"[14, 0, 240]",240,a,0.5684586379211396,colour,0.06
13,18,1,2,15,19,719,2272.094718687935,2273.3488582022255,"[96, 0, 158]",158,l,0.7308514233445749,colour,0.06
13,18,1,2,15,20,720,2275.360644425964,2276.1488956963294,"[98, 0, 156]",156,l,0.26490922254743055,colour,0.06
13,18,1,2,15,21,721,2278.157770613325,2279.1408769996488,"[86, 0, 168]",168,l,0.459856498404406,colour,0.06
13,18,1,2,15,22,722,2281.157977382245,2281.9728569482104,"[91, 0, 163]",163,l,0.29153869970468804,colour,0.06
13,18,1,2,15,23,723,2283.9863111081067,2284.8768645636155,"[94, 0, 160]",160,l,0.36715745081892237,colour,0.06
13,18,1,2,15,24,724,2286.892848000047,2288.4048264204175,"[75, 0, 179]",179,l,0.9887017509317957,colour,0.06
13,18,1,2,15,25,725,2290.4242800305365,2291.22882981383,"[85, 0, 169]",169,l,0.28153029503300786,colour,0.06
13,18,1,2,15,26,726,2293.2375806694617,2294.4928064099513,"[52, 0, 202]",202,a,0.7319400125998072,colour,0.06
13,18,1,2,15,27,727,2296.5033488692134,2298.1087907915935,"[60, 0, 194]",194,a,1.0821361083071679,colour,0.06
13,18,1,2,15,28,728,2300.128639034985,2300.748788727855,"[51, 0, 203]",203,a,0.09680843271780759,colour,0.06
13,18,1,2,15,29,729,2302.769620797597,2303.540756719187,"[73, 0, 181]",181,l,0.24791360285598785,colour,0.06
13,18,1,2,15,30,730,2305.550993160461,2306.1887926505296,"[66, 0, 188]",188,a,0.11438458075281233,colour,0.06
13,18,1,2,15,31,731,2308.2075235539232,2308.9887903662166,"[87, 0, 167]",167,l,0.25792830903083086,colour,0.06
13,18,1,2,15,32,732,2311.0045709721744,2311.7648009149707,"[53, 0, 201]",201,a,0.23688828881131485,colour,0.06
13,18,1,2,15,33,733,2313.7860327380477,2315.004814368731,"[54, 0, 200]",200,a,0.6954301305813715,colour,0.06
13,18,1,2,15,34,734,2317.0207355775638,2317.70078328019,"[83, 0, 171]",171,l,0.15670211019460112,colour,0.06
13,18,1,2,15,35,735,2319.7084510603454,2320.5248611103743,"[79, 0, 175]",175,l,0.2931266851956025,colour,0.06
13,18,1,2,15,36,736,2322.536793844658,2323.3247843892314,"[89, 0, 165]",165,l,0.26479225035291165,colour,0.06
13,18,1,2,15,37,737,2325.3337542230147,2326.188765475177,"[61, 0, 193]",193,a,0.3316101274685934,colour,0.06
13,18,1,2,15,38,738,2328.2091072071344,2330.6368058176013,"[48, 0, 206]",206,a,1.9044384825392626,colour,0.06
13,18,1,2,15,39,739,2332.6469221359584,2334.4447710299864,"[70, 0, 184]",184,a,1.2748270427109674,colour,0.06
13,18,1,2,15,40,740,2336.45976355084,2337.7407101666904,"[56, 0, 198]",198,a,0.7577495031873696,colour,0.06
13,18,1,2,15,41,741,2339.756855473621,2340.716759627394,"[80, 0, 174]",174,l,0.4366247273865156,colour,0.06
13,18,1,2,15,42,742,2342.7257861749385,2344.252757116221,"[78, 0, 176]",176,l,1.0036379519151524,colour,0.06
13,18,1,2,15,43,743,2346.272958639136,2347.172762346454,"[92, 0, 162]",162,l,0.37650458863936365,colour,0.06
13,18,1,2,15,44,744,2349.1794486634317,2350.2207520403317,"[93, 0, 161]",161,l,0.5180267074611038,colour,0.06
13,18,1,2,15,45,745,2352.242201660003,2354.0047525350237,"[69, 0, 185]",185,a,1.238999301334843,colour,0.06
13,18,1,2,15,46,746,2356.0237638565013,2356.932754012698,"[74, 0, 180]",180,l,0.3865299287135713,colour,0.06
13,18,1,2,15,47,747,2358.94579109014,2362.164695994521,"[82, 0, 172]",172,a,2.695560887339525,colour,0.06
13,18,1,2,15,48,748,2364.180596723396,2365.036709167878,"[63, 0, 191]",191,l,0.3327660643844865,colour,0.06
13,18,1,2,15,49,749,2367.0464068283327,2369.804696687672,"[64, 0, 190]",190,a,2.2353747401502915,colour,0.06
13,18,1,2,15,50,750,2371.812351864821,2372.4447056516074,"[58, 0, 196]",196,a,0.1089719605515711,colour,0.06
13,18,1,2,16,1,751,2379.8746653296985,2380.6847423422732,"[68, 0, 186]",186,a,0.2858661413192749,colour,0.06
13,18,1,2,16,2,752,2382.7038430667017,2383.468718024669,"[20, 0, 234]",234,a,0.24151597474701703,colour,0.06
13,18,1,2,16,3,753,2385.4852579649305,2386.3727358800825,"[70, 0, 184]",184,a,0.3640905750798993,colour,0.06
13,18,1,2,16,4,754,2388.391768075351,2389.124660012778,"[64, 0, 190]",190,a,0.2095869110780768,colour,0.06
13,18,1,2,16,5,755,2391.1428938830504,2392.0606845194125,"[75, 0, 179]",179,l,0.39452381303999573,colour,0.06
13,18,1,2,16,6,756,2394.080592233513,2394.7806764377165,"[58, 0, 196]",196,a,0.17675948556279764,colour,0.06
13,18,1,2,16,7,757,2396.7996684607933,2397.4767095459392,"[83, 0, 171]",171,l,0.1542638119426556,colour,0.06
13,18,1,2,16,8,758,2399.4884441759204,2400.148653481272,"[80, 0, 174]",174,l,0.13691570051014423,colour,0.06
13,18,1,2,16,9,759,2402.1605295017944,2402.836626539065,"[74, 0, 180]",180,l,0.15272742026718333,colour,0.06
13,18,1,2,16,10,760,2404.8482331692358,2405.516732924618,"[99, 0, 155]",155,l,0.14525931974640116,colour,0.06
13,18,1,2,16,11,761,2407.535982128873,2408.4606028358685,"[71, 0, 183]",183,a,0.4013152868137695,colour,0.06
13,18,1,2,16,12,762,2410.473662362492,2411.2366578891524,"[79, 0, 175]",175,l,0.23957392206648365,colour,0.06
13,18,1,2,16,13,763,2413.255141851376,2413.8366096037207,"[94, 0, 160]",160,l,0.05806859687436372,colour,0.06
13,18,1,2,16,14,764,2415.84911617107,2416.4606524604023,"[50, 0, 204]",204,a,0.08848647493869066,colour,0.06
13,18,1,2,16,15,765,2418.474309056939,2419.084624424926,"[65, 0, 189]",189,a,0.08699025551322848,colour,0.06
13,18,1,2,16,16,766,2421.0995066689793,2421.7166013014503,"[97, 0, 157]",157,l,0.0939794396981597,colour,0.06
13,18,1,2,16,17,767,2423.724710188748,2424.4207472354174,"[81, 0, 173]",173,a,0.18501173268305138,colour,0.06
13,18,1,2,16,18,768,2426.4313330177683,2427.0207154914388,"[89, 0, 165]",165,l,0.06607981043634936,colour,0.06
13,18,1,2,16,19,769,2429.042075314326,2429.6446334990906,"[2, 0, 252]",252,a,0.07791920332238078,colour,0.06
13,18,1,2,16,20,770,2431.652911346173,2432.436803927121,"[78, 0, 176]",176,l,0.26053399161901325,colour,0.06
13,18,1,2,16,21,771,2434.4501671086764,2435.2686160974554,"[63, 0, 191]",191,a,0.2951286024181172,colour,0.06
13,18,1,2,16,22,772,2437.2786024467205,2437.9006122723804,"[61, 0, 193]",193,a,0.09879577765241265,colour,0.06
13,18,1,2,16,23,773,2439.919508590945,2440.708618050907,"[77, 0, 177]",177,l,0.26583594124531373,colour,0.06
13,18,1,2,16,24,774,2442.7165374984615,2443.612617395527,"[51, 0, 203]",203,a,0.3821712393546477,colour,0.06
13,18,1,2,16,25,775,2445.6292680064216,2446.3806159430533,"[60, 0, 194]",194,a,0.2280373964458704,colour,0.06
13,18,1,2,16,26,776,2448.39509843383,2449.380574195413,"[62, 0, 192]",192,a,0.4621549813891761,colour,0.06
13,18,1,2,16,27,777,2451.395620279305,2452.1085954441805,"[90, 0, 164]",164,l,0.18994464894058183,colour,0.06
13,18,1,2,16,28,778,2454.1217431921978,2455.0925994046847,"[52, 0, 202]",202,a,0.44758426916087046,colour,0.06
13,18,1,2,16,29,779,2457.1063099580933,2457.884628048283,"[15, 0, 239]",239,a,0.25498155620880425,colour,0.06
13,18,1,2,16,30,780,2459.9034487484605,2461.052556333714,"[69, 0, 185]",185,a,0.6257852296694182,colour,0.06
13,18,1,2,16,31,781,2463.0599381820066,2463.7645697276457,"[82, 0, 172]",172,l,0.1819137430866249,colour,0.06
13,18,1,2,16,32,782,2465.772847180837,2466.3885692612967,"[57, 0, 197]",197,a,0.09241784183541313,colour,0.06
13,18,1,2,16,33,783,2468.3981767311343,2469.1245840005577,"[98, 0, 156]",156,l,0.2039348327089101,colour,0.06
13,18,1,2,16,34,784,2471.1326791032916,2471.8845992975403,"[93, 0, 161]",161,l,0.22882981377188116,colour,0.06
13,18,1,2,16,35,785,2473.8984878691845,2474.652591937338,"[84, 0, 170]",170,l,0.23088293091859668,colour,0.06
13,18,1,2,16,36,786,2476.6653048798325,2478.0525535768247,"[66, 0, 188]",188,a,0.863955092150718,colour,0.06
13,18,1,2,16,37,787,2480.0718232609797,2480.8765581517364,"[95, 0, 159]",159,l,0.28201393742347136,colour,0.06
13,18,1,2,16,38,788,2482.8845906329225,2483.5965977252927,"[92, 0, 162]",162,l,0.18864417070290074,colour,0.06
13,18,1,2,16,39,789,2485.6035191681003,2486.3165538036264,"[87, 0, 167]",167,l,0.18967565236380324,colour,0.06
13,18,1,2,16,40,790,2488.3381168508786,2488.98052551609,"[55, 0, 199]",199,a,0.11908315890468657,colour,0.06
13,18,1,2,16,41,791,2490.99461416126,2491.7805968809407,"[85, 0, 169]",169,l,0.26582491357112303,colour,0.06
13,18,1,2,16,42,792,2493.776136185508,2494.596523682354,"[59, 0, 195]",195,a,0.2970769566600211,colour,0.06
13,18,1,2,16,43,793,2496.6044474621885,2497.4445473256637,"[67, 0, 187]",187,a,0.3167834156192839,colour,0.06
13,18,1,2,16,44,794,2499.4640147204045,2500.220542514464,"[91, 0, 163]",163,l,0.23319401702610776,colour,0.06
13,18,1,2,16,45,795,2502.229862870823,2503.652510805172,"[72, 0, 182]",182,a,0.8993559048976749,colour,0.06
13,18,1,2,16,46,796,2505.6676002120366,2506.6204836739344,"[56, 0, 198]",198,a,0.4296083677909337,colour,0.06
13,18,1,2,16,47,797,2508.636594716343,2509.9405167096993,"[54, 0, 200]",200,a,0.7806323270197026,colour,0.06
13,18,1,2,16,48,798,2511.9494054113165,2512.6045112651773,"[53, 0, 201]",201,a,0.13203398417681456,colour,0.06
13,18,1,2,16,49,799,2514.6214517464396,2516.1325184142916,"[73, 0, 181]",181,a,0.9877801522379741,colour,0.06
13,18,1,2,16,50,800,2518.152986176836,2518.796541326621,"[76, 0, 178]",178,l,0.1202536680502817,colour,0.06
