id,age,condition,counterbalance,block,trialinblock,trial,tstart,tend,trialstim,trialintensity,response,RT,trialtype,colourfreq
07,21,1,2,Practice,1,NA,5.90737909078598e-06,1.9354915316216648,"[90, 0, 164]",164,l,0.735385350883007,colour,0.5
07,21,1,2,Practice,2,NA,3.9747646963223815,4.655428264290094,"[55, 0, 199]",199,a,0.1642082785256207,colour,0.5
07,21,1,2,Practice,3,NA,6.66475257370621,7.247461857739836,"[21, 0, 233]",233,a,0.06647494249045849,colour,0.5
07,21,1,2,Practice,4,NA,9.256233600899577,9.791448574047536,"[64, 0, 190]",190,a,0.018990871496498585,colour,0.5
07,21,1,2,Practice,5,NA,11.800938298925757,12.375480787828565,"[14, 0, 240]",240,a,0.05684146378189325,colour,0.5
07,21,1,2,Practice,6,NA,14.384416371118277,14.935560061130673,"[39, 0, 215]",215,a,0.03376286197453737,colour,0.5
07,21,1,2,Practice,7,NA,16.945084444247186,17.55148357897997,"[92, 0, 162]",162,l,0.08904508827254176,colour,0.5
07,21,1,2,Practice,8,NA,19.560338030103594,26.551539899315685,"[54, 0, 200]",200,a,6.474390542600304,colour,0.5
07,21,1,2,Practice,9,NA,28.560518017970026,29.143493148032576,"[16, 0, 238]",238,a,0.06618979759514332,colour,0.5
07,21,1,2,Practice,10,NA,31.15233460208401,31.671509399544448,"[23, 0, 231]",231,a,0.0018869172781705856,colour,0.5
07,21,1,2,1,1,1,16.952610452193767,17.511893368326128,"[99, 0, 155]",155,l,0.041807958856225014,colour,0.5
07,21,1,2,1,2,2,19.521223191637546,24.247849008534104,"[59, 0, 195]",195,a,4.208895253483206,colour,0.5
07,21,1,2,1,3,3,26.2569929366,28.60788393486291,"[61, 0, 193]",193,a,1.831749283708632,colour,0.5
07,21,1,2,1,4,4,30.616958939936012,31.231934076175094,"[96, 0, 158]",158,l,0.09859743481501937,colour,0.5
07,21,1,2,1,5,5,33.2409448842518,34.32782696885988,"[49, 0, 205]",205,a,0.570386229082942,colour,0.5
07,21,1,2,1,6,6,36.33767430623993,37.207870859187096,"[70, 0, 184]",184,a,0.3531339527107775,colour,0.5
07,21,1,2,1,7,7,39.2162979869172,39.75990306632593,"[33, 0, 221]",221,a,0.02661770349368453,colour,0.5
07,21,1,2,1,8,8,41.7697027483955,42.568121613468975,"[74, 0, 180]",180,l,0.28214041283354163,colour,0.5
07,21,1,2,1,9,9,44.576165922451764,45.23985077952966,"[79, 0, 175]",175,l,0.1474808412604034,colour,0.5
07,21,1,2,1,10,10,47.24953782139346,50.90424062125385,"[18, 0, 236]",236,a,3.138755965977907,colour,0.5
07,21,1,2,1,11,11,52.9134058165364,53.85586724523455,"[28, 0, 226]",226,a,0.4252601945772767,colour,0.5
07,21,1,2,1,12,12,55.86424081027508,56.519877419341356,"[5, 0, 249]",249,a,0.13943141233175993,colour,0.5
07,21,1,2,1,13,13,58.52802058402449,60.87188851600513,"[92, 0, 162]",162,l,1.827556396368891,colour,0.5
07,21,1,2,1,14,14,62.88084418559447,64.15189782669768,"[81, 0, 173]",173,l,0.7544163945131004,colour,0.5
07,21,1,2,1,15,15,66.16077709011734,67.18395533459261,"[21, 0, 233]",233,a,0.5062290718778968,colour,0.5
07,21,1,2,1,16,16,69.19371051201597,70.13586907275021,"[56, 0, 198]",198,a,0.4253866192884743,colour,0.5
07,21,1,2,1,17,17,72.14480820065364,73.08784818928689,"[39, 0, 215]",215,a,0.42561938194558024,colour,0.5
07,21,1,2,1,18,18,75.09681291738525,75.90387079957873,"[45, 0, 209]",209,a,0.29066639579832554,colour,0.5
07,21,1,2,1,19,19,77.91250902879983,78.72787824785337,"[95, 0, 159]",159,l,0.298739455640316,colour,0.5
07,21,1,2,1,20,20,80.73727187421173,81.51188746048138,"[50, 0, 204]",204,a,0.2582099214196205,colour,0.5
07,21,1,2,1,21,21,83.52069858880714,84.31185374734923,"[88, 0, 166]",166,l,0.27483417093753815,colour,0.5
07,21,1,2,1,22,22,86.32097561983392,87.75996253732592,"[65, 0, 189]",189,a,0.9227958987466991,colour,0.5
07,21,1,2,1,23,23,89.76794186187908,90.65587882464752,"[53, 0, 201]",201,a,0.3708633347414434,colour,0.5
07,21,1,2,1,24,24,92.66515311552212,93.47201131749898,"[36, 0, 218]",218,a,0.28969398932531476,colour,0.5
07,21,1,2,1,25,25,95.48108238400891,96.48786047752947,"[60, 0, 194]",194,a,0.49017905024811625,colour,0.5
07,21,1,2,1,26,26,98.4968571071513,99.35991913545877,"[16, 0, 238]",238,a,0.34683556389063597,colour,0.5
07,21,1,2,1,27,27,101.36900595575571,102.25599020393565,"[0, 0, 254]",254,a,0.3707243064418435,colour,0.5
07,21,1,2,1,28,28,104.26527237193659,105.22409574873745,"[27, 0, 227]",227,a,0.440214142203331,colour,0.5
07,21,1,2,1,29,29,107.23293208284304,108.34384115086868,"[51, 0, 203]",203,a,0.5933202891610563,colour,0.5
07,21,1,2,1,30,30,110.35335529409349,111.30387205956504,"[46, 0, 208]",208,a,0.43393268855288625,colour,0.5
07,21,1,2,1,31,31,113.31295572919771,114.27191655803472,"[3, 0, 251]",251,a,0.4427091577090323,colour,0.5
07,21,1,2,1,32,32,116.2809305167757,117.21594864549115,"[19, 0, 235]",235,a,0.41875858092680573,colour,0.5
07,21,1,2,1,33,33,119.22414458543062,120.19185589021072,"[13, 0, 241]",241,a,0.4498649504967034,colour,0.5
07,21,1,2,1,34,34,122.20089347939938,123.48787386808544,"[57, 0, 197]",197,a,0.7706641270779073,colour,0.5
07,21,1,2,1,35,35,125.49695596238598,126.65588039997965,"[12, 0, 242]",242,a,0.6427153022959828,colour,0.5
07,21,1,2,1,36,36,128.66512042609975,129.57584533188492,"[4, 0, 250]",250,a,0.39392303163185716,colour,0.5
07,21,1,2,1,37,37,131.58558199834079,133.46389296511188,"[69, 0, 185]",185,l,1.3619773760437965,colour,0.5
07,21,1,2,1,38,38,135.47306013014168,136.36789255216718,"[91, 0, 163]",163,l,0.3750810334458947,colour,0.5
07,21,1,2,1,39,39,138.37692305259407,139.35185316437855,"[75, 0, 179]",179,l,0.45667770225554705,colour,0.5
07,21,1,2,1,40,40,141.3608722430654,142.22393151465803,"[47, 0, 207]",207,a,0.34677845565602183,colour,0.5
07,21,1,2,1,41,41,144.23431842122227,145.14387793606147,"[8, 0, 246]",246,a,0.39248155429959297,colour,0.5
07,21,1,2,1,42,42,147.15373157477006,147.92786233639345,"[24, 0, 230]",230,a,0.2571528381668031,colour,0.5
07,21,1,2,1,43,43,149.93661950761452,150.78389539103955,"[83, 0, 171]",171,l,0.3307926310226321,colour,0.5
07,21,1,2,1,44,44,152.79282152233645,153.7278471342288,"[77, 0, 177]",177,l,0.41884522745385766,colour,0.5
07,21,1,2,1,45,45,155.73694773903117,156.5918945656158,"[86, 0, 168]",168,l,0.3386719189584255,colour,0.5
07,21,1,2,1,46,46,158.60092742880806,159.44787681428716,"[7, 0, 247]",247,a,0.3299446804448962,colour,0.5
07,21,1,2,1,47,47,161.456889197696,162.3998645953834,"[43, 0, 211]",211,a,0.4247706434689462,colour,0.5
07,21,1,2,1,48,48,164.40892620990053,165.58390618255362,"[29, 0, 225]",225,a,0.6580382832325995,colour,0.5
07,21,1,2,1,49,49,167.59293471369892,168.4559195479378,"[90, 0, 164]",164,l,0.3453747876919806,colour,0.5
07,21,1,2,1,50,50,170.46445458987728,171.3678866447881,"[44, 0, 210]",210,a,0.3873863657936454,colour,0.5
07,21,1,2,2,1,51,187.31320660933852,188.02392143243924,"[11, 0, 243]",243,a,0.19320953963324428,colour,0.5
07,21,1,2,2,2,52,190.03207523096353,192.38390555232763,"[68, 0, 186]",186,a,1.8353183181025088,colour,0.5
07,21,1,2,2,3,53,194.39294629264623,195.5118728885427,"[24, 0, 230]",230,a,0.6030589248985052,colour,0.5
07,21,1,2,2,4,54,197.52072379458696,198.47189355734736,"[36, 0, 218]",218,a,0.4347778824158013,colour,0.5
07,21,1,2,2,5,55,200.48031320236623,201.39991028187796,"[20, 0, 234]",234,a,0.40337140252813697,colour,0.5
07,21,1,2,2,6,56,203.40876630786806,204.59990894282237,"[60, 0, 194]",194,a,0.6740264715626836,colour,0.5
07,21,1,2,2,7,57,206.60902923997492,207.51190439611673,"[99, 0, 155]",155,l,0.3863619714975357,colour,0.5
07,21,1,2,2,8,58,209.52095458842814,210.903964928817,"[66, 0, 188]",188,a,0.8670965894125402,colour,0.5
07,21,1,2,2,9,59,212.9127197363414,213.91193637624383,"[0, 0, 254]",254,a,0.48223320255056024,colour,0.5
07,21,1,2,2,10,60,215.9210889688693,216.8479257300496,"[92, 0, 162]",162,l,0.40984820388257504,colour,0.5
07,21,1,2,2,11,61,218.85733983665705,219.77603185735643,"[58, 0, 196]",196,a,0.39996423898264766,colour,0.5
07,21,1,2,2,12,62,221.7852132008411,222.79992926493287,"[28, 0, 226]",226,a,0.4976507071405649,colour,0.5
07,21,1,2,2,13,63,224.80904168542475,225.81590563757345,"[32, 0, 222]",222,a,0.490599284414202,colour,0.5
07,21,1,2,2,14,64,227.82447336846963,228.8078948049806,"[46, 0, 208]",208,a,0.46716307010501623,colour,0.5
07,21,1,2,2,15,65,230.816770917736,232.07187772495672,"[64, 0, 190]",190,a,0.7388141765259206,colour,0.5
07,21,1,2,2,16,66,234.08098896360025,234.9599233889021,"[93, 0, 161]",161,l,0.36203960375860333,colour,0.5
07,21,1,2,2,17,67,236.96886921208352,238.27990218438208,"[14, 0, 240]",240,a,0.794074347242713,colour,0.5
07,21,1,2,2,18,68,240.28902838891372,241.60787527030334,"[34, 0, 220]",220,a,0.8023537825793028,colour,0.5
07,21,1,2,2,19,69,243.61703652748838,244.83193951146677,"[7, 0, 247]",247,a,0.6986725805327296,colour,0.5
07,21,1,2,2,20,70,246.84097828250378,248.65596468281,"[72, 0, 182]",182,l,1.2983381263911724,colour,0.5
07,21,1,2,2,21,71,250.66469389060512,251.55194556107745,"[56, 0, 198]",198,a,0.37041041161864996,colour,0.5
07,21,1,2,2,22,72,253.56109972903505,254.62409661523998,"[88, 0, 166]",166,l,0.5464510121382773,colour,0.5
07,21,1,2,2,23,73,256.6324839643203,257.71991270780563,"[49, 0, 205]",205,a,0.5714015648700297,colour,0.5
07,21,1,2,2,24,74,259.7289231219329,260.67989438632503,"[37, 0, 217]",217,a,0.43439585203304887,colour,0.5
07,21,1,2,2,25,75,262.6891517415643,264.351922087837,"[69, 0, 185]",185,l,1.146413518115878,colour,0.5
07,21,1,2,2,26,76,266.3617505203001,267.3038889952004,"[51, 0, 203]",203,a,0.4258281206712127,colour,0.5
07,21,1,2,2,27,77,269.31288759363815,270.22399137960747,"[35, 0, 219]",219,a,0.39488637959584594,colour,0.5
07,21,1,2,2,28,78,272.23332553496584,275.27991754421964,"[71, 0, 183]",183,l,2.5299661844037473,colour,0.5
07,21,1,2,2,29,79,277.28865344729275,278.33592799212784,"[75, 0, 179]",179,l,0.5306455688551068,colour,0.5
07,21,1,2,2,30,80,280.34506522491574,281.28792719496414,"[50, 0, 204]",204,a,0.42471353569999337,colour,0.5
07,21,1,2,2,31,81,283.29703095089644,284.15194272529334,"[19, 0, 235]",235,a,0.337972448207438,colour,0.5
07,21,1,2,2,32,82,286.1602753298357,287.5839215423912,"[12, 0, 242]",242,a,0.9070365354418755,colour,0.5
07,21,1,2,2,33,83,289.59297449188307,291.22391339764,"[26, 0, 228]",228,a,1.1134552834555507,colour,0.5
07,21,1,2,2,34,84,293.23329757200554,294.3279726919718,"[89, 0, 165]",165,l,0.5778760029934347,colour,0.5
07,21,1,2,2,35,85,296.33705478627235,298.8319363608025,"[61, 0, 193]",193,a,1.9778158236294985,colour,0.5
07,21,1,2,2,36,86,300.8405718333088,301.8559448332526,"[3, 0, 251]",251,a,0.49706269474700093,colour,0.5
07,21,1,2,2,37,87,303.8646464715712,304.8878936395049,"[6, 0, 248]",248,a,0.5061369119212031,colour,0.5
07,21,1,2,2,38,88,306.8970525334589,308.0719478293322,"[47, 0, 207]",207,a,0.6586818280629814,colour,0.5
07,21,1,2,2,39,89,310.08105591731146,311.3199539827183,"[10, 0, 244]",244,a,0.7225975575856864,colour,0.5
07,21,1,2,2,40,90,313.3289868463762,314.247940775007,"[94, 0, 160]",160,l,0.40228635631501675,colour,0.5
07,21,1,2,2,41,91,316.25709730573,318.19190118229017,"[70, 0, 184]",184,l,1.4164337064139545,colour,0.5
07,21,1,2,2,42,92,320.2009368026629,321.279888399411,"[87, 0, 167]",167,l,0.5629677413962781,colour,0.5
07,21,1,2,2,43,93,323.28898427821696,324.1919559268281,"[25, 0, 229]",229,a,0.3866652329452336,colour,0.5
07,21,1,2,2,44,94,326.2007501195185,327.19192835781723,"[81, 0, 173]",173,l,0.47455162601545453,colour,0.5
07,21,1,2,2,45,95,329.2005594978109,330.2959116399288,"[1, 0, 253]",253,a,0.5784313264302909,colour,0.5
07,21,1,2,2,46,96,332.3058117525652,334.5599567871541,"[67, 0, 187]",187,l,1.7378398007713258,colour,0.5
07,21,1,2,2,47,97,336.568975077942,337.68793357536197,"[96, 0, 158]",158,l,0.6019018045626581,colour,0.5
07,21,1,2,2,48,98,339.69690106017515,340.5999191827141,"[5, 0, 249]",249,a,0.3859756081365049,colour,0.5
07,21,1,2,2,49,99,342.6087098303251,343.7119219615124,"[97, 0, 157]",157,l,0.5853358441963792,colour,0.5
07,21,1,2,2,50,100,345.720547194127,347.031925175339,"[33, 0, 221]",221,a,0.7946111592464149,colour,0.5
07,21,1,2,3,1,101,366.0086417738348,366.59194734087214,"[43, 0, 211]",211,a,0.06587038794532418,colour,0.5
07,21,1,2,3,2,102,368.6005190103315,369.2239421484992,"[76, 0, 178]",178,l,0.10647357162088156,colour,0.5
07,21,1,2,3,3,103,371.2333558611572,371.95993874873966,"[89, 0, 165]",165,l,0.21036823792383075,colour,0.5
07,21,1,2,3,4,104,373.96871836902574,374.67993180127814,"[20, 0, 234]",234,a,0.195019262842834,colour,0.5
07,21,1,2,3,5,105,376.68893118808046,377.7759708110243,"[83, 0, 171]",171,l,0.5708619952201843,colour,0.5
07,21,1,2,3,6,106,379.7846543327905,380.5999392690137,"[86, 0, 168]",168,l,0.2984208343550563,colour,0.5
07,21,1,2,3,7,107,382.60872794734314,385.13594311568886,"[74, 0, 180]",180,a,2.010557835921645,colour,0.5
07,21,1,2,3,8,108,387.1449657394551,387.99996888590977,"[49, 0, 205]",205,a,0.33816503873094916,colour,0.5
07,21,1,2,3,9,109,390.0089489738457,391.20791142527014,"[63, 0, 191]",191,a,0.6813579187728465,colour,0.5
07,21,1,2,3,10,110,393.2169029349461,394.06400198163465,"[92, 0, 162]",162,l,0.3301778370514512,colour,0.5
07,21,1,2,3,11,111,396.0736917806789,397.0399269494228,"[65, 0, 189]",189,a,0.4479863038286567,colour,0.5
07,21,1,2,3,12,112,399.0482343477197,399.8799383393489,"[19, 0, 235]",235,a,0.31505965581163764,colour,0.5
07,21,1,2,3,13,113,401.8893776522018,402.9919293029234,"[17, 0, 237]",237,a,0.5856292597018182,colour,0.5
07,21,1,2,3,14,114,405.0009511387907,405.91191077651456,"[48, 0, 206]",206,a,0.3940140102058649,colour,0.5
07,21,1,2,3,15,115,407.920979085844,408.84795172372833,"[80, 0, 174]",174,l,0.4107575947418809,colour,0.5
07,21,1,2,3,16,116,410.8569069993682,411.8159631388262,"[9, 0, 245]",245,a,0.4413661421276629,colour,0.5
07,21,1,2,3,17,117,413.82502199616283,415.0799425141886,"[53, 0, 201]",201,a,0.7386991730891168,colour,0.5
07,21,1,2,3,18,118,417.0890045221895,418.23205419955775,"[15, 0, 239]",239,a,0.6254463265649974,colour,0.5
07,21,1,2,3,19,119,420.24191532144323,421.15996616054326,"[21, 0, 233]",233,a,0.40180586371570826,colour,0.5
07,21,1,2,3,20,120,423.1695122057572,424.32792858127505,"[58, 0, 196]",196,a,0.6421678555198014,colour,0.5
07,21,1,2,3,21,121,426.3371032294817,427.40793135389686,"[33, 0, 221]",221,a,0.5545213152654469,colour,0.5
07,21,1,2,3,22,122,429.41695712832734,430.3839413924143,"[73, 0, 181]",181,l,0.44999885791912675,colour,0.5
07,21,1,2,3,23,123,432.3929592897184,433.3039701273665,"[77, 0, 177]",177,l,0.39541452703997493,colour,0.5
07,21,1,2,3,24,124,435.3133330340497,436.1199726513587,"[96, 0, 158]",158,l,0.2897700020112097,colour,0.5
07,21,1,2,3,25,125,438.12912288075313,439.0719840633683,"[41, 0, 213]",213,a,0.4265917888842523,colour,0.5
07,21,1,2,3,26,126,441.0810362249613,443.12792322505265,"[42, 0, 212]",212,a,1.5304281660355628,colour,0.5
07,21,1,2,3,27,127,445.13759411918,446.30392483528703,"[25, 0, 229]",229,a,0.6498982696793973,colour,0.5
07,21,1,2,3,28,128,448.3135378337465,449.1519903806038,"[27, 0, 227]",227,a,0.32203112822026014,colour,0.5
07,21,1,2,3,29,129,451.1611540010199,452.1039210543968,"[67, 0, 187]",187,l,0.42492385022342205,colour,0.5
07,21,1,2,3,30,130,454.1132965637371,455.15195375308394,"[71, 0, 183]",183,l,0.5207281270995736,colour,0.5
07,21,1,2,3,31,131,457.161064597778,458.048088231124,"[24, 0, 230]",230,a,0.3692816481925547,colour,0.5
07,21,1,2,3,32,132,460.0575448726304,460.96796415373683,"[84, 0, 170]",170,l,0.39198333863168955,colour,0.5
07,21,1,2,3,33,133,462.9766630353406,463.77596214646474,"[95, 0, 159]",159,l,0.28302420349791646,colour,0.5
07,21,1,2,3,34,134,465.78500446211547,466.7199883260764,"[88, 0, 166]",166,l,0.4178673066198826,colour,0.5
07,21,1,2,3,35,135,468.7297730422579,469.8560673194006,"[8, 0, 246]",246,a,0.6098271724767983,colour,0.5
07,21,1,2,3,36,136,471.86515335179865,473.2802621596493,"[87, 0, 167]",167,l,0.8987062936648726,colour,0.5
07,21,1,2,3,37,137,475.28953566309065,476.2079748348333,"[5, 0, 249]",249,a,0.40201932843774557,colour,0.5
07,21,1,2,3,38,138,478.2167564239353,479.03997224150226,"[26, 0, 228]",228,a,0.3062185957096517,colour,0.5
07,21,1,2,3,39,139,481.04828554810956,487.83199346857145,"[66, 0, 188]",188,a,6.266906834207475,colour,0.5
07,21,1,2,3,40,140,489.8407372487709,491.1679187035188,"[78, 0, 176]",176,l,0.8074540910311043,colour,0.5
07,21,1,2,3,41,141,493.176863739267,494.09598268941045,"[32, 0, 222]",222,a,0.402142602019012,colour,0.5
07,21,1,2,3,42,142,496.10503366962075,496.7359469756484,"[38, 0, 216]",216,a,0.11457301955670118,colour,0.5
07,21,1,2,3,43,143,498.74494714988396,500.49593314388767,"[70, 0, 184]",184,l,1.23398050153628,colour,0.5
07,21,1,2,3,44,144,502.50530353328213,503.4639622820541,"[62, 0, 192]",192,a,0.4419427332468331,colour,0.5
07,21,1,2,3,45,145,505.47317670844495,506.30395713075995,"[22, 0, 232]",232,a,0.31382061587646604,colour,0.5
07,21,1,2,3,46,146,508.3123736246489,509.2159352549352,"[85, 0, 169]",169,l,0.38686451967805624,colour,0.5
07,21,1,2,3,47,147,511.22496063495055,512.231973066926,"[34, 0, 220]",220,a,0.4899636162444949,colour,0.5
07,21,1,2,3,48,148,514.2416467182338,515.2000171714462,"[0, 0, 254]",254,a,0.44221763778477907,colour,0.5
07,21,1,2,3,49,149,517.2089247917756,518.1680274051614,"[39, 0, 215]",215,a,0.44282179791480303,colour,0.5
07,21,1,2,3,50,150,520.1773288715631,521.191972468514,"[47, 0, 207]",207,a,0.4969760486856103,colour,0.5
07,21,1,2,4,1,151,532.8641262007877,533.8799505485222,"[45, 0, 209]",209,a,0.49850299023091793,colour,0.5
07,21,1,2,4,2,152,535.888978685718,536.6079630982131,"[74, 0, 180]",180,l,0.20239127706736326,colour,0.5
07,21,1,2,4,3,153,538.6171416845173,539.4239518372342,"[41, 0, 213]",213,a,0.29056320805102587,colour,0.5
07,21,1,2,4,4,154,541.4337337962352,542.7679375293665,"[61, 0, 193]",193,a,0.817862659227103,colour,0.5
07,21,1,2,4,5,155,544.7774233161472,545.8319887421094,"[58, 0, 196]",196,a,0.5375236994586885,colour,0.5
07,21,1,2,4,6,156,547.8410058515146,548.7359776957892,"[81, 0, 173]",173,l,0.37608888652175665,colour,0.5
07,21,1,2,4,7,157,550.7449648729526,551.62409661524,"[11, 0, 243]",243,a,0.3629056718200445,colour,0.5
07,21,1,2,4,8,158,553.6326962476596,554.7679871544242,"[93, 0, 161]",161,l,0.6192361591383815,colour,0.5
07,21,1,2,4,9,159,556.7770590083674,558.8799635455944,"[67, 0, 187]",187,a,1.5863366080448031,colour,0.5
07,21,1,2,4,10,160,560.8891314980574,563.687998953741,"[70, 0, 184]",184,a,2.282522049266845,colour,0.5
07,21,1,2,4,11,161,565.697112949565,566.5599808115512,"[88, 0, 166]",166,l,0.34582731733098626,colour,0.5
07,21,1,2,4,12,162,568.5687289242633,569.5119910421781,"[47, 0, 207]",207,a,0.42697933316230774,colour,0.5
07,21,1,2,4,13,163,571.5211645085365,572.2560488870367,"[30, 0, 224]",224,a,0.21858426416292787,colour,0.5
07,21,1,2,4,14,164,574.2650522119366,575.7519753356464,"[14, 0, 240]",240,a,0.9703575572930276,colour,0.5
07,21,1,2,4,15,165,577.7609101315029,578.903985014651,"[36, 0, 218]",218,a,0.6259090951643884,colour,0.5
07,21,1,2,4,16,166,580.9131332752295,581.9599517458118,"[21, 0, 233]",233,a,0.5298712672665715,colour,0.5
07,21,1,2,4,17,167,583.9686876493506,584.9279651301913,"[35, 0, 219]",219,a,0.4429927272722125,colour,0.5
07,21,1,2,4,18,168,586.9378404305317,588.6480046566576,"[34, 0, 220]",220,a,1.1939314594492316,colour,0.5
07,21,1,2,4,19,169,590.6570816310123,591.6719957999885,"[76, 0, 178]",178,l,0.49781966721639037,colour,0.5
07,21,1,2,4,20,170,593.6816217955202,594.6479668472894,"[23, 0, 231]",231,a,0.4496987466700375,colour,0.5
07,21,1,2,4,21,171,596.6570891137235,597.656030849088,"[94, 0, 160]",160,l,0.48148922715336084,colour,0.5
07,21,1,2,4,22,172,599.6657328573056,600.5439729318023,"[42, 0, 212]",212,a,0.36043664952740073,colour,0.5
07,21,1,2,4,23,173,602.553878558334,603.591989482753,"[24, 0, 230]",230,a,0.5208301334641874,colour,0.5
07,21,1,2,4,24,174,605.6019049552269,606.759986561723,"[86, 0, 168]",168,l,0.6407464644871652,colour,0.5
07,21,1,2,4,25,175,608.7690627481788,609.7280078232288,"[98, 0, 156]",156,l,0.44264181004837155,colour,0.5
07,21,1,2,4,26,176,611.737998127006,612.7120093954727,"[96, 0, 158]",158,l,0.45703807147219777,colour,0.5
07,21,1,2,4,27,177,614.721176166553,615.5600028671324,"[83, 0, 171]",171,l,0.3208141434006393,colour,0.5
07,21,1,2,4,28,178,617.5695709674619,618.7439936478622,"[79, 0, 175]",175,l,0.6582233910448849,colour,0.5
07,21,1,2,4,29,179,620.7537673362531,621.7280101864599,"[18, 0, 236]",236,a,0.4570148345082998,colour,0.5
07,21,1,2,4,30,180,623.7372383973561,624.5439997133799,"[97, 0, 157]",157,l,0.2894198726862669,colour,0.5
07,21,1,2,4,31,181,626.5537907304242,627.4560058005154,"[25, 0, 229]",229,a,0.3859787592664361,colour,0.5
07,21,1,2,4,32,182,629.4658881900832,630.5040514962748,"[90, 0, 164]",164,l,0.5220675985328853,colour,0.5
07,21,1,2,4,33,183,632.5140264397487,633.5839581703767,"[60, 0, 194]",194,a,0.5537013276480138,colour,0.5
07,21,1,2,4,34,184,635.5926286950707,636.5039857239462,"[33, 0, 221]",221,a,0.3935752655379474,colour,0.5
07,21,1,2,4,35,185,638.5130221317522,639.328090058174,"[50, 0, 204]",204,a,0.29866895731538534,colour,0.5
07,21,1,2,4,36,186,641.3372028726153,642.3119770213962,"[28, 0, 226]",226,a,0.45840629329904914,colour,0.5
07,21,1,2,4,37,187,644.3219192754477,645.2080173701979,"[87, 0, 167]",167,l,0.3689405773766339,colour,0.5
07,21,1,2,4,38,188,647.2161747133359,648.1760342991911,"[91, 0, 163]",163,l,0.4427056135609746,colour,0.5
07,21,1,2,4,39,189,650.1850699195638,651.1440146006644,"[55, 0, 199]",199,a,0.4415232869796455,colour,0.5
07,21,1,2,4,40,190,653.1530856671743,654.2400232842192,"[92, 0, 162]",162,l,0.570709970779717,colour,0.5
07,21,1,2,4,41,191,656.2485524183139,657.2080520284362,"[2, 0, 252]",252,a,0.44330110866576433,colour,0.5
07,21,1,2,4,42,192,659.2172640920617,660.1759783728048,"[32, 0, 222]",222,a,0.4417844065465033,colour,0.5
07,21,1,2,4,43,193,662.1849777596071,663.495970165357,"[65, 0, 189]",189,a,0.7941271224990487,colour,0.5
07,21,1,2,4,44,194,665.5051101548597,666.4480213560164,"[8, 0, 246]",246,a,0.4263105825521052,colour,0.5
07,21,1,2,4,45,195,668.4570601270534,669.0719860326499,"[39, 0, 215]",215,a,0.09863563813269138,colour,0.5
07,21,1,2,4,46,196,671.08100589877,672.5679648625664,"[72, 0, 182]",182,l,0.9699463816359639,colour,0.5
07,21,1,2,4,47,197,674.5768460952677,675.4240223355591,"[5, 0, 249]",249,a,0.3310108217410743,colour,0.5
07,21,1,2,4,48,198,677.4328594575636,678.5359593424946,"[46, 0, 208]",208,a,0.5858533587306738,colour,0.5
07,21,1,2,4,49,199,680.5449733012356,681.9920127983205,"[19, 0, 235]",235,a,0.9300694507546723,colour,0.5
07,21,1,2,4,50,200,684.0008956063539,685.0480086738244,"[9, 0, 245]",245,a,0.5300831566564739,colour,0.5
07,21,1,2,5,1,201,701.4083712804131,702.023990355432,"[1, 0, 253]",253,a,0.09875379176810384,colour,0.4
07,21,1,2,5,2,202,704.0330090401694,706.392002243083,"[57, 0, 197]",197,a,1.842964842915535,colour,0.4
07,21,1,2,5,3,203,708.4006877341308,709.4240034311078,"[50, 0, 204]",204,a,0.5064279641956091,colour,0.4
07,21,1,2,5,4,204,711.4339866451919,712.439992800355,"[4, 0, 250]",250,a,0.49004435492679477,colour,0.4
07,21,1,2,5,5,205,714.4486885312945,715.4240180035122,"[70, 0, 184]",184,l,0.45921092107892036,colour,0.4
07,21,1,2,5,6,206,717.4330110880546,718.2720000534318,"[19, 0, 235]",235,a,0.32288459269329906,colour,0.4
07,21,1,2,5,7,207,720.2805283996277,721.1359868329018,"[80, 0, 174]",174,l,0.3395789470523596,colour,0.4
07,21,1,2,5,8,208,723.1450122129172,724.4080684124492,"[60, 0, 194]",194,a,0.74655876820907,colour,0.4
07,21,1,2,5,9,209,726.4174187160097,727.4081070097163,"[33, 0, 221]",221,a,0.474394875112921,colour,0.4
07,21,1,2,5,10,210,729.41694688797,730.2880386537872,"[91, 0, 163]",163,l,0.3542926483787596,colour,0.4
07,21,1,2,5,11,211,732.2977430247702,733.3440168062225,"[65, 0, 189]",189,a,0.5292966458946466,colour,0.4
07,21,1,2,5,12,212,735.3532292633317,736.1519817160442,"[9, 0, 245]",245,a,0.2817575940862298,colour,0.4
07,21,1,2,5,13,213,738.1604809178971,739.1440382315777,"[62, 0, 192]",192,a,0.4672402646392584,colour,0.4
07,21,1,2,5,14,214,741.1527249040082,741.9760380014777,"[94, 0, 160]",160,l,0.3063462018035352,colour,0.4
07,21,1,2,5,15,215,743.9852941753343,744.8880236088298,"[49, 0, 205]",205,a,0.3866301807574928,colour,0.4
07,21,1,2,5,16,216,746.8970757704228,747.8240003590472,"[31, 0, 223]",223,a,0.41065204376354814,colour,0.4
07,21,1,2,5,17,217,749.8320320653729,750.7360021141358,"[34, 0, 220]",220,a,0.387766033411026,colour,0.4
07,21,1,2,5,18,218,752.7447758265771,753.6400312399492,"[55, 0, 199]",199,a,0.37859965628013015,colour,0.4
07,21,1,2,5,19,219,755.6486690752208,756.4160256818868,"[51, 0, 203]",203,a,0.25111596332862973,colour,0.4
07,21,1,2,5,20,220,758.4250664222054,759.2800010396168,"[84, 0, 170]",170,l,0.3381500728428364,colour,0.4
07,21,1,2,5,21,221,761.2890071212314,762.0562743246555,"[47, 0, 207]",207,a,0.2499056737869978,colour,0.4
07,21,1,2,5,22,222,764.0644994094037,764.8239664882421,"[14, 0, 240]",240,a,0.24318350618705153,colour,0.4
07,21,1,2,5,23,223,766.8321053208783,767.4880235297605,"[75, 0, 179]",179,l,0.1397460950538516,colour,0.4
07,21,1,2,5,24,224,769.4966948423535,770.4240183974616,"[38, 0, 216]",216,a,0.4111951580271125,colour,0.4
07,21,1,2,5,25,225,772.4335415991955,773.287989422679,"[98, 0, 156]",156,l,0.3375427615828812,colour,0.4
07,21,1,2,5,26,226,775.2967584091239,776.0799905634485,"[16, 0, 238]",238,a,0.26656812662258744,colour,0.4
07,21,1,2,5,27,227,778.0890360297635,779.6960015152581,"[40, 0, 214]",214,a,1.0907409898936749,colour,0.4
07,21,1,2,5,28,228,781.7052313019522,783.0960177420639,"[64, 0, 190]",190,a,0.8745249230414629,colour,0.4
07,21,1,2,5,29,229,785.1052833683789,786.3280266490765,"[56, 0, 198]",198,a,0.7059756712988019,colour,0.4
07,21,1,2,5,30,230,788.3370981095359,789.319985490758,"[81, 0, 173]",173,l,0.46654670126736164,colour,0.4
07,21,1,2,5,31,231,791.3290986986831,792.3439845107496,"[90, 0, 164]",164,l,0.4983935011550784,colour,0.4
07,21,1,2,5,32,232,794.3537444141693,795.3121247137897,"[22, 0, 232]",232,a,0.44152249954640865,colour,0.4
07,21,1,2,5,33,233,797.3208933062851,798.0560328969732,"[87, 0, 167]",167,l,0.21888634469360113,colour,0.4
07,21,1,2,5,34,234,800.0651063267142,800.7202683510259,"[5, 0, 249]",249,a,0.13888514740392566,colour,0.4
07,21,1,2,5,35,235,802.7291574603878,803.5919989347458,"[54, 0, 200]",200,a,0.3459820984862745,colour,0.4
07,21,1,2,5,36,236,805.6007994287647,806.3121101413853,"[77, 0, 177]",177,l,0.19437965657562017,colour,0.4
07,21,1,2,5,37,237,808.3211142537184,809.3040252658539,"[26, 0, 228]",228,a,0.46658529806882143,colour,0.4
07,21,1,2,5,38,238,811.3133330340497,812.2160384426825,"[88, 0, 166]",166,l,0.38621231028810143,colour,0.4
07,21,1,2,5,39,239,814.2248806841671,815.7359788771719,"[66, 0, 188]",188,a,0.992370804771781,colour,0.4
07,21,1,2,5,40,240,817.7449140665121,818.7920535220765,"[30, 0, 224]",224,a,0.530903538223356,colour,0.4
07,21,1,2,5,41,241,820.8008894622326,821.752034412697,"[46, 0, 208]",208,a,0.4341658456251025,colour,0.4
07,21,1,2,5,42,242,823.7611200511456,824.5120103405789,"[21, 0, 233]",233,a,0.23449643980711699,colour,0.4
07,21,1,2,5,43,243,826.5210727425292,827.4559955606237,"[83, 0, 171]",171,l,0.4178740023635328,colour,0.4
07,21,1,2,5,44,244,829.4650693838485,830.3600758863613,"[42, 0, 212]",212,a,0.3780900193378329,colour,0.4
07,21,1,2,5,45,245,832.3697944357991,833.3120215260424,"[99, 0, 155]",155,l,0.4249541759490967,colour,0.4
07,21,1,2,5,46,246,835.3211630908772,836.1281678033993,"[89, 0, 165]",165,l,0.29041551565751433,colour,0.4
07,21,1,2,5,47,247,838.1372774667107,839.1840211069211,"[96, 0, 158]",158,l,0.5304856677539647,colour,0.4
07,21,1,2,5,48,248,841.1931295888498,842.3040504720993,"[59, 0, 195]",195,a,0.5936081907711923,colour,0.4
07,21,1,2,5,49,249,844.3128592367284,845.2320356885903,"[92, 0, 162]",162,l,0.40276566706597805,colour,0.4
07,21,1,2,5,50,250,847.2410681582987,848.1040313313715,"[95, 0, 159]",159,l,0.34356860956177115,colour,0.4
07,21,1,2,6,1,251,861.6084609199315,862.2240335210226,"[89, 0, 165]",165,l,0.09817641321569681,colour,0.28
07,21,1,2,6,2,252,864.2321948027238,864.9440285428427,"[45, 0, 209]",209,a,0.19537136144936085,colour,0.28
07,21,1,2,6,3,253,866.952720335219,867.8480525482446,"[68, 0, 186]",186,a,0.37899547116830945,colour,0.28
07,21,1,2,6,4,254,869.8567612762563,870.6640365612693,"[94, 0, 160]",160,l,0.291050395462662,colour,0.28
07,21,1,2,6,5,255,872.6739488835447,873.5679987333715,"[62, 0, 192]",192,a,0.377169206738472,colour,0.28
07,21,1,2,6,6,256,875.5771087906323,876.4960359376855,"[38, 0, 216]",216,a,0.4018665160983801,colour,0.28
07,21,1,2,6,7,257,878.5054433485493,879.7840147265233,"[96, 0, 158]",158,l,0.7615615529939532,colour,0.28
07,21,1,2,6,8,258,881.7935765255243,882.6160389152355,"[88, 0, 166]",166,l,0.30552857741713524,colour,0.28
07,21,1,2,6,9,259,884.6251115570776,885.2800246705301,"[64, 0, 190]",190,a,0.13660989794880152,colour,0.28
07,21,1,2,6,10,260,887.2890953430906,888.0720356572419,"[16, 0, 238]",238,a,0.26633536349982023,colour,0.28
07,21,1,2,6,11,261,890.0807514744811,890.976052573882,"[78, 0, 176]",176,l,0.37777769938111305,colour,0.28
07,21,1,2,6,12,262,892.9856001939625,894.192052025348,"[74, 0, 180]",180,l,0.6896125418134034,colour,0.28
07,21,1,2,6,13,263,896.2009730362333,896.9280769824982,"[99, 0, 155]",155,l,0.21010121051222086,colour,0.28
07,21,1,2,6,14,264,898.9371192981489,899.7200017170981,"[34, 0, 220]",220,a,0.26639089547097683,colour,0.28
07,21,1,2,6,15,265,901.7287612510845,902.8480761791579,"[37, 0, 217]",217,a,0.6019498538225889,colour,0.28
07,21,1,2,6,16,266,904.857157879509,905.6161810937338,"[5, 0, 249]",249,a,0.24290190637111664,colour,0.28
07,21,1,2,6,17,267,907.6251631504856,908.7280302722938,"[76, 0, 178]",178,l,0.5860089273191988,colour,0.28
07,21,1,2,6,18,268,910.7375621390529,911.6240517166443,"[58, 0, 196]",196,a,0.37060497142374516,colour,0.28
07,21,1,2,6,19,269,913.6322858599015,914.6160731795244,"[30, 0, 224]",224,a,0.46748641785234213,colour,0.28
07,21,1,2,6,20,270,916.6253175386228,917.4480662541464,"[97, 0, 157]",157,l,0.3055301522836089,colour,0.28
07,21,1,2,6,21,271,919.4572282992303,920.3520441800356,"[90, 0, 164]",164,l,0.3775717173703015,colour,0.28
07,21,1,2,6,22,272,922.3618017202243,923.3600632832386,"[98, 0, 156]",156,l,0.4811107409186661,colour,0.28
07,21,1,2,6,23,273,925.3690524296835,927.7120700478554,"[67, 0, 187]",187,a,1.8255851962603629,colour,0.28
07,21,1,2,6,24,274,929.7213482772931,930.7920141373761,"[21, 0, 233]",233,a,0.5528061147779226,colour,0.28
07,21,1,2,6,25,275,932.8007724899799,933.9602116844617,"[59, 0, 195]",195,a,0.6432769265957177,colour,0.28
07,21,1,2,6,26,276,935.9692209167406,937.2880914290436,"[72, 0, 182]",182,a,0.8011954808607697,colour,0.28
07,21,1,2,6,27,277,939.2972058183514,940.8160482100211,"[57, 0, 197]",197,a,1.001784911379218,colour,0.28
07,21,1,2,6,28,278,942.8252779962495,943.7280558724888,"[52, 0, 202]",202,a,0.38592204498127103,colour,0.28
07,21,1,2,6,29,279,945.7377889943309,946.8800446777605,"[65, 0, 189]",189,a,0.6258913725614548,colour,0.28
07,21,1,2,6,30,280,948.8891185009852,949.6080761319026,"[55, 0, 199]",199,a,0.2020257874391973,colour,0.28
07,21,1,2,6,31,281,951.6174441585317,954.9280533520505,"[66, 0, 188]",188,l,2.7944882796145976,colour,0.28
07,21,1,2,6,32,282,956.9371181167662,957.8560184822418,"[14, 0, 240]",240,a,0.402752669993788,colour,0.28
07,21,1,2,6,33,283,959.8650812781416,965.496190325357,"[63, 0, 191]",191,l,5.1147975120693445,colour,0.28
07,21,1,2,6,34,284,967.5053295269608,968.5120879285969,"[95, 0, 159]",159,l,0.49040157347917557,colour,0.28
07,21,1,2,6,35,285,970.5211066133343,971.5040262900293,"[7, 0, 247]",247,a,0.4657491627149284,colour,0.28
07,21,1,2,6,36,286,973.5135739101097,974.5760643105023,"[56, 0, 198]",198,a,0.546246999874711,colour,0.28
07,21,1,2,6,37,287,976.5851125335321,977.9760537552647,"[69, 0, 185]",185,a,0.8747143629007041,colour,0.28
07,21,1,2,6,38,288,979.9851740524173,980.9920364292338,"[53, 0, 201]",201,a,0.4907276784069836,colour,0.28
07,21,1,2,6,39,289,982.999720369,983.7920806976035,"[12, 0, 242]",242,a,0.2762996731325984,colour,0.28
07,21,1,2,6,40,290,985.8015452162363,986.8560795285739,"[61, 0, 193]",193,a,0.537742284592241,colour,0.28
07,21,1,2,6,41,291,988.864774865564,989.7280617803335,"[86, 0, 168]",168,l,0.3463286836631596,colour,0.28
07,21,1,2,6,42,292,991.7374766743742,992.7600613925606,"[80, 0, 174]",174,l,0.5071455519646406,colour,0.28
07,21,1,2,6,43,293,994.768862280529,995.5840396964923,"[49, 0, 205]",205,a,0.29895370826125145,colour,0.28
07,21,1,2,6,44,294,997.5931725967675,998.5760237439536,"[54, 0, 200]",200,a,0.46638719318434596,colour,0.28
07,21,1,2,6,45,295,1000.5990641424432,1001.4720794530585,"[82, 0, 172]",172,l,0.35595979960635304,colour,0.28
07,21,1,2,6,46,296,1003.4811879345216,1006.6320912996307,"[71, 0, 183]",183,a,2.6345615033060312,colour,0.28
07,21,1,2,6,47,297,1008.6411462184042,1009.7041809139773,"[13, 0, 241]",241,a,0.5438000331632793,colour,0.28
07,21,1,2,6,48,298,1011.7132511925884,1012.704046218656,"[87, 0, 167]",167,l,0.4746469366364181,colour,0.28
07,21,1,2,6,49,299,1014.7128829462454,1015.8720346330665,"[79, 0, 175]",175,l,0.6429827236570418,colour,0.28
07,21,1,2,6,50,300,1017.8811379950494,1018.8640580652282,"[44, 0, 210]",210,a,0.46627652226015925,colour,0.28
07,21,1,2,7,1,301,1034.4004140109755,1034.9760616319254,"[88, 0, 166]",166,l,0.058081291150301695,colour,0.14
07,21,1,2,7,2,302,1036.9850826798938,1039.5120320022106,"[70, 0, 184]",184,l,2.010299866553396,colour,0.14
07,21,1,2,7,3,303,1041.5205469578505,1042.3520386661403,"[48, 0, 206]",206,a,0.314415717497468,colour,0.14
07,21,1,2,7,4,304,1044.361635517329,1045.5920717963018,"[72, 0, 182]",182,l,0.7138486574403942,colour,0.14
07,21,1,2,7,5,305,1047.6011909120716,1048.2160427747294,"[83, 0, 171]",171,l,0.09786251792684197,colour,0.14
07,21,1,2,7,6,306,1050.2255427394994,1051.0800803601742,"[93, 0, 161]",161,l,0.3367684599943459,colour,0.14
07,21,1,2,7,7,307,1053.089122675825,1053.8800379824825,"[51, 0, 203]",203,a,0.2739944909699261,colour,0.14
07,21,1,2,7,8,308,1055.8890940826386,1057.0480752340518,"[96, 0, 158]",158,l,0.6419134312309325,colour,0.14
07,21,1,2,7,9,309,1059.0569229894318,1060.2721119057387,"[67, 0, 187]",187,a,0.698001860640943,colour,0.14
07,21,1,2,7,10,310,1062.2812589844689,1063.4240888957866,"[59, 0, 195]",195,a,0.6266085663810372,colour,0.14
07,21,1,2,7,11,311,1065.4325636788271,1066.2721414444968,"[91, 0, 163]",163,l,0.32342849485576153,colour,0.14
07,21,1,2,7,12,312,1068.2812144798227,1069.112145351246,"[39, 0, 215]",215,a,0.31460752058774233,colour,0.14
07,21,1,2,7,13,313,1071.1211199252866,1071.8880440886132,"[84, 0, 170]",170,l,0.25058663403615355,colour,0.14
07,21,1,2,7,14,314,1073.8971545398235,1076.008216026239,"[71, 0, 183]",183,a,1.5947314403019845,colour,0.14
07,21,1,2,7,15,315,1078.0169038800523,1078.8240980328992,"[94, 0, 160]",160,l,0.29110947251319885,colour,0.14
07,21,1,2,7,16,316,1080.8325487915426,1081.520080643706,"[92, 0, 162]",162,l,0.17130381194874644,colour,0.14
07,21,1,2,7,17,317,1083.5290682148188,1084.192083532922,"[50, 0, 204]",204,a,0.14606338879093528,colour,0.14
07,21,1,2,7,18,318,1086.2005847040564,1087.800138397608,"[69, 0, 185]",185,a,1.0828975425101817,colour,0.14
07,21,1,2,7,19,319,1089.8096230025403,1090.9041126212105,"[78, 0, 176]",176,l,0.5766605939716101,colour,0.14
07,21,1,2,7,20,320,1092.913096647244,1093.8001001942903,"[46, 0, 208]",208,a,0.3704474326223135,colour,0.14
07,21,1,2,7,21,321,1095.8081504115835,1098.2881654719822,"[76, 0, 178]",178,l,1.961141555570066,colour,0.14
07,21,1,2,7,22,322,1100.295960476622,1101.3761003077962,"[57, 0, 197]",197,a,0.5648448127321899,colour,0.14
07,21,1,2,7,23,323,1103.38348650001,1105.920163036324,"[68, 0, 186]",186,a,2.0201668962836266,colour,0.14
07,21,1,2,7,24,324,1107.9279068410397,1108.6321074473672,"[53, 0, 201]",201,a,0.18806275678798556,colour,0.14
07,21,1,2,7,25,325,1110.6403514365666,1111.720188794192,"[1, 0, 253]",253,a,0.5625892556272447,colour,0.14
07,21,1,2,7,26,326,1113.7276226417162,1114.8880941071548,"[97, 0, 157]",157,l,0.6444994253106415,colour,0.14
07,21,1,2,7,27,327,1116.895862330217,1119.2800971381366,"[52, 0, 202]",202,a,1.8681883309036493,colour,0.14
07,21,1,2,7,28,328,1121.2892296444625,1122.144095338881,"[80, 0, 174]",174,l,0.3369575063697994,colour,0.14
07,21,1,2,7,29,329,1124.153739057947,1127.7440842324868,"[74, 0, 180]",180,l,3.0734385373070836,colour,0.14
07,21,1,2,7,30,330,1129.753265182022,1131.4720892990008,"[56, 0, 198]",198,a,1.2020545382983983,colour,0.14
07,21,1,2,7,31,331,1133.4811954176985,1134.5680928626098,"[75, 0, 179]",179,l,0.5703031276352704,colour,0.14
07,21,1,2,7,32,332,1136.5779886427335,1137.3680493030697,"[58, 0, 196]",196,a,0.2742024417966604,colour,0.14
07,21,1,2,7,33,333,1139.3773925174028,1140.0560880354606,"[79, 0, 175]",175,l,0.16176721965894103,colour,0.14
07,21,1,2,7,34,334,1142.0648310282268,1143.1280531943776,"[35, 0, 219]",219,a,0.5469996398314834,colour,0.14
07,21,1,2,7,35,335,1145.1370218605734,1145.9840905815363,"[98, 0, 156]",156,l,0.3307386743836105,colour,0.14
07,21,1,2,7,36,336,1147.9937465093099,1149.1040963158011,"[90, 0, 164]",164,l,0.5937964492477477,colour,0.14
07,21,1,2,7,37,337,1151.113271751441,1152.0960760312155,"[63, 0, 191]",191,a,0.46653212886303663,colour,0.14
07,21,1,2,7,38,338,1154.1056768205017,1154.8641037517227,"[26, 0, 228]",228,a,0.24124460155144334,colour,0.14
07,21,1,2,7,39,339,1156.8729633227922,1157.6960771339945,"[86, 0, 168]",168,l,0.30682511907070875,colour,0.14
07,21,1,2,7,40,340,1159.7057543294504,1160.7601047158241,"[62, 0, 192]",192,a,0.5375170041806996,colour,0.14
07,21,1,2,7,41,341,1162.76973701315,1163.6080631348304,"[95, 0, 159]",159,l,0.3212639153935015,colour,0.14
07,21,1,2,7,42,342,1165.6169715430588,1167.6640944569372,"[82, 0, 172]",172,l,1.5309771876782179,colour,0.14
07,21,1,2,7,43,343,1169.6733151846565,1170.9521717075258,"[54, 0, 200]",200,a,0.762586341239512,colour,0.14
07,21,1,2,7,44,344,1172.9612408047542,1174.7601035339758,"[81, 0, 173]",173,l,1.2826079078949988,colour,0.14
07,21,1,2,7,45,345,1176.7695570252836,1177.5120946238749,"[85, 0, 169]",169,l,0.22591649973765016,colour,0.14
07,21,1,2,7,46,346,1179.5211274870671,1180.464119426906,"[64, 0, 190]",190,a,0.426694976631552,colour,0.14
07,21,1,2,7,47,347,1182.4733121916652,1184.1921674222685,"[77, 0, 177]",177,l,1.201855645980686,colour,0.14
07,21,1,2,7,48,348,1186.200484273024,1187.4242141386494,"[66, 0, 188]",188,a,0.706556988414377,colour,0.14
07,21,1,2,7,49,349,1189.432696011383,1190.184087273199,"[43, 0, 211]",211,a,0.23495133267715573,colour,0.14
07,21,1,2,7,50,350,1192.1930216746405,1193.1281709545292,"[61, 0, 193]",193,a,0.4187983595766127,colour,0.14
07,21,1,2,8,1,351,1217.9923676536418,1218.792118506506,"[93, 0, 161]",161,l,0.2826508372090757,colour,0.06
07,21,1,2,8,2,352,1220.800910729915,1221.3600810063072,"[96, 0, 158]",158,l,0.04327700566500425,colour,0.06
07,21,1,2,8,3,353,1223.369302127976,1223.904127981048,"[98, 0, 156]",156,l,0.017413910944014788,colour,0.06
07,21,1,2,8,4,354,1225.9132018042728,1227.4721219884232,"[80, 0, 174]",174,l,1.0413306173868477,colour,0.06
07,21,1,2,8,5,355,1229.481179269962,1230.208193812985,"[66, 0, 188]",188,a,0.2102398443967104,colour,0.06
07,21,1,2,8,6,356,1232.2172822090797,1233.4161576204933,"[70, 0, 184]",184,a,0.6817123806104064,colour,0.06
07,21,1,2,8,7,357,1235.4248986435123,1236.672100563068,"[79, 0, 175]",175,l,0.7286935094743967,colour,0.06
07,21,1,2,8,8,358,1238.6816836297512,1239.984236698132,"[65, 0, 189]",189,a,0.7860792684368789,colour,0.06
07,21,1,2,8,9,359,1241.993189217057,1243.3841339834034,"[73, 0, 181]",181,a,0.8736001723445952,colour,0.06
07,21,1,2,8,10,360,1245.39321804652,1246.4081274894997,"[64, 0, 190]",190,a,0.4986187811009586,colour,0.06
07,21,1,2,8,11,361,1248.4171060021035,1249.4161442294717,"[50, 0, 204]",204,a,0.48272235970944166,colour,0.06
07,21,1,2,8,12,362,1251.4257028778084,1252.5521184592508,"[63, 0, 191]",191,a,0.6094360831193626,colour,0.06
07,21,1,2,8,13,363,1254.5611458090134,1255.5122151407413,"[99, 0, 155]",155,l,0.4347889102064073,colour,0.06
07,21,1,2,8,14,364,1257.5213362257928,1258.4722003638744,"[85, 0, 169]",169,l,0.4346542148850858,colour,0.06
07,21,1,2,8,15,365,1260.4812225932255,1261.3841119278222,"[5, 0, 249]",249,a,0.3862272761762142,colour,0.06
07,21,1,2,8,16,366,1263.393224741798,1264.1121225082316,"[52, 0, 202]",202,a,0.20160043379291892,colour,0.06
07,21,1,2,8,17,367,1266.1212849467993,1266.9121167580597,"[86, 0, 168]",168,l,0.27380505111068487,colour,0.06
07,21,1,2,8,18,368,1268.9211492273025,1269.6001082286239,"[57, 0, 197]",197,a,0.16283454280346632,colour,0.06
07,21,1,2,8,19,369,1271.6093218675815,1272.6401210366748,"[54, 0, 200]",200,a,0.5137428701855242,colour,0.06
07,21,1,2,8,20,370,1274.648903020192,1275.4081546650268,"[84, 0, 170]",170,l,0.24302399856969714,colour,0.06
07,21,1,2,8,21,371,1277.4167779283598,1278.3841347708367,"[82, 0, 172]",172,l,0.4499110300093889,colour,0.06
07,21,1,2,8,22,372,1280.393766674213,1281.4321808605455,"[78, 0, 176]",176,l,0.5216497275978327,colour,0.06
07,21,1,2,8,23,373,1283.440508345142,1284.488144046627,"[61, 0, 193]",193,a,0.5309555260464549,colour,0.06
07,21,1,2,8,24,374,1286.4968567132019,1287.3760995198973,"[81, 0, 173]",173,l,0.36300413263961673,colour,0.06
07,21,1,2,8,25,375,1289.3850043835118,1290.2960703596473,"[56, 0, 198]",198,a,0.39479815773665905,colour,0.06
07,21,1,2,8,26,376,1292.3058109646663,1293.544137953315,"[27, 0, 227]",227,a,0.7219792190007865,colour,0.06
07,21,1,2,8,27,377,1295.5536737581715,1296.544143860694,"[75, 0, 179]",179,l,0.4741203640587628,colour,0.06
07,21,1,2,8,28,378,1298.5536654875614,1299.608108821325,"[23, 0, 231]",231,a,0.5380829614587128,colour,0.06
07,21,1,2,8,29,379,1301.6169124660082,1303.9122057673521,"[67, 0, 187]",187,a,1.779028239659965,colour,0.06
07,21,1,2,8,30,380,1305.921266200021,1306.792150801979,"[92, 0, 162]",162,l,0.3538795034401119,colour,0.06
07,21,1,2,8,31,381,1308.8014459670521,1309.5201751668938,"[90, 0, 164]",164,l,0.2013657009229064,colour,0.06
07,21,1,2,8,32,382,1311.5291851870716,1312.3441515015438,"[51, 0, 203]",203,a,0.2980454987846315,colour,0.06
07,21,1,2,8,33,383,1314.3532863711007,1316.0641721230932,"[72, 0, 182]",182,a,1.1947396318428218,colour,0.06
07,21,1,2,8,34,384,1318.0732660326175,1319.1120976959355,"[69, 0, 185]",185,a,0.5218076598830521,colour,0.06
07,21,1,2,8,35,385,1321.1208410821855,1322.05613647867,"[83, 0, 171]",171,l,0.4190925625152886,colour,0.06
07,21,1,2,8,36,386,1324.0651803696528,1324.8881252207793,"[87, 0, 167]",167,l,0.30628712475299835,colour,0.06
07,21,1,2,8,37,387,1326.8972325213253,1327.496145032812,"[97, 0, 157]",157,l,0.08262066822499037,colour,0.06
07,21,1,2,8,38,388,1329.5052732070908,1330.1841219314374,"[60, 0, 194]",194,a,0.16220202576369047,colour,0.06
07,21,1,2,8,39,389,1332.1932170223445,1332.9521445319988,"[95, 0, 159]",159,l,0.2418373399414122,colour,0.06
07,21,1,2,8,40,390,1334.9612085092813,1336.1841349285096,"[71, 0, 183]",183,a,0.7071997453458607,colour,0.06
07,21,1,2,8,41,391,1338.1932103270665,1339.0802686186507,"[74, 0, 180]",180,l,0.3697546571493149,colour,0.06
07,21,1,2,8,42,392,1341.0893392912112,1342.2242158716545,"[77, 0, 177]",177,l,0.6175300166942179,colour,0.06
07,21,1,2,8,43,393,1344.2334373872727,1345.1440973081626,"[68, 0, 186]",186,a,0.3939159419387579,colour,0.06
07,21,1,2,8,44,394,1347.1526658269577,1347.824101577513,"[58, 0, 196]",196,a,0.15536839980632067,colour,0.06
07,21,1,2,8,45,395,1349.8329973826185,1350.72011081269,"[53, 0, 201]",201,a,0.37087514996528625,colour,0.06
07,21,1,2,8,46,396,1352.7288888571784,1353.864118324127,"[62, 0, 192]",192,a,0.6177044911310077,colour,0.06
07,21,1,2,8,47,397,1355.8732134150341,1356.6161184720695,"[94, 0, 160]",160,l,0.22636194014921784,colour,0.06
07,21,1,2,8,48,398,1358.6248126276769,1359.800147456117,"[76, 0, 178]",178,l,0.6588724497705698,colour,0.06
07,21,1,2,8,49,399,1361.8100625346415,1362.9921770324,"[89, 0, 165]",165,l,0.6652405494824052,colour,0.06
07,21,1,2,8,50,400,1365.0006596925668,1365.85610434087,"[59, 0, 195]",195,a,0.3390200790017843,colour,0.06
07,21,1,2,9,1,401,1374.6247338582762,1375.168145165313,"[64, 0, 190]",190,a,0.02581622637808323,colour,0.06
07,21,1,2,9,2,402,1377.1773245395161,1377.8003030251712,"[91, 0, 163]",163,l,0.10617582406848669,colour,0.06
07,21,1,2,9,3,403,1379.8094079624861,1380.464113125112,"[97, 0, 157]",157,l,0.13792101154103875,colour,0.06
07,21,1,2,9,4,404,1382.4731404744089,1383.1121292035095,"[53, 0, 201]",201,a,0.12277762405574322,colour,0.06
07,21,1,2,9,5,405,1385.121241230052,1385.9281514193863,"[82, 0, 172]",172,l,0.2897952077910304,colour,0.06
07,21,1,2,9,6,406,1387.9372315444052,1388.5521003426984,"[96, 0, 158]",158,l,0.09847928117960691,colour,0.06
07,21,1,2,9,7,407,1390.5608386090025,1391.2562308441848,"[71, 0, 183]",183,a,0.1791870384477079,colour,0.06
07,21,1,2,9,8,408,1393.2649214551784,1394.6642976813018,"[38, 0, 216]",216,a,0.8829587460495532,colour,0.06
07,21,1,2,9,9,409,1396.673652317375,1397.480182051193,"[62, 0, 192]",192,a,0.2903300509788096,colour,0.06
07,21,1,2,9,10,410,1399.4880251050927,1401.0321886586025,"[72, 0, 182]",182,l,1.027729531750083,colour,0.06
07,21,1,2,9,11,411,1403.0414444389753,1403.9361181412823,"[78, 0, 176]",176,l,0.37759495433419943,colour,0.06
07,21,1,2,9,12,412,1405.9451860566624,1406.8401712914929,"[86, 0, 168]",168,l,0.3777127144858241,colour,0.06
07,21,1,2,9,13,413,1408.84769690549,1409.5441430732608,"[67, 0, 187]",187,l,0.17949266312643886,colour,0.06
07,21,1,2,9,14,414,1411.552792724222,1412.4401416741312,"[98, 0, 156]",156,a,0.3711055498570204,colour,0.06
07,21,1,2,9,15,415,1414.4493860332295,1415.328135350719,"[80, 0, 174]",174,l,0.36165048368275166,colour,0.06
07,21,1,2,9,16,416,1417.3372343801893,1418.2241233177483,"[63, 0, 191]",191,a,0.37068177154287696,colour,0.06
07,21,1,2,9,17,417,1420.2331577567384,1421.1761091300286,"[94, 0, 160]",160,l,0.4261880964040756,colour,0.06
07,21,1,2,9,18,418,1423.185000996571,1425.4001591927372,"[76, 0, 178]",178,l,1.6982023282907903,colour,0.06
07,21,1,2,9,19,419,1427.409189298749,1428.3681725771166,"[84, 0, 170]",170,l,0.4417209979146719,colour,0.06
07,21,1,2,9,20,420,1430.3780648126267,1431.2241508872248,"[85, 0, 169]",169,l,0.3297965941019356,colour,0.06
07,21,1,2,9,21,421,1433.2334117875434,1434.0481291911565,"[50, 0, 204]",204,a,0.2984027173370123,colour,0.06
07,21,1,2,9,22,422,1436.0569667066447,1436.8641596776433,"[54, 0, 200]",200,a,0.290185509249568,colour,0.06
07,21,1,2,9,23,423,1438.8731641843915,1439.6561178890988,"[59, 0, 195]",195,a,0.2662270553410053,colour,0.06
07,21,1,2,9,24,424,1441.6651869863272,1442.4641032791696,"[90, 0, 164]",164,l,0.2826472925953567,colour,0.06
07,21,1,2,9,25,425,1444.4731861609034,1445.2561946101487,"[81, 0, 173]",173,l,0.2653775289654732,colour,0.06
07,21,1,2,9,26,426,1447.2661829446442,1448.2081563980319,"[87, 0, 167]",167,l,0.4251518868841231,colour,0.06
07,21,1,2,9,27,427,1450.2167312181555,1452.0161536028609,"[69, 0, 185]",185,a,1.2833195878192782,colour,0.06
07,21,1,2,9,28,428,1454.0252455435693,1455.4881204161793,"[75, 0, 179]",179,l,0.9449249370954931,colour,0.06
07,21,1,2,9,29,429,1457.4968122085556,1458.2721146629192,"[88, 0, 166]",166,l,0.2582945986650884,colour,0.06
07,21,1,2,9,30,430,1460.2812144798227,1461.4161304449663,"[51, 0, 203]",203,a,0.6186843803152442,colour,0.06
07,21,1,2,9,31,431,1463.4251664588228,1464.496110768523,"[56, 0, 198]",198,a,0.5528332907706499,colour,0.06
07,21,1,2,9,32,432,1466.5055422042497,1468.7921571037732,"[30, 0, 224]",224,a,1.7697984534315765,colour,0.06
07,21,1,2,9,33,433,1470.8018902256154,1473.088290872518,"[65, 0, 189]",189,a,1.7696369760669768,colour,0.06
07,21,1,2,9,34,434,1475.0973650896922,1476.0641599139199,"[70, 0, 184]",184,l,0.4503513500094414,colour,0.06
07,21,1,2,9,35,435,1478.0729332328774,1478.9121435396373,"[52, 0, 202]",202,a,0.3222091468051076,colour,0.06
07,21,1,2,9,36,436,1480.9211488338187,1481.8883052086458,"[93, 0, 161]",161,l,0.4499838915653527,colour,0.06
07,21,1,2,9,37,437,1483.8975783181377,1484.632178733591,"[92, 0, 162]",162,l,0.2182707628235221,colour,0.06
07,21,1,2,9,38,438,1486.64219581848,1487.4961765408516,"[66, 0, 188]",188,a,0.33571649715304375,colour,0.06
07,21,1,2,9,39,439,1489.5053819087334,1491.7921925499104,"[73, 0, 181]",181,a,1.7706294688396156,colour,0.06
07,21,1,2,9,40,440,1493.8018949516118,1494.7201395630836,"[79, 0, 175]",175,l,0.40103707555681467,colour,0.06
07,21,1,2,9,41,441,1496.7292330791242,1497.624134818092,"[36, 0, 218]",218,a,0.37800297886133194,colour,0.06
07,21,1,2,9,42,442,1499.6331483828835,1500.3441617414355,"[99, 0, 155]",155,l,0.1947672013193369,colour,0.06
07,21,1,2,9,43,443,1502.3532379278913,1503.2802050518803,"[95, 0, 159]",159,l,0.4093035142868757,colour,0.06
07,21,1,2,9,44,444,1505.2888629739173,1507.3601436279714,"[68, 0, 186]",186,a,1.5543318754062057,colour,0.06
07,21,1,2,9,45,445,1509.3704844545573,1510.2641349444166,"[61, 0, 193]",193,a,0.3766591758467257,colour,0.06
07,21,1,2,9,46,446,1512.274105555378,1514.1761512714438,"[74, 0, 180]",180,l,1.3858424881473184,colour,0.06
07,21,1,2,9,47,447,1516.185269205831,1517.3521733614616,"[89, 0, 165]",165,l,0.6511475495062768,colour,0.06
07,21,1,2,9,48,448,1519.3612255235203,1520.192167028319,"[60, 0, 194]",194,a,0.3147197663784027,colour,0.06
07,21,1,2,9,49,449,1522.2012128885835,1522.8881457010284,"[55, 0, 199]",199,a,0.1705874060280621,colour,0.06
07,21,1,2,9,50,450,1524.8972147982568,1525.8081689220853,"[77, 0, 177]",177,l,0.3946520406752825,colour,0.06
07,21,1,2,10,1,451,1534.5764203472063,1535.2564510041848,"[29, 0, 225]",225,a,0.1625080443918705,colour,0.06
07,21,1,2,10,2,452,1537.2655961136334,1537.8561500268988,"[92, 0, 162]",162,l,0.07414391590282321,colour,0.06
07,21,1,2,10,3,453,1539.865224244073,1540.680152749177,"[78, 0, 176]",176,l,0.2978757508099079,colour,0.06
07,21,1,2,10,4,454,1542.6891930955462,1543.3202178599313,"[50, 0, 204]",204,a,0.1147018070332706,colour,0.06
07,21,1,2,10,5,455,1545.3297835970297,1546.344180252403,"[77, 0, 177]",177,l,0.49785708263516426,colour,0.06
07,21,1,2,10,6,456,1548.353144586552,1549.2001668331213,"[76, 0, 178]",178,l,0.3307575788348913,colour,0.06
07,21,1,2,10,7,457,1551.2088649272919,1553.3681662753224,"[73, 0, 181]",181,l,1.6410083724185824,colour,0.06
07,21,1,2,10,8,458,1555.3772152867168,1558.816143520642,"[88, 0, 166]",166,a,2.922514692414552,colour,0.06
07,21,1,2,10,9,459,1560.8252744516358,1561.9122187639587,"[67, 0, 187]",187,l,0.5685686287470162,colour,0.06
07,21,1,2,10,10,460,1563.9204367594793,1564.8161541544832,"[66, 0, 188]",188,a,0.37893442530184984,colour,0.06
07,21,1,2,10,11,461,1566.825203165412,1568.1521758823656,"[85, 0, 169]",169,l,0.8091397532261908,colour,0.06
07,21,1,2,10,12,462,1570.1613588007167,1571.90420596255,"[83, 0, 171]",171,l,1.225679798051715,colour,0.06
07,21,1,2,10,13,463,1573.9133128691465,1575.880232936237,"[54, 0, 200]",200,a,1.449902759399265,colour,0.06
07,21,1,2,10,14,464,1577.890144076664,1578.560175371822,"[89, 0, 165]",165,l,0.1528922887519002,colour,0.06
07,21,1,2,10,15,465,1580.5695977490395,1583.6081501748413,"[70, 0, 184]",184,l,2.5222456166520715,colour,0.06
07,21,1,2,10,16,466,1585.6170274689794,1586.320140272379,"[98, 0, 156]",156,l,0.18698558770120144,colour,0.06
07,21,1,2,10,17,467,1588.328685159795,1589.6961945001967,"[84, 0, 170]",170,l,0.8503218907862902,colour,0.06
07,21,1,2,10,18,468,1591.7054026247934,1592.4161989740096,"[93, 0, 161]",161,l,0.19374044425785542,colour,0.06
07,21,1,2,10,19,469,1594.4251621267758,1596.088136878796,"[65, 0, 189]",189,a,1.1457108962349594,colour,0.06
07,21,1,2,10,20,470,1598.097175649833,1600.6321960627101,"[91, 0, 163]",163,l,2.018773468211293,colour,0.06
07,21,1,2,10,21,471,1602.6420914493501,1604.6563116614707,"[4, 0, 250]",250,a,1.4955089716240764,colour,0.06
07,21,1,2,10,22,472,1606.6654449556954,1608.0641878773458,"[55, 0, 199]",199,a,0.881913872435689,colour,0.06
07,21,1,2,10,23,473,1610.0732963588089,1611.1761792344041,"[80, 0, 174]",174,l,0.5863425154238939,colour,0.06
07,21,1,2,10,24,474,1613.1854696734808,1614.4881586190313,"[58, 0, 196]",196,a,0.7864045854657888,colour,0.06
07,21,1,2,10,25,475,1616.497244651895,1617.0802237205207,"[96, 0, 158]",158,l,0.06755171809345484,colour,0.06
07,21,1,2,10,26,476,1619.0889982203953,1620.0241656168364,"[60, 0, 194]",194,a,0.41834031604230404,colour,0.06
07,21,1,2,10,27,477,1622.033651797101,1622.5763025870547,"[90, 0, 164]",164,l,0.025574798695743084,colour,0.06
07,21,1,2,10,28,478,1624.5855457643047,1626.2722052475438,"[64, 0, 190]",190,a,1.170371578540653,colour,0.06
07,21,1,2,10,29,479,1628.281215661671,1631.2002133070491,"[68, 0, 186]",186,a,2.401841309852898,colour,0.06
07,21,1,2,10,30,480,1633.2092201765627,1633.8961541703902,"[79, 0, 175]",175,l,0.16873278422281146,colour,0.06
07,21,1,2,10,31,481,1635.9044718085788,1636.6321877921,"[86, 0, 168]",168,l,0.21066244132816792,colour,0.06
07,21,1,2,10,32,482,1638.641142279841,1639.3921936526895,"[56, 0, 198]",198,a,0.2346929693594575,colour,0.06
07,21,1,2,10,33,483,1641.4010870940983,1642.1201979313046,"[53, 0, 201]",201,a,0.20283474773168564,colour,0.06
07,21,1,2,10,34,484,1644.1295025483705,1645.2721887058578,"[61, 0, 193]",193,l,0.6257334402762353,colour,0.06
07,21,1,2,10,35,485,1647.2812971877865,1648.4961800854653,"[51, 0, 203]",203,a,0.6971846297383308,colour,0.06
07,21,1,2,10,36,486,1650.5059703150764,1651.024206576869,"[57, 0, 197]",197,a,0.0016328864730894566,colour,0.06
07,21,1,2,10,37,487,1653.0404558847658,1653.9361890335567,"[59, 0, 195]",195,a,0.37863588985055685,colour,0.06
07,21,1,2,10,38,488,1655.9452313492075,1656.5842003854923,"[82, 0, 172]",172,l,0.12213132251054049,colour,0.06
07,21,1,2,10,39,489,1658.593245852273,1659.2561977612786,"[52, 0, 202]",202,a,0.1452989331446588,colour,0.06
07,21,1,2,10,40,490,1661.26497147372,1661.8481868500821,"[87, 0, 167]",167,l,0.0657829544506967,colour,0.06
07,21,1,2,10,41,491,1663.857302814722,1664.7521856497042,"[62, 0, 192]",192,a,0.3781999023631215,colour,0.06
07,21,1,2,10,42,492,1666.7609329745173,1667.3442113660276,"[81, 0, 173]",173,l,0.06703696073964238,colour,0.06
07,21,1,2,10,43,493,1669.3532115402631,1670.128262326587,"[32, 0, 222]",222,a,0.258078770712018,colour,0.06
07,21,1,2,10,44,494,1672.137737085577,1672.9441805672832,"[75, 0, 179]",179,l,0.2895002169534564,colour,0.06
07,21,1,2,10,45,495,1674.9533733320422,1675.5601682825945,"[97, 0, 157]",157,l,0.09058227017521858,colour,0.06
07,21,1,2,10,46,496,1677.568658031989,1678.9522063657641,"[72, 0, 182]",182,l,0.8659902750514448,colour,0.06
07,21,1,2,10,47,497,1680.9612762508914,1682.4482395467348,"[74, 0, 180]",180,a,0.9706056802533567,colour,0.06
07,21,1,2,10,48,498,1684.4573342436925,1685.360165683087,"[71, 0, 183]",183,a,0.3864616146311164,colour,0.06
07,21,1,2,10,49,499,1687.3690358879976,1688.1361979343928,"[94, 0, 160]",160,l,0.2509883572347462,colour,0.06
07,21,1,2,10,50,500,1690.145281997975,1694.7602118421346,"[69, 0, 185]",185,a,4.098193348851055,colour,0.06
07,21,1,2,11,1,501,1730.5692007518373,1732.0321918092668,"[66, 0, 188]",188,a,0.945194327738136,colour,0.06
07,21,1,2,11,2,502,1734.0408914787695,1734.5683614658192,"[94, 0, 160]",160,l,0.01037666667252779,colour,0.06
07,21,1,2,11,3,503,1736.577243879903,1737.8562319469638,"[71, 0, 183]",183,a,0.7626501438207924,colour,0.06
07,21,1,2,11,4,504,1739.8658079244196,1741.1602430343628,"[19, 0, 235]",235,a,0.777487906627357,colour,0.06
07,21,1,2,11,5,505,1743.1692325747572,1743.8642096961848,"[52, 0, 202]",202,a,0.17859941953793168,colour,0.06
07,21,1,2,11,6,506,1745.8733512610197,1746.6242064982653,"[55, 0, 199]",199,a,0.23391945520415902,colour,0.06
07,21,1,2,11,7,507,1748.6332889860496,1749.3281971844845,"[86, 0, 168]",168,l,0.17843124736100435,colour,0.06
07,21,1,2,11,8,508,1751.3372725830413,1752.0803678678349,"[97, 0, 157]",157,l,0.22688575508072972,colour,0.06
07,21,1,2,11,9,509,1754.0894440542907,1755.2801648797467,"[57, 0, 197]",197,a,0.6737188771367073,colour,0.06
07,21,1,2,11,10,510,1757.288865730632,1758.2723041027784,"[88, 0, 166]",166,l,0.46666091633960605,colour,0.06
07,21,1,2,11,11,511,1760.2805268242955,1761.5442253872752,"[64, 0, 190]",190,a,0.7474953350611031,colour,0.06
07,21,1,2,11,12,512,1763.5533543489873,1764.8081854637712,"[51, 0, 203]",203,a,0.7385443914681673,colour,0.06
07,21,1,2,11,13,513,1766.8169150655158,1767.4321784973145,"[80, 0, 174]",174,l,0.0994087578728795,colour,0.06
07,21,1,2,11,14,514,1769.4408454773948,1770.0961744925007,"[99, 0, 155]",155,l,0.13842828571796417,colour,0.06
07,21,1,2,11,15,515,1772.1055941130035,1772.992535432335,"[11, 0, 243]",243,a,0.3699476420879364,colour,0.06
07,21,1,2,11,16,516,1775.0013343510218,1776.0402030353434,"[59, 0, 195]",195,a,0.5227682506665587,colour,0.06
07,21,1,2,11,17,517,1778.0493938312866,1778.8242047652602,"[89, 0, 165]",165,l,0.25783970626071095,colour,0.06
07,21,1,2,11,18,518,1780.8334046192467,1782.5522523671389,"[67, 0, 187]",187,a,1.2021569381467998,colour,0.06
07,21,1,2,11,19,519,1784.561606215313,1785.176189080812,"[53, 0, 201]",201,a,0.09825203148648143,colour,0.06
07,21,1,2,11,20,520,1787.1851171809249,1787.8562209191732,"[84, 0, 170]",170,l,0.15515020908787847,colour,0.06
07,21,1,2,11,21,521,1789.8652675673366,1790.648279955145,"[65, 0, 189]",189,a,0.2664972338825464,colour,0.06
07,21,1,2,11,22,522,1792.6569492984563,1793.5442368085496,"[62, 0, 192]",192,a,0.3703206144273281,colour,0.06
07,21,1,2,11,23,523,1795.5541058075614,1796.520212188363,"[60, 0, 194]",194,a,0.449030390009284,colour,0.06
07,21,1,2,11,24,524,1798.5292332363315,1799.320244641509,"[91, 0, 163]",163,l,0.2739767679013312,colour,0.06
07,21,1,2,11,25,525,1801.3296957695857,1802.0802497141995,"[82, 0, 172]",172,l,0.23428770154714584,colour,0.06
07,21,1,2,11,26,526,1804.0889753773808,1804.7922307527624,"[92, 0, 162]",162,l,0.18622782733291388,colour,0.06
07,21,1,2,11,27,527,1806.800308145117,1807.5202598436736,"[68, 0, 186]",186,a,0.2031021690927446,colour,0.06
07,21,1,2,11,28,528,1809.5292804981582,1810.3362194383517,"[96, 0, 158]",158,l,0.2900212756358087,colour,0.06
07,21,1,2,11,29,529,1812.3451317846775,1812.936203605961,"[87, 0, 167]",167,l,0.07407617475837469,colour,0.06
07,21,1,2,11,30,530,1814.9452998782508,1815.5282931253314,"[93, 0, 161]",161,l,0.06651747738942504,colour,0.06
07,21,1,2,11,31,531,1817.5369435641915,1818.2082103546709,"[90, 0, 164]",164,l,0.15460551949217916,colour,0.06
07,21,1,2,11,32,532,1820.216917113401,1821.0403255214915,"[75, 0, 179]",179,a,0.30655257729813457,colour,0.06
07,21,1,2,11,33,533,1823.0492898556404,1826.0562369092368,"[74, 0, 180]",180,a,2.4906764780171216,colour,0.06
07,21,1,2,11,34,534,1828.065290252678,1829.7442910019308,"[58, 0, 196]",196,a,1.162074813619256,colour,0.06
07,21,1,2,11,35,535,1831.7535184253938,1833.5042287269607,"[76, 0, 178]",178,a,1.2337985443882644,colour,0.06
07,21,1,2,11,36,536,1835.512811423745,1838.6402041381225,"[78, 0, 176]",176,l,2.6108192708343267,colour,0.06
07,21,1,2,11,37,537,1840.6491775307804,1841.6882009971887,"[69, 0, 185]",185,a,0.5227414690889418,colour,0.06
07,21,1,2,11,38,538,1843.696795115713,1846.8882110794075,"[50, 0, 204]",204,a,2.6751083666458726,colour,0.06
07,21,1,2,11,39,539,1848.897291598376,1851.0882487311028,"[43, 0, 211]",211,a,1.6739429756999016,colour,0.06
07,21,1,2,11,40,540,1853.097289077472,1855.1603269237094,"[77, 0, 177]",177,l,1.5455085379071534,colour,0.06
07,21,1,2,11,41,541,1857.1692014611326,1858.6562632182613,"[98, 0, 156]",156,l,0.9701098278164864,colour,0.06
07,21,1,2,11,42,542,1860.6653382233344,1861.8562209191732,"[81, 0, 173]",173,l,0.6746097574941814,colour,0.06
07,21,1,2,11,43,543,1863.8652246380225,1864.5042452686466,"[83, 0, 171]",171,l,0.1227268180809915,colour,0.06
07,21,1,2,11,44,544,1866.5133533561602,1867.6882340800948,"[72, 0, 182]",182,a,0.658808252774179,colour,0.06
07,21,1,2,11,45,545,1869.6974299955182,1872.7042096648365,"[56, 0, 198]",198,a,2.489154262468219,colour,0.06
07,21,1,2,11,46,546,1874.7132799434476,1875.4483250114135,"[85, 0, 169]",169,l,0.21882805554196239,colour,0.06
07,21,1,2,11,47,547,1877.4574614563026,1878.8001935360953,"[61, 0, 193]",193,a,0.8265658738091588,colour,0.06
07,21,1,2,11,48,548,1880.8092362452298,1882.9842339414172,"[63, 0, 191]",191,a,1.656770492438227,colour,0.06
07,21,1,2,11,49,549,1884.9933321829885,1886.2962192334235,"[95, 0, 159]",159,l,0.78581184707582,colour,0.06
07,21,1,2,11,50,550,1888.3058948540129,1889.7042494430207,"[54, 0, 200]",200,a,0.8809906966052949,colour,0.06
07,21,1,2,12,1,551,1897.3840934168547,1898.8162309546024,"[78, 0, 176]",176,l,0.9151639463379979,colour,0.06
07,21,1,2,12,2,552,1900.8254418363795,1902.0002374891192,"[60, 0, 194]",194,a,0.6577397477813065,colour,0.06
07,21,1,2,12,3,553,1904.0093266726471,1906.536225582473,"[0, 0, 254]",254,a,2.008625232614577,colour,0.06
07,21,1,2,12,4,554,1908.5452730180696,1909.2562399026938,"[89, 0, 165]",165,l,0.1947703524492681,colour,0.06
07,21,1,2,12,5,555,1911.2656098981388,1913.120212503709,"[81, 0, 173]",173,l,1.3374935314059258,colour,0.06
07,21,1,2,12,6,556,1915.1292516682297,1917.5922777783126,"[63, 0, 191]",191,a,1.9460028940811753,colour,0.06
07,21,1,2,12,7,557,1919.6008549612015,1920.5842381948605,"[75, 0, 179]",179,l,0.46664043655619025,colour,0.06
07,21,1,2,12,8,558,1922.591786651872,1923.6562265907414,"[51, 0, 203]",203,a,0.5480460897088051,colour,0.06
07,21,1,2,12,9,559,1925.664913263172,1926.624214374926,"[97, 0, 157]",157,l,0.44221684988588095,colour,0.06
07,21,1,2,12,10,560,1928.6329124690965,1930.584299635142,"[99, 0, 155]",155,l,1.4342544609680772,colour,0.06
07,21,1,2,12,11,561,1932.5933923628181,1933.8402126454748,"[50, 0, 204]",204,a,0.7298994669690728,colour,0.06
07,21,1,2,12,12,562,1935.8493282161653,1936.9842579658143,"[69, 0, 185]",185,l,0.6186095494776964,colour,0.06
07,21,1,2,12,13,563,1938.993351481855,1940.8322664038278,"[70, 0, 184]",184,l,1.3206770848482847,colour,0.06
07,21,1,2,12,14,564,1942.8413926088251,1943.7682912033051,"[76, 0, 178]",178,l,0.40932478196918964,colour,0.06
07,21,1,2,12,15,565,1945.7762402021326,1946.5042452686466,"[64, 0, 190]",190,a,0.209523044526577,colour,0.06
07,21,1,2,12,16,566,1948.5132281132974,1950.4642828730866,"[66, 0, 188]",188,l,1.4347912734374404,colour,0.06
07,21,1,2,12,17,567,1952.4733165237121,1960.3362446445972,"[65, 0, 189]",189,a,7.3460766221396625,colour,0.06
07,21,1,2,12,18,568,1962.3461085236631,1963.000217796769,"[83, 0, 171]",171,l,0.13681509159505367,colour,0.06
07,21,1,2,12,19,569,1965.0086784018204,1965.8642364777625,"[61, 0, 193]",193,a,0.33925481140613556,colour,0.06
07,21,1,2,12,20,570,1967.8733492917381,1969.2722454196773,"[94, 0, 160]",160,l,0.8825810477137566,colour,0.06
07,21,1,2,12,21,571,1971.2813365720212,1972.6723014246672,"[68, 0, 186]",186,a,0.8746907324530184,colour,0.06
07,21,1,2,12,22,572,1974.6814236911014,1975.4722850406542,"[90, 0, 164]",164,l,0.27366759860888124,colour,0.06
07,21,1,2,12,23,573,1977.4814057317562,1978.1442513023503,"[95, 0, 159]",159,l,0.1464371490292251,colour,0.06
07,21,1,2,12,24,574,1980.152793039102,1980.832254588604,"[71, 0, 183]",183,a,0.1618940383195877,colour,0.06
07,21,1,2,12,25,575,1982.8414024547674,1983.6962602725253,"[12, 0, 242]",242,a,0.33851871313527226,colour,0.06
07,21,1,2,12,26,576,1985.706017812714,1986.584279154893,"[57, 0, 197]",197,a,0.36192538822069764,colour,0.06
07,21,1,2,12,27,577,1988.5932942950167,1989.2242556503043,"[93, 0, 161]",161,l,0.11177080357447267,colour,0.06
07,21,1,2,12,28,578,1991.2330525997095,1992.8802805915475,"[53, 0, 201]",201,a,1.1309235454536974,colour,0.06
07,21,1,2,12,29,579,1994.8894060091116,1995.7042636214755,"[80, 0, 174]",174,l,0.29784463671967387,colour,0.06
07,21,1,2,12,30,580,1997.713305149693,1999.2883108011447,"[72, 0, 182]",182,a,1.0570994326844811,colour,0.06
07,21,1,2,12,31,581,2001.2981242677197,2002.144235942047,"[87, 0, 167]",167,l,0.3292133077047765,colour,0.06
07,21,1,2,12,32,582,2004.153706762474,2004.8402583315037,"[74, 0, 180]",180,l,0.1694806981831789,colour,0.06
07,21,1,2,12,33,583,2006.8492880440317,2007.5522921457887,"[84, 0, 170]",170,l,0.18597734160721302,colour,0.06
07,21,1,2,12,34,584,2009.5610575871542,2010.3762810830958,"[82, 0, 172]",172,l,0.2972144829109311,colour,0.06
07,21,1,2,12,35,585,2012.3859015651979,2013.080269800499,"[98, 0, 156]",156,l,0.17829891527071595,colour,0.06
07,21,1,2,12,36,586,2015.0893885223195,2015.8242402113974,"[55, 0, 199]",199,l,0.2184865907765925,colour,0.06
07,21,1,2,12,37,587,2017.8333030072972,2018.888220531866,"[52, 0, 202]",202,a,0.5387060260400176,colour,0.06
07,21,1,2,12,38,588,2020.8973384657875,2021.5283006085083,"[59, 0, 195]",195,a,0.11412994237616658,colour,0.06
07,21,1,2,12,39,589,2023.5368691273034,2024.528272645548,"[92, 0, 162]",162,l,0.4738419149070978,colour,0.06
07,21,1,2,12,40,590,2026.5372787271626,2028.0082668322138,"[96, 0, 158]",158,l,0.9538601264357567,colour,0.06
07,21,1,2,12,41,591,2030.017384766601,2031.0163584030233,"[88, 0, 166]",166,l,0.48278813203796744,colour,0.06
07,21,1,2,12,42,592,2033.0255476236343,2034.232227097731,"[56, 0, 198]",198,a,0.690014265011996,colour,0.06
07,21,1,2,12,43,593,2036.2419582507573,2037.4962777593173,"[42, 0, 212]",212,a,0.7379945823922753,colour,0.06
07,21,1,2,12,44,594,2039.5052869915962,2040.2242556503043,"[86, 0, 168]",168,l,0.2019048766233027,colour,0.06
07,21,1,2,12,45,595,2042.2340868399478,2042.984279627446,"[77, 0, 177]",177,l,0.2339017321355641,colour,0.06
07,21,1,2,12,46,596,2044.9936181157827,2046.1282851696014,"[58, 0, 196]",196,a,0.6167226321995258,colour,0.06
07,21,1,2,12,47,597,2048.137050217483,2049.480261214543,"[85, 0, 169]",169,l,0.826751375105232,colour,0.06
07,21,1,2,12,48,598,2051.48928856384,2053.5922391810454,"[73, 0, 181]",181,l,1.5867001279257238,colour,0.06
07,21,1,2,12,49,599,2055.6017426908948,2057.3763027447276,"[67, 0, 187]",187,a,1.258140210993588,colour,0.06
07,21,1,2,12,50,600,2059.3851343528368,2060.2962759477086,"[62, 0, 192]",192,a,0.39317708695307374,colour,0.06
07,21,1,2,13,1,601,2067.7125989831984,2068.61629018886,"[56, 0, 198]",198,a,0.3863804819993675,colour,0.06
07,21,1,2,13,2,602,2070.625344713684,2075.3442889540456,"[90, 0, 164]",164,l,4.201039990410209,colour,0.06
07,21,1,2,13,3,603,2077.35365107283,2077.992383407429,"[64, 0, 190]",190,a,0.12157599907368422,colour,0.06
07,21,1,2,13,4,604,2080.001239039935,2081.1762631237507,"[75, 0, 179]",179,a,0.6587641420774162,colour,0.06
07,21,1,2,13,5,605,2083.1861447258852,2083.96825284278,"[86, 0, 168]",168,l,0.2660340708680451,colour,0.06
07,21,1,2,13,6,606,2085.9768957984634,2086.6962413676083,"[77, 0, 177]",177,l,0.20126763312146068,colour,0.06
07,21,1,2,13,7,607,2088.7060300218873,2089.544273830019,"[74, 0, 180]",180,l,0.32196456799283624,colour,0.06
07,21,1,2,13,8,608,2091.5534090935253,2092.3762310645543,"[95, 0, 159]",159,l,0.3065927494317293,colour,0.06
07,21,1,2,13,9,609,2094.384630229324,2095.0402617184445,"[96, 0, 158]",158,l,0.13948458107188344,colour,0.06
07,21,1,2,13,10,610,2097.0492748897523,2098.0082333553582,"[73, 0, 181]",181,l,0.4423515456728637,colour,0.06
07,21,1,2,13,11,611,2100.0173052093014,2100.896274293307,"[83, 0, 171]",171,l,0.3616851419210434,colour,0.06
07,21,1,2,13,12,612,2102.90543397516,2104.144237517379,"[65, 0, 189]",189,a,0.7224530158564448,colour,0.06
07,21,1,2,13,13,613,2106.153318823781,2108.176260367036,"[55, 0, 199]",199,a,1.506491373758763,colour,0.06
07,21,1,2,13,14,614,2110.1862431871705,2111.7922480818816,"[99, 0, 155]",155,l,1.0897268359549344,colour,0.06
07,21,1,2,13,15,615,2113.800908366684,2114.6242305226624,"[66, 0, 188]",188,a,0.30713822646066546,colour,0.06
07,21,1,2,13,16,616,2116.6334248632193,2120.384250955656,"[78, 0, 176]",176,a,3.234580723103136,colour,0.06
07,21,1,2,13,17,617,2122.3937225635163,2123.200338156428,"[91, 0, 163]",163,l,0.2883163155056536,colour,0.06
07,21,1,2,13,18,618,2125.2089858381078,2126.5523264100775,"[81, 0, 173]",173,l,0.8274933812208474,colour,0.06
07,21,1,2,13,19,619,2128.561413624324,2130.056277081836,"[68, 0, 186]",186,a,0.9785771281458437,colour,0.06
07,21,1,2,13,20,620,2132.06535996357,2133.3045486877672,"[72, 0, 182]",182,a,0.7229189365170896,colour,0.06
07,21,1,2,13,21,621,2135.3138210093603,2136.16031825915,"[50, 0, 204]",204,a,0.3295740708708763,colour,0.06
07,21,1,2,13,22,622,2138.169281411916,2139.432303740643,"[67, 0, 187]",187,a,0.7467493903823197,colour,0.06
07,21,1,2,13,23,623,2141.44091046229,2142.152297974564,"[89, 0, 165]",165,l,0.19530716445297003,colour,0.06
07,21,1,2,13,24,624,2144.160906665493,2145.1844307067804,"[76, 0, 178]",178,l,0.506716653238982,colour,0.06
07,21,1,2,13,25,625,2147.1936727026477,2147.856395787094,"[85, 0, 169]",169,l,0.1438574562780559,colour,0.06
07,21,1,2,13,26,626,2149.8654349520802,2151.2322660889477,"[51, 0, 203]",203,a,0.8501923154108226,colour,0.06
07,21,1,2,13,27,627,2153.2412063982338,2154.7602791897953,"[82, 0, 172]",172,l,1.0019881357438862,colour,0.06
07,21,1,2,13,28,628,2156.769662576262,2158.312318092212,"[34, 0, 220]",220,a,1.0254834266379476,colour,0.06
07,21,1,2,13,29,629,2160.3213517433032,2161.256283619441,"[52, 0, 202]",202,a,0.4185927715152502,colour,0.06
07,21,1,2,13,30,630,2163.2654633875936,2165.0482957880013,"[63, 0, 191]",191,a,1.2658694433048368,colour,0.06
07,21,1,2,13,31,631,2167.057536208071,2168.0722825988196,"[98, 0, 156]",156,l,0.4985132305882871,colour,0.06
07,21,1,2,13,32,632,2170.0814466127194,2170.7442886387,"[71, 0, 183]",183,a,0.14660729048773646,colour,0.06
07,21,1,2,13,33,633,2172.753386092838,2174.4003600543365,"[57, 0, 197]",197,a,1.1299365675076842,colour,0.06
07,21,1,2,13,34,634,2176.409485471435,2180.2162936548702,"[84, 0, 170]",170,l,3.2868842906318605,colour,0.06
07,21,1,2,13,35,635,2182.226695133839,2182.776287857443,"[0, 0, 254]",254,a,0.030981913674622774,colour,0.06
07,21,1,2,13,36,636,2184.7850647205487,2186.1203062389977,"[88, 0, 166]",166,l,0.8180922716856003,colour,0.06
07,21,1,2,13,37,637,2188.129829834681,2188.8162797912955,"[53, 0, 201]",201,a,0.16948621161282063,colour,0.06
07,21,1,2,13,38,638,2190.825292568654,2192.4562499849126,"[70, 0, 184]",184,a,1.1139302621595562,colour,0.06
07,21,1,2,13,39,639,2194.465278516058,2195.1762457946315,"[54, 0, 200]",200,a,0.19453128753229976,colour,0.06
07,21,1,2,13,40,640,2197.184713094961,2198.0082644694485,"[93, 0, 161]",161,l,0.307347753085196,colour,0.06
07,21,1,2,13,41,641,2200.016987769399,2200.9043048177846,"[59, 0, 195]",195,a,0.3710421407595277,colour,0.06
07,21,1,2,13,42,642,2202.9129024813883,2203.5683134165592,"[62, 0, 192]",192,a,0.13913484616205096,colour,0.06
07,21,1,2,13,43,643,2205.576975670643,2206.9602648536675,"[79, 0, 175]",175,l,0.8644231609068811,colour,0.06
07,21,1,2,13,44,644,2208.9685580735095,2210.1442965944298,"[87, 0, 167]",167,l,0.658790529705584,colour,0.06
07,21,1,2,13,45,645,2212.1536748609506,2212.8323691976257,"[33, 0, 221]",221,a,0.16237649973481894,colour,0.06
07,21,1,2,13,46,646,2214.8408750947565,2218.360318101477,"[69, 0, 185]",185,a,3.00313304644078,colour,0.06
07,21,1,2,13,47,647,2220.3692493527196,2222.0163087784313,"[94, 0, 160]",160,l,1.1300413301214576,colour,0.06
07,21,1,2,13,48,648,2224.0249667000026,2224.7842884496786,"[80, 0, 174]",174,l,0.24205986317247152,colour,0.06
07,21,1,2,13,49,649,2226.7933925990947,2228.088328681886,"[60, 0, 194]",194,a,0.7767781959846616,colour,0.06
07,21,1,2,13,50,650,2230.0974383451976,2234.232479553204,"[61, 0, 193]",193,a,3.618045561481267,colour,0.06
07,21,1,2,14,1,651,2241.569012493361,2242.272324582562,"[71, 0, 183]",183,l,0.18606950109824538,colour,0.06
07,21,1,2,14,2,652,2244.2810041662306,2247.8162845177576,"[83, 0, 171]",171,l,3.018321726936847,colour,0.06
07,21,1,2,14,3,653,2249.8253764580004,2250.352451811079,"[64, 0, 190]",190,a,0.010450710076838732,colour,0.06
07,21,1,2,14,4,654,2252.360476033762,2252.9203264825046,"[70, 0, 184]",184,a,0.041602371260523796,colour,0.06
07,21,1,2,14,5,655,2254.9294936475344,2255.4884705455042,"[56, 0, 198]",198,a,0.04250782402232289,colour,0.06
07,21,1,2,14,6,656,2257.4973163316026,2258.088294811081,"[87, 0, 167]",167,l,0.07400764524936676,colour,0.06
07,21,1,2,14,7,657,2260.09734697314,2260.7122787861153,"[79, 0, 175]",175,l,0.09809370525181293,colour,0.06
07,21,1,2,14,8,658,2262.721305347979,2263.40841539111,"[67, 0, 187]",187,a,0.17009312892332673,colour,0.06
07,21,1,2,14,9,659,2265.4172938666306,2266.152446060907,"[78, 0, 176]",176,l,0.2187024187296629,colour,0.06
07,21,1,2,14,10,660,2268.161569508724,2268.856307171751,"[63, 0, 191]",191,a,0.17845527222380042,colour,0.06
07,21,1,2,14,11,661,2270.8654058072716,2271.7842738772742,"[10, 0, 244]",244,a,0.4018881772644818,colour,0.06
07,21,1,2,14,12,662,2273.79286169447,2274.3683029399253,"[93, 0, 161]",161,l,0.05691590020433068,colour,0.06
07,21,1,2,14,13,663,2276.3779691080563,2277.8643183978274,"[95, 0, 159]",159,l,0.9701401540078223,colour,0.06
07,21,1,2,14,14,664,2279.8737506209873,2281.0482764896005,"[81, 0, 173]",173,l,0.6582702589221299,colour,0.06
07,21,1,2,14,15,665,2283.057079346385,2283.9602766688913,"[73, 0, 181]",181,a,0.3869704636745155,colour,0.06
07,21,1,2,14,16,666,2285.968738849275,2286.9042851259,"[31, 0, 223]",223,a,0.4188097813166678,colour,0.06
07,21,1,2,14,17,667,2288.913425114937,2289.4723279699683,"[88, 0, 166]",166,l,0.04165120841935277,colour,0.06
07,21,1,2,14,18,668,2291.4816440087743,2292.0083310292102,"[91, 0, 163]",163,l,0.009886328130960464,colour,0.06
07,21,1,2,14,19,669,2294.0174194248393,2294.808341426775,"[77, 0, 177]",177,l,0.27400197414681315,colour,0.06
07,21,1,2,14,20,670,2296.817508197855,2297.5683346842416,"[50, 0, 204]",204,a,0.23389346152544022,colour,0.06
07,21,1,2,14,21,671,2299.5779752521776,2300.2003791164607,"[96, 0, 158]",158,l,0.10607303027063608,colour,0.06
07,21,1,2,14,22,672,2302.2091418011114,2302.960328262765,"[66, 0, 188]",188,l,0.23478316003456712,colour,0.06
07,21,1,2,14,23,673,2304.969524966087,2310.9123471579514,"[72, 0, 182]",182,a,5.425995505414903,colour,0.06
07,21,1,2,14,24,674,2312.9219298306853,2314.040277866181,"[92, 0, 162]",162,l,0.6020408323965967,colour,0.06
07,21,1,2,14,25,675,2316.049050791189,2316.776291402057,"[86, 0, 168]",168,l,0.21101375250145793,colour,0.06
07,21,1,2,14,26,676,2318.7849028497003,2319.6083277994767,"[69, 0, 185]",185,l,0.3066096846014261,colour,0.06
07,21,1,2,14,27,677,2321.618319678586,2322.3123527504504,"[55, 0, 199]",199,a,0.17815397959202528,colour,0.06
07,21,1,2,14,28,678,2324.320938992314,2326.392387818545,"[65, 0, 189]",189,a,1.5551514690741897,colour,0.06
07,21,1,2,14,29,679,2328.4012261219323,2329.1363164819777,"[61, 0, 193]",193,a,0.21819081204012036,colour,0.06
07,21,1,2,14,30,680,2331.1454123607837,2331.6962917800993,"[82, 0, 172]",172,l,0.03411968657746911,colour,0.06
07,21,1,2,14,31,681,2333.705793320667,2334.456342145335,"[94, 0, 160]",160,l,0.23406675411388278,colour,0.06
07,21,1,2,14,32,682,2336.4654155746102,2337.51230060542,"[59, 0, 195]",195,a,0.5297121535986662,colour,0.06
07,21,1,2,14,33,683,2339.521279905457,2342.7123059616424,"[89, 0, 165]",165,l,2.674693252891302,colour,0.06
07,21,1,2,14,34,684,2344.721382148098,2348.856349313166,"[85, 0, 169]",169,l,3.617012503091246,colour,0.06
07,21,1,2,14,35,685,2350.8655483797193,2351.40037226351,"[98, 0, 156]",156,l,0.017900705337524414,colour,0.06
07,21,1,2,14,36,686,2353.4096587635577,2354.536324831657,"[75, 0, 179]",179,a,0.6084022368304431,colour,0.06
07,21,1,2,14,37,687,2356.5453899903223,2357.264312569052,"[51, 0, 203]",203,a,0.20274849561974406,colour,0.06
07,21,1,2,14,38,688,2359.272598305717,2359.8563587656245,"[17, 0, 237]",237,a,0.06668092403560877,colour,0.06
07,21,1,2,14,39,689,2361.8650351981632,2365.504456764087,"[53, 0, 201]",201,a,3.123215187340975,colour,0.06
07,21,1,2,14,40,690,2367.5135435839184,2368.192332443781,"[52, 0, 202]",202,a,0.162606505677104,colour,0.06
07,21,1,2,14,41,691,2370.2011928027496,2370.8483109115623,"[84, 0, 170]",170,l,0.13083296129480004,colour,0.06
07,21,1,2,14,42,692,2372.857972353697,2375.808328036219,"[90, 0, 164]",164,l,2.4333139564841986,colour,0.06
07,21,1,2,14,43,693,2377.817389256321,2379.7683270433918,"[99, 0, 155]",155,l,1.4339051190763712,colour,0.06
07,21,1,2,14,44,694,2381.777878602501,2382.440516615752,"[68, 0, 186]",186,a,0.14562149299308658,colour,0.06
07,21,1,2,14,45,695,2384.449640851468,2385.0243294569664,"[58, 0, 196]",196,a,0.05812106980010867,colour,0.06
07,21,1,2,14,46,696,2387.0334781110287,2387.7043223045766,"[74, 0, 180]",180,a,0.15357994381338358,colour,0.06
07,21,1,2,14,47,697,2389.713352411054,2390.2963432953693,"[80, 0, 174]",174,a,0.06617483170703053,colour,0.06
07,21,1,2,14,48,698,2392.3053655247204,2392.8243485190906,"[54, 0, 200]",200,a,0.0022327140904963017,colour,0.06
07,21,1,2,14,49,699,2394.841723833233,2395.4803380146623,"[97, 0, 157]",157,l,0.12239519972354174,colour,0.06
07,21,1,2,14,50,700,2397.48902035458,2399.0082908570766,"[76, 0, 178]",178,a,1.0022429544478655,colour,0.06
07,21,1,2,15,1,701,2407.040711490903,2408.3523580753244,"[78, 0, 176]",176,l,0.7943902118131518,colour,0.06
07,21,1,2,15,2,702,2410.36144292634,2410.9044005228207,"[86, 0, 168]",168,l,0.025846946984529495,colour,0.06
07,21,1,2,15,3,703,2412.9136590599082,2415.576332519762,"[77, 0, 177]",177,l,2.1466435245238245,colour,0.06
07,21,1,2,15,4,704,2417.5847041150555,2419.800349499099,"[66, 0, 188]",188,a,1.6994413686916232,colour,0.06
07,21,1,2,15,5,705,2421.8094666455872,2422.56033448549,"[99, 0, 155]",155,l,0.23459647689014673,colour,0.06
07,21,1,2,15,6,706,2424.568654487375,2425.200652051717,"[63, 0, 191]",191,a,0.11532250884920359,colour,0.06
07,21,1,2,15,7,707,2427.209725874942,2427.872336319182,"[69, 0, 185]",185,a,0.14485152391716838,colour,0.06
07,21,1,2,15,8,708,2429.8815219951794,2430.656360498164,"[98, 0, 156]",156,l,0.2580685308203101,colour,0.06
07,21,1,2,15,9,709,2432.6663795528,2433.496337623801,"[57, 0, 197]",197,a,0.31315816612914205,colour,0.06
07,21,1,2,15,10,710,2435.5054098716937,2436.3523643771186,"[85, 0, 169]",169,l,0.32990450831130147,colour,0.06
07,21,1,2,15,11,711,2438.3615598985925,2439.1443233760074,"[93, 0, 161]",161,l,0.2664546985179186,colour,0.06
07,21,1,2,15,12,712,2441.1537138517015,2441.768371548038,"[75, 0, 179]",179,a,0.09810473304241896,colour,0.06
07,21,1,2,15,13,713,2443.777796682436,2444.3523777676746,"[65, 0, 189]",189,a,0.057020663283765316,colour,0.06
07,21,1,2,15,14,714,2446.361464194022,2447.568328776397,"[91, 0, 163]",163,l,0.6903947205282748,colour,0.06
07,21,1,2,15,15,715,2449.576750784181,2454.136342869606,"[61, 0, 193]",193,a,4.041131331119686,colour,0.06
07,21,1,2,15,16,716,2456.1459066378884,2456.824393023737,"[82, 0, 172]",172,l,0.16217642556875944,colour,0.06
07,21,1,2,15,17,717,2458.833415253088,2459.6243876675144,"[84, 0, 170]",170,a,0.2748140851035714,colour,0.06
07,21,1,2,15,18,718,2461.634195620194,2462.3764268062077,"[96, 0, 158]",158,l,0.22531549027189612,colour,0.06
07,21,1,2,15,19,719,2464.3848696881905,2465.256348998286,"[67, 0, 187]",187,a,0.3552130670286715,colour,0.06
07,21,1,2,15,20,720,2467.2655323105864,2467.784528695978,"[90, 0, 164]",164,l,0.0024969852529466152,colour,0.06
07,21,1,2,15,21,721,2469.806866472587,2471.5766720147803,"[81, 0, 173]",173,l,1.2535054283216596,colour,0.06
07,21,1,2,15,22,722,2473.585095204413,2475.048360772431,"[62, 0, 192]",192,a,0.9471190539188683,colour,0.06
07,21,1,2,15,23,723,2477.05752518028,2481.9923637155443,"[58, 0, 196]",196,a,4.418344648554921,colour,0.06
07,21,1,2,15,24,724,2484.001393821556,2487.1283072251827,"[51, 0, 203]",203,a,2.6105534248054028,colour,0.06
07,21,1,2,15,25,725,2489.137403497938,2489.824313466903,"[74, 0, 180]",180,a,0.1702888705767691,colour,0.06
07,21,1,2,15,26,726,2491.834365997929,2492.4963561347686,"[64, 0, 190]",190,a,0.1453643119893968,colour,0.06
07,21,1,2,15,27,727,2494.5049671884626,2495.144339523744,"[95, 0, 159]",159,l,0.12169060856103897,colour,0.06
07,21,1,2,15,28,728,2497.153708337806,2497.6883719260804,"[97, 0, 157]",157,l,0.01755727082490921,colour,0.06
07,21,1,2,15,29,729,2499.6974461432546,2500.216431500856,"[92, 0, 162]",162,l,0.0014848001301288605,colour,0.06
07,21,1,2,15,30,730,2502.2273965738714,2502.808354423847,"[50, 0, 204]",204,a,0.06281453557312489,colour,0.06
07,21,1,2,15,31,731,2504.8174849608913,2505.432375026401,"[52, 0, 202]",202,a,0.09778138529509306,colour,0.06
07,21,1,2,15,32,732,2507.4412121484056,2508.3525739032775,"[45, 0, 209]",209,a,0.3940006191842258,colour,0.06
07,21,1,2,15,33,733,2510.3615839234553,2511.2484063012525,"[73, 0, 181]",181,l,0.37019340228289366,colour,0.06
07,21,1,2,15,34,734,2513.2574509796686,2515.904345777817,"[76, 0, 178]",178,a,2.1306344624608755,colour,0.06
07,21,1,2,15,35,735,2517.9130541118793,2520.192385219503,"[79, 0, 175]",175,l,1.7621030919253826,colour,0.06
07,21,1,2,15,36,736,2522.201511424035,2522.7523333420977,"[39, 0, 215]",215,a,0.034670284017920494,colour,0.06
07,21,1,2,15,37,737,2524.7616009376943,2525.312402768992,"[55, 0, 199]",199,a,0.03384123742580414,colour,0.06
07,21,1,2,15,38,738,2527.321593958419,2528.096383625176,"[53, 0, 201]",201,a,0.25788145419210196,colour,0.06
07,21,1,2,15,39,739,2530.1054444513284,2530.7603485067375,"[59, 0, 195]",195,a,0.13794385502114892,colour,0.06
07,21,1,2,15,40,740,2532.770189148374,2533.368422275409,"[87, 0, 167]",167,l,0.08183061284944415,colour,0.06
07,21,1,2,15,41,741,2535.3777647018433,2540.5043291575275,"[56, 0, 198]",198,a,4.609895701520145,colour,0.06
07,21,1,2,15,42,742,2542.513731842395,2543.184373599477,"[68, 0, 186]",186,a,0.15436881827190518,colour,0.06
07,21,1,2,15,43,743,2545.193508862518,2548.3683781647123,"[80, 0, 174]",174,l,2.656686209142208,colour,0.06
07,21,1,2,15,44,744,2550.3777363449335,2550.9683469720185,"[94, 0, 160]",160,l,0.07391587924212217,colour,0.06
07,21,1,2,15,45,745,2552.9777228753082,2553.8483581729233,"[60, 0, 194]",194,a,0.3537042415700853,colour,0.06
07,21,1,2,15,46,746,2555.858004648704,2556.729208660312,"[89, 0, 165]",165,l,0.35436944803223014,colour,0.06
07,21,1,2,15,47,747,2558.7384041822515,2559.6403801874258,"[83, 0, 171]",171,l,0.3850374664179981,colour,0.06
07,21,1,2,15,48,748,2561.6494059618562,2562.592381753493,"[54, 0, 200]",200,a,0.42688756715506315,colour,0.06
07,21,1,2,15,49,749,2564.605270765256,2565.2803677106276,"[72, 0, 182]",182,a,0.15849435748532414,colour,0.06
07,21,1,2,15,50,750,2567.289940930903,2568.160415933002,"[37, 0, 217]",217,a,0.35341634042561054,colour,0.06
07,21,1,2,16,1,751,2575.536719071679,2576.1843393347226,"[91, 0, 163]",163,l,0.13016814878210425,colour,0.06
07,21,1,2,16,2,752,2578.193457268644,2578.7364062000997,"[93, 0, 161]",161,l,0.023608324583619833,colour,0.06
07,21,1,2,16,3,753,2580.7456162944436,2581.68842036929,"[50, 0, 204]",204,a,0.4262763177976012,colour,0.06
07,21,1,2,16,4,754,2583.697532001883,2584.240373413544,"[65, 0, 189]",189,a,0.025675229728221893,colour,0.06
07,21,1,2,16,5,755,2586.249688270502,2586.7923934115097,"[66, 0, 188]",188,a,0.026406995952129364,colour,0.06
07,21,1,2,16,6,756,2588.8017023610882,2589.4563547484577,"[58, 0, 196]",196,a,0.13790801493451,colour,0.06
07,21,1,2,16,7,757,2591.46549198078,2592.112415923737,"[21, 0, 233]",233,a,0.12969474587589502,colour,0.06
07,21,1,2,16,8,758,2594.121154190041,2594.7043884708546,"[97, 0, 157]",157,l,0.06688375445082784,colour,0.06
07,21,1,2,16,9,759,2596.7131220111623,2597.512381737586,"[62, 0, 192]",192,a,0.2829777295701206,colour,0.06
07,21,1,2,16,10,760,2599.5222007180564,2600.3203631890938,"[59, 0, 195]",195,a,0.28119636280462146,colour,0.06
07,21,1,2,16,11,761,2602.3294507972896,2603.1523747746833,"[73, 0, 181]",181,l,0.3064505713991821,colour,0.06
07,21,1,2,16,12,762,2605.160641606897,2605.984442680143,"[57, 0, 197]",197,a,0.3058023005723953,colour,0.06
07,21,1,2,16,13,763,2607.9928229399957,2609.3444232554175,"[79, 0, 175]",175,a,0.8352714506909251,colour,0.06
07,21,1,2,16,14,764,2611.353736143559,2611.960362921469,"[52, 0, 202]",202,a,0.08887612819671631,colour,0.06
07,21,1,2,16,15,765,2613.9693402522244,2614.648349272087,"[85, 0, 169]",169,l,0.16229536710307002,colour,0.06
07,21,1,2,16,16,766,2616.6575286462903,2617.2884041429497,"[22, 0, 232]",232,a,0.1139137209393084,colour,0.06
07,21,1,2,16,17,767,2619.2973676891997,2620.072403115686,"[68, 0, 186]",186,a,0.2584430784918368,colour,0.06
07,21,1,2,16,18,768,2622.0808952283114,2622.6723467167467,"[87, 0, 167]",167,l,0.07513955933973193,colour,0.06
07,21,1,2,16,19,769,2624.6811066446826,2625.512375830207,"[96, 0, 158]",158,l,0.3147185849957168,colour,0.06
07,21,1,2,16,20,770,2627.522114071995,2628.1363783162087,"[60, 0, 194]",194,a,0.09799091191962361,colour,0.06
07,21,1,2,16,21,771,2630.145390699152,2630.720360117033,"[98, 0, 156]",156,l,0.05857950681820512,colour,0.06
07,21,1,2,16,22,772,2632.729465054348,2633.5363831208088,"[51, 0, 203]",203,a,0.29003348480910063,colour,0.06
07,21,1,2,16,23,773,2635.54630056303,2636.2563529363833,"[82, 0, 172]",172,l,0.19298386573791504,colour,0.06
07,21,1,2,16,24,774,2638.265043547377,2639.088430688251,"[63, 0, 191]",191,a,0.3064651438035071,colour,0.06
07,21,1,2,16,25,775,2641.0975383822806,2641.7684365329333,"[72, 0, 182]",182,a,0.15389462746679783,colour,0.06
07,21,1,2,16,26,776,2643.7776474147104,2644.352365164552,"[56, 0, 198]",198,a,0.0567721463739872,colour,0.06
07,21,1,2,16,27,777,2646.3611101265997,2647.104411786422,"[76, 0, 178]",178,l,0.22510281344875693,colour,0.06
07,21,1,2,16,28,778,2649.114480071701,2650.6963701555505,"[78, 0, 176]",176,a,1.065385169815272,colour,0.06
07,21,1,2,16,29,779,2652.706233640667,2653.8003932158463,"[83, 0, 171]",171,l,0.5778322857804596,colour,0.06
07,21,1,2,16,30,780,2655.809460343793,2656.552471345756,"[61, 0, 193]",193,a,0.22628080798313022,colour,0.06
07,21,1,2,16,31,781,2658.5615959749557,2662.0803828341886,"[54, 0, 200]",200,a,3.0021358281373978,colour,0.06
07,21,1,2,16,32,782,2664.0899903192185,2665.344359058421,"[35, 0, 219]",219,a,0.7372588776051998,colour,0.06
07,21,1,2,16,33,783,2667.35275901109,2667.9123861487024,"[92, 0, 162]",162,l,0.04280163301154971,colour,0.06
07,21,1,2,16,34,784,2669.9216123907827,2670.888388704043,"[75, 0, 179]",179,a,0.45052109798416495,colour,0.06
07,21,1,2,16,35,785,2672.897545629181,2673.696365429554,"[84, 0, 170]",170,l,0.28187929280102253,colour,0.06
07,21,1,2,16,36,786,2675.706049320288,2676.5044630654156,"[90, 0, 164]",164,l,0.28230897849425673,colour,0.06
07,21,1,2,16,37,787,2678.5135183781385,2679.384433306288,"[64, 0, 190]",190,a,0.3543147034943104,colour,0.06
07,21,1,2,16,38,788,2681.393526428379,2682.9043930396438,"[94, 0, 160]",160,l,0.9918765276670456,colour,0.06
07,21,1,2,16,39,789,2684.9135653246194,2685.760381195694,"[99, 0, 155]",155,l,0.3298454307951033,colour,0.06
07,21,1,2,16,40,790,2687.7704203361645,2688.640371522866,"[77, 0, 177]",177,a,0.353860205039382,colour,0.06
07,21,1,2,16,41,791,2690.6494067492895,2691.3203954845667,"[70, 0, 184]",184,a,0.15438299672678113,colour,0.06
07,21,1,2,16,42,792,2693.329472064972,2694.0163843971677,"[81, 0, 173]",173,l,0.1700706798583269,colour,0.06
07,21,1,2,16,43,793,2696.0259391064756,2696.6964300200343,"[69, 0, 185]",185,a,0.15418686112388968,colour,0.06
07,21,1,2,16,44,794,2698.7057393635623,2699.376418929547,"[80, 0, 174]",174,l,0.1541029722429812,colour,0.06
07,21,1,2,16,45,795,2701.38509851275,2702.000358399935,"[89, 0, 165]",165,l,0.09910431504249573,colour,0.06
07,21,1,2,16,46,796,2704.0095385615714,2704.672392796725,"[95, 0, 159]",159,l,0.14656554255634546,colour,0.06
07,21,1,2,16,47,797,2706.6815079739317,2709.224408856593,"[74, 0, 180]",180,a,2.0258579743094742,colour,0.06
07,21,1,2,16,48,798,2711.2337378920056,2711.8643703856505,"[88, 0, 166]",166,l,0.11347300698980689,colour,0.06
07,21,1,2,16,49,799,2713.873470990453,2714.560437673237,"[55, 0, 199]",199,a,0.17030619969591498,colour,0.06
07,21,1,2,16,50,800,2716.5684756808914,2717.4244150002487,"[53, 0, 201]",201,a,0.3392835622653365,colour,0.06
