id,age,condition,counterbalance,block,trialinblock,trial,tstart,tend,trialstim,trialintensity,response,RT,trialtype,colourfreq
092,25,1,1,Practice,1,NA,5.120004061609507e-06,0.660507959430106,"[55, 0, 199]",199,a,0.12191908739623614,colour,0.5
092,25,1,1,Practice,2,NA,2.6727467358869035,30.020547753665596,"[54, 0, 200]",200,a,26.825486272282433,colour,0.5
092,25,1,1,Practice,3,NA,32.031973631179426,32.90848427824676,"[93, 0, 161]",161,l,0.35408838151488453,colour,0.5
092,25,1,1,Practice,4,NA,34.92258161579957,35.788488342717756,"[32, 0, 222]",222,a,0.34360103990184143,colour,0.5
092,25,1,1,Practice,5,NA,37.79807180684293,38.54050257161725,"[62, 0, 192]",192,a,0.2205811518651899,colour,0.5
092,25,1,1,Practice,6,NA,40.54759141273098,41.956468946591485,"[11, 0, 243]",243,a,0.8865958714741282,colour,0.5
092,25,1,1,Practice,7,NA,43.96942964347545,44.90851145362831,"[45, 0, 209]",209,a,0.41681117546977475,colour,0.5
092,25,1,1,Practice,8,NA,46.922620606579585,47.75651510537136,"[94, 0, 160]",160,l,0.3116506456572097,colour,0.5
092,25,1,1,Practice,9,NA,49.76633054501144,50.54849095788086,"[40, 0, 214]",214,a,0.2598098273447249,colour,0.5
092,25,1,1,Practice,10,NA,52.56321136042243,53.356492813676596,"[13, 0, 241]",241,a,0.271060049359221,colour,0.5
092,25,1,1,1,1,1,6.399101872724714,7.191997356509091,"[57, 0, 197]",197,a,0.26984463940607384,colour,0.5
092,25,1,1,1,2,2,9.212232396152103,10.088004581222776,"[76, 0, 178]",178,a,0.3536622396786697,colour,0.5
092,25,1,1,1,3,3,12.102858103840845,12.927969040523749,"[5, 0, 249]",249,a,0.3039761549443938,colour,0.5
092,25,1,1,1,4,4,14.946598368464038,15.72798999317456,"[0, 0, 254]",254,a,0.2590725469053723,colour,0.5
092,25,1,1,1,5,5,17.743478790012887,18.544006229087245,"[55, 0, 199]",199,a,0.27825089669204317,colour,0.5
092,25,1,1,1,6,6,20.556716439663433,21.295998402580153,"[89, 0, 165]",165,l,0.21774900250602514,colour,0.5
092,25,1,1,1,7,7,23.30601155309705,24.071985273301834,"[56, 0, 198]",198,a,0.24368457472883165,colour,0.5
092,25,1,1,1,8,8,26.08724327615346,26.864001298119547,"[73, 0, 181]",181,a,0.2544799041643273,colour,0.5
092,25,1,1,1,9,9,28.884069740743143,29.47200874655391,"[4, 0, 250]",250,a,0.06558763259090483,colour,0.5
092,25,1,1,1,10,10,31.477783716109116,32.36001734499587,"[68, 0, 186]",186,a,0.3600394003733527,colour,0.5
092,25,1,1,1,11,11,34.36841533149709,35.184008970245486,"[44, 0, 210]",210,a,0.29330094865872525,colour,0.5
092,25,1,1,1,12,12,37.196513593022246,38.06397049935185,"[67, 0, 187]",187,a,0.34513034543488175,colour,0.5
092,25,1,1,1,13,13,40.071522503800225,40.864026898139855,"[17, 0, 237]",237,a,0.27021997500560246,colour,0.5
092,25,1,1,1,14,14,42.88407801152789,43.703986237436766,"[81, 0, 173]",173,l,0.2976182927377522,colour,0.5
092,25,1,1,1,15,15,45.712219202308916,46.48002548975637,"[61, 0, 193]",193,a,0.24581725292955525,colour,0.5
092,25,1,1,1,16,16,48.49341272228048,49.288064367108746,"[39, 0, 215]",215,a,0.27235029012081213,colour,0.5
092,25,1,1,1,17,17,51.305927269975655,52.12801779870642,"[98, 0, 156]",156,l,0.29981162326294,colour,0.5
092,25,1,1,1,18,18,54.13396960531827,54.89598674472654,"[14, 0, 240]",240,a,0.23958345231949352,colour,0.5
092,25,1,1,1,19,19,56.91534508232144,57.584016689652344,"[59, 0, 195]",195,a,0.14641003112774342,colour,0.5
092,25,1,1,1,20,20,59.602763777656946,60.384012042253744,"[83, 0, 171]",171,l,0.25885474984534085,colour,0.5
092,25,1,1,1,21,21,62.399663103802595,63.17599380243337,"[54, 0, 200]",200,a,0.25408408854855224,colour,0.5
092,25,1,1,1,22,22,65.18096414383035,65.90401175868465,"[1, 0, 253]",253,a,0.20075610629282892,colour,0.5
092,25,1,1,1,23,23,67.9153013653704,68.68001595867099,"[23, 0, 231]",231,a,0.24242347860126756,colour,0.5
092,25,1,1,1,24,24,70.69646889145952,71.4319971044606,"[38, 0, 216]",216,a,0.2137168031767942,colour,0.5
092,25,1,1,1,25,25,73.44644693454029,74.27202182225301,"[64, 0, 190]",190,a,0.3032802283996716,colour,0.5
092,25,1,1,1,26,26,76.29026518072351,77.0960032074945,"[42, 0, 212]",212,a,0.28345597052248195,colour,0.5
092,25,1,1,1,27,27,79.10281123613822,80.1200069632032,"[75, 0, 179]",179,l,0.49502552321064286,colour,0.5
092,25,1,1,1,28,28,82.13392903911881,83.71201006986666,"[72, 0, 182]",182,l,1.055722174438415,colour,0.5
092,25,1,1,1,29,29,85.72775289762649,86.50401506701019,"[51, 0, 203]",203,a,0.2541089009027928,colour,0.5
092,25,1,1,1,30,30,88.50902164226864,89.05606009467738,"[22, 0, 232]",232,a,0.02481586698559113,colour,0.5
092,25,1,1,1,31,31,91.07152762380429,91.67201378778554,"[26, 0, 228]",228,a,0.07825767085887492,colour,0.5
092,25,1,1,1,32,32,93.68085209454875,95.3600598804187,"[10, 0, 244]",244,a,1.156946209637681,colour,0.5
092,25,1,1,1,33,33,97.36831017452641,98.96002734871581,"[65, 0, 189]",189,l,1.0694843487581238,colour,0.5
092,25,1,1,1,34,34,100.97768466375419,101.75202880121651,"[2, 0, 252]",252,a,0.2521286412666086,colour,0.5
092,25,1,1,1,35,35,103.75900145762716,104.60815907930373,"[35, 0, 219]",219,a,0.32701774398447014,colour,0.5
092,25,1,1,1,36,36,106.61832267913269,107.41603490425041,"[9, 0, 245]",245,a,0.27558967666118406,colour,0.5
092,25,1,1,1,37,37,109.43077224219451,110.24003440642264,"[24, 0, 230]",230,a,0.28698365262243897,colour,0.5
092,25,1,1,1,38,38,112.25896266376367,113.03205161279766,"[15, 0, 239]",239,a,0.2508423389517702,colour,0.5
092,25,1,1,1,39,39,115.04019596221042,115.76007232596749,"[49, 0, 205]",205,a,0.19759233828517608,colour,0.5
092,25,1,1,1,40,40,117.77447489448241,118.5120601671224,"[48, 0, 206]",206,a,0.21525674255099148,colour,0.5
092,25,1,1,1,41,41,120.52458487608237,121.28003974698368,"[79, 0, 175]",175,l,0.23342999635497108,colour,0.5
092,25,1,1,1,42,42,123.29023879300803,124.0560270115675,"[43, 0, 211]",211,a,0.24365188548108563,colour,0.5
092,25,1,1,1,43,43,126.07145042991033,126.65603583373013,"[77, 0, 177]",177,l,0.0623344614286907,colour,0.5
092,25,1,1,1,44,44,128.66514038064633,129.1920784888789,"[21, 0, 233]",233,a,0.004599731968482956,colour,0.5
092,25,1,1,1,45,45,131.21200908525498,131.74404632265214,"[84, 0, 170]",170,l,0.010039538232376799,colour,0.5
092,25,1,1,1,46,46,133.7588963006565,134.4240410136117,"[53, 0, 201]",201,a,0.14346366631798446,colour,0.5
092,25,1,1,1,47,47,136.43076042679604,138.2160920907627,"[8, 0, 246]",246,a,1.2631224693031982,colour,0.5
092,25,1,1,1,48,48,140.22763336525531,141.3840415807499,"[62, 0, 192]",192,a,0.6342104423674755,colour,0.5
092,25,1,1,1,49,49,143.39955912836012,144.1600973745808,"[12, 0, 242]",242,a,0.23829833153286017,colour,0.5
092,25,1,1,1,50,50,146.1650633836689,146.9600694902765,"[92, 0, 162]",162,l,0.272624801058555,colour,0.5
092,25,1,1,2,1,51,154.91434313709033,155.7040488590137,"[11, 0, 243]",243,a,0.2667986314627342,colour,0.5
092,25,1,1,2,2,52,157.71199707294,158.44809124319,"[85, 0, 169]",169,l,0.21405590491485782,colour,0.5
092,25,1,1,2,3,53,160.46202631603228,161.64810022289748,"[55, 0, 199]",199,a,0.6641766385291703,colour,0.5
092,25,1,1,2,4,54,163.6651033590897,164.53609818749828,"[48, 0, 206]",206,a,0.34873167678597383,colour,0.5
092,25,1,1,2,5,55,166.55570228522993,167.24009584647138,"[79, 0, 175]",175,l,0.16211111115990207,colour,0.5
092,25,1,1,2,6,56,169.25883269446786,170.248070054251,"[61, 0, 193]",193,a,0.46695687892497517,colour,0.5
092,25,1,1,2,7,57,172.25878818982164,173.1120697769802,"[0, 0, 254]",254,a,0.33096526627196,colour,0.5
092,25,1,1,2,8,58,175.1182019652333,175.88810194007237,"[80, 0, 174]",174,l,0.24766399862710387,colour,0.5
092,25,1,1,2,9,59,177.8994624390907,178.66408172156662,"[28, 0, 226]",226,a,0.2422734231222421,colour,0.5
092,25,1,1,2,10,60,180.68066934982198,181.49609205924207,"[64, 0, 190]",190,a,0.29315286240307614,colour,0.5
092,25,1,1,2,11,61,183.50879636211903,184.24006906492286,"[51, 0, 203]",203,a,0.20898867733194493,colour,0.5
092,25,1,1,2,12,62,186.25882521137828,187.09607331216102,"[75, 0, 179]",179,l,0.3149825861037243,colour,0.5
092,25,1,1,2,13,63,189.10255405443604,189.90410982642788,"[97, 0, 157]",157,l,0.27920833724783733,colour,0.5
092,25,1,1,2,14,64,191.91508553753374,192.68007661102456,"[1, 0, 253]",253,a,0.24274485727073625,colour,0.5
092,25,1,1,2,15,65,194.6962778759771,195.50409462396055,"[7, 0, 247]",247,a,0.28576115341275,colour,0.5
092,25,1,1,2,16,66,197.5243209989858,198.15207866215496,"[34, 0, 220]",220,a,0.10546969922143035,colour,0.5
092,25,1,1,2,17,67,200.16497279901523,200.92808207444614,"[53, 0, 201]",201,a,0.2409560069500003,colour,0.5
092,25,1,1,2,18,68,202.94624705749447,203.68011284488603,"[78, 0, 176]",176,l,0.2118483959347941,colour,0.5
092,25,1,1,2,19,69,205.69629599290784,206.4561083802255,"[25, 0, 229]",229,a,0.23771622657659464,colour,0.5
092,25,1,1,2,20,70,208.46189319595578,209.16809836393804,"[98, 0, 156]",156,l,0.1845985582913272,colour,0.5
092,25,1,1,2,21,71,211.1806341005722,211.94411753007444,"[54, 0, 200]",200,a,0.24117892401409335,colour,0.5
092,25,1,1,2,22,72,213.96181816823082,214.68808902188903,"[96, 0, 158]",158,l,0.20417429908411577,colour,0.5
092,25,1,1,2,23,73,216.69620934670093,217.4560886879044,"[16, 0, 238]",238,a,0.2378662820556201,colour,0.5
092,25,1,1,2,24,74,219.46189201442758,220.21616022617673,"[59, 0, 195]",195,a,0.232523755839793,colour,0.5
092,25,1,1,2,25,75,222.22751836210955,222.9041188849078,"[35, 0, 219]",219,a,0.1543803004315123,colour,0.5
092,25,1,1,2,26,76,224.91499652827042,225.6961069466488,"[91, 0, 163]",163,l,0.2590760915190913,colour,0.5
092,25,1,1,2,27,77,227.7118285066972,228.48812021451886,"[27, 0, 227]",227,a,0.254209331702441,colour,0.5
092,25,1,1,2,28,78,230.49307086362387,231.29612719034776,"[72, 0, 182]",182,l,0.2807754520326853,colour,0.5
092,25,1,1,2,29,79,233.30559092515614,234.08009929655236,"[99, 0, 155]",155,l,0.25247246914659627,colour,0.5
092,25,1,1,2,30,80,236.08689235904603,236.84810802104766,"[10, 0, 244]",244,a,0.23940661529195495,colour,0.5
092,25,1,1,2,31,81,238.86802798358258,240.19214229198406,"[21, 0, 233]",233,a,0.8017960182914976,colour,0.5
092,25,1,1,2,32,82,242.21178222974413,243.01617330187582,"[23, 0, 231]",231,a,0.282247255963739,colour,0.5
092,25,1,1,2,33,83,245.02432946668705,245.8081078004907,"[5, 0, 249]",249,a,0.2617562161758542,colour,0.5
092,25,1,1,2,34,84,247.82117838051636,248.8001272911497,"[17, 0, 237]",237,a,0.45675980212399736,colour,0.5
092,25,1,1,2,35,85,250.80549974972382,251.5681206556328,"[94, 0, 160]",160,l,0.2403227019822225,colour,0.5
092,25,1,1,2,36,86,253.5868122112879,254.33614631553064,"[52, 0, 202]",202,a,0.22708394954679534,colour,0.5
092,25,1,1,2,37,87,256.3524078389746,257.12815879573463,"[40, 0, 214]",214,a,0.2534641743695829,colour,0.5
092,25,1,1,2,38,88,259.1336734328361,259.8881499893323,"[58, 0, 196]",196,a,0.23224570028833114,colour,0.5
092,25,1,1,2,39,89,261.89922219279106,262.70412487137946,"[47, 0, 207]",207,a,0.28253870230400935,colour,0.5
092,25,1,1,2,40,90,264.71175367588876,265.51215941642295,"[19, 0, 235]",235,a,0.27824065668391995,colour,0.5
092,25,1,1,2,41,91,267.5242713743646,268.29612364573404,"[39, 0, 215]",215,a,0.24957415359676816,colour,0.5
092,25,1,1,2,42,92,270.3054542604659,271.00012248623534,"[14, 0, 240]",240,a,0.17236096336273476,colour,0.5
092,25,1,1,2,43,93,273.00860002971604,273.7921613541548,"[57, 0, 197]",197,a,0.2612229481746908,colour,0.5
092,25,1,1,2,44,94,275.8054394912324,276.82414522534236,"[9, 0, 245]",245,a,0.49633151781745255,colour,0.5
092,25,1,1,2,45,95,278.83674791586236,279.8081302497303,"[30, 0, 224]",224,a,0.44911524376948364,colour,0.5
092,25,1,1,2,46,96,281.821074798936,282.6321325088502,"[22, 0, 232]",232,a,0.28872878596303053,colour,0.5
092,25,1,1,2,47,97,284.6499906855461,285.4083537181723,"[84, 0, 170]",170,l,0.23683755530510098,colour,0.5
092,25,1,1,2,48,98,287.4148895989638,288.20015706596314,"[66, 0, 188]",188,a,0.2630389738769736,colour,0.5
092,25,1,1,2,49,99,290.2116877066146,291.00016029548715,"[41, 0, 213]",213,a,0.26636028042412363,colour,0.5
092,25,1,1,2,50,100,293.0086185404798,293.8161682606442,"[70, 0, 184]",184,l,0.2852936577692162,colour,0.5
092,25,1,1,3,1,101,302.0702838569123,302.7441636888834,"[81, 0, 173]",173,l,0.1508100829378236,colour,0.5
092,25,1,1,3,2,102,304.75862966664135,305.40015068562934,"[12, 0, 242]",242,a,0.11933899973519146,colour,0.5
092,25,1,1,3,3,103,307.4147568727203,308.0641827825457,"[97, 0, 157]",157,l,0.12699931196402758,colour,0.5
092,25,1,1,3,4,104,310.05861261309474,310.67216148017906,"[55, 0, 199]",199,a,0.09176935884170234,colour,0.5
092,25,1,1,3,5,105,312.6836862131313,313.4801609729184,"[50, 0, 204]",204,a,0.27509539944003336,colour,0.5
092,25,1,1,3,6,106,315.49517872947035,316.224156883196,"[86, 0, 168]",168,l,0.20651886661653407,colour,0.5
092,25,1,1,3,7,107,318.22986253580893,318.99221090003266,"[8, 0, 246]",246,a,0.24066771141951904,colour,0.5
092,25,1,1,3,8,108,321.01092332953704,321.8081747543765,"[74, 0, 180]",180,a,0.2749843347701244,colour,0.5
092,25,1,1,3,9,109,323.8234622957243,324.58415217281436,"[3, 0, 251]",251,a,0.2384082147036679,colour,0.5
092,25,1,1,3,10,110,326.5890197202971,327.38415303925285,"[85, 0, 169]",169,l,0.27268505954998545,colour,0.5
092,25,1,1,3,11,111,329.4016339111258,330.1681913116772,"[62, 0, 192]",192,a,0.24432496895315126,colour,0.5
092,25,1,1,3,12,112,332.18281679725624,332.9845080524101,"[5, 0, 249]",249,a,0.2793457896623295,colour,0.5
092,25,1,1,3,13,113,334.99528290182934,335.6641502508428,"[91, 0, 163]",163,l,0.1466817851178348,colour,0.5
092,25,1,1,3,14,114,337.682784304925,338.4401485431008,"[18, 0, 236]",236,a,0.2349061325949151,colour,0.5
092,25,1,1,3,15,115,340.44840592646506,341.84016374559724,"[70, 0, 184]",184,a,0.8694363782706205,colour,0.5
092,25,1,1,3,16,116,343.8547041603306,344.6082150054863,"[23, 0, 231]",231,a,0.23125911509850994,colour,0.5
092,25,1,1,3,17,117,346.62027261260664,347.41618968587136,"[45, 0, 209]",209,a,0.2736417124106083,colour,0.5
092,25,1,1,3,18,118,349.43273989873705,350.29616578729474,"[79, 0, 175]",175,l,0.3412757708574645,colour,0.5
092,25,1,1,3,19,119,352.3078074926161,353.05619282089174,"[66, 0, 188]",188,a,0.22608161048265174,colour,0.5
092,25,1,1,3,20,120,355.0734791326395,355.80020015273476,"[84, 0, 170]",170,l,0.20521996123716235,colour,0.5
092,25,1,1,3,21,121,357.80775136951706,358.592300460703,"[34, 0, 220]",220,a,0.2622705795802176,colour,0.5
092,25,1,1,3,22,122,360.60464872643934,361.3921662378416,"[25, 0, 229]",229,a,0.2652413628529757,colour,0.5
092,25,1,1,3,23,123,363.4015539603133,364.136180265079,"[44, 0, 210]",210,a,0.2123556700826157,colour,0.5
092,25,1,1,3,24,124,366.1514800156583,366.9362283931114,"[40, 0, 214]",214,a,0.26234974269755185,colour,0.5
092,25,1,1,3,25,125,368.9483529541176,369.72821960560395,"[83, 0, 171]",171,l,0.25757908140076324,colour,0.5
092,25,1,1,3,26,126,371.74525779412943,372.5041848147812,"[11, 0, 243]",243,a,0.23695885998313315,colour,0.5
092,25,1,1,3,27,127,374.51089359415346,375.2322240387439,"[82, 0, 172]",172,l,0.19906650530174375,colour,0.5
092,25,1,1,3,28,128,377.2453143110906,378.2482106574171,"[60, 0, 194]",194,a,0.48082381635322236,colour,0.5
092,25,1,1,3,29,129,380.2608869972173,381.36017724665,"[31, 0, 223]",223,a,0.5769829870259855,colour,0.5
092,25,1,1,3,30,130,383.37022781258565,384.19219861202873,"[47, 0, 207]",207,a,0.29964345088228583,colour,0.5
092,25,1,1,3,31,131,386.19833552642376,386.98446669851546,"[39, 0, 215]",215,a,0.26379043274209835,colour,0.5
092,25,1,1,3,32,132,388.99524863719125,389.7282290579169,"[92, 0, 162]",162,l,0.21077122606220655,colour,0.5
092,25,1,1,3,33,133,391.74514239715063,392.51218068413436,"[43, 0, 211]",211,a,0.245222151017515,colour,0.5
092,25,1,1,3,34,134,394.52645210179617,395.28018704554415,"[42, 0, 212]",212,a,0.23145131213823333,colour,0.5
092,25,1,1,3,35,135,397.2920158279012,397.968207538157,"[48, 0, 206]",206,a,0.15389626321848482,colour,0.5
092,25,1,1,3,36,136,399.9796432618459,400.64821168142953,"[95, 0, 159]",159,l,0.1465782035375014,colour,0.5
092,25,1,1,3,37,137,402.66742153890664,403.3762217607291,"[6, 0, 248]",248,a,0.1863633839529939,colour,0.5
092,25,1,1,3,38,138,405.3861841050675,406.0962375460949,"[49, 0, 205]",205,a,0.18807031417964026,colour,0.5
092,25,1,1,3,39,139,408.10497069585836,408.888216549356,"[65, 0, 189]",189,a,0.2611752927477937,colour,0.5
092,25,1,1,3,40,140,410.9019184651552,411.680257780361,"[29, 0, 225]",225,a,0.2562214929203037,colour,0.5
092,25,1,1,3,41,141,413.69850625883555,414.24821262664045,"[0, 0, 254]",254,a,0.02713601602590643,colour,0.5
092,25,1,1,3,42,142,416.26115048045176,417.0002520616981,"[53, 0, 201]",201,a,0.21686560503439978,colour,0.5
092,25,1,1,3,43,143,419.0111501850479,419.6242343134072,"[13, 0, 241]",241,a,0.0909560660365969,colour,0.5
092,25,1,1,3,44,144,421.636182431248,422.224200206314,"[36, 0, 218]",218,a,0.06571996497223154,colour,0.5
092,25,1,1,3,45,145,424.2298857727437,424.9922554046789,"[64, 0, 190]",190,a,0.24029434504336677,colour,0.5
092,25,1,1,3,46,146,427.0111647573649,427.78422574332217,"[94, 0, 160]",160,l,0.2507517542981077,colour,0.5
092,25,1,1,3,47,147,429.7923886035278,430.54421378613915,"[90, 0, 164]",164,l,0.22942536632763222,colour,0.5
092,25,1,1,3,48,148,432.5580295235268,433.320244767674,"[98, 0, 156]",156,l,0.23996863409411162,colour,0.5
092,25,1,1,3,49,149,435.3392356465629,436.3522156419349,"[71, 0, 183]",183,a,0.4906172006158158,colour,0.5
092,25,1,1,3,50,150,438.3704578188772,439.1202220033447,"[15, 0, 239]",239,a,0.22734940200462006,colour,0.5
092,25,1,1,4,1,151,447.1666147446085,447.7202406716533,"[27, 0, 227]",227,a,0.03053530419128947,colour,0.5
092,25,1,1,4,2,152,449.72982964964467,450.4482200309576,"[93, 0, 161]",161,l,0.19637653446989134,colour,0.5
092,25,1,1,4,3,153,452.46420940654934,453.200263010629,"[39, 0, 215]",215,a,0.21410159108927473,colour,0.5
092,25,1,1,4,4,154,455.2142429819505,456.224268341728,"[72, 0, 182]",182,l,0.4876389342243783,colour,0.5
092,25,1,1,4,5,155,458.22990625276,458.95223824871937,"[95, 0, 159]",159,l,0.2001019274466671,colour,0.5
092,25,1,1,4,6,156,460.9642919173639,461.7602720060677,"[69, 0, 185]",185,a,0.27368621705682017,colour,0.5
092,25,1,1,4,7,157,463.7768312774133,464.57623152813176,"[80, 0, 174]",174,l,0.27722098838421516,colour,0.5
092,25,1,1,4,8,158,466.5891776526987,467.4562761588022,"[75, 0, 179]",179,a,0.34472901598201133,colour,0.5
092,25,1,1,4,9,159,469.4641637203749,470.448265717132,"[11, 0, 243]",243,a,0.4619573928939644,colour,0.5
092,25,1,1,4,10,160,472.4642357942648,473.0642725795333,"[28, 0, 226]",226,a,0.07796464915736578,colour,0.5
092,25,1,1,4,11,161,475.07362840042333,476.976280207542,"[14, 0, 240]",240,a,1.3810239297163207,colour,0.5
092,25,1,1,4,12,162,478.99555268662516,479.784273792553,"[30, 0, 224]",224,a,0.2666316405811813,colour,0.5
092,25,1,1,4,13,163,481.7924752497347,482.5682726803352,"[61, 0, 193]",193,a,0.25450550418463536,colour,0.5
092,25,1,1,4,14,164,484.5737254835549,485.3042703582323,"[91, 0, 163]",163,l,0.20837073234724812,colour,0.5
092,25,1,1,4,15,165,487.32363027118845,488.072266873467,"[67, 0, 187]",187,a,0.2263769952696748,colour,0.5
092,25,1,1,4,16,166,490.08922826196067,490.840274022572,"[57, 0, 197]",197,a,0.228719199745683,colour,0.5
092,25,1,1,4,17,167,492.854923926614,493.43225389230065,"[40, 0, 214]",214,a,0.05503412481630221,colour,0.5
092,25,1,1,4,18,168,495.44856346500455,496.19228328898316,"[49, 0, 205]",205,a,0.22134875843767077,colour,0.5
092,25,1,1,4,19,169,498.1985741973331,498.92826284994953,"[15, 0, 239]",239,a,0.20732467633206397,colour,0.5
092,25,1,1,4,20,170,500.94856444961624,501.98430128305336,"[64, 0, 190]",190,a,0.5135237002978101,colour,0.5
092,25,1,1,4,21,171,503.99548494504415,504.7762885570701,"[96, 0, 158]",158,l,0.2586916974396445,colour,0.5
092,25,1,1,4,22,172,506.79227360038203,507.62425361186615,"[82, 0, 172]",172,l,0.30972237372770905,colour,0.5
092,25,1,1,4,23,173,509.63616746506887,510.41626609207015,"[3, 0, 251]",251,a,0.25791660774848424,colour,0.5
092,25,1,1,4,24,174,512.4329746311705,513.1922651720524,"[86, 0, 168]",168,l,0.23705141388927586,colour,0.5
092,25,1,1,4,25,175,515.1985478096176,516.0723062581092,"[68, 0, 186]",186,a,0.35136532757314853,colour,0.5
092,25,1,1,4,26,176,518.0891943911556,518.9282573360833,"[73, 0, 181]",181,a,0.31676749789039604,colour,0.5
092,25,1,1,4,27,177,520.9485624803929,521.7602787014621,"[7, 0, 247]",247,a,0.2894231371174101,colour,0.5
092,25,1,1,4,28,178,523.7766883111617,524.5122602411138,"[37, 0, 217]",217,a,0.2132028336636722,colour,0.5
092,25,1,1,4,29,179,526.5266821080877,527.2242687355902,"[17, 0, 237]",237,a,0.1752947251079604,colour,0.5
092,25,1,1,4,30,180,529.2298018834554,529.9122833205038,"[46, 0, 208]",208,a,0.16044632249395363,colour,0.5
092,25,1,1,4,31,181,531.9172804434493,532.5762973004603,"[35, 0, 219]",219,a,0.1366828130558133,colour,0.5
092,25,1,1,4,32,182,534.5891240895726,535.2402821358119,"[33, 0, 221]",221,a,0.12881848841789179,colour,0.5
092,25,1,1,4,33,183,537.2453529080376,537.992314481613,"[65, 0, 189]",189,a,0.22504894525627606,colour,0.5
092,25,1,1,4,34,184,540.0110288803698,540.8003490266856,"[16, 0, 238]",238,a,0.267054631607607,colour,0.5
092,25,1,1,4,35,185,542.8078368341667,543.4004823043069,"[13, 0, 241]",241,a,0.07051071242312901,colour,0.5
092,25,1,1,4,36,186,545.4197272141173,546.2563045945135,"[81, 0, 173]",173,l,0.3142705118225422,colour,0.5
092,25,1,1,4,37,187,548.2634804756672,549.0243121374515,"[24, 0, 230]",230,a,0.23894857193226926,colour,0.5
092,25,1,1,4,38,188,551.0447070787195,551.7842812756426,"[23, 0, 231]",231,a,0.2172610268171411,colour,0.5
092,25,1,1,4,39,189,553.7947749187588,554.5683431788348,"[18, 0, 236]",236,a,0.2513878161844332,colour,0.5
092,25,1,1,4,40,190,556.5760168818524,557.5203084920067,"[71, 0, 183]",183,l,0.4219941939227283,colour,0.5
092,25,1,1,4,41,191,559.529166884924,560.2162850754685,"[32, 0, 222]",222,a,0.1650102144049015,colour,0.5
092,25,1,1,4,42,192,562.232190561801,562.9763652783586,"[19, 0, 235]",235,a,0.22180365104577504,colour,0.5
092,25,1,1,4,43,193,564.9822643095395,565.7523127644672,"[76, 0, 178]",178,l,0.24809959274716675,colour,0.5
092,25,1,1,4,44,194,567.7634306541004,569.3603280897951,"[29, 0, 225]",225,a,1.074728807201609,colour,0.5
092,25,1,1,4,45,195,571.3728059310233,572.1842996288906,"[97, 0, 157]",157,l,0.28915610929834656,colour,0.5
092,25,1,1,4,46,196,574.2010948141979,574.9843292461301,"[98, 0, 156]",156,l,0.2611000680772122,colour,0.5
092,25,1,1,4,47,197,576.9979626326531,577.8083303236926,"[34, 0, 220]",220,a,0.28819709332310595,colour,0.5
092,25,1,1,4,48,198,579.8259265925735,580.5763114789443,"[99, 0, 155]",155,l,0.22809416553354822,colour,0.5
092,25,1,1,4,49,199,582.591584447975,583.3363345740945,"[88, 0, 166]",166,l,0.22245782989193685,colour,0.5
092,25,1,1,4,50,200,585.3415924233559,586.0563105809852,"[92, 0, 162]",162,l,0.19239002137328498,colour,0.5
092,25,1,1,5,1,201,594.8095260413247,595.3683267160668,"[13, 0, 241]",241,a,0.03574549802578986,colour,0.4
092,25,1,1,5,2,202,597.3884479341214,598.0243211959314,"[27, 0, 227]",227,a,0.11360971635440364,colour,0.4
092,25,1,1,5,3,203,600.0446578479314,600.808355923713,"[88, 0, 166]",166,l,0.24140814261045307,colour,0.4
092,25,1,1,5,4,204,602.8258722417522,603.3523393096984,"[4, 0, 250]",250,a,0.0042243963398505,colour,0.4
092,25,1,1,5,5,205,605.3727444909746,606.0563290917489,"[99, 0, 155]",155,l,0.16128206450957805,colour,0.4
092,25,1,1,5,6,206,608.0758953802288,608.8243130039191,"[55, 0, 199]",199,a,0.2268090447760187,colour,0.4
092,25,1,1,5,7,207,610.8414878571348,611.7523115829099,"[74, 0, 180]",180,l,0.38853694338467903,colour,0.4
092,25,1,1,5,8,208,613.7633503094257,614.5283256290422,"[86, 0, 168]",168,l,0.24312176823150367,colour,0.4
092,25,1,1,5,9,209,616.5445666724991,617.3443395018985,"[58, 0, 196]",196,a,0.27746871777344495,colour,0.4
092,25,1,1,5,10,210,619.3570930355927,620.1363531636307,"[0, 0, 254]",254,a,0.2569221456069499,colour,0.4
092,25,1,1,5,11,211,622.1540557710105,622.9363217347127,"[49, 0, 205]",205,a,0.2600299874902703,colour,0.4
092,25,1,1,5,12,212,624.9508499402145,625.7044367977069,"[26, 0, 228]",228,a,0.2312728996912483,colour,0.4
092,25,1,1,5,13,213,627.7164408417302,628.7683415247011,"[77, 0, 177]",177,l,0.5295371005195193,colour,0.4
092,25,1,1,5,14,214,630.7789438694308,631.4403265616857,"[25, 0, 229]",229,a,0.13921170070534572,colour,0.4
092,25,1,1,5,15,215,633.4508485617407,634.2323622788244,"[65, 0, 189]",189,a,0.2592458393191919,colour,0.4
092,25,1,1,5,16,216,636.2476557278715,636.960347545828,"[85, 0, 169]",169,l,0.1904105494322721,colour,0.4
092,25,1,1,5,17,217,638.9664683125156,639.5923697776452,"[18, 0, 236]",236,a,0.10362019657623023,colour,0.4
092,25,1,1,5,18,218,641.6070933309675,642.8163667592162,"[72, 0, 182]",182,l,0.6869701042887755,colour,0.4
092,25,1,1,5,19,219,644.8257867771026,645.8643809660571,"[75, 0, 179]",179,l,0.5163011050317436,colour,0.4
092,25,1,1,5,20,220,647.8726824601763,648.6803692388639,"[53, 0, 201]",201,a,0.285427171678748,colour,0.4
092,25,1,1,5,21,221,650.7008941494569,651.5123689426982,"[66, 0, 188]",188,a,0.28923054624465294,colour,0.4
092,25,1,1,5,22,222,653.5289612971246,654.2563467360742,"[24, 0, 230]",230,a,0.20538813364692032,colour,0.4
092,25,1,1,5,23,223,656.2633123032574,656.8403835118806,"[7, 0, 247]",247,a,0.05506799562135711,colour,0.4
092,25,1,1,5,24,224,658.8570227340097,659.7603491999616,"[69, 0, 185]",185,a,0.38100541892345063,colour,0.4
092,25,1,1,5,25,225,661.7789237832476,662.5043596825853,"[8, 0, 246]",246,a,0.203247972385725,colour,0.4
092,25,1,1,5,26,226,664.5132491893892,665.2963816151023,"[89, 0, 165]",165,l,0.26107368039083667,colour,0.4
092,25,1,1,5,27,227,667.3101756909455,668.0643761611136,"[84, 0, 170]",170,l,0.23204326324048452,colour,0.4
092,25,1,1,5,28,228,670.0758055832703,670.8803916093602,"[28, 0, 226]",226,a,0.2829565733263735,colour,0.4
092,25,1,1,5,29,229,672.888245300157,673.6483479522576,"[93, 0, 161]",161,l,0.2377969650842715,colour,0.4
092,25,1,1,5,30,230,675.6538657401397,676.2883514811401,"[47, 0, 207]",207,a,0.11225015862146392,colour,0.4
092,25,1,1,5,31,231,678.2944903647585,679.0723822704749,"[80, 0, 174]",174,l,0.2556358433503192,colour,0.4
092,25,1,1,5,32,232,681.0914164724818,681.8163773930573,"[36, 0, 218]",218,a,0.20274936282658018,colour,0.4
092,25,1,1,5,33,233,683.8257733863138,684.62437885502,"[16, 0, 238]",238,a,0.2763537386490498,colour,0.4
092,25,1,1,5,34,234,686.6382670601597,687.3843995871139,"[33, 0, 221]",221,a,0.22390679075033404,colour,0.4
092,25,1,1,5,35,235,689.4038827740005,690.3523684543325,"[73, 0, 181]",181,l,0.42628987645730376,colour,0.4
092,25,1,1,5,36,236,692.3726334263047,693.3683869745582,"[60, 0, 194]",194,a,0.47351245203753933,colour,0.4
092,25,1,1,5,37,237,695.388233681675,696.1923620582675,"[19, 0, 235]",235,a,0.2818415942019783,colour,0.4
092,25,1,1,5,38,238,698.2007372016669,698.9923841924465,"[94, 0, 160]",160,l,0.26939289760775864,colour,0.4
092,25,1,1,5,39,239,700.9975723308744,702.1603990609292,"[70, 0, 184]",184,l,0.6405809076677542,colour,0.4
092,25,1,1,5,40,240,704.1694673739839,704.9764003306918,"[56, 0, 198]",198,a,0.284712340508122,colour,0.4
092,25,1,1,5,41,241,706.9819949186058,707.7684033585829,"[97, 0, 157]",157,l,0.26434181770309806,colour,0.4
092,25,1,1,5,42,242,709.7787871185574,710.608393024042,"[15, 0, 239]",239,a,0.3074148277519271,colour,0.4
092,25,1,1,5,43,243,712.6225947308994,713.4163976367854,"[81, 0, 173]",173,l,0.2715460558247287,colour,0.4
092,25,1,1,5,44,244,715.4350076662377,716.2483973405906,"[50, 0, 204]",204,a,0.2912084427953232,colour,0.4
092,25,1,1,5,45,245,718.2632189616561,719.04839702553,"[29, 0, 225]",225,a,0.2631921801075805,colour,0.4
092,25,1,1,5,46,246,721.060021795478,722.0884094553185,"[64, 0, 190]",190,a,0.5060902436089236,colour,0.4
092,25,1,1,5,47,247,724.1068863646942,725.0644190903695,"[79, 0, 175]",175,l,0.4352104970894288,colour,0.4
092,25,1,1,5,48,248,727.0755952692998,728.0403980054252,"[91, 0, 163]",163,l,0.44244703062577173,colour,0.4
092,25,1,1,5,49,249,730.0600158877787,730.8323939440597,"[35, 0, 219]",219,a,0.2500912738905754,colour,0.4
092,25,1,1,5,50,250,732.8413472539687,733.6003912470187,"[62, 0, 192]",192,a,0.23684740148019046,colour,0.4
092,25,1,1,6,1,251,741.6529736780794,742.1847608230019,"[82, 0, 172]",172,l,0.008736694377148524,colour,0.28
092,25,1,1,6,2,252,744.2163130385743,744.952435171901,"[60, 0, 194]",194,a,0.21383692632662132,colour,0.28
092,25,1,1,6,3,253,746.9662323985249,747.6724281141942,"[48, 0, 206]",206,a,0.183849068620475,colour,0.28
092,25,1,1,6,4,254,749.6849240723241,750.4244431307598,"[77, 0, 177]",177,l,0.21713972213910893,colour,0.28
092,25,1,1,6,5,255,752.4349288969534,753.1284254297207,"[99, 0, 155]",155,l,0.17115855033625849,colour,0.28
092,25,1,1,6,6,256,755.1380557615776,755.664431851008,"[85, 0, 169]",169,l,0.004621393512934446,colour,0.28
092,25,1,1,6,7,257,757.6849906323769,758.4244175307394,"[45, 0, 209]",209,a,0.21712633135030046,colour,0.28
092,25,1,1,6,8,258,760.4350112108514,761.1924160152266,"[96, 0, 158]",158,l,0.23514559122850187,colour,0.28
092,25,1,1,6,9,259,763.2006930908829,763.8884193802369,"[13, 0, 241]",241,a,0.16614409815520048,colour,0.28
092,25,1,1,6,10,260,765.9037120415887,766.5844073852641,"[46, 0, 208]",208,a,0.15861375525128096,colour,0.28
092,25,1,1,6,11,261,768.5912047800375,769.1604577440303,"[52, 0, 202]",202,a,0.046939006191678345,colour,0.28
092,25,1,1,6,12,262,771.1692948692653,772.0244590421498,"[75, 0, 179]",179,l,0.332891962811118,colour,0.28
092,25,1,1,6,13,263,774.0442608507874,774.6164932626707,"[61, 0, 193]",193,a,0.0506435252900701,colour,0.28
092,25,1,1,6,14,264,776.6224332538841,777.2404463697458,"[38, 0, 216]",216,a,0.0956459887966048,colour,0.28
092,25,1,1,6,15,265,779.2474158754048,779.8804239047458,"[94, 0, 160]",160,l,0.11092250244109891,colour,0.28
092,25,1,1,6,16,266,781.8881027277384,782.608484790253,"[57, 0, 197]",197,a,0.19829102174844593,colour,0.28
092,25,1,1,6,17,267,784.6223820538435,785.2804611626198,"[93, 0, 161]",161,l,0.1357222217193339,colour,0.28
092,25,1,1,6,18,268,787.2942906846292,787.9684788983141,"[74, 0, 180]",180,l,0.15187583127408288,colour,0.28
092,25,1,1,6,19,269,789.9818889739399,790.6084473748342,"[25, 0, 229]",229,a,0.10432833238155581,colour,0.28
092,25,1,1,6,20,270,792.6224159246485,793.4564671742846,"[68, 0, 186]",186,a,0.31179282418452203,colour,0.28
092,25,1,1,6,21,271,795.4661042015359,796.1524476962222,"[50, 0, 204]",204,a,0.16426033087191172,colour,0.28
092,25,1,1,6,22,272,798.1692661184643,798.7444559228898,"[66, 0, 188]",188,a,0.05294240664807148,colour,0.28
092,25,1,1,6,23,273,800.7629911215336,801.4084194905299,"[92, 0, 162]",162,l,0.12322783895069733,colour,0.28
092,25,1,1,6,24,274,803.4192691707867,804.0484340470866,"[15, 0, 239]",239,a,0.10689739236840978,colour,0.28
092,25,1,1,6,25,275,806.0599272723484,806.7444515905809,"[43, 0, 211]",211,a,0.16237498822738416,colour,0.28
092,25,1,1,6,26,276,808.7630832815776,809.3924427180027,"[33, 0, 221]",221,a,0.10730935569154099,colour,0.28
092,25,1,1,6,27,277,811.4036582815461,812.1364331144723,"[89, 0, 165]",165,l,0.21054712746990845,colour,0.28
092,25,1,1,6,28,278,814.1535851245862,814.784476623463,"[30, 0, 224]",224,a,0.10862559033557773,colour,0.28
092,25,1,1,6,29,279,816.7942459830665,817.5924690269458,"[97, 0, 157]",157,l,0.2760150307440199,colour,0.28
092,25,1,1,6,30,280,819.6066967276565,820.3524795190024,"[90, 0, 164]",164,l,0.22352042741840705,colour,0.28
092,25,1,1,6,31,281,822.3723159861111,823.1124344787386,"[84, 0, 170]",170,l,0.21786164253717288,colour,0.28
092,25,1,1,6,32,282,825.1222684291715,825.8244788132433,"[59, 0, 195]",195,a,0.17984325700672343,colour,0.28
092,25,1,1,6,33,283,827.8410077583976,828.552464867942,"[64, 0, 190]",190,a,0.1892073487106245,colour,0.28
092,25,1,1,6,34,284,830.5598097092006,831.2244971664913,"[7, 0, 247]",247,a,0.14236325948149897,colour,0.28
092,25,1,1,6,35,285,833.231667927641,834.0644376011624,"[88, 0, 166]",166,l,0.310517549602082,colour,0.28
092,25,1,1,6,36,286,836.0754156753246,836.7364671427931,"[62, 0, 192]",192,a,0.13880722047179006,colour,0.28
092,25,1,1,6,37,287,838.7473097337934,839.3444844373735,"[53, 0, 201]",201,a,0.07510177974472754,colour,0.28
092,25,1,1,6,38,288,841.3567141553503,841.904468620487,"[39, 0, 215]",215,a,0.02555039047729224,colour,0.28
092,25,1,1,6,39,289,843.9191008014604,844.512498124328,"[65, 0, 189]",189,a,0.0710648543026764,colour,0.28
092,25,1,1,6,40,290,846.5285123122449,847.1764687811956,"[91, 0, 163]",163,l,0.1256515696295537,colour,0.28
092,25,1,1,6,41,291,849.184872675396,849.7445138182957,"[80, 0, 174]",174,l,0.03786833005142398,colour,0.28
092,25,1,1,6,42,292,851.7629359830462,852.3684893746395,"[54, 0, 200]",200,a,0.08345053545781411,colour,0.28
092,25,1,1,6,43,293,854.3878953676322,855.0244606175402,"[67, 0, 187]",187,a,0.11432336599682458,colour,0.28
092,25,1,1,6,44,294,857.044167115324,857.6644775371824,"[20, 0, 234]",234,a,0.09798622404923663,colour,0.28
092,25,1,1,6,45,295,859.6847972538089,860.3604812960548,"[98, 0, 156]",156,l,0.15336102599394508,colour,0.28
092,25,1,1,6,46,296,862.3722687245463,862.9845395601005,"[22, 0, 232]",232,a,0.08999547470011748,colour,0.28
092,25,1,1,6,47,297,864.9972615860752,865.7924559512467,"[71, 0, 183]",183,l,0.27310923210461624,colour,0.28
092,25,1,1,6,48,298,867.8097670753195,869.1045059571334,"[69, 0, 185]",185,a,0.7724576132604852,colour,0.28
092,25,1,1,6,49,299,871.1222325891431,871.880507006339,"[56, 0, 198]",198,a,0.2360089024878107,colour,0.28
092,25,1,1,6,50,300,873.8878510599025,874.9204946238024,"[73, 0, 181]",181,l,0.5103201537858695,colour,0.28
092,25,1,1,7,1,301,883.433993511775,886.0644872258126,"[98, 0, 156]",156,l,2.107447201939067,colour,0.14
092,25,1,1,7,2,302,888.0754278845852,888.6085225995048,"[71, 0, 183]",183,a,0.010931206459645182,colour,0.14
092,25,1,1,7,3,303,890.6222516906855,891.6245344243653,"[56, 0, 198]",198,a,0.48007629593485035,colour,0.14
092,25,1,1,7,4,304,893.6379216568894,894.4005193258636,"[99, 0, 155]",155,l,0.2403813850833103,colour,0.14
092,25,1,1,7,5,305,896.4189828444505,897.288524773554,"[76, 0, 178]",178,l,0.3470991835347377,colour,0.14
092,25,1,1,7,6,306,899.2940583152813,900.0324919330596,"[78, 0, 176]",176,l,0.21611178305465728,colour,0.14
092,25,1,1,7,7,307,902.0440867706784,902.6564962401462,"[93, 0, 161]",161,l,0.09010772092733532,colour,0.14
092,25,1,1,7,8,308,904.6689642352285,905.3605187114445,"[26, 0, 228]",228,a,0.16908573679393157,colour,0.14
092,25,1,1,7,9,309,907.3721466321731,908.0965124508657,"[30, 0, 224]",224,a,0.20205737475771457,colour,0.14
092,25,1,1,7,10,310,910.1064684936719,910.9125070252339,"[67, 0, 187]",187,a,0.2836804629478138,colour,0.14
092,25,1,1,7,11,311,912.918987373705,913.5208169476828,"[68, 0, 186]",186,a,0.07999886572360992,colour,0.14
092,25,1,1,7,12,312,915.5283500475343,916.1845075797755,"[96, 0, 158]",158,l,0.13382348828599788,colour,0.14
092,25,1,1,7,13,313,918.2002263829054,918.912511751405,"[60, 0, 194]",194,a,0.19051806948846206,colour,0.14
092,25,1,1,7,14,314,920.9189692567452,921.5525270956568,"[90, 0, 164]",164,l,0.11125097033800557,colour,0.14
092,25,1,1,7,15,315,923.5595974259777,924.184519395174,"[94, 0, 160]",160,l,0.102528454415733,colour,0.14
092,25,1,1,7,16,316,926.2002346536901,926.9205359776679,"[61, 0, 193]",193,a,0.19825124327326193,colour,0.14
092,25,1,1,7,17,317,928.9346006260021,929.5605292665423,"[62, 0, 192]",192,a,0.1035445781017188,colour,0.14
092,25,1,1,7,18,318,931.5752859029453,932.1845650813484,"[36, 0, 218]",218,a,0.08703138679265976,colour,0.14
092,25,1,1,7,19,319,934.2002901860396,934.8644987261214,"[84, 0, 170]",170,l,0.14264840428950265,colour,0.14
092,25,1,1,7,20,320,936.8721058690571,937.64852400159,"[66, 0, 188]",188,a,0.2545901811681688,colour,0.14
092,25,1,1,7,21,321,939.6534470814222,940.2725196440879,"[79, 0, 175]",175,l,0.09692756496951915,colour,0.14
092,25,1,1,7,22,322,942.2784253706632,943.072532719787,"[97, 0, 157]",157,l,0.27195053605828434,colour,0.14
092,25,1,1,7,23,323,945.0908308229118,945.7925646528602,"[52, 0, 202]",202,a,0.17951715222443454,colour,0.14
092,25,1,1,7,24,324,947.8096079613897,948.4966844042065,"[70, 0, 184]",184,a,0.1648680358484853,colour,0.14
092,25,1,1,7,25,325,950.5126989859855,951.2565448408131,"[95, 0, 159]",159,l,0.2216602909611538,colour,0.14
092,25,1,1,7,26,326,953.2628105429758,954.0005399633956,"[51, 0, 203]",203,a,0.21564349968684837,colour,0.14
092,25,1,1,7,27,327,956.0127263583126,956.7765469203005,"[64, 0, 190]",190,a,0.2416519335238263,colour,0.14
092,25,1,1,7,28,328,958.7939568998409,959.4805237054243,"[6, 0, 248]",248,a,0.16430877399398014,colour,0.14
092,25,1,1,7,29,329,961.4970581644156,962.0325494346325,"[59, 0, 195]",195,a,0.013436463341349736,colour,0.14
092,25,1,1,7,30,330,964.0439355336712,964.6965378145687,"[54, 0, 200]",200,a,0.13023357847123407,colour,0.14
092,25,1,1,7,31,331,966.7158331367536,967.3445273666293,"[69, 0, 185]",185,a,0.10646573675330728,colour,0.14
092,25,1,1,7,32,332,969.3564668198233,970.3365496142069,"[65, 0, 189]",189,a,0.4583501538436394,colour,0.14
092,25,1,1,7,33,333,972.3564908444532,973.1285506728746,"[77, 0, 177]",177,l,0.24979982757940888,colour,0.14
092,25,1,1,7,34,334,975.1375087089546,975.824578850239,"[12, 0, 242]",242,a,0.16490269434871152,colour,0.14
092,25,1,1,7,35,335,977.8408726690686,978.6405395538022,"[85, 0, 169]",169,l,0.2775210993422661,colour,0.14
092,25,1,1,7,36,336,980.6533045090328,981.344584080507,"[19, 0, 235]",235,a,0.1692649369360879,colour,0.14
092,25,1,1,7,37,337,983.3563841120922,984.096619970951,"[74, 0, 180]",180,l,0.21870329228113405,colour,0.14
092,25,1,1,7,38,338,986.1062987459009,986.752718426229,"[83, 0, 171]",171,l,0.12497375998646021,colour,0.14
092,25,1,1,7,39,339,988.762809558335,989.6005629640422,"[72, 0, 182]",182,l,0.3160688144271262,colour,0.14
092,25,1,1,7,40,340,991.606229625846,992.3205622078385,"[41, 0, 213]",213,a,0.19296464321087115,colour,0.14
092,25,1,1,7,41,341,994.3250083397143,994.9365572548413,"[53, 0, 201]",201,a,0.09032197337364778,colour,0.14
092,25,1,1,7,42,342,996.9499480319791,997.7767174557957,"[75, 0, 179]",179,l,0.30451926912064664,colour,0.14
092,25,1,1,7,43,343,999.7938548936218,1000.4406038295419,"[57, 0, 197]",197,a,0.12487411685287952,colour,0.14
092,25,1,1,7,44,344,1002.4500427520252,1003.1766905167024,"[55, 0, 199]",199,a,0.2046406131994445,colour,0.14
092,25,1,1,7,45,345,1005.1845008843811,1005.8326889350137,"[73, 0, 181]",181,l,0.12642390237306245,colour,0.14
092,25,1,1,7,46,346,1007.8406123366149,1008.4325736955507,"[81, 0, 173]",173,l,0.06964385652099736,colour,0.14
092,25,1,1,7,47,347,1010.4501230966998,1011.1365426037519,"[82, 0, 172]",172,l,0.16411697078729048,colour,0.14
092,25,1,1,7,48,348,1013.1532109705149,1013.7286169966101,"[87, 0, 167]",167,l,0.05304244364378974,colour,0.14
092,25,1,1,7,49,349,1015.7469477889827,1016.4165614768863,"[80, 0, 174]",174,l,0.14756163794663735,colour,0.14
092,25,1,1,7,50,350,1018.4350053031521,1019.1445814023609,"[92, 0, 162]",162,l,0.18788796331500635,colour,0.14
092,25,1,1,8,1,351,1027.7305610223848,1028.5365975847235,"[52, 0, 202]",202,a,0.28316531190648675,colour,0.06
092,25,1,1,8,2,352,1030.5438041859015,1031.1846733890998,"[86, 0, 168]",168,l,0.11859502390143462,colour,0.06
092,25,1,1,8,3,353,1033.199963687366,1033.8805617509934,"[43, 0, 211]",211,a,0.15889574924949557,colour,0.06
092,25,1,1,8,4,354,1035.8876253859198,1036.656577372516,"[57, 0, 197]",197,a,0.24674318576580845,colour,0.06
092,25,1,1,8,5,355,1038.668725170457,1039.3925915919535,"[92, 0, 162]",162,l,0.20139886360266246,colour,0.06
092,25,1,1,8,6,356,1041.4031293458538,1042.0805884537695,"[68, 0, 186]",186,a,0.15520304552046582,colour,0.06
092,25,1,1,8,7,357,1044.0906567428028,1045.024581134523,"[74, 0, 180]",180,a,0.41167502471944317,colour,0.06
092,25,1,1,8,8,358,1047.0437842966348,1047.904584017495,"[80, 0, 174]",174,l,0.3385306615382433,colour,0.06
092,25,1,1,8,9,359,1049.9187475212384,1050.5366042800888,"[89, 0, 165]",165,l,0.09551326258224435,colour,0.06
092,25,1,1,8,10,360,1052.5437907951127,1053.240617299074,"[62, 0, 192]",192,a,0.174586589273531,colour,0.06
092,25,1,1,8,11,361,1055.2468944228021,1055.9686254091794,"[70, 0, 184]",184,a,0.1996364010265097,colour,0.06
092,25,1,1,8,12,362,1057.981298992032,1058.696621310024,"[72, 0, 182]",182,a,0.1934837327862624,colour,0.06
092,25,1,1,8,13,363,1060.7157134074369,1061.4006162120786,"[3, 0, 251]",251,a,0.16270778843318112,colour,0.06
092,25,1,1,8,14,364,1063.4187229058298,1064.1286069929192,"[81, 0, 173]",173,l,0.18757367390207946,colour,0.06
092,25,1,1,8,15,365,1066.1374898042995,1067.0645967150922,"[75, 0, 179]",179,l,0.4048421837796923,colour,0.06
092,25,1,1,8,16,366,1069.074923761189,1069.8646208184946,"[71, 0, 183]",183,a,0.26738664411823265,colour,0.06
092,25,1,1,8,17,367,1071.8718853151076,1072.5526224064815,"[97, 0, 157]",157,l,0.15912102939910255,colour,0.06
092,25,1,1,8,18,368,1074.5593630873773,1075.2165997587435,"[58, 0, 196]",196,a,0.13500975360511802,colour,0.06
092,25,1,1,8,19,369,1077.2314832136908,1078.000624640379,"[87, 0, 167]",167,l,0.24742887233151123,colour,0.06
092,25,1,1,8,20,370,1080.0124585427693,1080.6566199079098,"[66, 0, 188]",188,a,0.12193996124551632,colour,0.06
092,25,1,1,8,21,371,1082.668758253567,1083.256622034707,"[82, 0, 172]",172,l,0.06552343565272167,colour,0.06
092,25,1,1,8,22,372,1085.262444265827,1086.1526308348111,"[78, 0, 176]",176,l,0.36793838354060426,colour,0.06
092,25,1,1,8,23,373,1088.1687694781867,1088.8406288781553,"[84, 0, 170]",170,l,0.14960924530168995,colour,0.06
092,25,1,1,8,24,374,1090.8561995950586,1091.7286012427649,"[69, 0, 185]",185,a,0.35008808376733214,colour,0.06
092,25,1,1,8,25,375,1093.746799702727,1094.3046496323077,"[51, 0, 203]",203,a,0.036067270557396114,colour,0.06
092,25,1,1,8,26,376,1096.3145174535166,1097.4565928113007,"[73, 0, 181]",181,l,0.6202895480091684,colour,0.06
092,25,1,1,8,27,377,1099.4707972750766,1100.2166269341542,"[28, 0, 226]",226,a,0.22361416288185865,colour,0.06
092,25,1,1,8,28,378,1102.2363830565882,1102.992629164888,"[61, 0, 193]",193,a,0.23383565814583562,colour,0.06
092,25,1,1,8,29,379,1105.0019444196078,1105.6326248168189,"[76, 0, 178]",178,l,0.10827743011759594,colour,0.06
092,25,1,1,8,30,380,1107.6425836165436,1108.2966143783124,"[96, 0, 158]",158,l,0.13177312398329377,colour,0.06
092,25,1,1,8,31,381,1110.3144016626757,1111.0326309608354,"[88, 0, 166]",166,l,0.19602364810998552,colour,0.06
092,25,1,1,8,32,382,1113.0488944535027,1113.7286299935367,"[85, 0, 169]",169,l,0.15744600069592707,colour,0.06
092,25,1,1,8,33,383,1115.7363009396067,1116.4246483247261,"[67, 0, 187]",187,a,0.16605705808615312,colour,0.06
092,25,1,1,8,34,384,1118.439476247324,1119.0966577802028,"[95, 0, 159]",159,l,0.13495500897988677,colour,0.06
092,25,1,1,8,35,385,1121.1113368288497,1121.8806480033381,"[54, 0, 200]",200,a,0.2470153336180374,colour,0.06
092,25,1,1,8,36,386,1123.8925634319312,1124.7766469572962,"[93, 0, 161]",161,l,0.3617880783567671,colour,0.06
092,25,1,1,8,37,387,1126.7832482165832,1131.0566382611578,"[50, 0, 204]",204,a,3.7510827821679413,colour,0.06
092,25,1,1,8,38,388,1133.064489195036,1133.8646503569616,"[53, 0, 201]",201,a,0.2781095058307983,colour,0.06
092,25,1,1,8,39,389,1135.8770179212152,1136.6966729038977,"[77, 0, 177]",177,l,0.2973867110849824,colour,0.06
092,25,1,1,8,40,390,1138.7051228781056,1139.4006831659644,"[56, 0, 198]",198,a,0.17317189308232628,colour,0.06
092,25,1,1,8,41,391,1141.4082918842905,1141.9926464941236,"[94, 0, 160]",160,l,0.06215683670598082,colour,0.06
092,25,1,1,8,42,392,1144.0020314596768,1144.760679243249,"[79, 0, 175]",175,l,0.23640747505123727,colour,0.06
092,25,1,1,8,43,393,1146.7630813123542,1147.3606604961678,"[64, 0, 190]",190,a,0.0754440322634764,colour,0.06
092,25,1,1,8,44,394,1149.372412478493,1150.1366387022717,"[65, 0, 189]",189,a,0.24193510907934979,colour,0.06
092,25,1,1,8,45,395,1152.1536938261997,1153.1286514975654,"[91, 0, 163]",163,l,0.4532872585696168,colour,0.06
092,25,1,1,8,46,396,1155.1313970007177,1155.848675553687,"[99, 0, 155]",155,l,0.19551086012506858,colour,0.06
092,25,1,1,8,47,397,1157.8657570653304,1158.8166696270928,"[59, 0, 195]",195,a,0.42861632705898955,colour,0.06
092,25,1,1,8,48,398,1160.829026163614,1161.52066334759,"[83, 0, 171]",171,l,0.16930944155319594,colour,0.06
092,25,1,1,8,49,399,1163.532206197502,1164.0566670119588,"[55, 0, 199]",199,a,0.002541490743169561,colour,0.06
092,25,1,1,8,50,400,1166.0801615242963,1166.7366758813732,"[63, 0, 191]",191,a,0.13486245507374406,colour,0.06
092,25,1,1,9,1,401,1175.673075597646,1176.656683317182,"[68, 0, 186]",186,a,0.4606080751691479,colour,0.06
092,25,1,1,9,2,402,1178.6738195734797,1179.4486835881544,"[60, 0, 194]",194,a,0.25256187227205373,colour,0.06
092,25,1,1,9,3,403,1181.4550371180521,1182.216645051085,"[57, 0, 197]",197,a,0.23971224008710124,colour,0.06
092,25,1,1,9,4,404,1184.2362696288328,1184.9686640061263,"[61, 0, 193]",193,a,0.21005560719640926,colour,0.06
092,25,1,1,9,5,405,1186.9862713026814,1187.5607061035698,"[67, 0, 187]",187,a,0.05202789534814656,colour,0.06
092,25,1,1,9,6,406,1189.5807123184495,1190.216684435727,"[63, 0, 191]",191,a,0.11001192961703055,colour,0.06
092,25,1,1,9,7,407,1192.215246502572,1192.912666533026,"[90, 0, 164]",164,l,0.17523092197370715,colour,0.06
092,25,1,1,9,8,408,1194.9183355579153,1195.6487067463167,"[52, 0, 202]",202,a,0.20805880599073134,colour,0.06
092,25,1,1,9,9,409,1197.6684018225642,1198.2327112267085,"[77, 0, 177]",177,l,0.04207106484682299,colour,0.06
092,25,1,1,9,10,410,1200.246584071836,1200.7926981667697,"[88, 0, 166]",166,l,0.02407189115183428,colour,0.06
092,25,1,1,9,11,411,1202.7970667108893,1203.328684895736,"[82, 0, 172]",172,l,0.020259064272977412,colour,0.06
092,25,1,1,9,12,412,1205.3487580645015,1205.8966684928164,"[54, 0, 200]",200,a,0.0256484582205303,colour,0.06
092,25,1,1,9,13,413,1207.9111679475463,1208.5206661045377,"[74, 0, 180]",180,l,0.08718026074348018,colour,0.06
092,25,1,1,9,14,414,1210.536188378319,1211.136668634601,"[55, 0, 199]",199,a,0.07806350459577516,colour,0.06
092,25,1,1,9,15,415,1213.145704258408,1214.1207245513215,"[70, 0, 184]",184,l,0.4528776583028957,colour,0.06
092,25,1,1,9,16,416,1216.132651795313,1216.7447308276605,"[65, 0, 189]",189,a,0.089772951498162,colour,0.06
092,25,1,1,9,17,417,1218.7577092476422,1219.2967179599218,"[92, 0, 162]",162,l,0.01674004681990482,colour,0.06
092,25,1,1,9,18,418,1221.3045283276006,1221.8407222197566,"[86, 0, 168]",168,l,0.013868906651623547,colour,0.06
092,25,1,1,9,19,419,1223.8415296048624,1224.4646686314372,"[66, 0, 188]",188,a,0.10089005343616009,colour,0.06
092,25,1,1,9,20,420,1226.4821313863795,1228.1287034852721,"[89, 0, 165]",165,l,1.1245039012283087,colour,0.06
092,25,1,1,9,21,421,1230.1384346417908,1230.9207234485657,"[94, 0, 160]",160,l,0.26011230135918595,colour,0.06
092,25,1,1,9,22,422,1232.935282374092,1233.6646634326607,"[85, 0, 169]",169,l,0.20714350696653128,colour,0.06
092,25,1,1,9,23,423,1235.669552641717,1236.3046823215554,"[72, 0, 182]",182,a,0.11270229428191669,colour,0.06
092,25,1,1,9,24,424,1238.3102725771605,1239.1047135141853,"[83, 0, 171]",171,l,0.2722226839105133,colour,0.06
092,25,1,1,9,25,425,1241.1227311986731,1241.8887183096667,"[71, 0, 183]",183,a,0.24374719630577601,colour,0.06
092,25,1,1,9,26,426,1243.9040062448476,1244.5767195037915,"[73, 0, 181]",181,a,0.15051194123225287,colour,0.06
092,25,1,1,9,27,427,1246.5914871678979,1247.3128117048182,"[50, 0, 204]",204,a,0.19910943455761299,colour,0.06
092,25,1,1,9,28,428,1249.3259661741322,1249.9368648488598,"[58, 0, 196]",196,a,0.08649142339709215,colour,0.06
092,25,1,1,9,29,429,1251.9509503710433,1252.7606934217038,"[76, 0, 178]",178,l,0.2873873451608233,colour,0.06
092,25,1,1,9,30,430,1254.7791636357142,1255.4887003502517,"[99, 0, 155]",155,l,0.18737635682919063,colour,0.06
092,25,1,1,9,31,431,1257.4978017464164,1258.1127247435215,"[95, 0, 159]",159,l,0.0929205717984587,colour,0.06
092,25,1,1,9,32,432,1260.1228245402745,1260.8487299044791,"[4, 0, 250]",250,a,0.20356816946878098,colour,0.06
092,25,1,1,9,33,433,1262.857231866452,1263.520730695338,"[59, 0, 195]",195,a,0.14126639731694013,colour,0.06
092,25,1,1,9,34,434,1265.5196377716202,1266.2327336759772,"[64, 0, 190]",190,a,0.19075083269854076,colour,0.06
092,25,1,1,9,35,435,1268.2260524658777,1268.976749672438,"[80, 0, 174]",174,l,0.22846083651529625,colour,0.06
092,25,1,1,9,36,436,1270.9916433673934,1271.776699732698,"[84, 0, 170]",170,l,0.26281684447894804,colour,0.06
092,25,1,1,9,37,437,1273.7884635304217,1274.4647292837908,"[79, 0, 175]",175,l,0.15383718625525944,colour,0.06
092,25,1,1,9,38,438,1276.472846457822,1277.144732245506,"[53, 0, 201]",201,a,0.14975063616293482,colour,0.06
092,25,1,1,9,39,439,1279.1602490054502,1280.0007073481102,"[91, 0, 163]",163,l,0.3181577756477054,colour,0.06
092,25,1,1,9,40,440,1282.0195733777364,1282.8327539196762,"[87, 0, 167]",167,l,0.290885094931582,colour,0.06
092,25,1,1,9,41,441,1284.8384871415037,1285.6247344983276,"[81, 0, 173]",173,l,0.26396018057130277,colour,0.06
092,25,1,1,9,42,442,1287.6352986399434,1288.3767703887424,"[56, 0, 198]",198,a,0.21921489873784594,colour,0.06
092,25,1,1,9,43,443,1290.3852947999258,1291.1367517361941,"[43, 0, 211]",211,a,0.22915479383664206,colour,0.06
092,25,1,1,9,44,444,1293.150912089157,1293.8407568782568,"[62, 0, 192]",192,a,0.16751980359549634,colour,0.06
092,25,1,1,9,45,445,1295.854038166086,1296.640722298529,"[97, 0, 157]",157,l,0.2644686362473294,colour,0.06
092,25,1,1,9,46,446,1298.6508677814563,1299.456749562145,"[98, 0, 156]",156,l,0.28364541064365767,colour,0.06
092,25,1,1,9,47,447,1301.4633972953015,1302.0967381248483,"[69, 0, 185]",185,a,0.1115951920801308,colour,0.06
092,25,1,1,9,48,448,1304.1009006873064,1304.7607434402162,"[44, 0, 210]",210,a,0.13755872743786313,colour,0.06
092,25,1,1,9,49,449,1306.772750634991,1307.5287253831339,"[96, 0, 158]",158,l,0.23368560266681015,colour,0.06
092,25,1,1,9,50,450,1309.5383935242426,1310.272917035094,"[51, 0, 203]",203,a,0.21229856234276667,colour,0.06
092,25,1,1,10,1,451,1318.4970715552045,1319.0327372993634,"[97, 0, 157]",157,l,0.012970936892088503,colour,0.06
092,25,1,1,10,2,452,1321.0447165310325,1321.7367680414172,"[63, 0, 191]",191,a,0.1695859217143152,colour,0.06
092,25,1,1,10,3,453,1323.7481068788911,1324.4327261141152,"[60, 0, 194]",194,a,0.1625746683566831,colour,0.06
092,25,1,1,10,4,454,1326.4513066051004,1327.064745589043,"[86, 0, 168]",168,l,0.0911222692229785,colour,0.06
092,25,1,1,10,5,455,1329.0785640833492,1329.82477262264,"[50, 0, 204]",204,a,0.22397335077403113,colour,0.06
092,25,1,1,10,6,456,1331.8441719202674,1332.4167517046735,"[68, 0, 186]",186,a,0.050289063539821655,colour,0.06
092,25,1,1,10,7,457,1334.4131042932859,1335.1207737821387,"[70, 0, 184]",184,a,0.18552252190420404,colour,0.06
092,25,1,1,10,8,458,1337.131901517947,1337.784742863616,"[88, 0, 166]",166,l,0.13082749882596545,colour,0.06
092,25,1,1,10,9,459,1339.8037601302203,1340.536784267897,"[77, 0, 177]",177,l,0.21083345377701335,colour,0.06
092,25,1,1,10,10,460,1342.5413359505765,1343.184736798372,"[93, 0, 161]",161,l,0.12117944390047342,colour,0.06
092,25,1,1,10,11,461,1345.1975635874842,1345.8087462254916,"[83, 0, 171]",171,l,0.089162095770007,colour,0.06
092,25,1,1,10,12,462,1347.8225643259648,1348.7847456205345,"[80, 0, 174]",174,l,0.44004181073978543,colour,0.06
092,25,1,1,10,13,463,1350.778979315597,1351.6327602999809,"[54, 0, 200]",200,a,0.33180730987805873,colour,0.06
092,25,1,1,10,14,464,1353.6382264939894,1354.280810110533,"[95, 0, 159]",159,l,0.12023539413348772,colour,0.06
092,25,1,1,10,15,465,1356.294531324791,1357.0407670394925,"[62, 0, 192]",192,l,0.23667410906637087,colour,0.06
092,25,1,1,10,16,466,1359.0476731358794,1359.7528413062973,"[64, 0, 190]",190,a,0.1830794927664101,colour,0.06
092,25,1,1,10,17,467,1361.7665077759302,1362.552793729672,"[51, 0, 203]",203,a,0.2642378422606271,colour,0.06
092,25,1,1,10,18,468,1364.5633192743408,1365.3688221748162,"[55, 0, 199]",199,a,0.2932513240084518,colour,0.06
092,25,1,1,10,19,469,1367.3821436350117,1368.0407997287402,"[3, 0, 251]",251,a,0.13645241293124855,colour,0.06
092,25,1,1,10,20,470,1370.0539959457528,1370.7767812589009,"[81, 0, 173]",173,l,0.2006816693174187,colour,0.06
092,25,1,1,10,21,471,1372.7883410442155,1373.7528019216552,"[92, 0, 162]",162,l,0.44220008893171325,colour,0.06
092,25,1,1,10,22,472,1375.772812862706,1376.6007823364635,"[69, 0, 185]",185,a,0.3057866667804774,colour,0.06
092,25,1,1,10,23,473,1378.6143046583165,1379.2967797938036,"[43, 0, 211]",211,a,0.16058259332203306,colour,0.06
092,25,1,1,10,24,474,1381.3018281167897,1382.1688281612878,"[72, 0, 182]",182,a,0.34477785290800966,colour,0.06
092,25,1,1,10,25,475,1384.1767606213689,1384.9207844947523,"[85, 0, 169]",169,l,0.2217788387206383,colour,0.06
092,25,1,1,10,26,476,1386.9267914398515,1387.840787598252,"[78, 0, 176]",176,l,0.3957604799361434,colour,0.06
092,25,1,1,10,27,477,1389.8479390609427,1390.5768211161776,"[59, 0, 195]",195,a,0.20687293453374878,colour,0.06
092,25,1,1,10,28,478,1392.5757069247484,1393.3048268631683,"[56, 0, 198]",198,a,0.20704425769508816,colour,0.06
092,25,1,1,10,29,479,1395.3100933770475,1396.0328046470822,"[52, 0, 202]",202,a,0.20042881995323114,colour,0.06
092,25,1,1,10,30,480,1398.0444798293756,1398.8568273861893,"[76, 0, 178]",178,l,0.29014348215423524,colour,0.06
092,25,1,1,10,31,481,1400.8602065882005,1401.6008008472563,"[79, 0, 175]",175,l,0.21887619083281606,colour,0.06
092,25,1,1,10,32,482,1403.6102110189677,1404.17682836295,"[89, 0, 165]",165,l,0.04437979237991385,colour,0.06
092,25,1,1,10,33,483,1406.1883456128126,1407.0808460293047,"[73, 0, 181]",181,l,0.3702471110445913,colour,0.06
092,25,1,1,10,34,484,1409.09465546516,1409.8568143892626,"[84, 0, 170]",170,l,0.24006591411307454,colour,0.06
092,25,1,1,10,35,485,1411.863485753216,1412.5768175715348,"[87, 0, 167]",167,l,0.19162162704742514,colour,0.06
092,25,1,1,10,36,486,1414.5758900633082,1415.1528261826024,"[98, 0, 156]",156,l,0.05471629078965634,colour,0.06
092,25,1,1,10,37,487,1417.1696193986863,1417.928807145654,"[74, 0, 180]",180,a,0.23685173378908075,colour,0.06
092,25,1,1,10,38,488,1419.935254017153,1420.6168343336612,"[66, 0, 188]",188,a,0.15927305410150439,colour,0.06
092,25,1,1,10,39,489,1422.6226829524967,1423.4168131447223,"[96, 0, 158]",158,l,0.27212028385838494,colour,0.06
092,25,1,1,10,40,490,1425.4352746940858,1426.088818267861,"[61, 0, 193]",193,a,0.131248520599911,colour,0.06
092,25,1,1,10,41,491,1428.0995454619115,1428.7608206341101,"[57, 0, 197]",197,a,0.13899587289779447,colour,0.06
092,25,1,1,10,42,492,1430.7591337900376,1431.5128474660742,"[82, 0, 172]",172,l,0.2317049491975922,colour,0.06
092,25,1,1,10,43,493,1433.5246498607157,1434.4968399735226,"[75, 0, 179]",179,a,0.44994271502946503,colour,0.06
092,25,1,1,10,44,494,1436.5090051007282,1437.2008411771385,"[94, 0, 160]",160,l,0.16950321398326196,colour,0.06
092,25,1,1,10,45,495,1439.212241454632,1439.936836491921,"[65, 0, 189]",189,a,0.20232834105263464,colour,0.06
092,25,1,1,10,46,496,1441.9466865900613,1442.752820038615,"[99, 0, 155]",155,l,0.28398411854868755,colour,0.06
092,25,1,1,10,47,497,1444.7591499377158,1445.5688315483567,"[67, 0, 187]",187,a,0.2874763544241432,colour,0.06
092,25,1,1,10,48,498,1447.5874002239434,1448.2248480836279,"[58, 0, 196]",196,a,0.11537099740235135,colour,0.06
092,25,1,1,10,49,499,1450.2434498422954,1450.968846356991,"[90, 0, 164]",164,l,0.20313887693919241,colour,0.06
092,25,1,1,10,50,500,1452.9778784361843,1453.7288028921175,"[37, 0, 217]",217,a,0.2287467689893674,colour,0.06
092,25,1,1,11,1,501,1464.6958269218449,1465.3448483514367,"[54, 0, 200]",200,a,0.12604305293643847,colour,0.06
092,25,1,1,11,2,502,1467.3528316176962,1468.1368655577826,"[53, 0, 201]",201,a,0.2617633054032922,colour,0.06
092,25,1,1,11,3,503,1470.1496809253586,1470.8168232271855,"[87, 0, 167]",167,l,0.1448062886192929,colour,0.06
092,25,1,1,11,4,504,1472.8371980822994,1473.528823450877,"[96, 0, 158]",158,l,0.17137949814787135,colour,0.06
092,25,1,1,11,5,505,1475.538221413357,1476.2408666038536,"[66, 0, 188]",188,a,0.180342260398902,colour,0.06
092,25,1,1,11,6,506,1478.258030429366,1478.9688243015844,"[51, 0, 203]",203,a,0.18858349602669477,colour,0.06
092,25,1,1,11,7,507,1480.9767236785556,1481.6248841599445,"[97, 0, 157]",157,l,0.12592962515191175,colour,0.06
092,25,1,1,11,8,508,1483.6330056662846,1484.328830225044,"[99, 0, 155]",155,l,0.1735602256085258,colour,0.06
092,25,1,1,11,9,509,1486.3382301567472,1487.0568343966734,"[57, 0, 197]",197,a,0.19636590062873438,colour,0.06
092,25,1,1,11,10,510,1489.072610307514,1489.640876686317,"[98, 0, 156]",156,l,0.04606230414356105,colour,0.06
092,25,1,1,11,11,511,1491.6508394245175,1492.3288826066128,"[55, 0, 199]",199,a,0.15580090435105376,colour,0.06
092,25,1,1,11,12,512,1494.3298648594937,1494.9128851177811,"[78, 0, 176]",176,a,0.060761045140679926,colour,0.06
092,25,1,1,11,13,513,1496.9236249148962,1497.752844457078,"[90, 0, 164]",164,l,0.30693669826723635,colour,0.06
092,25,1,1,11,14,514,1499.7673714810517,1500.5689363114943,"[74, 0, 180]",180,a,0.2793438204098493,colour,0.06
092,25,1,1,11,15,515,1502.579877757962,1503.2888599368162,"[42, 0, 212]",212,a,0.1867733780236449,colour,0.06
092,25,1,1,11,16,516,1505.298650170298,1506.0328495455615,"[62, 0, 192]",192,a,0.21219143611961044,colour,0.06
092,25,1,1,11,17,517,1508.0486656287685,1508.872850632586,"[75, 0, 179]",179,a,0.30218060928746127,colour,0.06
092,25,1,1,11,18,518,1510.884301322425,1511.5208772062033,"[95, 0, 159]",159,l,0.11419536592438817,colour,0.06
092,25,1,1,11,19,519,1513.5405033593124,1514.2008462971135,"[85, 0, 169]",169,l,0.13807033386547118,colour,0.06
092,25,1,1,11,20,520,1516.2124860332406,1517.144858276355,"[91, 0, 163]",163,l,0.4102260638901498,colour,0.06
092,25,1,1,11,21,521,1519.1499274731905,1519.9608390661015,"[69, 0, 185]",185,a,0.2886074812558945,colour,0.06
092,25,1,1,11,22,522,1521.9727800947148,1522.784898039099,"[64, 0, 190]",190,a,0.28987684816820547,colour,0.06
092,25,1,1,11,23,523,1524.8009185285482,1525.6168662352138,"[65, 0, 189]",189,a,0.2936605304130353,colour,0.06
092,25,1,1,11,24,524,1527.628956925415,1528.360903893219,"[70, 0, 184]",184,a,0.2096152869053185,colour,0.06
092,25,1,1,11,25,525,1530.3790023162146,1531.088852532499,"[52, 0, 202]",202,a,0.1876355077547487,colour,0.06
092,25,1,1,11,26,526,1533.0977274669858,1533.7688846388482,"[50, 0, 204]",204,a,0.14892277104081586,colour,0.06
092,25,1,1,11,27,527,1535.7852304454427,1536.4408956697152,"[63, 0, 191]",191,a,0.13338671263772994,colour,0.06
092,25,1,1,11,28,528,1538.4587333663949,1539.2169057773717,"[93, 0, 161]",161,l,0.23610539486980997,colour,0.06
092,25,1,1,11,29,529,1541.2141689388372,1542.064857441408,"[86, 0, 168]",168,l,0.3287912342348136,colour,0.06
092,25,1,1,11,30,530,1544.0676852584584,1544.8090262502665,"[59, 0, 195]",195,a,0.21958708355668932,colour,0.06
092,25,1,1,11,31,531,1546.8168630056607,1547.4808722594753,"[94, 0, 160]",160,l,0.14058149841730483,colour,0.06
092,25,1,1,11,32,532,1549.4779893039376,1550.1928732708911,"[71, 0, 183]",183,a,0.19272242771694437,colour,0.06
092,25,1,1,11,33,533,1552.2133702183783,1552.9048979130457,"[60, 0, 194]",194,a,0.1693200753943529,colour,0.06
092,25,1,1,11,34,534,1554.9134526504204,1555.632891844667,"[88, 0, 166]",166,l,0.19727450422942638,colour,0.06
092,25,1,1,11,35,535,1557.647807988862,1558.3369300698396,"[49, 0, 205]",205,a,0.1669506955659017,colour,0.06
092,25,1,1,11,36,536,1560.3509537581122,1560.9928824081144,"[67, 0, 187]",187,a,0.11972693842835724,colour,0.06
092,25,1,1,11,37,537,1563.0071715488739,1563.816908298002,"[82, 0, 172]",172,l,0.28754448986728676,colour,0.06
092,25,1,1,11,38,538,1565.8227789722441,1566.5448770234361,"[56, 0, 198]",198,a,0.20057257387088612,colour,0.06
092,25,1,1,11,39,539,1568.557131159905,1569.2889131060801,"[89, 0, 165]",165,l,0.20950264684506692,colour,0.06
092,25,1,1,11,40,540,1571.3071166860755,1572.0809039247397,"[23, 0, 231]",231,a,0.2515599270700477,colour,0.06
092,25,1,1,11,41,541,1574.0883751906804,1574.9049250884564,"[68, 0, 186]",186,a,0.2941496876301244,colour,0.06
092,25,1,1,11,42,542,1576.9164832983515,1577.6489339956897,"[61, 0, 193]",193,a,0.21015840108157136,colour,0.06
092,25,1,1,11,43,543,1579.666518449143,1580.6569192311727,"[77, 0, 177]",177,l,0.46809076267527416,colour,0.06
092,25,1,1,11,44,544,1582.6665212060907,1583.4329250065493,"[72, 0, 182]",182,a,0.2441221380722709,colour,0.06
092,25,1,1,11,45,545,1585.4478553291992,1586.2408843269222,"[79, 0, 175]",175,l,0.2709848246886395,colour,0.06
092,25,1,1,11,46,546,1588.2601993414282,1588.8649343202123,"[84, 0, 170]",170,l,0.08244977178401314,colour,0.06
092,25,1,1,11,47,547,1590.872787617176,1591.4409011835523,"[83, 0, 171]",171,l,0.04593430404202081,colour,0.06
092,25,1,1,11,48,548,1593.450888340216,1594.3129231633502,"[73, 0, 181]",181,a,0.33979096997063607,colour,0.06
092,25,1,1,11,49,549,1596.325873226364,1597.2489176116942,"[76, 0, 178]",178,l,0.4007796583173331,colour,0.06
092,25,1,1,11,50,550,1599.2634521187283,1599.9609312261746,"[81, 0, 173]",173,l,0.17533253435976803,colour,0.06
092,25,1,1,12,1,551,1614.075117927452,1614.848946913844,"[97, 0, 157]",157,l,0.250901022052858,colour,0.06
092,25,1,1,12,2,552,1616.8571042602125,1617.8729266449518,"[76, 0, 178]",178,l,0.4936573008890264,colour,0.06
092,25,1,1,12,3,553,1619.888328007888,1620.632911143155,"[56, 0, 198]",198,a,0.22227587286033668,colour,0.06
092,25,1,1,12,4,554,1622.6383206232567,1623.3529285038821,"[70, 0, 184]",184,a,0.19237190441344865,colour,0.06
092,25,1,1,12,5,555,1625.3746495259693,1626.1369392070628,"[55, 0, 199]",199,a,0.23990089248400182,colour,0.06
092,25,1,1,12,6,556,1628.1559907383344,1628.8409144167963,"[61, 0, 193]",193,a,0.16268179457983933,colour,0.06
092,25,1,1,12,7,557,1630.859004175174,1631.6409491540398,"[81, 0, 173]",173,l,0.2598054950067308,colour,0.06
092,25,1,1,12,8,558,1633.656011021405,1634.3048918478307,"[53, 0, 201]",201,a,0.12667045023408718,colour,0.06
092,25,1,1,12,9,559,1636.3121681598132,1637.1369616563024,"[73, 0, 181]",181,a,0.30253979717963375,colour,0.06
092,25,1,1,12,10,560,1639.1448949040787,1639.8649362894648,"[52, 0, 202]",202,a,0.19789914460852742,colour,0.06
092,25,1,1,12,11,561,1641.8791990424797,1642.5449514604115,"[82, 0, 172]",172,l,0.14355228171916679,colour,0.06
092,25,1,1,12,12,562,1644.5385191612295,1645.272955632041,"[51, 0, 203]",203,a,0.21209179298602976,colour,0.06
092,25,1,1,12,13,563,1647.2885960597487,1648.0809886016941,"[84, 0, 170]",170,l,0.2701593226811383,colour,0.06
092,25,1,1,12,14,564,1650.0887922740076,1651.0089328298927,"[71, 0, 183]",183,a,0.3979467212338932,colour,0.06
092,25,1,1,12,15,565,1653.0262545878359,1653.7769285574614,"[91, 0, 163]",163,l,0.22840569802792743,colour,0.06
092,25,1,1,12,16,566,1655.7918687262863,1656.8649823694723,"[77, 0, 177]",177,a,0.5508193777059205,colour,0.06
092,25,1,1,12,17,567,1658.870023603231,1659.544929011172,"[79, 0, 175]",175,l,0.15269818253000267,colour,0.06
092,25,1,1,12,18,568,1661.5575600586308,1662.5369410187704,"[96, 0, 158]",158,l,0.4572469901468139,colour,0.06
092,25,1,1,12,19,569,1664.5602023740357,1665.2329432022525,"[90, 0, 164]",164,l,0.15040678426157683,colour,0.06
092,25,1,1,12,20,570,1667.247788847948,1668.0329657302646,"[63, 0, 191]",191,a,0.26312325699836947,colour,0.06
092,25,1,1,12,21,571,1670.0354816209874,1670.7210070967267,"[59, 0, 195]",195,a,0.16317410254850984,colour,0.06
092,25,1,1,12,22,572,1672.7395757723134,1673.528987290978,"[69, 0, 185]",185,a,0.26716057627345435,colour,0.06
092,25,1,1,12,23,573,1675.536421141529,1676.4169659571198,"[85, 0, 169]",169,l,0.3582852085819468,colour,0.06
092,25,1,1,12,24,574,1678.4270665415388,1679.1289468823525,"[62, 0, 192]",192,a,0.17955417378107086,colour,0.06
092,25,1,1,12,25,575,1681.1414097574016,1681.7849874422245,"[92, 0, 162]",162,l,0.12134997939574532,colour,0.06
092,25,1,1,12,26,576,1683.7996605832013,1684.6249767138506,"[75, 0, 179]",179,a,0.3030336805677507,colour,0.06
092,25,1,1,12,27,577,1686.6433587062347,1687.4329486373172,"[72, 0, 182]",182,l,0.26732008406543173,colour,0.06
092,25,1,1,12,28,578,1689.4409984636295,1690.0249753747776,"[45, 0, 209]",209,a,0.06238644916447811,colour,0.06
092,25,1,1,12,29,579,1692.0279725457658,1692.7049822749686,"[83, 0, 171]",171,l,0.15536806717864238,colour,0.06
092,25,1,1,12,30,580,1694.7155452350562,1695.4330049573618,"[64, 0, 190]",190,a,0.19548092779587023,colour,0.06
092,25,1,1,12,31,581,1697.4498182595999,1698.1529829334759,"[95, 0, 159]",159,l,0.1807991222012788,colour,0.06
092,25,1,1,12,32,582,1700.1686832258129,1700.9529810429958,"[57, 0, 197]",197,a,0.2621118594543077,colour,0.06
092,25,1,1,12,33,583,1702.9532071108406,1703.5449561865826,"[89, 0, 165]",165,l,0.0697119919641409,colour,0.06
092,25,1,1,12,34,584,1705.5625906585192,1706.2089949788642,"[80, 0, 174]",174,l,0.12421836261637509,colour,0.06
092,25,1,1,12,35,585,1708.2187517354032,1708.7850024083746,"[88, 0, 166]",166,l,0.043906782841077074,colour,0.06
092,25,1,1,12,36,586,1710.7968804215488,1711.5529941974673,"[58, 0, 196]",196,a,0.2338021812029183,colour,0.06
092,25,1,1,12,37,587,1713.5625386708125,1714.344999982277,"[86, 0, 168]",168,l,0.2602580245002173,colour,0.06
092,25,1,1,12,38,588,1716.359368680016,1717.1209900038084,"[87, 0, 167]",167,l,0.2394806584052276,colour,0.06
092,25,1,1,12,39,589,1719.1405909507594,1719.94497138905,"[68, 0, 186]",186,a,0.2820511204772629,colour,0.06
092,25,1,1,12,40,590,1721.9531145569345,1722.7610061357555,"[67, 0, 187]",187,a,0.294057921419153,colour,0.06
092,25,1,1,12,41,591,1724.7728045919503,1725.6090097874985,"[8, 0, 246]",246,a,0.31400427166954614,colour,0.06
092,25,1,1,12,42,592,1727.616480265744,1728.6249711999844,"[66, 0, 188]",188,a,0.4861895795329474,colour,0.06
092,25,1,1,12,43,593,1730.6321155734477,1731.4729937563534,"[93, 0, 161]",161,l,0.3188237698923331,colour,0.06
092,25,1,1,12,44,594,1733.4821349309932,1734.4330045634997,"[74, 0, 180]",180,l,0.42887587181758136,colour,0.06
092,25,1,1,12,45,595,1736.4509017310047,1737.2969723846763,"[65, 0, 189]",189,a,0.3238681544025894,colour,0.06
092,25,1,1,12,46,596,1739.3102280725143,1740.0649720506917,"[94, 0, 160]",160,l,0.2325477804406546,colour,0.06
092,25,1,1,12,47,597,1742.0759115279361,1742.6490245803725,"[98, 0, 156]",156,l,0.05088416545186192,colour,0.06
092,25,1,1,12,48,598,1744.6539563248225,1745.2810153044993,"[26, 0, 228]",228,a,0.10474029573379084,colour,0.06
092,25,1,1,12,49,599,1747.2945817371074,1748.0730159693048,"[54, 0, 200]",200,a,0.2561316959327087,colour,0.06
092,25,1,1,12,50,600,1750.0914597955707,1750.7609762034263,"[78, 0, 176]",176,l,0.14728988395654596,colour,0.06
092,25,1,1,13,1,601,1764.184906940005,1765.0250080640253,"[84, 0, 170]",170,l,0.31701089497073554,colour,0.06
092,25,1,1,13,2,602,1767.0450595712464,1767.5690816408314,"[97, 0, 157]",157,l,0.001842807250795886,colour,0.06
092,25,1,1,13,3,603,1769.5762827281433,1770.2649999350251,"[52, 0, 202]",202,a,0.16668445538380183,colour,0.06
092,25,1,1,13,4,604,1772.2794155004667,1772.9370326274366,"[81, 0, 173]",173,l,0.13532443688018247,colour,0.06
092,25,1,1,13,5,605,1774.9513001066225,1775.7130565197149,"[72, 0, 182]",182,a,0.23956966766854748,colour,0.06
092,25,1,1,13,6,606,1777.7336625626776,1778.361024410231,"[96, 0, 158]",158,l,0.10503410513047129,colour,0.06
092,25,1,1,13,7,607,1780.3742694641987,1781.121031751507,"[76, 0, 178]",178,a,0.2245109510840848,colour,0.06
092,25,1,1,13,8,608,1783.139892267267,1783.8650434156589,"[55, 0, 199]",199,a,0.2028714552288875,colour,0.06
092,25,1,1,13,9,609,1785.8743102272856,1786.6250444554316,"[54, 0, 200]",200,a,0.22849982729530893,colour,0.06
092,25,1,1,13,10,610,1788.6398645011068,1789.40904413088,"[53, 0, 201]",201,a,0.24691175200860016,colour,0.06
092,25,1,1,13,11,611,1791.4211809011467,1792.1290595224127,"[61, 0, 193]",193,a,0.18562413429026492,colour,0.06
092,25,1,1,13,12,612,1794.1399477996165,1794.8650264802855,"[57, 0, 197]",197,a,0.2029045383387711,colour,0.06
092,25,1,1,13,13,613,1796.8742956549686,1797.5770341870666,"[70, 0, 184]",184,a,0.18051673434092663,colour,0.06
092,25,1,1,13,14,614,1799.5929908734106,1800.337028925278,"[95, 0, 159]",159,l,0.2218438233830966,colour,0.06
092,25,1,1,13,15,615,1802.3429630087921,1803.0650330969074,"[64, 0, 190]",190,a,0.19994557043537498,colour,0.06
092,25,1,1,13,16,616,1805.0773325256887,1806.0730482647195,"[98, 0, 156]",156,l,0.47416584321763366,colour,0.06
092,25,1,1,13,17,617,1808.092999734945,1809.0570435290865,"[71, 0, 183]",183,a,0.44185035332338884,colour,0.06
092,25,1,1,13,18,618,1811.077372698026,1811.7930254531093,"[73, 0, 181]",181,a,0.1940918315667659,colour,0.06
092,25,1,1,13,19,619,1813.8116870764643,1814.7130462797068,"[80, 0, 174]",174,l,0.37906848240527324,colour,0.06
092,25,1,1,13,20,620,1816.7179603010882,1817.4010356584622,"[83, 0, 171]",171,l,0.1607086241710931,colour,0.06
092,25,1,1,13,21,621,1819.4210217871878,1819.9531433077063,"[87, 0, 167]",167,l,0.009739427274325863,colour,0.06
092,25,1,1,13,22,622,1821.967936178,1822.6330690755567,"[62, 0, 192]",192,a,0.14278703820309602,colour,0.06
092,25,1,1,13,23,623,1824.639821965684,1825.2650550735125,"[88, 0, 166]",166,l,0.10296995620592497,colour,0.06
092,25,1,1,13,24,624,1827.2804485595261,1827.9130469886295,"[91, 0, 163]",163,l,0.11034118518000469,colour,0.06
092,25,1,1,13,25,625,1829.9210810610675,1830.6010627551004,"[75, 0, 179]",179,a,0.1576318962033838,colour,0.06
092,25,1,1,13,26,626,1832.6085316579847,1833.369058482669,"[29, 0, 225]",225,a,0.238201445346931,colour,0.06
092,25,1,1,13,27,627,1835.3741391010408,1836.1610745074868,"[92, 0, 162]",162,l,0.264678162522614,colour,0.06
092,25,1,1,13,28,628,1838.1727847420843,1839.025088802533,"[94, 0, 160]",160,l,0.3300574503664393,colour,0.06
092,25,1,1,13,29,629,1841.0321181728214,1841.673061025329,"[59, 0, 195]",195,a,0.1189006486965809,colour,0.06
092,25,1,1,13,30,630,1843.6883914959326,1844.4730618917965,"[67, 0, 187]",187,a,0.2624738042941317,colour,0.06
092,25,1,1,13,31,631,1846.4852077205142,1847.1210530192184,"[58, 0, 196]",196,a,0.11356245478964411,colour,0.06
092,25,1,1,13,32,632,1849.1415153082344,1849.8730833957961,"[66, 0, 188]",188,a,0.20935771137010306,colour,0.06
092,25,1,1,13,33,633,1851.891483111278,1852.49704989366,"[50, 0, 204]",204,a,0.08327881843433715,colour,0.06
092,25,1,1,13,34,634,1854.5165145697538,1855.2810731999052,"[79, 0, 175]",175,l,0.2423159585450776,colour,0.06
092,25,1,1,13,35,635,1857.2977431420586,1858.201051884942,"[86, 0, 168]",168,l,0.3811554744024761,colour,0.06
092,25,1,1,13,36,636,1860.2204822964268,1861.001049994491,"[65, 0, 189]",189,a,0.2581836356257554,colour,0.06
092,25,1,1,13,37,637,1863.0174143118493,1863.6651025713945,"[90, 0, 164]",164,l,0.12534476327709854,colour,0.06
092,25,1,1,13,38,638,1865.6736974810774,1866.3530466578086,"[63, 0, 191]",191,a,0.15702734200749546,colour,0.06
092,25,1,1,13,39,639,1868.3612973457493,1869.001103951421,"[44, 0, 210]",210,a,0.11754384788218886,colour,0.06
092,25,1,1,13,40,640,1871.0174261272186,1871.7211024075514,"[89, 0, 165]",165,l,0.181411947181914,colour,0.06
092,25,1,1,13,41,641,1873.7362895180704,1874.481097539625,"[78, 0, 176]",176,l,0.2225795284321066,colour,0.06
092,25,1,1,13,42,642,1876.486256927281,1877.3130948803737,"[69, 0, 185]",185,a,0.3045795276411809,colour,0.06
092,25,1,1,13,43,643,1879.3299648964894,1879.9610986108892,"[56, 0, 198]",198,a,0.10886977511108853,colour,0.06
092,25,1,1,13,44,644,1881.970492241031,1882.9051015316509,"[93, 0, 161]",161,l,0.41225358509109356,colour,0.06
092,25,1,1,13,45,645,1884.9237139241886,1886.009113211563,"[34, 0, 220]",220,a,0.5631065972847864,colour,0.06
092,25,1,1,13,46,646,1888.017451333406,1888.7610640311614,"[99, 0, 155]",155,l,0.22134285076754168,colour,0.06
092,25,1,1,13,47,647,1890.7674423733843,1891.4730800087273,"[68, 0, 186]",186,a,0.1833835422003176,colour,0.06
092,25,1,1,13,48,648,1893.4862230564759,1894.2410851885797,"[85, 0, 169]",169,l,0.23270768206566572,colour,0.06
092,25,1,1,13,49,649,1896.251767877984,1897.0650898107851,"[74, 0, 180]",180,l,0.2910276673210319,colour,0.06
092,25,1,1,13,50,650,1899.0798901641392,1899.8731184481294,"[51, 0, 203]",203,a,0.27167090511647984,colour,0.06
092,25,1,1,14,1,651,1909.4697067144152,1910.369106531929,"[77, 0, 177]",177,l,0.3762812315544579,colour,0.06
092,25,1,1,14,2,652,1912.376810954942,1913.4892497659603,"[68, 0, 186]",186,a,0.5902146502048708,colour,0.06
092,25,1,1,14,3,653,1915.5017524195137,1916.0331354780355,"[50, 0, 204]",204,a,0.009029322245623916,colour,0.06
092,25,1,1,14,4,654,1918.0486849272274,1918.9691287448513,"[58, 0, 196]",196,a,0.3986761247506365,colour,0.06
092,25,1,1,14,5,655,1920.9863524350221,1922.2011141126568,"[73, 0, 181]",181,a,0.692551301443018,colour,0.06
092,25,1,1,14,6,656,1924.2204874164308,1925.2810968307022,"[16, 0, 238]",238,a,0.538299001113046,colour,0.06
092,25,1,1,14,7,657,1927.298673801066,1928.0411482827913,"[97, 0, 157]",157,l,0.22037910865037702,colour,0.06
092,25,1,1,14,8,658,1930.0487625149835,1930.72913963077,"[62, 0, 192]",192,a,0.1583313673909288,colour,0.06
092,25,1,1,14,9,659,1932.73627297653,1933.4651258871017,"[94, 0, 160]",160,l,0.20656337126274593,colour,0.06
092,25,1,1,14,10,660,1935.47058144724,1936.3851400183048,"[72, 0, 182]",182,l,0.3922769086493645,colour,0.06
092,25,1,1,14,11,661,1938.3924675303278,1939.1371180133137,"[53, 0, 201]",201,a,0.22235464211553335,colour,0.06
092,25,1,1,14,12,662,1941.142453056469,1941.841106220003,"[93, 0, 161]",161,l,0.17643097194377333,colour,0.06
092,25,1,1,14,13,663,1943.8537742890185,1944.4811542535026,"[56, 0, 198]",198,a,0.1050730959395878,colour,0.06
092,25,1,1,14,14,664,1946.4852616774733,1947.3131374157674,"[78, 0, 176]",176,a,0.30562440209905617,colour,0.06
092,25,1,1,14,15,665,1949.3289810682181,1950.0491252474894,"[64, 0, 190]",190,a,0.19783297841786407,colour,0.06
092,25,1,1,14,16,666,1952.063404935936,1952.873145229678,"[15, 0, 239]",239,a,0.28749959138804115,colour,0.06
092,25,1,1,14,17,667,1954.8914937451482,1955.609113762941,"[63, 0, 191]",191,a,0.19530054615461268,colour,0.06
092,25,1,1,14,18,668,1957.6261078406533,1958.3211510081892,"[69, 0, 185]",185,a,0.17297457600943744,colour,0.06
092,25,1,1,14,19,669,1960.3290495974943,1960.9931770052062,"[82, 0, 172]",172,l,0.14183786840294488,colour,0.06
092,25,1,1,14,20,670,1963.0009397174872,1963.6331600540725,"[91, 0, 163]",163,l,0.11004028655588627,colour,0.06
092,25,1,1,14,21,671,1965.642159443989,1966.4011719293194,"[89, 0, 165]",165,l,0.23675721063045785,colour,0.06
092,25,1,1,14,22,672,1968.407848413277,1969.2331220085034,"[60, 0, 194]",194,a,0.30313804984325543,colour,0.06
092,25,1,1,14,23,673,1971.2515296009078,1971.841164509242,"[55, 0, 199]",199,a,0.06734970130492002,colour,0.06
092,25,1,1,14,24,674,1973.860930084018,1974.7931294285809,"[84, 0, 170]",170,l,0.4100248083996121,colour,0.06
092,25,1,1,14,25,675,1976.7983400162484,1977.7854147655598,"[54, 0, 200]",200,a,0.46494944390724413,colour,0.06
092,25,1,1,14,26,676,1979.7984176040045,1980.577157460968,"[80, 0, 174]",174,l,0.2566854439501185,colour,0.06
092,25,1,1,14,27,677,1982.595194443944,1983.3451677608537,"[26, 0, 228]",228,a,0.22765935910865664,colour,0.06
092,25,1,1,14,28,678,1985.3609188593982,1986.097152451257,"[57, 0, 197]",197,a,0.21425558504415676,colour,0.06
092,25,1,1,14,29,679,1988.1109000532306,1988.8491379293555,"[83, 0, 171]",171,l,0.21615038000163622,colour,0.06
092,25,1,1,14,30,680,1990.8608170500956,1991.6651490452641,"[87, 0, 167]",167,l,0.28211964975344017,colour,0.06
092,25,1,1,14,31,681,1993.6732918193156,1994.4251197588455,"[92, 0, 162]",162,l,0.22962977256975137,colour,0.06
092,25,1,1,14,32,682,1996.4389126531605,1997.1851278878457,"[67, 0, 187]",187,a,0.2239217569003813,colour,0.06
092,25,1,1,14,33,683,1999.204503160814,1999.9931439221255,"[99, 0, 155]",155,l,0.26626418193336576,colour,0.06
092,25,1,1,14,34,684,2002.0020385489042,2002.7531764695887,"[61, 0, 193]",193,a,0.22945726788020693,colour,0.06
092,25,1,1,14,35,685,2004.767009930074,2005.4891643013107,"[98, 0, 156]",156,l,0.20036029067705385,colour,0.06
092,25,1,1,14,36,686,2007.5014113485522,2008.2091942651314,"[66, 0, 188]",188,a,0.18555363576160744,colour,0.06
092,25,1,1,14,37,687,2010.2201896685583,2010.9532307416084,"[96, 0, 158]",158,l,0.21082478915923275,colour,0.06
092,25,1,1,14,38,688,2012.9701062715903,2013.705191801244,"[70, 0, 184]",184,a,0.21278102416545153,colour,0.06
092,25,1,1,14,39,689,2015.7202516993566,2016.4091626786685,"[90, 0, 164]",164,l,0.16674274468095973,colour,0.06
092,25,1,1,14,40,690,2018.4232482008229,2019.4251737158047,"[79, 0, 175]",175,l,0.47962691719294526,colour,0.06
092,25,1,1,14,41,691,2021.4393395826337,2022.2171424790577,"[86, 0, 168]",168,l,0.25553816941101104,colour,0.06
092,25,1,1,14,42,692,2024.2362294564955,2024.9051539132197,"[88, 0, 166]",166,l,0.1466447635611985,colour,0.06
092,25,1,1,14,43,693,2026.9237052595417,2027.737193001667,"[74, 0, 180]",180,a,0.2913683444203343,colour,0.06
092,25,1,1,14,44,694,2029.7518432995712,2030.5371690558095,"[52, 0, 202]",202,a,0.26322605088353157,colour,0.06
092,25,1,1,14,45,695,2032.548656767205,2033.3691577319405,"[71, 0, 183]",183,a,0.29830516083166003,colour,0.06
092,25,1,1,14,46,696,2035.3768062287709,2036.1212743608921,"[81, 0, 173]",173,l,0.22273903619498014,colour,0.06
092,25,1,1,14,47,697,2038.1267657610588,2038.705207161256,"[95, 0, 159]",159,l,0.05613335009547882,colour,0.06
092,25,1,1,14,48,698,2040.720558899542,2041.4172014772485,"[65, 0, 189]",189,a,0.17433885991340503,colour,0.06
092,25,1,1,14,49,699,2043.423626687203,2044.2332110177958,"[75, 0, 179]",179,l,0.28734480976709165,colour,0.06
092,25,1,1,14,50,700,2046.2517745733785,2046.9932061498403,"[51, 0, 203]",203,a,0.21912904022610746,colour,0.06
092,25,1,1,15,1,701,2059.0478432775126,2059.641210668051,"[84, 0, 170]",170,l,0.07047723548021168,colour,0.06
092,25,1,1,15,2,702,2061.658034997992,2062.63321676795,"[72, 0, 182]",182,l,0.4529895106970798,colour,0.06
092,25,1,1,15,3,703,2064.644636343932,2065.401159720088,"[96, 0, 158]",158,l,0.2342909445578698,colour,0.06
092,25,1,1,15,4,704,2067.410244968516,2068.1852200478897,"[57, 0, 197]",197,a,0.25270286927116103,colour,0.06
092,25,1,1,15,5,705,2070.1915401008737,2070.9372063136834,"[64, 0, 190]",190,a,0.22377800298272632,colour,0.06
092,25,1,1,15,6,706,2072.95712509469,2073.601176970551,"[28, 0, 226]",226,a,0.12188009661622345,colour,0.06
092,25,1,1,15,7,707,2075.6133936916303,2076.31322800045,"[97, 0, 157]",157,l,0.17763771725003608,colour,0.06
092,25,1,1,15,8,708,2078.332102694665,2079.0492040167737,"[93, 0, 161]",161,l,0.1950406075338833,colour,0.06
092,25,1,1,15,9,709,2081.0664899346884,2081.7692154698307,"[50, 0, 204]",204,a,0.18076170678250492,colour,0.06
092,25,1,1,15,10,710,2083.7852158731257,2084.5612334638718,"[68, 0, 186]",186,a,0.2525433615082875,colour,0.06
092,25,1,1,15,11,711,2086.5691099977703,2087.3612114872376,"[52, 0, 202]",202,a,0.26982534091803245,colour,0.06
092,25,1,1,15,12,712,2089.381703708583,2090.0092175808386,"[90, 0, 164]",164,l,0.10554256080649793,colour,0.06
092,25,1,1,15,13,713,2092.009805199661,2092.7452148648736,"[71, 0, 183]",183,a,0.21311421820428222,colour,0.06
092,25,1,1,15,14,714,2094.759770245786,2095.4972401214472,"[87, 0, 167]",167,l,0.21532172718434595,colour,0.06
092,25,1,1,15,15,715,2097.509803033492,2098.249203150306,"[88, 0, 166]",166,l,0.2172047067724634,colour,0.06
092,25,1,1,15,16,716,2100.259775956569,2100.9772400111833,"[86, 0, 168]",168,l,0.1957243248471059,colour,0.06
092,25,1,1,15,17,717,2102.994157682726,2103.6812293993717,"[79, 0, 175]",175,l,0.1648455866088625,colour,0.06
092,25,1,1,15,18,718,2105.697278639622,2106.4092300263874,"[5, 0, 249]",249,a,0.1897315582318697,colour,0.06
092,25,1,1,15,19,719,2108.415959285747,2109.393232380011,"[61, 0, 193]",193,a,0.45520765354740433,colour,0.06
092,25,1,1,15,20,720,2111.4003543042345,2112.0332414227305,"[76, 0, 178]",178,l,0.11060151766287163,colour,0.06
092,25,1,1,15,21,721,2114.0410183134663,2114.849232846318,"[66, 0, 188]",188,a,0.2859643781557679,colour,0.06
092,25,1,1,15,22,722,2116.8690441072686,2117.6572571513825,"[65, 0, 189]",189,a,0.26582976937061176,colour,0.06
092,25,1,1,15,23,723,2119.6659501288086,2120.4172058095573,"[63, 0, 191]",191,a,0.2292071754054632,colour,0.06
092,25,1,1,15,24,724,2122.4316186180804,2123.1052416621824,"[56, 0, 198]",198,a,0.1514445694629103,colour,0.06
092,25,1,1,15,25,725,2125.119120808842,2125.7132179967302,"[99, 0, 155]",155,l,0.07183009781874716,colour,0.06
092,25,1,1,15,26,726,2127.7229074055504,2128.465209382528,"[78, 0, 176]",176,l,0.22002307150978595,colour,0.06
092,25,1,1,15,27,727,2130.472924439411,2131.0812528726237,"[75, 0, 179]",179,l,0.08603416773257777,colour,0.06
092,25,1,1,15,28,728,2133.0979621994193,2133.7612349604897,"[67, 0, 187]",187,a,0.1390049313486088,colour,0.06
092,25,1,1,15,29,729,2135.7721177238564,2136.5052564708167,"[82, 0, 172]",172,l,0.21099493082147092,colour,0.06
092,25,1,1,15,30,730,2138.5176705089107,2139.169230278436,"[94, 0, 160]",160,l,0.12926077787415124,colour,0.06
092,25,1,1,15,31,731,2141.189520062733,2141.84120783236,"[55, 0, 199]",199,a,0.12952504883287475,colour,0.06
092,25,1,1,15,32,732,2143.8617028106237,2144.4812062412093,"[70, 0, 184]",184,a,0.09734189134906046,colour,0.06
092,25,1,1,15,33,733,2146.4866751921363,2147.2412494225428,"[92, 0, 162]",162,l,0.2323161987878848,colour,0.06
092,25,1,1,15,34,734,2149.2434545684664,2150.153302342893,"[98, 0, 156]",156,l,0.38755114589002915,colour,0.06
092,25,1,1,15,35,735,2152.1653264730703,2152.929214382806,"[53, 0, 201]",201,a,0.24182483210461214,colour,0.06
092,25,1,1,15,36,736,2154.9466050638584,2155.7452440095076,"[83, 0, 171]",171,l,0.2762564585718792,colour,0.06
092,25,1,1,15,37,737,2157.759097556147,2158.5692659609194,"[59, 0, 195]",195,a,0.2879245516087394,colour,0.06
092,25,1,1,15,38,738,2160.5759680448973,2161.121259394713,"[58, 0, 196]",196,a,0.02285923811723478,colour,0.06
092,25,1,1,15,39,739,2163.1385350726196,2163.8492482063302,"[51, 0, 203]",203,a,0.18841492975479923,colour,0.06
092,25,1,1,15,40,740,2165.8572795218497,2166.5052608031256,"[91, 0, 163]",163,l,0.1257008004176896,colour,0.06
092,25,1,1,15,41,741,2168.5165476528637,2169.353319593356,"[73, 0, 181]",181,l,0.31483489368110895,colour,0.06
092,25,1,1,15,42,742,2171.3609161024506,2172.057244784606,"[60, 0, 194]",194,a,0.1747417647857219,colour,0.06
092,25,1,1,15,43,743,2174.0633777605253,2174.857246438769,"[77, 0, 177]",177,l,0.2715535389143042,colour,0.06
092,25,1,1,15,44,744,2176.8758690712857,2177.71327510447,"[81, 0, 173]",173,l,0.31516651235870086,colour,0.06
092,25,1,1,15,45,745,2179.7196951944206,2180.481282647408,"[54, 0, 200]",200,a,0.2393116983002983,colour,0.06
092,25,1,1,15,46,746,2182.500843422051,2183.42591493472,"[89, 0, 165]",165,l,0.4028063918231055,colour,0.06
092,25,1,1,15,47,747,2185.4383888374723,2186.169283053867,"[74, 0, 180]",180,l,0.20861806787434034,colour,0.06
092,25,1,1,15,48,748,2188.189528333518,2188.8412586385384,"[13, 0, 241]",241,a,0.1297235474048648,colour,0.06
092,25,1,1,15,49,749,2190.8614078196697,2191.5772610425774,"[95, 0, 159]",159,l,0.19363457593135536,colour,0.06
092,25,1,1,15,50,750,2193.594599342061,2194.2332913624414,"[85, 0, 169]",169,l,0.12889134997385554,colour,0.06
092,25,1,1,16,1,751,2203.4950255232397,2204.2092710651923,"[4, 0, 250]",250,a,0.1911738237249665,colour,0.06
092,25,1,1,16,2,752,2206.2145434867707,2206.817323412106,"[71, 0, 183]",183,l,0.08050417064805515,colour,0.06
092,25,1,1,16,3,753,2208.811583494855,2209.7292959877814,"[67, 0, 187]",187,a,0.39539065820281394,colour,0.06
092,25,1,1,16,4,754,2211.749093070248,2212.4732930796163,"[55, 0, 199]",199,a,0.20207312860293314,colour,0.06
092,25,1,1,16,5,755,2214.483479522547,2215.105254659109,"[90, 0, 164]",164,l,0.09982588051934727,colour,0.06
092,25,1,1,16,6,756,2217.1116538752103,2217.8252676875563,"[95, 0, 159]",159,l,0.1912829191714991,colour,0.06
092,25,1,1,16,7,757,2219.8304337706068,2220.5532994284295,"[68, 0, 186]",186,a,0.20059856775333174,colour,0.06
092,25,1,1,16,8,758,2222.5647599644144,2223.1052845914382,"[20, 0, 234]",234,a,0.018280773860169575,colour,0.06
092,25,1,1,16,9,759,2225.1071541802376,2225.8653120188974,"[78, 0, 176]",176,l,0.23583718546433374,colour,0.06
092,25,1,1,16,10,760,2227.8727521709807,2228.625273674028,"[74, 0, 180]",180,l,0.23017564369365573,colour,0.06
092,25,1,1,16,11,761,2230.6383911217563,2231.3532935995026,"[54, 0, 200]",200,a,0.19258379377424717,colour,0.06
092,25,1,1,16,12,762,2233.3605671545665,2234.0733050525596,"[81, 0, 173]",173,l,0.19045269099297002,colour,0.06
092,25,1,1,16,13,763,2236.079375800764,2236.825318493735,"[98, 0, 156]",156,l,0.22375397832365707,colour,0.06
092,25,1,1,16,14,764,2238.847905584,2239.7452861510683,"[70, 0, 184]",184,a,0.3756416249962058,colour,0.06
092,25,1,1,16,15,765,2241.744965166261,2242.449315711594,"[83, 0, 171]",171,l,0.1821275660477113,colour,0.06
092,25,1,1,16,16,766,2244.4637159170525,2245.1773206709186,"[96, 0, 158]",158,l,0.19193906724103726,colour,0.06
092,25,1,1,16,17,767,2247.1824611539487,2247.8732649589947,"[92, 0, 162]",162,l,0.16865762579254806,colour,0.06
092,25,1,1,16,18,768,2249.885622677044,2250.673309148551,"[79, 0, 175]",175,a,0.26542883372167125,colour,0.06
092,25,1,1,16,19,769,2252.6824089693255,2253.3613067980623,"[97, 0, 157]",157,l,0.15677370491903275,colour,0.06
092,25,1,1,16,20,770,2255.369996230904,2256.185324023332,"[52, 0, 202]",202,a,0.2937487519811839,colour,0.06
092,25,1,1,16,21,771,2258.1980736185797,2258.889333497704,"[88, 0, 166]",166,l,0.16907667834311724,colour,0.06
092,25,1,1,16,22,772,2260.901216237049,2261.5133370171243,"[66, 0, 188]",188,a,0.0897686191892717,colour,0.06
092,25,1,1,16,23,773,2263.5261874370335,2264.113303303864,"[56, 0, 198]",198,a,0.0648987952445168,colour,0.06
092,25,1,1,16,24,774,2266.1200034185895,2267.241347884119,"[59, 0, 195]",195,a,0.5991061262320727,colour,0.06
092,25,1,1,16,25,775,2269.26059003704,2269.9132880226243,"[60, 0, 194]",194,a,0.13048642783542164,colour,0.06
092,25,1,1,16,26,776,2271.932447073952,2272.577306334919,"[51, 0, 203]",203,a,0.12280169717269018,colour,0.06
092,25,1,1,16,27,777,2274.576286666619,2275.2493409965537,"[50, 0, 204]",204,a,0.15108616926590912,colour,0.06
092,25,1,1,16,28,778,2277.264791590278,2277.9773329589225,"[87, 0, 167]",167,l,0.1902770354936365,colour,0.06
092,25,1,1,16,29,779,2279.97408727085,2280.641342212737,"[77, 0, 177]",177,a,0.1453966643603053,colour,0.06
092,25,1,1,16,30,780,2282.662526028347,2283.2573215058655,"[84, 0, 170]",170,l,0.07247994435601868,colour,0.06
092,25,1,1,16,31,781,2285.271900123713,2286.1133300854126,"[76, 0, 178]",178,l,0.3192026501055807,colour,0.06
092,25,1,1,16,32,782,2288.131286723714,2288.8652927204384,"[80, 0, 174]",174,l,0.21169203892350197,colour,0.06
092,25,1,1,16,33,783,2290.881214354449,2291.569313222484,"[73, 0, 181]",181,l,0.16579987638397142,colour,0.06
092,25,1,1,16,34,784,2293.584257723647,2294.401339707867,"[75, 0, 179]",179,l,0.2947156448790338,colour,0.06
092,25,1,1,16,35,785,2296.4125308529474,2297.1053247637756,"[91, 0, 163]",163,l,0.1706307962012943,colour,0.06
092,25,1,1,16,36,786,2299.118622593174,2299.857344900345,"[82, 0, 172]",172,l,0.2164965709671378,colour,0.06
092,25,1,1,16,37,787,2301.868563220836,2302.4893127813993,"[94, 0, 160]",160,l,0.09841591047006659,colour,0.06
092,25,1,1,16,38,788,2304.509231956239,2305.3293564038177,"[69, 0, 185]",185,a,0.29785420672851615,colour,0.06
092,25,1,1,16,39,789,2307.337305799272,2307.9213327289326,"[72, 0, 182]",182,a,0.061743298021610826,colour,0.06
092,25,1,1,16,40,790,2309.9310260761995,2310.457368294825,"[57, 0, 197]",197,a,0.004266144067514688,colour,0.06
092,25,1,1,16,41,791,2312.479776972672,2313.3053073557676,"[99, 0, 155]",155,l,0.30324990223743953,colour,0.06
092,25,1,1,16,42,792,2315.3235633173026,2316.0893424774113,"[11, 0, 243]",243,a,0.2434817438479513,colour,0.06
092,25,1,1,16,43,793,2318.104731631116,2318.833354535396,"[63, 0, 191]",191,a,0.20629831263795495,colour,0.06
092,25,1,1,16,44,794,2320.82676548537,2322.289323494013,"[62, 0, 192]",192,a,0.9403216385981068,colour,0.06
092,25,1,1,16,45,795,2324.2830774841714,2325.0653662909463,"[61, 0, 193]",193,a,0.2602666891471017,colour,0.06
092,25,1,1,16,46,796,2327.0799602687766,2328.2013736574445,"[53, 0, 201]",201,a,0.5992270370770711,colour,0.06
092,25,1,1,16,47,797,2330.208133242966,2330.9853729390597,"[64, 0, 190]",190,a,0.2548828090366442,colour,0.06
092,25,1,1,16,48,798,2333.0049049629015,2333.7213497430785,"[86, 0, 168]",168,l,0.19402605923824012,colour,0.06
092,25,1,1,16,49,799,2335.7320698478725,2336.4253320420685,"[93, 0, 161]",161,l,0.17104906105669215,colour,0.06
092,25,1,1,16,50,800,2338.435314472561,2339.1133426885062,"[58, 0, 196]",196,a,0.15584619669243693,colour,0.06
