id,age,condition,counterbalance,block,trialinblock,trial,tstart,tend,trialstim,trialintensity,response,RT,trialtype,colourfreq
09,24,1,1,Practice,1,NA,5.119945853948593e-06,0.686021305155009,"[24, 0, 230]",230,a,0.13149648858234286,colour,0.5
09,24,1,1,Practice,2,NA,2.7041693315841258,3.4941817140206695,"[91, 0, 163]",163,l,0.2650783909484744,colour,0.5
09,24,1,1,Practice,3,NA,5.501176811289042,6.870022968854755,"[36, 0, 218]",218,a,0.8466123738326132,colour,0.5
09,24,1,1,Practice,4,NA,8.87646116828546,10.558024531695992,"[66, 0, 188]",188,a,1.159296102821827,colour,0.5
09,24,1,1,Practice,5,NA,12.564651383087039,15.278011897113174,"[61, 0, 193]",193,a,2.1914331424050033,colour,0.5
09,24,1,1,Practice,6,NA,17.283444607630372,18.157990503590554,"[71, 0, 183]",183,a,0.3523479518480599,colour,0.5
09,24,1,1,Practice,7,NA,20.174244918394834,21.741971844341606,"[67, 0, 187]",187,a,1.0454687238670886,colour,0.5
09,24,1,1,Practice,8,NA,23.75265137059614,25.318025854881853,"[26, 0, 228]",228,a,1.0433340789750218,colour,0.5
09,24,1,1,Practice,9,NA,27.331068456638604,28.062039790675044,"[20, 0, 234]",234,a,0.20881474437192082,colour,0.5
09,24,1,1,Practice,10,NA,30.08130830852315,30.902010740712285,"[16, 0, 238]",238,a,0.2985529312863946,colour,0.5
09,24,1,1,1,1,1,6.145709205884486,7.087970212567598,"[71, 0, 183]",183,l,0.41926670633256435,colour,0.5
09,24,1,1,1,2,2,9.0998115837574,10.143974708393216,"[61, 0, 193]",193,l,0.5218454515561461,colour,0.5
09,24,1,1,1,3,3,12.162559509743005,12.943982112687081,"[22, 0, 232]",232,a,0.2590300990268588,colour,0.5
09,24,1,1,1,4,4,14.959693020675331,15.823974109720439,"[48, 0, 206]",206,a,0.3420347021892667,colour,0.5
09,24,1,1,1,5,5,17.83484071260318,18.671966519672424,"[44, 0, 210]",210,a,0.3148683924227953,colour,0.5
09,24,1,1,1,6,6,20.67881589429453,21.48798612365499,"[5, 0, 249]",249,a,0.2868746118620038,colour,0.5
09,24,1,1,1,7,7,23.507239281665534,24.287943115923554,"[2, 0, 252]",252,a,0.2584751704707742,colour,0.5
09,24,1,1,1,8,8,26.304390121717006,27.08799856947735,"[26, 0, 228]",228,a,0.2614294085651636,colour,0.5
09,24,1,1,1,9,9,29.101364518515766,29.935970893129706,"[21, 0, 233]",233,a,0.31233123736456037,colour,0.5
09,24,1,1,1,10,10,31.94550157058984,32.79196073813364,"[95, 0, 159]",159,l,0.32444633124396205,colour,0.5
09,24,1,1,1,11,11,34.80498128430918,35.639953148085624,"[81, 0, 173]",173,l,0.3128704121336341,colour,0.5
09,24,1,1,1,12,12,37.64894307497889,38.45598614262417,"[90, 0, 164]",164,l,0.2847840776666999,colour,0.5
09,24,1,1,1,13,13,40.46172644710168,41.327962587587535,"[67, 0, 187]",187,l,0.34412563033401966,colour,0.5
09,24,1,1,1,14,14,43.33693912392482,44.135987513232976,"[70, 0, 184]",184,l,0.27683981182053685,colour,0.5
09,24,1,1,1,15,15,46.14962482219562,46.95997698325664,"[66, 0, 188]",188,l,0.28810656210407615,colour,0.5
09,24,1,1,1,16,16,48.978047422133386,49.75994697259739,"[3, 0, 251]",251,a,0.25966064678505063,colour,0.5
09,24,1,1,1,17,17,51.775095861870795,52.59994155308232,"[13, 0, 241]",241,a,0.30261860275641084,colour,0.5
09,24,1,1,1,18,18,54.61904426198453,55.25594471022487,"[62, 0, 192]",192,l,0.1153287198394537,colour,0.5
09,24,1,1,1,19,19,57.27551885228604,58.063970817252994,"[20, 0, 234]",234,a,0.2661764333024621,colour,0.5
09,24,1,1,1,20,20,60.072627550922334,60.879940796643496,"[10, 0, 244]",244,a,0.28533309884369373,colour,0.5
09,24,1,1,1,21,21,62.88531797518954,63.67195549188182,"[50, 0, 204]",204,l,0.26441672956570983,colour,0.5
09,24,1,1,1,22,22,65.6823833505623,66.45593336736783,"[30, 0, 224]",224,a,0.2516951127909124,colour,0.5
09,24,1,1,1,23,23,68.4638839350082,69.35995154082775,"[75, 0, 179]",179,l,0.37377828964963555,colour,0.5
09,24,1,1,1,24,24,71.37036207038909,72.07197494804859,"[59, 0, 195]",195,l,0.17935310024768114,colour,0.5
09,24,1,1,1,25,25,74.0893463101238,74.88796501373872,"[43, 0, 211]",211,a,0.2766153197735548,colour,0.5
09,24,1,1,1,26,26,76.90199498692527,77.67992260120809,"[39, 0, 215]",215,a,0.2555465321056545,colour,0.5
09,24,1,1,1,27,27,79.69910841155797,80.48796328064054,"[73, 0, 181]",181,l,0.266472605522722,colour,0.5
09,24,1,1,1,28,28,82.49714501062408,83.24794963793829,"[68, 0, 186]",186,l,0.22946605505421758,colour,0.5
09,24,1,1,1,29,29,85.2620824049227,86.02399348700419,"[46, 0, 208]",208,a,0.23975803656503558,colour,0.5
09,24,1,1,1,30,30,88.04356605419889,88.86396798165515,"[88, 0, 166]",166,l,0.29812600230798125,colour,0.5
09,24,1,1,1,31,31,90.87197368778288,91.66394781693816,"[85, 0, 169]",169,l,0.2699861051514745,colour,0.5
09,24,1,1,1,32,32,93.68464126903564,94.47992212837562,"[41, 0, 213]",213,a,0.2730399863794446,colour,0.5
09,24,1,1,1,33,33,96.49735847534612,97.10393003048375,"[55, 0, 199]",199,l,0.08432753151282668,colour,0.5
09,24,1,1,1,34,34,99.12258414877579,99.91193053778261,"[28, 0, 226]",226,a,0.2673658481799066,colour,0.5
09,24,1,1,1,35,35,101.9196266811341,102.69595961319283,"[36, 0, 218]",218,a,0.2541105696000159,colour,0.5
09,24,1,1,1,36,36,104.70112726558,105.50391128379852,"[65, 0, 189]",189,l,0.2805403880774975,colour,0.5
09,24,1,1,1,37,37,107.51391930226237,108.31193936010823,"[93, 0, 161]",161,l,0.27586307376623154,colour,0.5
09,24,1,1,1,38,38,110.32654907461256,111.13593040546402,"[86, 0, 168]",168,l,0.2871042238548398,colour,0.5
09,24,1,1,1,39,39,113.1549748252146,113.90395397646353,"[19, 0, 235]",235,a,0.22694819839671254,colour,0.5
09,24,1,1,1,40,40,115.92079758504406,116.70394680835307,"[82, 0, 172]",172,l,0.26091465167701244,colour,0.5
09,24,1,1,1,41,41,118.71781491115689,119.4799370947294,"[16, 0, 238]",238,a,0.23993329843506217,colour,0.5
09,24,1,1,1,42,42,121.49936315091327,122.27192737162113,"[69, 0, 185]",185,l,0.25038833217695355,colour,0.5
09,24,1,1,1,43,43,124.28078260319307,125.0879237386398,"[8, 0, 246]",246,a,0.28486245311796665,colour,0.5
09,24,1,1,1,44,44,127.09349508304149,127.8799069263041,"[18, 0, 236]",236,a,0.2641296163201332,colour,0.5
09,24,1,1,1,45,45,129.89061480900273,130.6798973949626,"[84, 0, 170]",170,l,0.2670574667863548,colour,0.5
09,24,1,1,1,46,46,132.68775934726,133.46394025487825,"[6, 0, 248]",248,a,0.254075123462826,colour,0.5
09,24,1,1,1,47,47,135.46918195020407,136.23990139644593,"[9, 0, 245]",245,a,0.24844352062791586,colour,0.5
09,24,1,1,1,48,48,138.25065929768607,139.0398898962885,"[79, 0, 175]",175,l,0.26699327025562525,colour,0.5
09,24,1,1,1,49,49,141.047712857835,141.82388903899118,"[99, 0, 155]",155,l,0.2538998620584607,colour,0.5
09,24,1,1,1,50,50,143.82920241449028,144.59992894995958,"[40, 0, 214]",214,a,0.2485132315196097,colour,0.5
09,24,1,1,2,1,51,153.09474711911753,154.12792509328574,"[57, 0, 197]",197,l,0.5101911569945514,colour,0.5
09,24,1,1,2,2,52,156.1426915586926,156.94388916529715,"[81, 0, 173]",173,l,0.2789433430880308,colour,0.5
09,24,1,1,2,3,53,158.95541782304645,159.7118958006613,"[76, 0, 178]",178,l,0.2344218185171485,colour,0.5
09,24,1,1,2,4,54,161.7211901708506,162.48789987154305,"[33, 0, 221]",221,a,0.24444874189794064,colour,0.5
09,24,1,1,2,5,55,164.5027478625998,165.3119133664295,"[3, 0, 251]",251,a,0.2869695289991796,colour,0.5
09,24,1,1,2,6,56,167.3310751519166,168.18390595866367,"[26, 0, 228]",228,a,0.33065767539665103,colour,0.5
09,24,1,1,2,7,57,170.19061157945544,170.98391572618857,"[53, 0, 201]",201,l,0.27104240003973246,colour,0.5
09,24,1,1,2,8,58,173.00343551766127,173.7118863486685,"[20, 0, 234]",234,a,0.18620680691674352,colour,0.5
09,24,1,1,2,9,59,175.72229057596996,176.52790949726477,"[13, 0, 241]",241,a,0.28354740189388394,colour,0.5
09,24,1,1,2,10,60,178.5350574068725,179.31989504769444,"[93, 0, 161]",161,l,0.2625975557602942,colour,0.5
09,24,1,1,2,11,61,181.33214168669656,182.1278908289969,"[46, 0, 208]",208,a,0.27350393682718277,colour,0.5
09,24,1,1,2,12,62,184.14484235132113,184.94387695612386,"[91, 0, 163]",163,l,0.27675946755334735,colour,0.5
09,24,1,1,2,13,63,186.95756310177967,188.01587277790532,"[55, 0, 199]",199,l,0.5361066125333309,colour,0.5
09,24,1,1,2,14,64,190.03598688310012,190.79190481174737,"[65, 0, 189]",189,l,0.23363845888525248,colour,0.5
09,24,1,1,2,15,65,192.80183563707396,193.5759149827063,"[29, 0, 225]",225,a,0.25178254675120115,colour,0.5
09,24,1,1,2,16,66,195.58329447358847,196.27987281884998,"[50, 0, 204]",204,l,0.17431817390024662,colour,0.5
09,24,1,1,2,17,67,198.2866292456165,198.8478821325116,"[44, 0, 210]",210,a,0.03904667217284441,colour,0.5
09,24,1,1,2,18,68,200.86492975335568,201.5758909578435,"[30, 0, 224]",224,a,0.18861399311572313,colour,0.5
09,24,1,1,2,19,69,203.583902571816,204.33584383828565,"[18, 0, 236]",236,a,0.22975277481600642,colour,0.5
09,24,1,1,2,20,70,206.3498403346166,207.103872529231,"[98, 0, 156]",156,l,0.23212569672614336,colour,0.5
09,24,1,1,2,21,71,209.11571508226916,209.70389442704618,"[86, 0, 168]",168,l,0.0659097209572792,colour,0.5
09,24,1,1,2,22,72,211.7097406759858,212.91185098094866,"[75, 0, 179]",179,l,0.6799588352441788,colour,0.5
09,24,1,1,2,23,73,214.92870325408876,215.71984715620056,"[25, 0, 229]",229,a,0.26904796436429024,colour,0.5
09,24,1,1,2,24,74,217.72578635253012,218.54387837368995,"[7, 0, 247]",247,a,0.29587123403325677,colour,0.5
09,24,1,1,2,25,75,220.55411324789748,221.23985610436648,"[61, 0, 193]",193,l,0.1634180941618979,colour,0.5
09,24,1,1,2,26,76,223.25748228468,224.04784361459315,"[94, 0, 160]",160,l,0.26813778607174754,colour,0.5
09,24,1,1,2,27,77,226.05453584436327,226.88785867532715,"[5, 0, 249]",249,a,0.3111654529348016,colour,0.5
09,24,1,1,2,28,78,228.8985307184048,229.7838656292297,"[67, 0, 187]",187,l,0.3630704074166715,colour,0.5
09,24,1,1,2,29,79,231.7893483582884,232.64785212185234,"[39, 0, 215]",215,a,0.33647281071171165,colour,0.5
09,24,1,1,2,30,80,234.66456418577582,235.44781817216426,"[4, 0, 250]",250,a,0.26102965511381626,colour,0.5
09,24,1,1,2,31,81,237.4616602808237,238.2078344617039,"[35, 0, 219]",219,a,0.22397348005324602,colour,0.5
09,24,1,1,2,32,82,240.22755708359182,241.0078477738425,"[2, 0, 252]",252,a,0.25802539847791195,colour,0.5
09,24,1,1,2,33,83,243.0246342746541,243.80781500553712,"[49, 0, 205]",205,a,0.26088629523292184,colour,0.5
09,24,1,1,2,34,84,245.82178826490417,246.6318430728279,"[73, 0, 181]",181,l,0.28797777462750673,colour,0.5
09,24,1,1,2,35,85,248.65004505589604,249.4158733296208,"[77, 0, 177]",177,l,0.24414587439969182,colour,0.5
09,24,1,1,2,36,86,251.43153540045023,252.1998590817675,"[78, 0, 176]",176,l,0.24605878395959735,colour,0.5
09,24,1,1,2,37,87,254.21298754168674,255.0718520679511,"[12, 0, 242]",242,a,0.336603173520416,colour,0.5
09,24,1,1,2,38,88,257.0882632336579,258.0238619428128,"[59, 0, 195]",195,l,0.41345826676115394,colour,0.5
09,24,1,1,2,39,89,260.0416948921047,260.86384037556127,"[63, 0, 191]",191,l,0.29994399519637227,colour,0.5
09,24,1,1,2,40,90,262.8699264768511,263.6478367615491,"[6, 0, 248]",248,a,0.2556717749685049,colour,0.5
09,24,1,1,2,41,91,265.6670446274802,266.45587941026315,"[95, 0, 159]",159,l,0.26660690689459443,colour,0.5
09,24,1,1,2,42,92,268.46411787951365,269.24790277006105,"[40, 0, 214]",214,l,0.26152944518253207,colour,0.5
09,24,1,1,2,43,93,271.26118955621496,272.06382351880893,"[9, 0, 245]",245,a,0.28031353279948235,colour,0.5
09,24,1,1,2,44,94,274.074019796215,275.04782116552815,"[58, 0, 196]",196,l,0.45164674893021584,colour,0.5
09,24,1,1,2,45,95,277.0585251096636,277.88779762899503,"[36, 0, 218]",218,a,0.306967843323946,colour,0.5
09,24,1,1,2,46,96,279.90254322066903,280.65582198789343,"[22, 0, 232]",232,a,0.23108318680897355,colour,0.5
09,24,1,1,2,47,97,282.6683325036429,283.4638059535064,"[99, 0, 155]",155,l,0.2732376968488097,colour,0.5
09,24,1,1,2,48,98,285.4811186324805,286.2718308791518,"[14, 0, 240]",240,a,0.26851745368912816,colour,0.5
09,24,1,1,2,49,99,288.27816864755005,289.03981900401413,"[90, 0, 164]",164,l,0.23927754489704967,colour,0.5
09,24,1,1,2,50,100,291.0597062539309,291.8078476949595,"[66, 0, 188]",188,l,0.22596200834959745,colour,0.5
09,24,1,1,3,1,101,299.4814368598163,300.44782683672383,"[98, 0, 156]",156,l,0.4433964639902115,colour,0.5
09,24,1,1,3,2,102,302.46683935495093,302.9998460058123,"[82, 0, 172]",172,l,0.01082879351451993,colour,0.5
09,24,1,1,3,3,103,305.0139003978111,305.91982360417023,"[86, 0, 168]",168,l,0.38369572442024946,colour,0.5
09,24,1,1,3,4,104,307.93593584094197,308.879832489416,"[52, 0, 202]",202,l,0.4216100894846022,colour,0.5
09,24,1,1,3,5,105,310.8894309080206,311.87183662923053,"[4, 0, 250]",250,a,0.4604996172711253,colour,0.5
09,24,1,1,3,6,106,313.8895813571289,314.7918012305163,"[21, 0, 233]",233,a,0.3802239722572267,colour,0.5
09,24,1,1,3,7,107,316.81169635709375,317.6878310274333,"[35, 0, 219]",219,a,0.3540021050721407,colour,0.5
09,24,1,1,3,8,108,319.70257386146113,320.6558085968718,"[79, 0, 175]",175,l,0.4310962622985244,colour,0.5
09,24,1,1,3,9,109,322.6715947291814,323.79182092286646,"[46, 0, 208]",208,a,0.5980861452408135,colour,0.5
09,24,1,1,3,10,110,325.81242182152346,326.703792814631,"[0, 0, 254]",254,a,0.36916280956938863,colour,0.5
09,24,1,1,3,11,111,328.7189015322365,329.6877880981192,"[67, 0, 187]",187,l,0.44673470221459866,colour,0.5
09,24,1,1,3,12,112,331.7035167287104,332.55986261041835,"[76, 0, 178]",178,l,0.33413021452724934,colour,0.5
09,24,1,1,3,13,113,334.57870301790535,335.4478095076047,"[91, 0, 163]",163,l,0.346902244258672,colour,0.5
09,24,1,1,3,14,114,337.45393774984404,338.3837831574492,"[99, 0, 155]",155,l,0.40762580186128616,colour,0.5
09,24,1,1,3,15,115,340.3916915836744,341.27976766228676,"[78, 0, 176]",176,l,0.3658655318431556,colour,0.5
09,24,1,1,3,16,116,343.2981689311564,344.2398159317672,"[33, 0, 221]",221,a,0.4194088843651116,colour,0.5
09,24,1,1,3,17,117,346.251526940614,347.10380715085194,"[48, 0, 206]",206,a,0.33001728216186166,colour,0.5
09,24,1,1,3,18,118,349.110998777207,350.0957762384787,"[58, 0, 196]",196,a,0.4623329699970782,colour,0.5
09,24,1,1,3,19,119,352.11125044478104,352.9837916647084,"[20, 0, 234]",234,a,0.3501959778368473,colour,0.5
09,24,1,1,3,20,120,355.00214330945164,355.8557885894552,"[94, 0, 160]",160,l,0.33140401309356093,colour,0.5
09,24,1,1,3,21,121,357.8617888321169,358.66379579203203,"[19, 0, 235]",235,a,0.2809373843483627,colour,0.5
09,24,1,1,3,22,122,360.6744713797234,361.52775904815644,"[84, 0, 170]",170,l,0.33118858002126217,colour,0.5
09,24,1,1,3,23,123,363.53408854594454,364.37578138988465,"[14, 0, 240]",240,a,0.31940431566908956,colour,0.5
09,24,1,1,3,24,124,366.39371555810794,367.26375191798434,"[88, 0, 166]",166,l,0.3477454683743417,colour,0.5
09,24,1,1,3,25,125,369.26896604383364,370.11976342462003,"[25, 0, 229]",229,a,0.3285805322229862,colour,0.5
09,24,1,1,3,26,126,372.1285060159862,373.0158003102988,"[45, 0, 209]",209,a,0.36502624582499266,colour,0.5
09,24,1,1,3,27,127,375.0350865512155,375.8157738437876,"[26, 0, 228]",228,a,0.258481471799314,colour,0.5
09,24,1,1,3,28,128,377.83207827759907,378.61580842360854,"[54, 0, 200]",200,a,0.2614116854965687,colour,0.5
09,24,1,1,3,29,129,380.6292921327986,381.44778666459024,"[13, 0, 241]",241,a,0.2965143849141896,colour,0.5
09,24,1,1,3,30,130,383.45753513881937,384.26378460694104,"[57, 0, 197]",197,a,0.28400662587955594,colour,0.5
09,24,1,1,3,31,131,386.27028424618766,387.0797884571366,"[6, 0, 248]",248,a,0.28728578705340624,colour,0.5
09,24,1,1,3,32,132,389.0986532829702,390.0157593502663,"[93, 0, 161]",161,l,0.39485968044027686,colour,0.5
09,24,1,1,3,33,133,392.02074780268595,392.8158006253652,"[63, 0, 191]",191,l,0.2728485772386193,colour,0.5
09,24,1,1,3,34,134,394.83351227035746,395.65575582161546,"[61, 0, 193]",193,l,0.3000920810736716,colour,0.5
09,24,1,1,3,35,135,397.66176512278616,398.46377680869773,"[24, 0, 230]",230,a,0.2804620126262307,colour,0.5
09,24,1,1,3,36,136,400.4745378610678,401.29574165912345,"[44, 0, 210]",210,a,0.298982223495841,colour,0.5
09,24,1,1,3,37,137,403.30292186373845,404.18392013711855,"[64, 0, 190]",190,l,0.3587798494845629,colour,0.5
09,24,1,1,3,38,138,406.19377376837656,407.00775088742375,"[62, 0, 192]",192,l,0.291730338241905,colour,0.5
09,24,1,1,3,39,139,409.02208569739014,409.81576833035797,"[73, 0, 181]",181,l,0.2716300180181861,colour,0.5
09,24,1,1,3,40,140,411.8348040850833,412.67174084624276,"[32, 0, 222]",222,a,0.314762054476887,colour,0.5
09,24,1,1,3,41,141,414.6788190449588,415.5117614204064,"[81, 0, 173]",173,l,0.31084368098527193,colour,0.5
09,24,1,1,3,42,142,417.52271151868626,418.33575443550944,"[3, 0, 251]",251,a,0.2910934896208346,colour,0.5
09,24,1,1,3,43,143,420.3510805554688,421.1677551250905,"[17, 0, 237]",237,a,0.2944356659427285,colour,0.5
09,24,1,1,3,44,144,423.17940311832353,423.99973848601803,"[15, 0, 239]",239,a,0.2980192699469626,colour,0.5
09,24,1,1,3,45,145,426.0078284749761,426.91174031049013,"[1, 0, 253]",253,a,0.38173240236938,colour,0.5
09,24,1,1,3,46,146,428.92985131498426,429.7517561586574,"[74, 0, 180]",180,l,0.2995749614201486,colour,0.5
09,24,1,1,3,47,147,431.75825619185343,432.56771511072293,"[8, 0, 246]",246,a,0.28727869829162955,colour,0.5
09,24,1,1,3,48,148,434.5865968717262,435.43974590627477,"[23, 0, 231]",231,a,0.3309770845808089,colour,0.5
09,24,1,1,3,49,149,437.44619552697986,438.2557572396472,"[60, 0, 194]",194,l,0.2873491966165602,colour,0.5
09,24,1,1,3,50,150,440.27460434194654,441.063759715762,"[22, 0, 232]",232,a,0.2670381683856249,colour,0.5
09,24,1,1,4,1,151,448.71198087139055,449.6957091274671,"[43, 0, 211]",211,a,0.4615003797225654,colour,0.5
09,24,1,1,4,2,152,451.7129249200225,452.567721018102,"[12, 0, 242]",242,a,0.33249811735004187,colour,0.5
09,24,1,1,4,3,153,454.58816871093586,455.4157228805125,"[97, 0, 157]",157,l,0.30541451508179307,colour,0.5
09,24,1,1,4,4,154,457.43213640898466,458.2636983548291,"[13, 0, 241]",241,a,0.3093695156276226,colour,0.5
09,24,1,1,4,5,155,460.2761202552356,461.1277076904662,"[72, 0, 182]",182,l,0.3292866977863014,colour,0.5
09,24,1,1,4,6,156,463.13572718109936,463.9517404837534,"[18, 0, 236]",236,a,0.29383938340470195,colour,0.5
09,24,1,1,4,7,157,465.96404147334397,466.7357077249326,"[85, 0, 169]",169,l,0.24943837570026517,colour,0.5
09,24,1,1,4,8,158,468.7455357564613,469.61574698379263,"[19, 0, 235]",235,a,0.3480648775584996,colour,0.5
09,24,1,1,4,9,159,471.6207980578765,472.455710450653,"[37, 0, 217]",217,a,0.31300195679068565,colour,0.5
09,24,1,1,4,10,160,474.46476811915636,475.36770557938144,"[66, 0, 188]",188,l,0.3807237627916038,colour,0.5
09,24,1,1,4,11,161,477.3868122268468,478.1997484108433,"[60, 0, 194]",194,l,0.29081267723813653,colour,0.5
09,24,1,1,4,12,162,480.21514975558966,480.991691426374,"[95, 0, 159]",159,l,0.25427362229675055,colour,0.5
09,24,1,1,4,13,163,483.01227342011407,483.74368034815416,"[88, 0, 166]",166,l,0.20925348857417703,colour,0.5
09,24,1,1,4,14,164,485.76249673077837,486.551703304518,"[91, 0, 163]",163,l,0.2670267466455698,colour,0.5
09,24,1,1,4,15,165,488.5595975522883,489.2717005163431,"[51, 0, 203]",203,a,0.18983176490291953,colour,0.5
09,24,1,1,4,16,166,491.2785829738714,492.1277084783651,"[10, 0, 244]",244,a,0.32681058859452605,colour,0.5
09,24,1,1,4,17,167,494.13813594263047,494.99168118601665,"[17, 0, 237]",237,a,0.3313500564545393,colour,0.5
09,24,1,1,4,18,168,496.99794057942927,497.81571397930384,"[87, 0, 167]",167,l,0.29561956692487,colour,0.5
09,24,1,1,4,19,169,499.82620879169554,500.78371911821887,"[47, 0, 207]",207,a,0.4352095890790224,colour,0.5
09,24,1,1,4,20,170,502.79522060090676,503.46371103683487,"[75, 0, 179]",179,l,0.14618418458849192,colour,0.5
09,24,1,1,4,21,171,505.4829244161956,506.34368806751445,"[30, 0, 224]",224,a,0.33851490169763565,colour,0.5
09,24,1,1,4,22,172,508.358137880452,509.24768694257364,"[53, 0, 201]",201,a,0.3673066138289869,colour,0.5
09,24,1,1,4,23,173,511.26474440936,512.0956655680202,"[33, 0, 221]",221,a,0.3087326670065522,colour,0.5
09,24,1,1,4,24,174,514.1085762311704,514.9116914733313,"[54, 0, 200]",200,a,0.28083025850355625,colour,0.5
09,24,1,1,4,25,175,516.9213013141416,517.7356974850409,"[3, 0, 251]",251,a,0.29223131015896797,colour,0.5
09,24,1,1,4,26,176,519.7496309662238,520.5357064646669,"[23, 0, 231]",231,a,0.2637613699771464,colour,0.5
09,24,1,1,4,27,177,522.5468125259504,523.4476968673989,"[93, 0, 161]",161,l,0.3786537083797157,colour,0.5
09,24,1,1,4,28,178,525.4532638797536,526.2477007270791,"[44, 0, 210]",210,a,0.2722192113287747,colour,0.5
09,24,1,1,4,29,179,528.2660011718981,529.0476919841021,"[34, 0, 220]",220,a,0.25940464716404676,colour,0.5
09,24,1,1,4,30,180,531.063077181112,531.9116871412843,"[46, 0, 208]",208,a,0.326330884359777,colour,0.5
09,24,1,1,4,31,181,533.9227238856256,534.8396708392538,"[80, 0, 174]",174,l,0.3937486414797604,colour,0.5
09,24,1,1,4,32,182,536.8447333346121,537.6636650352739,"[77, 0, 177]",177,l,0.2974517378024757,colour,0.5
09,24,1,1,4,33,183,539.6731145805679,540.4556596442126,"[38, 0, 216]",216,a,0.2607905901968479,colour,0.5
09,24,1,1,4,34,184,542.4702173713595,543.1676806882024,"[61, 0, 193]",193,a,0.17519408697262406,colour,0.5
09,24,1,1,4,35,185,545.1736013740301,545.9836770556867,"[16, 0, 238]",238,a,0.28808293165639043,colour,0.5
09,24,1,1,4,36,186,548.0019404785708,548.7996600321494,"[69, 0, 185]",185,l,0.275534606538713,colour,0.5
09,24,1,1,4,37,187,550.8146167248487,551.4636866180226,"[45, 0, 209]",209,a,0.1268329587765038,colour,0.5
09,24,1,1,4,38,188,553.4710546876304,554.231635752134,"[82, 0, 172]",172,l,0.23830907745286822,colour,0.5
09,24,1,1,4,39,189,556.2369534596801,557.015684125945,"[62, 0, 192]",192,l,0.25651342375203967,colour,0.5
09,24,1,1,4,40,190,559.0341031178832,559.7996576689184,"[9, 0, 245]",245,a,0.24340741336345673,colour,0.5
09,24,1,1,4,41,191,561.8154579796828,562.583689107094,"[94, 0, 160]",160,l,0.24597528856247663,colour,0.5
09,24,1,1,4,42,192,564.5969053949229,565.3676776164211,"[67, 0, 187]",187,l,0.248970880638808,colour,0.5
09,24,1,1,4,43,193,567.3784473333508,568.1677626082674,"[26, 0, 228]",228,a,0.26709054969251156,colour,0.5
09,24,1,1,4,44,194,570.1755253113806,570.9437001193874,"[36, 0, 218]",218,a,0.24590006424114108,colour,0.5
09,24,1,1,4,45,195,572.9577832617797,573.7676655645482,"[52, 0, 202]",202,a,0.2877012942917645,colour,0.5
09,24,1,1,4,46,196,575.7861337875947,576.4716773582622,"[73, 0, 181]",181,l,0.16333184204995632,colour,0.5
09,24,1,1,4,47,197,578.4894791934639,579.2076607756317,"[35, 0, 219]",219,a,0.19611518271267414,colour,0.5
09,24,1,1,4,48,198,581.2240912397392,582.0236350875348,"[8, 0, 246]",246,a,0.27739592222496867,colour,0.5
09,24,1,1,4,49,199,584.0368108088151,584.8316718284041,"[32, 0, 222]",222,a,0.2726343250833452,colour,0.5
09,24,1,1,4,50,200,586.8494713008404,587.6076644775458,"[71, 0, 183]",183,l,0.23596923891454935,colour,0.5
09,24,1,1,5,1,201,595.4289706754498,596.3116683941334,"[69, 0, 185]",185,l,0.3596341013908386,colour,0.4
09,24,1,1,5,2,202,598.3206606842577,599.0636447127908,"[57, 0, 197]",197,l,0.22083216486498713,colour,0.4
09,24,1,1,5,3,203,601.0708174346946,602.0956537523307,"[46, 0, 208]",208,a,0.5025753583759069,colour,0.4
09,24,1,1,5,4,204,604.1023396807723,604.8076235963963,"[39, 0, 215]",215,a,0.18317379942163825,colour,0.4
09,24,1,1,5,5,205,606.8119113971479,607.5756302322261,"[63, 0, 191]",191,l,0.24145078659057617,colour,0.4
09,24,1,1,5,6,206,609.5934781478718,610.151644858066,"[67, 0, 187]",187,l,0.036397664807736874,colour,0.4
09,24,1,1,5,7,207,612.1717814123258,612.9676238959655,"[97, 0, 157]",157,l,0.273758755531162,colour,0.4
09,24,1,1,5,8,208,614.9752231528983,615.775616526138,"[1, 0, 253]",253,a,0.27813910925760865,colour,0.4
09,24,1,1,5,9,209,617.7881061681546,618.5756223550998,"[79, 0, 175]",175,l,0.26545018143951893,colour,0.4
09,24,1,1,5,10,210,620.5850963187404,621.3916490483098,"[3, 0, 251]",251,a,0.28428822569549084,colour,0.4
09,24,1,1,5,11,211,623.3977942261845,624.2956242929213,"[12, 0, 242]",242,a,0.37555374763906,colour,0.4
09,24,1,1,5,12,212,626.3042806321755,627.0956486323848,"[7, 0, 247]",247,a,0.2692161360755563,colour,0.4
09,24,1,1,5,13,213,629.0927900988609,629.9595921961591,"[96, 0, 158]",158,l,0.34458485525101423,colour,0.4
09,24,1,1,5,14,214,631.968056732323,632.7596003878862,"[92, 0, 162]",162,l,0.26928899763152003,colour,0.4
09,24,1,1,5,15,215,634.7651740955189,635.7116082934663,"[98, 0, 156]",156,l,0.42449776781722903,colour,0.4
09,24,1,1,5,16,216,637.7185514029115,638.5355887049809,"[94, 0, 160]",160,l,0.29481848422437906,colour,0.4
09,24,1,1,5,17,217,640.5469129565172,641.3036406328902,"[86, 0, 168]",168,l,0.2344895601272583,colour,0.4
09,24,1,1,5,18,218,643.3127735257149,644.3276116708294,"[54, 0, 200]",200,a,0.49271069979295135,colour,0.4
09,24,1,1,5,19,219,646.3442792301066,647.08761890186,"[20, 0, 234]",234,a,0.22115669399499893,colour,0.4
09,24,1,1,5,20,220,649.0943788732402,649.8476021084934,"[56, 0, 198]",198,a,0.230933525133878,colour,0.4
09,24,1,1,5,21,221,651.8602272332646,652.6476205401123,"[0, 0, 254]",254,a,0.26516818767413497,colour,0.4
09,24,1,1,5,22,222,654.6572571625002,655.4156295387074,"[4, 0, 250]",250,a,0.23612835258245468,colour,0.4
09,24,1,1,5,23,223,657.423214617651,658.2316077891737,"[83, 0, 171]",171,l,0.28643980622291565,colour,0.4
09,24,1,1,5,24,224,660.2456739963964,660.9756256635301,"[70, 0, 184]",184,l,0.20779350213706493,colour,0.4
09,24,1,1,5,25,225,662.9958992758766,663.7115799365565,"[34, 0, 220]",220,a,0.19342521531507373,colour,0.4
09,24,1,1,5,26,226,665.732926778961,666.5196021050215,"[37, 0, 217]",217,a,0.2645199173130095,colour,0.4
09,24,1,1,5,27,227,668.5299590714276,669.2636392777786,"[88, 0, 166]",166,l,0.21139916125684977,colour,0.4
09,24,1,1,5,28,228,671.2802560310811,672.0395700931549,"[5, 0, 249]",249,a,0.2371444753371179,colour,0.4
09,24,1,1,5,29,229,674.0460295602679,674.7436480526812,"[89, 0, 165]",165,l,0.17537840688601136,colour,0.4
09,24,1,1,5,30,230,676.7494312864728,677.7036112518981,"[60, 0, 194]",194,l,0.4320151046849787,colour,0.4
09,24,1,1,5,31,231,679.7184277353808,680.5276168696582,"[76, 0, 178]",178,l,0.28702427353709936,colour,0.4
09,24,1,1,5,32,232,682.546701067593,683.3116085296497,"[68, 0, 186]",186,l,0.2427292107604444,colour,0.4
09,24,1,1,5,33,233,685.3281307597645,686.0715909483843,"[64, 0, 190]",190,l,0.22114212159067392,colour,0.4
09,24,1,1,5,34,234,688.0783973936923,688.7517384355888,"[84, 0, 170]",170,l,0.15083117224276066,colour,0.4
09,24,1,1,5,35,235,690.7682220689021,691.7916035200469,"[87, 0, 167]",167,l,0.5012004426680505,colour,0.4
09,24,1,1,5,36,236,693.799677755218,694.5595790413208,"[72, 0, 182]",182,l,0.23763914545997977,colour,0.4
09,24,1,1,5,37,237,696.5656245765276,697.3836082899943,"[9, 0, 245]",245,a,0.2958405143581331,colour,0.4
09,24,1,1,5,38,238,699.3939558039419,700.167580651585,"[28, 0, 226]",226,a,0.25140287913382053,colour,0.4
09,24,1,1,5,39,239,702.1630140081979,702.9835545695387,"[42, 0, 212]",212,a,0.29836231004446745,colour,0.4
09,24,1,1,5,40,240,704.9913145154715,705.759544855915,"[50, 0, 204]",204,a,0.24598395358771086,colour,0.4
09,24,1,1,5,41,241,707.7728698449209,708.6396002620459,"[81, 0, 173]",173,l,0.3447337285615504,colour,0.4
09,24,1,1,5,42,242,710.6480061155744,711.5195654775016,"[2, 0, 252]",252,a,0.3492200276814401,colour,0.4
09,24,1,1,5,43,243,713.5389450597577,714.3835610286333,"[43, 0, 211]",211,a,0.3226058892905712,colour,0.4
09,24,1,1,5,44,244,716.3984988168813,717.359560451936,"[61, 0, 193]",193,l,0.43882194394245744,colour,0.4
09,24,1,1,5,45,245,719.3674385519698,720.2235831785947,"[93, 0, 161]",161,l,0.3338344367220998,colour,0.4
09,24,1,1,5,46,246,722.242669345811,723.023541352246,"[58, 0, 196]",196,l,0.2586118350736797,colour,0.4
09,24,1,1,5,47,247,725.0397607148625,726.2155928323045,"[55, 0, 199]",199,a,0.6537775336764753,colour,0.4
09,24,1,1,5,48,248,728.2277197423391,729.0475482302718,"[10, 0, 244]",244,a,0.2977510611526668,colour,0.4
09,24,1,1,5,49,249,731.0558670437895,731.9115449627861,"[26, 0, 228]",228,a,0.33359300903975964,colour,0.4
09,24,1,1,5,50,250,733.9317721016705,734.9755598912016,"[44, 0, 210]",210,a,0.5215650335885584,colour,0.4
09,24,1,1,6,1,251,742.6347787999548,743.6075750747696,"[60, 0, 194]",194,l,0.4498315127566457,colour,0.28
09,24,1,1,6,2,252,745.6202592765912,746.6875584861264,"[52, 0, 202]",202,a,0.5450894506648183,colour,0.28
09,24,1,1,6,3,253,748.698540485464,749.4875501361676,"[0, 0, 254]",254,a,0.2670810972340405,colour,0.28
09,24,1,1,6,4,254,751.4956184639595,752.311507311184,"[73, 0, 181]",181,l,0.2936972049064934,colour,0.28
09,24,1,1,6,5,255,754.324048940558,755.1115647340193,"[91, 0, 163]",163,l,0.2654584525153041,colour,0.28
09,24,1,1,6,6,256,757.1210705991834,757.9435792085715,"[71, 0, 183]",183,l,0.30030593974515796,colour,0.28
09,24,1,1,6,7,257,759.9493785896339,760.7355576697737,"[15, 0, 239]",239,a,0.26391181955114007,colour,0.28
09,24,1,1,6,8,258,762.7465160386637,763.5355512895621,"[90, 0, 164]",164,l,0.26684085140004754,colour,0.28
09,24,1,1,6,9,259,765.5436723926105,766.3755454765633,"[83, 0, 171]",171,l,0.3096408755518496,colour,0.28
09,24,1,1,6,10,260,768.3887176532298,769.1835715835914,"[77, 0, 177]",177,l,0.2727757156826556,colour,0.28
09,24,1,1,6,11,261,771.2013868098147,772.0395322842523,"[63, 0, 191]",191,l,0.31586757954210043,colour,0.28
09,24,1,1,6,12,262,774.0453631728888,774.8475229451433,"[80, 0, 174]",174,l,0.280405692756176,colour,0.28
09,24,1,1,6,13,263,776.858222163748,777.5915664196946,"[65, 0, 189]",189,l,0.21126249711960554,colour,0.28
09,24,1,1,6,14,264,779.5961117953993,780.407527340576,"[70, 0, 184]",184,l,0.2897646534256637,colour,0.28
09,24,1,1,6,15,265,782.4244288443588,783.2315550139174,"[62, 0, 192]",192,l,0.2849101088941097,colour,0.28
09,24,1,1,6,16,266,785.2371893734671,786.0395641857758,"[95, 0, 159]",159,l,0.2801296068355441,colour,0.28
09,24,1,1,6,17,267,788.0499286348931,788.8715274604037,"[55, 0, 199]",199,l,0.2994426293298602,colour,0.28
09,24,1,1,6,18,268,790.8781850319356,791.6395340957679,"[78, 0, 176]",176,l,0.23899358185008168,colour,0.28
09,24,1,1,6,19,269,793.6596962502226,794.4155058711767,"[61, 0, 193]",193,l,0.23361364658921957,colour,0.28
09,24,1,1,6,20,270,796.4255560315214,797.1595170502551,"[35, 0, 219]",219,a,0.2117221150547266,colour,0.28
09,24,1,1,6,21,271,799.1667646029964,799.879498901777,"[13, 0, 241]",241,a,0.1906269397586584,colour,0.28
09,24,1,1,6,22,272,801.8857141840272,802.663539792411,"[72, 0, 182]",182,l,0.2557044643908739,colour,0.28
09,24,1,1,6,23,273,804.6827622302808,805.2635108842514,"[66, 0, 188]",188,l,0.058564888779073954,colour,0.28
09,24,1,1,6,24,274,807.2767082671635,807.8315205913968,"[19, 0, 235]",235,a,0.03257066337391734,colour,0.28
09,24,1,1,6,25,275,809.8393864822574,810.5595317799598,"[86, 0, 168]",168,l,0.1981013473123312,colour,0.28
09,24,1,1,6,26,276,812.5740001038648,813.135488904547,"[87, 0, 167]",167,l,0.0393022783100605,colour,0.28
09,24,1,1,6,27,277,815.1523222727701,815.9035152322613,"[98, 0, 156]",156,l,0.22894027084112167,colour,0.28
09,24,1,1,6,28,278,817.9181639375165,818.767519841902,"[51, 0, 203]",203,l,0.3278129263781011,colour,0.28
09,24,1,1,6,29,279,820.7798550957814,821.8155036657117,"[21, 0, 233]",233,a,0.5134037584066391,colour,0.28
09,24,1,1,6,30,280,823.827003179118,824.6554939141497,"[92, 0, 162]",162,l,0.30623371433466673,colour,0.28
09,24,1,1,6,31,281,826.6585761522874,827.4635200211778,"[69, 0, 185]",185,l,0.2826580973342061,colour,0.28
09,24,1,1,6,32,282,829.4713559797965,830.1835069931112,"[57, 0, 197]",197,l,0.18993770936504006,colour,0.28
09,24,1,1,6,33,283,832.1903579425998,832.9515285943635,"[88, 0, 166]",166,l,0.23926612315699458,colour,0.28
09,24,1,1,6,34,284,834.9684257660992,835.7515107928775,"[94, 0, 160]",160,l,0.2608539997600019,colour,0.28
09,24,1,1,6,35,285,837.7654828708619,838.4955314239487,"[96, 0, 158]",158,l,0.20784076349809766,colour,0.28
09,24,1,1,6,36,286,840.5157093321905,841.2795270225033,"[24, 0, 230]",230,a,0.24156066961586475,colour,0.28
09,24,1,1,6,37,287,843.297070494853,844.0714881545864,"[46, 0, 208]",208,a,0.2522602817043662,colour,0.28
09,24,1,1,6,38,288,846.0762584162876,846.8795036277734,"[30, 0, 224]",224,a,0.2809700737707317,colour,0.28
09,24,1,1,6,39,289,848.8890366684645,849.6715092645027,"[25, 0, 229]",229,a,0.27176943933591247,colour,0.28
09,24,1,1,6,40,290,851.6902366383001,852.5595242967829,"[56, 0, 198]",198,l,0.3473512283526361,colour,0.28
09,24,1,1,6,41,291,854.56543710595,855.2475014412776,"[54, 0, 200]",200,l,0.15983842872083187,colour,0.28
09,24,1,1,6,42,292,857.2531716409139,858.1835081744939,"[68, 0, 186]",186,l,0.4081622203812003,colour,0.28
09,24,1,1,6,43,293,860.1909093270078,860.9758367650211,"[97, 0, 157]",157,l,0.26278148172423244,colour,0.28
09,24,1,1,6,44,294,862.9902570392005,863.7754664709792,"[74, 0, 180]",180,l,0.26344826305285096,colour,0.28
09,24,1,1,6,45,295,865.7876500943676,866.6874812920578,"[9, 0, 245]",245,a,0.37797786900773644,colour,0.28
09,24,1,1,6,46,296,868.6953727826476,869.5437617953867,"[22, 0, 232]",232,a,0.32612411491572857,colour,0.28
09,24,1,1,6,47,297,871.5549600166269,872.3594950735569,"[23, 0, 231]",231,a,0.2824261225759983,colour,0.28
09,24,1,1,6,48,298,874.3676780103706,875.4234840082936,"[81, 0, 173]",173,l,0.53355527902022,colour,0.28
09,24,1,1,6,49,299,877.4304665024392,878.3354866201989,"[39, 0, 215]",215,a,0.38286392157897353,colour,0.28
09,24,1,1,6,50,300,880.3525492069311,881.207482363563,"[75, 0, 179]",179,l,0.3327111881226301,colour,0.28
09,24,1,1,7,1,301,893.5059289564379,894.4314849879593,"[57, 0, 197]",197,l,0.4027362051419914,colour,0.14
09,24,1,1,7,2,302,896.4445157740265,897.2794368318282,"[4, 0, 250]",250,a,0.311623889952898,colour,0.14
09,24,1,1,7,3,303,899.2896272009239,900.071449557785,"[14, 0, 240]",240,a,0.2598284250125289,colour,0.14
09,24,1,1,7,4,304,902.0774856400676,902.9514714870602,"[52, 0, 202]",202,l,0.3518072017468512,colour,0.14
09,24,1,1,7,5,305,904.9682619264349,905.7354635405354,"[75, 0, 179]",179,l,0.2449083598330617,colour,0.14
09,24,1,1,7,6,306,907.749795593787,908.5354642495513,"[78, 0, 176]",176,l,0.263402970507741,colour,0.14
09,24,1,1,7,7,307,910.5468649072573,911.3514870046638,"[96, 0, 158]",158,l,0.2824068241752684,colour,0.14
09,24,1,1,7,8,308,913.3595939287916,914.1594725456089,"[71, 0, 183]",183,l,0.2775991465896368,colour,0.14
09,24,1,1,7,9,309,916.1723457933404,916.9514332837425,"[99, 0, 155]",155,l,0.2570092757232487,colour,0.14
09,24,1,1,7,10,310,918.9694233778864,919.8714569620788,"[51, 0, 203]",203,l,0.3797411173582077,colour,0.14
09,24,1,1,7,11,311,921.8914903285913,922.6234395820647,"[69, 0, 185]",185,l,0.2097048358991742,colour,0.14
09,24,1,1,7,12,312,924.641759719234,925.4154810588807,"[82, 0, 172]",172,l,0.251526546664536,colour,0.14
09,24,1,1,7,13,313,927.4232417927124,928.1754808067344,"[32, 0, 222]",222,a,0.23028052831068635,colour,0.14
09,24,1,1,7,14,314,930.1889062267728,930.9834352340549,"[70, 0, 184]",184,l,0.27230310067534447,colour,0.14
09,24,1,1,7,15,315,933.0017660050653,933.6874698707834,"[34, 0, 220]",220,a,0.16347992839291692,colour,0.14
09,24,1,1,7,16,316,935.7051574909128,936.4634877261706,"[42, 0, 212]",212,a,0.23617679625749588,colour,0.14
09,24,1,1,7,17,317,938.4709707982838,939.2714602700435,"[65, 0, 189]",189,l,0.27824072167277336,colour,0.14
09,24,1,1,7,18,318,941.2837179368362,942.0554271177389,"[98, 0, 156]",156,l,0.24950296618044376,colour,0.14
09,24,1,1,7,19,319,944.0650920965709,944.7754522925243,"[88, 0, 166]",166,l,0.1881019934080541,colour,0.14
09,24,1,1,7,20,320,946.784151955042,947.5434530200437,"[87, 0, 167]",167,l,0.23709130566567183,colour,0.14
09,24,1,1,7,21,321,949.5499329674058,950.3274379847571,"[58, 0, 196]",196,l,0.2552613876760006,colour,0.14
09,24,1,1,7,22,322,952.3470152779482,953.1274284538813,"[10, 0, 244]",244,a,0.25814394606277347,colour,0.14
09,24,1,1,7,23,323,955.1441550902091,955.9674391821027,"[83, 0, 171]",171,l,0.30098453583195806,colour,0.14
09,24,1,1,7,24,324,957.9880971885286,958.7354659037665,"[90, 0, 164]",164,l,0.2251077564433217,colour,0.14
09,24,1,1,7,25,325,960.7539412160404,961.5274404268712,"[80, 0, 174]",174,l,0.2512618824839592,colour,0.14
09,24,1,1,7,26,326,963.5353898126632,964.183453429956,"[64, 0, 190]",190,l,0.125768787227571,colour,0.14
09,24,1,1,7,27,327,966.1918703112751,966.895425636787,"[59, 0, 195]",195,l,0.1813235110603273,colour,0.14
09,24,1,1,7,28,328,968.9109132341109,969.9354258100502,"[94, 0, 160]",160,l,0.5022583124227822,colour,0.14
09,24,1,1,7,29,329,971.9423468648456,972.727409391664,"[56, 0, 198]",198,l,0.26285709999501705,colour,0.14
09,24,1,1,7,30,330,974.7271108562127,975.5034205517732,"[68, 0, 186]",186,l,0.25409048376604915,colour,0.14
09,24,1,1,7,31,331,977.5086000193842,978.2234295783564,"[85, 0, 169]",169,l,0.19269935693591833,colour,0.14
09,24,1,1,7,32,332,980.2431675605476,981.0554385394789,"[92, 0, 162]",162,l,0.29006279492750764,colour,0.14
09,24,1,1,7,33,333,983.0714999698102,984.1514353319071,"[54, 0, 200]",200,l,0.5575676704756916,colour,0.14
09,24,1,1,7,34,334,986.1657303632237,986.8954035816714,"[72, 0, 182]",182,l,0.20744731137529016,colour,0.14
09,24,1,1,7,35,335,988.915937920101,989.7114342134446,"[20, 0, 234]",234,a,0.27324951253831387,colour,0.14
09,24,1,1,7,36,336,991.7285283077508,992.3194425189868,"[97, 0, 157]",157,l,0.06856384873390198,colour,0.14
09,24,1,1,7,37,337,994.3370490069501,995.0234192595817,"[66, 0, 188]",188,l,0.164147496689111,colour,0.14
09,24,1,1,7,38,338,997.0404416741803,997.7114168843254,"[79, 0, 175]",175,l,0.14908879809081554,colour,0.14
09,24,1,1,7,39,339,999.7281391881406,1000.4953715223819,"[86, 0, 168]",168,l,0.2450280888006091,colour,0.14
09,24,1,1,7,40,340,1002.5095531265251,1003.1594055918977,"[76, 0, 178]",178,l,0.12768406001850963,colour,0.14
09,24,1,1,7,41,341,1005.1660352000035,1005.847413062118,"[63, 0, 191]",191,l,0.15917834267020226,colour,0.14
09,24,1,1,7,42,342,1007.8538937969133,1008.4314042497426,"[62, 0, 192]",192,l,0.05535465059801936,colour,0.14
09,24,1,1,7,43,343,1010.4478181721643,1011.1834101066925,"[61, 0, 193]",193,l,0.21342825517058372,colour,0.14
09,24,1,1,7,44,344,1013.2043296266347,1013.8555373158306,"[84, 0, 170]",170,l,0.13469294179230928,colour,0.14
09,24,1,1,7,45,345,1015.8709280267358,1016.5514217047021,"[50, 0, 204]",204,l,0.16415025386959314,colour,0.14
09,24,1,1,7,46,346,1018.5642142142169,1019.8953783754259,"[81, 0, 173]",173,l,0.8089839406311512,colour,0.14
09,24,1,1,7,47,347,1021.9081610385329,1022.6794007555582,"[55, 0, 199]",199,l,0.24898624094203115,colour,0.14
09,24,1,1,7,48,348,1024.6896320846863,1025.4153794469312,"[89, 0, 165]",165,l,0.20376997208222747,colour,0.14
09,24,1,1,7,49,349,1027.4242492509075,1028.0074082417414,"[60, 0, 194]",194,l,0.0614805300720036,colour,0.14
09,24,1,1,7,50,350,1030.0181625983678,1030.9834013632499,"[95, 0, 159]",159,l,0.4431885131634772,colour,0.14
09,24,1,1,8,1,351,1039.492132927291,1040.4633652400225,"[31, 0, 223]",223,a,0.4481726340018213,colour,0.06
09,24,1,1,8,2,352,1042.4776358529925,1043.3914021071978,"[95, 0, 159]",159,l,0.3915868210606277,colour,0.06
09,24,1,1,8,3,353,1045.3896908466704,1046.1593973208219,"[72, 0, 182]",182,l,0.24770033359527588,colour,0.06
09,24,1,1,8,4,354,1048.1711166002788,1048.823379008565,"[65, 0, 189]",189,l,0.1300046001560986,colour,0.06
09,24,1,1,8,5,355,1050.8461350323632,1051.6473617833108,"[54, 0, 200]",200,l,0.2789709120988846,colour,0.06
09,24,1,1,8,6,356,1053.6589223430492,1054.487359908875,"[51, 0, 203]",203,l,0.3061616406776011,colour,0.06
09,24,1,1,8,7,357,1056.5029085520655,1057.135382172186,"[60, 0, 194]",194,l,0.11045172577723861,colour,0.06
09,24,1,1,8,8,358,1059.143788419664,1059.7673595463857,"[67, 0, 187]",187,l,0.1013483707793057,colour,0.06
09,24,1,1,8,9,359,1061.7846206314862,1062.3593454118818,"[8, 0, 246]",246,a,0.052496510092169046,colour,0.06
09,24,1,1,8,10,360,1064.3784244898707,1064.9193943119608,"[99, 0, 155]",155,l,0.018634819891303778,colour,0.06
09,24,1,1,8,11,361,1066.9257273543626,1067.5353831173852,"[73, 0, 181]",181,l,0.08746648393571377,colour,0.06
09,24,1,1,8,12,362,1069.5509156128392,1071.023366090376,"[92, 0, 162]",162,l,0.9501922754570842,colour,0.06
09,24,1,1,8,13,363,1073.0355552281253,1073.5753561151214,"[77, 0, 177]",177,l,0.01754150353372097,colour,0.06
09,24,1,1,8,14,364,1075.5826418711804,1076.3513456135988,"[62, 0, 192]",192,l,0.24645814346149564,colour,0.06
09,24,1,1,8,15,365,1078.364107009489,1078.999373390805,"[59, 0, 195]",195,l,0.11305347178131342,colour,0.06
09,24,1,1,8,16,366,1081.0049140155315,1081.6553635508753,"[96, 0, 158]",158,l,0.12823347467929125,colour,0.06
09,24,1,1,8,17,367,1083.661402784288,1084.3033574572764,"[80, 0, 174]",174,l,0.11967756599187851,colour,0.06
09,24,1,1,8,18,368,1086.317955356557,1087.0553621333092,"[58, 0, 196]",196,l,0.2152781500481069,colour,0.06
09,24,1,1,8,19,369,1089.0680683902465,1089.7433577883057,"[50, 0, 204]",204,l,0.15305876499041915,colour,0.06
09,24,1,1,8,20,370,1091.755796623882,1092.3753410703503,"[78, 0, 176]",176,l,0.09750404069200158,colour,0.06
09,24,1,1,8,21,371,1094.3816599342972,1095.0873569943942,"[81, 0, 173]",173,l,0.18357552215456963,colour,0.06
09,24,1,1,8,22,372,1097.1006496879272,1097.9993607876822,"[53, 0, 201]",201,l,0.37651709420606494,colour,0.06
09,24,1,1,8,23,373,1100.0070978910662,1100.6713304584846,"[85, 0, 169]",169,l,0.1422835341654718,colour,0.06
09,24,1,1,8,24,374,1102.6791167925112,1103.399348736275,"[93, 0, 161]",161,l,0.19798910152167082,colour,0.06
09,24,1,1,8,25,375,1105.4137536506169,1106.1113327587955,"[70, 0, 184]",184,l,0.18789601232856512,colour,0.06
09,24,1,1,8,26,376,1108.1085785939358,1108.7753172032535,"[55, 0, 199]",199,l,0.14444456715136766,colour,0.06
09,24,1,1,8,27,377,1110.7759520830587,1111.3513400997035,"[79, 0, 175]",175,l,0.05309751909226179,colour,0.06
09,24,1,1,8,28,378,1113.3699095412157,1114.0633386946283,"[75, 0, 179]",179,l,0.1711579542607069,colour,0.06
09,24,1,1,8,29,379,1116.0732710948214,1116.759349508211,"[64, 0, 190]",190,l,0.16403800761327147,colour,0.06
09,24,1,1,8,30,380,1118.776629104279,1119.4713299861178,"[83, 0, 171]",171,l,0.17251435993239284,colour,0.06
09,24,1,1,8,31,381,1121.4799217348918,1122.1033443817869,"[61, 0, 193]",193,l,0.10120028490200639,colour,0.06
09,24,1,1,8,32,382,1124.1207397682592,1124.879363025073,"[89, 0, 165]",165,l,0.2363993190228939,colour,0.06
09,24,1,1,8,33,383,1126.8865826143883,1127.6313235899433,"[63, 0, 191]",191,l,0.22247489634901285,colour,0.06
09,24,1,1,8,34,384,1129.6368417651393,1130.4232996883802,"[91, 0, 163]",163,l,0.26420602248981595,colour,0.06
09,24,1,1,8,35,385,1132.4339339220896,1133.183306131512,"[97, 0, 157]",157,l,0.22721640719100833,colour,0.06
09,24,1,1,8,36,386,1135.19973620167,1135.9433417194523,"[71, 0, 183]",183,l,0.22137921676039696,colour,0.06
09,24,1,1,8,37,387,1137.950035918504,1138.6473094020039,"[87, 0, 167]",167,l,0.17510035214945674,colour,0.06
09,24,1,1,8,38,388,1140.6533316997811,1141.3674602136016,"[88, 0, 166]",166,l,0.1921160714700818,colour,0.06
09,24,1,1,8,39,389,1143.3723092442378,1144.0873219422065,"[74, 0, 180]",180,l,0.19295653840526938,colour,0.06
09,24,1,1,8,40,390,1146.1069027795456,1146.8713470790535,"[32, 0, 222]",222,a,0.2424873891286552,colour,0.06
09,24,1,1,8,41,391,1148.8883100226521,1149.6473322450183,"[56, 0, 198]",198,l,0.2375584072433412,colour,0.06
09,24,1,1,8,42,392,1151.6541690165177,1152.3754411074333,"[84, 0, 170]",170,l,0.19906627014279366,colour,0.06
09,24,1,1,8,43,393,1154.3887271056883,1155.16732662078,"[86, 0, 168]",168,l,0.25639960216358304,colour,0.06
09,24,1,1,8,44,394,1157.1858338345774,1157.9353277427144,"[94, 0, 160]",160,l,0.22721640719100833,colour,0.06
09,24,1,1,8,45,395,1159.9393890816718,1160.6793074137531,"[52, 0, 202]",202,l,0.21789643727242947,colour,0.06
09,24,1,1,8,46,396,1162.6894981772639,1163.391298525501,"[69, 0, 185]",185,l,0.1796985031105578,colour,0.06
09,24,1,1,8,47,397,1165.4084958075546,1166.0873254868202,"[98, 0, 156]",156,l,0.15653366781771183,colour,0.06
09,24,1,1,8,48,398,1168.0962665765546,1168.8473236593418,"[57, 0, 197]",197,l,0.2289367262274027,colour,0.06
09,24,1,1,8,49,399,1170.8620223826729,1171.5993444826454,"[76, 0, 178]",178,l,0.2221137396991253,colour,0.06
09,24,1,1,8,50,400,1173.5932638952509,1174.4393229158595,"[90, 0, 164]",164,l,0.3243813472799957,colour,0.06
09,24,1,1,9,1,401,1182.4369117910974,1183.3513168632053,"[85, 0, 169]",169,l,0.3916006055660546,colour,0.06
09,24,1,1,9,2,402,1185.3487864029594,1186.1672856607474,"[69, 0, 185]",185,l,0.29632139997556806,colour,0.06
09,24,1,1,9,3,403,1188.177205064334,1188.9992914712057,"[77, 0, 177]",177,l,0.2999471463263035,colour,0.06
09,24,1,1,9,4,404,1191.005544562824,1191.751315839123,"[64, 0, 190]",190,l,0.22365879733115435,colour,0.06
09,24,1,1,9,5,405,1193.7713346332312,1194.6072792964987,"[0, 0, 254]",254,a,0.3137286026030779,colour,0.06
09,24,1,1,9,6,406,1196.6153657408431,1197.4073020606302,"[31, 0, 223]",223,a,0.2697690958157182,colour,0.06
09,24,1,1,9,7,407,1199.412448445335,1200.167263605632,"[70, 0, 184]",184,l,0.23316269321367145,colour,0.06
09,24,1,1,9,8,408,1202.1782369408756,1202.9353238041513,"[94, 0, 160]",160,l,0.23487474117428064,colour,0.06
09,24,1,1,9,9,409,1204.9440975096077,1205.6873044553213,"[78, 0, 176]",176,l,0.2210338138975203,colour,0.06
09,24,1,1,9,10,410,1207.6943243648857,1208.431293184869,"[75, 0, 179]",179,l,0.21475315280258656,colour,0.06
09,24,1,1,9,11,411,1210.4445461002178,1211.1752681299113,"[61, 0, 193]",193,l,0.20853550732135773,colour,0.06
09,24,1,1,9,12,412,1213.1947150602937,1213.9192521334626,"[93, 0, 161]",161,l,0.20226311730220914,colour,0.06
09,24,1,1,9,13,413,1215.9293074137531,1216.5512669235468,"[62, 0, 192]",192,l,0.09962175041437149,colour,0.06
09,24,1,1,9,14,414,1218.570310161449,1219.2232952769846,"[98, 0, 156]",156,l,0.13074109191074967,colour,0.06
09,24,1,1,9,15,415,1221.2427788348868,1222.0152627108619,"[68, 0, 186]",186,l,0.25024457834661007,colour,0.06
09,24,1,1,9,16,416,1224.0241490560584,1224.7432609023526,"[54, 0, 200]",200,l,0.19690523762255907,colour,0.06
09,24,1,1,9,17,417,1226.7464794111438,1227.399292416405,"[58, 0, 196]",196,l,0.1307135228998959,colour,0.06
09,24,1,1,9,18,418,1229.4184498693794,1230.071310529951,"[90, 0, 164]",164,l,0.13065759651362896,colour,0.06
09,24,1,1,9,19,419,1232.0808987091295,1232.9672710099258,"[66, 0, 188]",188,l,0.36412867112085223,colour,0.06
09,24,1,1,9,20,420,1234.9873473057523,1235.6632830048911,"[81, 0, 173]",173,l,0.1536585921421647,colour,0.06
09,24,1,1,9,21,421,1237.6750625423156,1238.3592906673439,"[3, 0, 251]",251,a,0.16198449488729239,colour,0.06
09,24,1,1,9,22,422,1240.378351234831,1241.039284161292,"[80, 0, 174]",174,l,0.1386128906160593,colour,0.06
09,24,1,1,9,23,423,1243.0399434594437,1243.7273160503246,"[76, 0, 178]",178,l,0.16541568096727133,colour,0.06
09,24,1,1,9,24,424,1245.7432585391216,1246.287278697826,"[91, 0, 163]",163,l,0.021785193122923374,colour,0.06
09,24,1,1,9,25,425,1248.306011585053,1248.9432668886147,"[89, 0, 165]",165,l,0.11526334099471569,colour,0.06
09,24,1,1,9,26,426,1250.9623979544267,1251.6392784896307,"[60, 0, 194]",194,l,0.15456995135173202,colour,0.06
09,24,1,1,9,27,427,1253.6501218555495,1254.2072842586786,"[53, 0, 201]",201,l,0.03494791779667139,colour,0.06
09,24,1,1,9,28,428,1256.2128260647878,1256.8712675222196,"[63, 0, 191]",191,l,0.13624154450371861,colour,0.06
09,24,1,1,9,29,429,1258.884989507962,1259.543279727921,"[52, 0, 202]",202,l,0.13608873169869184,colour,0.06
09,24,1,1,9,30,430,1261.5570174674504,1262.2152726356871,"[51, 0, 203]",203,l,0.13620649185031652,colour,0.06
09,24,1,1,9,31,431,1264.229040701408,1264.8472385886125,"[56, 0, 198]",198,l,0.09587154956534505,colour,0.06
09,24,1,1,9,32,432,1266.8542860671878,1267.4312423788942,"[50, 0, 204]",204,a,0.05466148164123297,colour,0.06
09,24,1,1,9,33,433,1269.448191931937,1269.9912117216736,"[87, 0, 167]",167,l,0.021412220783531666,colour,0.06
09,24,1,1,9,34,434,1272.0109528549947,1273.2712156916969,"[79, 0, 175]",175,l,0.7380349608138204,colour,0.06
09,24,1,1,9,35,435,1275.2768090916798,1275.89525746461,"[67, 0, 187]",187,l,0.09619647217914462,colour,0.06
09,24,1,1,9,36,436,1277.9023242420517,1278.5512673170306,"[82, 0, 172]",172,l,0.12700428161770105,colour,0.06
09,24,1,1,9,37,437,1280.5584959653206,1281.167240368668,"[57, 0, 197]",197,l,0.08655236754566431,colour,0.06
09,24,1,1,9,38,438,1283.1836822545156,1283.8792161205783,"[88, 0, 166]",166,l,0.1733516762033105,colour,0.06
09,24,1,1,9,39,439,1285.887024115771,1286.6552457911894,"[59, 0, 195]",195,a,0.24602215643972158,colour,0.06
09,24,1,1,9,40,440,1288.6685538450256,1289.4152234839275,"[73, 0, 181]",181,l,0.22446618136018515,colour,0.06
09,24,1,1,9,41,441,1291.4344069310464,1292.1352600799873,"[55, 0, 199]",199,a,0.17900927271693945,colour,0.06
09,24,1,1,9,42,442,1294.1533163399436,1294.8232419504784,"[92, 0, 162]",162,l,0.14774223882704973,colour,0.06
09,24,1,1,9,43,443,1296.840899638366,1297.4632053384557,"[72, 0, 182]",182,l,0.10011169454082847,colour,0.06
09,24,1,1,9,44,444,1299.481901598163,1300.1032262281515,"[65, 0, 189]",189,l,0.09919324610382318,colour,0.06
09,24,1,1,9,45,445,1302.122667644173,1302.807191547472,"[97, 0, 157]",157,l,0.1624705009162426,colour,0.06
09,24,1,1,9,46,446,1304.8260201392695,1305.455238623079,"[83, 0, 171]",171,l,0.10706622572615743,colour,0.06
09,24,1,1,9,47,447,1307.4557431396097,1308.1032463139854,"[95, 0, 159]",159,l,0.1254422888159752,colour,0.06
09,24,1,1,9,48,448,1310.112129115034,1310.6632321989164,"[84, 0, 170]",170,l,0.028753115329891443,colour,0.06
09,24,1,1,9,49,449,1312.6748510473408,1313.3512313985266,"[86, 0, 168]",168,l,0.15415877662599087,colour,0.06
09,24,1,1,9,50,450,1315.3625899148174,1316.0152075723745,"[99, 0, 155]",155,l,0.13046776317059994,colour,0.06
09,24,1,1,10,1,451,1323.5811692811549,1324.3432418401353,"[54, 0, 200]",200,a,0.2390282405540347,colour,0.06
09,24,1,1,10,2,452,1326.3634390467778,1327.1831879778765,"[72, 0, 182]",182,l,0.29751869197934866,colour,0.06
09,24,1,1,10,3,453,1329.1918072956614,1329.9511812226847,"[85, 0, 169]",169,l,0.2372181247919798,colour,0.06
09,24,1,1,10,4,454,1331.957615877036,1332.6391957821324,"[64, 0, 190]",190,a,0.15946191176772118,colour,0.06
09,24,1,1,10,5,455,1334.6455772677436,1335.3831912074238,"[77, 0, 177]",177,l,0.21528011932969093,colour,0.06
09,24,1,1,10,6,456,1337.3958643814549,1338.1751846349798,"[66, 0, 188]",188,a,0.2572058052755892,colour,0.06
09,24,1,1,10,7,457,1340.1929210918024,1340.9031962170266,"[74, 0, 180]",180,l,0.18807560577988625,colour,0.06
09,24,1,1,10,8,458,1342.8994271117263,1343.559195435606,"[57, 0, 197]",197,a,0.1375510818324983,colour,0.06
09,24,1,1,10,9,459,1345.5715618035756,1346.2791859516874,"[69, 0, 185]",185,l,0.18537067202851176,colour,0.06
09,24,1,1,10,10,460,1348.2905830652453,1349.0232270630077,"[63, 0, 191]",191,a,0.21075404155999422,colour,0.06
09,24,1,1,10,11,461,1351.0407272125594,1351.7513579805382,"[70, 0, 184]",184,l,0.18857775954529643,colour,0.06
09,24,1,1,10,12,462,1353.7596728554927,1354.9111688397825,"[86, 0, 168]",168,l,0.6293019787408412,colour,0.06
09,24,1,1,10,13,463,1356.9326507719234,1357.6951916138642,"[52, 0, 202]",202,a,0.2418202143162489,colour,0.06
09,24,1,1,10,14,464,1359.7042209254578,1360.3271867111325,"[68, 0, 186]",186,l,0.10077926376834512,colour,0.06
09,24,1,1,10,15,465,1362.3326379326172,1363.0311874765903,"[84, 0, 170]",170,l,0.17635120637714863,colour,0.06
09,24,1,1,10,16,466,1365.0359990922734,1365.591201718431,"[51, 0, 203]",203,a,0.03300665132701397,colour,0.06
09,24,1,1,10,17,467,1367.5986548583023,1368.3752028304152,"[2, 0, 252]",252,a,0.25471591111272573,colour,0.06
09,24,1,1,10,18,468,1370.3801101506688,1370.9831556035206,"[89, 0, 165]",165,l,0.08015906624495983,colour,0.06
09,24,1,1,10,19,469,1372.9903243868612,1373.8632031329907,"[60, 0, 194]",194,a,0.3509635836817324,colour,0.06
09,24,1,1,10,20,470,1375.881180624012,1376.6551918340847,"[97, 0, 157]",157,l,0.2518195677548647,colour,0.06
09,24,1,1,10,21,471,1378.6626300085336,1379.4552118415013,"[53, 0, 201]",201,a,0.27244449127465487,colour,0.06
09,24,1,1,10,22,472,1381.4731345879845,1382.2551778922789,"[56, 0, 198]",198,a,0.2600485850125551,colour,0.06
09,24,1,1,10,23,473,1384.2702476186678,1385.0871699173003,"[34, 0, 220]",220,a,0.2947019054554403,colour,0.06
09,24,1,1,10,24,474,1387.0986422551796,1387.7111498564482,"[50, 0, 204]",204,a,0.09030808182433248,colour,0.06
09,24,1,1,10,25,475,1389.723783252295,1390.4551610355265,"[78, 0, 176]",176,l,0.20935155637562275,colour,0.06
09,24,1,1,10,26,476,1392.4740546122193,1393.1031703017652,"[21, 0, 233]",233,a,0.10713396733626723,colour,0.06
09,24,1,1,10,27,477,1395.1149490517564,1395.8391741993837,"[83, 0, 171]",171,l,0.2020067237317562,colour,0.06
09,24,1,1,10,28,478,1397.849525257945,1398.4231850788929,"[87, 0, 167]",167,l,0.0515075633302331,colour,0.06
09,24,1,1,10,29,479,1400.4434464825317,1401.1591779487208,"[58, 0, 196]",196,a,0.19353667320683599,colour,0.06
09,24,1,1,10,30,480,1403.1779124117456,1403.8231564857997,"[65, 0, 189]",189,l,0.12295436440035701,colour,0.06
09,24,1,1,10,31,481,1405.8344047251157,1406.5352078559808,"[81, 0, 173]",173,l,0.1785618639551103,colour,0.06
09,24,1,1,10,32,482,1408.5534291374497,1409.2951571913436,"[82, 0, 172]",172,l,0.2202764479443431,colour,0.06
09,24,1,1,10,33,483,1411.3036284237169,1412.0472792335786,"[75, 0, 179]",179,l,0.22143159853294492,colour,0.06
09,24,1,1,10,34,484,1414.0538871800527,1414.6951502598822,"[71, 0, 183]",183,l,0.11905883438885212,colour,0.06
09,24,1,1,10,35,485,1416.7103235679679,1417.3431414095685,"[99, 0, 155]",155,l,0.11059941770508885,colour,0.06
09,24,1,1,10,36,486,1419.3511719275266,1420.0631260178052,"[80, 0, 174]",174,l,0.1897778077982366,colour,0.06
09,24,1,1,10,37,487,1422.0577697134577,1422.8391399346292,"[93, 0, 161]",161,l,0.25924198841676116,colour,0.06
09,24,1,1,10,38,488,1424.854827211704,1425.5671542738564,"[96, 0, 158]",158,l,0.19009249052032828,colour,0.06
09,24,1,1,10,39,489,1427.5737484362908,1428.2071318402886,"[94, 0, 160]",160,l,0.11141467839479446,colour,0.06
09,24,1,1,10,40,490,1430.214597189799,1431.0551309455186,"[55, 0, 199]",199,a,0.3183397501707077,colour,0.06
09,24,1,1,10,41,491,1433.0742123867385,1433.7671456881799,"[62, 0, 192]",192,a,0.17086296388879418,colour,0.06
09,24,1,1,10,42,492,1435.777603872586,1436.407157913316,"[67, 0, 187]",187,a,0.10734743205830455,colour,0.06
09,24,1,1,10,43,493,1438.418399457354,1439.1591673148796,"[91, 0, 163]",163,l,0.21852304600179195,colour,0.06
09,24,1,1,10,44,494,1441.1686263126321,1441.8471606071107,"[98, 0, 156]",156,l,0.15629224013537169,colour,0.06
09,24,1,1,10,45,495,1443.8563565155491,1444.4951450610533,"[61, 0, 193]",193,a,0.11676980182528496,colour,0.06
09,24,1,1,10,46,496,1446.5127814812586,1447.1351580736227,"[79, 0, 175]",175,l,0.10019991593435407,colour,0.06
09,24,1,1,10,47,497,1449.15364559507,1449.7111612781882,"[76, 0, 178]",178,l,0.03535515442490578,colour,0.06
09,24,1,1,10,48,498,1451.7163710719906,1452.3831187398173,"[95, 0, 159]",159,l,0.14457099186256528,colour,0.06
09,24,1,1,10,49,499,1454.3884010012262,1455.0471130302176,"[88, 0, 166]",166,l,0.13648769771680236,colour,0.06
09,24,1,1,10,50,500,1457.0512755881064,1457.679121912457,"[59, 0, 195]",195,a,0.10563026368618011,colour,0.06
09,24,1,1,11,1,501,1465.3204755764455,1466.0791433374397,"[71, 0, 183]",183,l,0.23561792820692062,colour,0.06
09,24,1,1,11,2,502,1468.0872163912281,1468.839141510427,"[88, 0, 166]",166,l,0.22984532918781042,colour,0.06
09,24,1,1,11,3,503,1470.8529761359096,1471.447126972489,"[89, 0, 165]",165,l,0.07212264044210315,colour,0.06
09,24,1,1,11,4,504,1473.4625397389755,1474.0631169592962,"[66, 0, 188]",188,l,0.07834855653345585,colour,0.06
09,24,1,1,11,5,505,1476.0722175571136,1476.7351413746364,"[62, 0, 192]",192,l,0.14081527665257454,colour,0.06
09,24,1,1,11,6,506,1478.7441986491904,1479.8151243920438,"[52, 0, 202]",202,a,0.5487482789903879,colour,0.06
09,24,1,1,11,7,507,1481.8225373597816,1482.4951127655804,"[85, 0, 169]",169,l,0.15042039100080729,colour,0.06
09,24,1,1,11,8,508,1484.510302615352,1485.1511919349432,"[99, 0, 155]",155,l,0.1192864771001041,colour,0.06
09,24,1,1,11,9,509,1487.1667437287979,1488.111114568077,"[65, 0, 189]",189,a,0.422160685993731,colour,0.06
09,24,1,1,11,10,510,1490.1200844086707,1490.687154006213,"[81, 0, 173]",173,l,0.04488110588863492,colour,0.06
09,24,1,1,11,11,511,1492.6983738886192,1493.3191325617954,"[90, 0, 164]",164,l,0.09850480314344168,colour,0.06
09,24,1,1,11,12,512,1495.339317953214,1495.8951062280685,"[80, 0, 174]",174,l,0.033743930980563164,colour,0.06
09,24,1,1,11,13,513,1497.9020379162394,1498.8151015490294,"[63, 0, 191]",191,l,0.3909094058908522,colour,0.06
09,24,1,1,11,14,514,1500.824137555901,1501.5511338035576,"[93, 0, 161]",161,l,0.2051015649922192,colour,0.06
09,24,1,1,11,15,515,1503.5586633495986,1504.1991115622222,"[98, 0, 156]",156,l,0.11823451472446322,colour,0.06
09,24,1,1,11,16,516,1506.2151332143694,1506.7911403570324,"[64, 0, 190]",190,l,0.05378044815734029,colour,0.06
09,24,1,1,11,17,517,1508.8090524696745,1509.439088971354,"[94, 0, 160]",160,l,0.10782871209084988,colour,0.06
09,24,1,1,11,18,518,1511.4507235735655,1512.0551226749085,"[53, 0, 201]",201,a,0.08304398786276579,colour,0.06
09,24,1,1,11,19,519,1514.075187548995,1514.6870756307617,"[70, 0, 184]",184,l,0.08976772520691156,colour,0.06
09,24,1,1,11,20,520,1516.7002923120745,1517.415104935877,"[61, 0, 193]",193,a,0.19260759046301246,colour,0.06
09,24,1,1,11,21,521,1519.4349319273606,1519.9830918004736,"[82, 0, 172]",172,l,0.034930982161313295,colour,0.06
09,24,1,1,11,22,522,1521.9885863452218,1522.607085524127,"[91, 0, 163]",163,l,0.09626381983980536,colour,0.06
09,24,1,1,11,23,523,1524.604557427112,1525.2310682199895,"[87, 0, 167]",167,l,0.1042057229205966,colour,0.06
09,24,1,1,11,24,524,1527.2461351896636,1527.903073336929,"[56, 0, 198]",198,a,0.13476540939882398,colour,0.06
09,24,1,1,11,25,525,1529.9182868171483,1530.4551039277576,"[92, 0, 162]",162,l,0.0145187359303236,colour,0.06
09,24,1,1,11,26,526,1532.4653254109435,1533.0711108502,"[51, 0, 203]",203,a,0.08365956926718354,colour,0.06
09,24,1,1,11,27,527,1535.0905554168858,1536.1111555281095,"[54, 0, 200]",200,a,0.4986093300394714,colour,0.06
09,24,1,1,11,28,528,1538.1220713616349,1538.7510602329858,"[77, 0, 177]",177,l,0.10685354936867952,colour,0.06
09,24,1,1,11,29,529,1540.7628783676773,1541.495107251685,"[76, 0, 178]",178,l,0.2101357034407556,colour,0.06
09,24,1,1,11,30,530,1543.5131316105835,1544.1511261626147,"[58, 0, 196]",196,a,0.11593918036669493,colour,0.06
09,24,1,1,11,31,531,1546.169493561145,1546.7750600217842,"[57, 0, 197]",197,a,0.08329132292419672,colour,0.06
09,24,1,1,11,32,532,1548.7823788607493,1549.6950935460627,"[60, 0, 194]",194,a,0.39047381235286593,colour,0.06
09,24,1,1,11,33,533,1551.7045096145011,1552.4950513257645,"[50, 0, 204]",204,a,0.2683563707396388,colour,0.06
09,24,1,1,11,34,534,1554.5015604174696,1555.2390660494566,"[79, 0, 175]",175,l,0.21526672830805182,colour,0.06
09,24,1,1,11,35,535,1557.245680297725,1557.9190906570293,"[97, 0, 157]",157,l,0.15112104313448071,colour,0.06
09,24,1,1,11,36,536,1559.9210508279502,1560.671085880138,"[3, 0, 251]",251,a,0.2276972932741046,colour,0.06
09,24,1,1,11,37,537,1562.686895643361,1563.3750626211986,"[86, 0, 168]",168,l,0.16592649882659316,colour,0.06
09,24,1,1,11,38,538,1565.3902308093384,1566.167063137982,"[75, 0, 179]",179,l,0.2548769940622151,colour,0.06
09,24,1,1,11,39,539,1568.1872910642996,1568.9350485056639,"[69, 0, 185]",185,l,0.22546261129900813,colour,0.06
09,24,1,1,11,40,540,1570.9532292210497,1571.6470762453973,"[95, 0, 159]",159,l,0.17167152976617217,colour,0.06
09,24,1,1,11,41,541,1573.6565588735975,1574.3590760217048,"[47, 0, 207]",207,a,0.1805035243742168,colour,0.06
09,24,1,1,11,42,542,1576.3754934887402,1576.9750754605047,"[72, 0, 182]",182,l,0.07733007101342082,colour,0.06
09,24,1,1,11,43,543,1578.9851362546906,1579.6550496560521,"[84, 0, 170]",170,l,0.14776153769344091,colour,0.06
09,24,1,1,11,44,544,1581.6754910470918,1582.255086125806,"[67, 0, 187]",187,l,0.05778310401365161,colour,0.06
09,24,1,1,11,45,545,1584.267471792642,1584.879095603712,"[74, 0, 180]",180,l,0.08969959011301398,colour,0.06
09,24,1,1,11,46,546,1586.892988518346,1587.671085880138,"[55, 0, 199]",199,l,0.2571676019579172,colour,0.06
09,24,1,1,11,47,547,1589.6859590774402,1590.3271244834177,"[83, 0, 171]",171,l,0.1191970743238926,colour,0.06
09,24,1,1,11,48,548,1592.3311728257686,1593.159028680995,"[59, 0, 195]",195,a,0.3062010249122977,colour,0.06
09,24,1,1,11,49,549,1595.1751460377127,1595.8070584274828,"[27, 0, 227]",227,a,0.10966127645224333,colour,0.06
09,24,1,1,11,50,550,1597.8160459916107,1598.3990915548056,"[78, 0, 176]",176,l,0.060855102725327015,colour,0.06
09,24,1,1,12,1,551,1606.8627868378535,1607.879038495943,"[65, 0, 189]",189,l,0.4932652348652482,colour,0.06
09,24,1,1,12,2,552,1609.8858500611968,1610.5750402510166,"[85, 0, 169]",169,l,0.16710921842604876,colour,0.06
09,24,1,1,12,3,553,1612.5891198487952,1613.2950264345855,"[87, 0, 167]",167,l,0.1837499961256981,colour,0.06
09,24,1,1,12,4,554,1615.3081170856021,1615.9190567862242,"[60, 0, 194]",194,l,0.0887811416760087,colour,0.06
09,24,1,1,12,5,555,1617.9335696143098,1618.591022124514,"[56, 0, 198]",198,l,0.13516161870211363,colour,0.06
09,24,1,1,12,6,556,1620.6056854021735,1621.3990297210403,"[51, 0, 203]",203,a,0.271168430801481,colour,0.06
09,24,1,1,12,7,557,1623.4184081219137,1624.1750566349365,"[62, 0, 192]",192,l,0.23437849571928382,colour,0.06
09,24,1,1,12,8,558,1626.1843242230825,1626.8710682359524,"[58, 0, 196]",196,a,0.16445902921259403,colour,0.06
09,24,1,1,12,9,559,1628.887613703031,1629.6230299826711,"[92, 0, 162]",162,l,0.21325378166511655,colour,0.06
09,24,1,1,12,10,560,1631.637863795273,1632.1910625332966,"[76, 0, 178]",178,l,0.03095707716420293,colour,0.06
09,24,1,1,12,11,561,1634.1878420547582,1634.8550497344695,"[72, 0, 182]",182,l,0.14495105249807239,colour,0.06
09,24,1,1,12,12,562,1636.8763914573938,1637.5670443908311,"[88, 0, 166]",166,l,0.16849358659237623,colour,0.06
09,24,1,1,12,13,563,1639.5796407652088,1640.2470394601114,"[84, 0, 170]",170,l,0.1452141418121755,colour,0.06
09,24,1,1,12,14,564,1642.2674363465048,1643.0550092472695,"[64, 0, 190]",190,l,0.2653883476741612,colour,0.06
09,24,1,1,12,15,565,1645.064446976874,1645.8310542781837,"[18, 0, 236]",236,a,0.25673200841993093,colour,0.06
09,24,1,1,12,16,566,1647.8368308162317,1648.6949970535934,"[55, 0, 199]",199,l,0.33616403490304947,colour,0.06
09,24,1,1,12,17,567,1650.712117142044,1651.4389909035526,"[63, 0, 191]",191,l,0.2046966915950179,colour,0.06
09,24,1,1,12,18,568,1653.446448769886,1654.175005828496,"[83, 0, 171]",171,l,0.2062165425159037,colour,0.06
09,24,1,1,12,19,569,1656.1812152033672,1656.9429943473078,"[53, 0, 201]",201,l,0.23953196918591857,colour,0.06
09,24,1,1,12,20,570,1658.9626578926109,1659.631007725373,"[75, 0, 179]",179,l,0.1459628427401185,colour,0.06
09,24,1,1,12,21,571,1661.6503817941993,1662.3030274147168,"[93, 0, 161]",161,l,0.13039726438000798,colour,0.06
09,24,1,1,12,22,572,1664.3224388984963,1665.215006002225,"[50, 0, 204]",204,a,0.370429418515414,colour,0.06
09,24,1,1,12,23,573,1667.2288788305596,1667.8229997348972,"[67, 0, 187]",187,l,0.0716811390593648,colour,0.06
09,24,1,1,12,24,574,1669.8384944214486,1670.6629746234976,"[52, 0, 202]",202,a,0.3021625289693475,colour,0.06
09,24,1,1,12,25,575,1672.6824955968186,1673.7510306946933,"[59, 0, 195]",195,a,0.5463655111379921,colour,0.06
09,24,1,1,12,26,576,1675.7609615195543,1676.375020085834,"[71, 0, 183]",183,l,0.09267942840233445,colour,0.06
09,24,1,1,12,27,577,1678.3867484237999,1679.0790102179162,"[73, 0, 181]",181,l,0.17000713665038347,colour,0.06
09,24,1,1,12,28,578,1681.0907779401168,1682.0389954722486,"[32, 0, 222]",222,a,0.42626731749624014,colour,0.06
09,24,1,1,12,29,579,1684.0440831738524,1684.8069997443818,"[61, 0, 193]",193,a,0.24072965467348695,colour,0.06
09,24,1,1,12,30,580,1686.8255711551756,1687.599016802851,"[98, 0, 156]",156,l,0.25118193170055747,colour,0.06
09,24,1,1,12,31,581,1689.6069622505456,1690.3030211129226,"[77, 0, 177]",177,l,0.17395859258249402,colour,0.06
09,24,1,1,12,32,582,1692.3103600381874,1692.9429675657302,"[38, 0, 216]",216,a,0.11040761461481452,colour,0.06
09,24,1,1,12,33,583,1694.9512379365042,1695.6310053626075,"[66, 0, 188]",188,l,0.1575856301933527,colour,0.06
09,24,1,1,12,34,584,1697.638898822479,1698.3510376261547,"[54, 0, 200]",200,a,0.18994676787406206,colour,0.06
09,24,1,1,12,35,585,1700.3586951727048,1701.1110677001998,"[86, 0, 168]",168,l,0.2301533161662519,colour,0.06
09,24,1,1,12,36,586,1703.12450336013,1703.862970369868,"[89, 0, 165]",165,l,0.21631908463314176,colour,0.06
09,24,1,1,12,37,587,1705.8747648736462,1706.6389748346992,"[68, 0, 186]",186,l,0.2420892110094428,colour,0.06
09,24,1,1,12,38,588,1708.6561981104314,1709.374970461242,"[90, 0, 164]",164,l,0.19665475143119693,colour,0.06
09,24,1,1,12,39,589,1711.3908436335623,1712.175008979626,"[82, 0, 172]",172,l,0.26220095297321677,colour,0.06
09,24,1,1,12,40,590,1714.1808115113527,1714.8629924254492,"[94, 0, 160]",160,l,0.16007473645731807,colour,0.06
09,24,1,1,12,41,591,1716.8683845698833,1717.5349471298978,"[97, 0, 157]",157,l,0.14434374263510108,colour,0.06
09,24,1,1,12,42,592,1719.5404243450612,1720.2309736972675,"[91, 0, 163]",163,l,0.16868814639747143,colour,0.06
09,24,1,1,12,43,593,1722.2437918065116,1722.8229792551138,"[70, 0, 184]",184,l,0.056941849645227194,colour,0.06
09,24,1,1,12,44,594,1724.8377721081488,1725.5029916535132,"[78, 0, 176]",176,l,0.14307634625583887,colour,0.06
09,24,1,1,12,45,595,1727.5098213353194,1728.1669607381336,"[74, 0, 180]",180,l,0.13488435093313456,colour,0.06
09,24,1,1,12,46,596,1730.1819225507788,1730.8549670269713,"[81, 0, 173]",173,l,0.15083668613806367,colour,0.06
09,24,1,1,12,47,597,1732.8696208521724,1733.486994813662,"[79, 0, 175]",175,l,0.09516971604898572,colour,0.06
09,24,1,1,12,48,598,1735.4948075353168,1736.3589877998456,"[57, 0, 197]",197,a,0.3419689303264022,colour,0.06
09,24,1,1,12,49,599,1738.3700005197898,1739.0149503909051,"[95, 0, 159]",159,l,0.12272396450862288,colour,0.06
09,24,1,1,12,50,600,1741.0265046488494,1741.6629801373929,"[69, 0, 185]",185,l,0.11424524942412972,colour,0.06
09,24,1,1,13,1,601,1749.2607212732546,1749.926941581536,"[55, 0, 199]",199,a,0.14316850621253252,colour,0.06
09,24,1,1,13,2,602,1751.921351726167,1752.511007993482,"[82, 0, 172]",172,l,0.06747959088534117,colour,0.06
09,24,1,1,13,3,603,1754.530914541334,1755.1349552432075,"[67, 0, 187]",187,l,0.08188096107915044,colour,0.06
09,24,1,1,13,4,604,1757.1404856275767,1757.7269403212704,"[70, 0, 184]",184,l,0.06452298955991864,colour,0.06
09,24,1,1,13,5,605,1759.7344938921742,1760.318952968344,"[77, 0, 177]",177,l,0.062316271010786295,colour,0.06
09,24,1,1,13,6,606,1762.327504151035,1762.974958488252,"[62, 0, 192]",192,l,0.12519298447296023,colour,0.06
09,24,1,1,13,7,607,1764.983970864676,1765.6389578990638,"[96, 0, 158]",158,l,0.1328190229833126,colour,0.06
09,24,1,1,13,8,608,1767.6560464799404,1768.3829261488281,"[53, 0, 201]",201,a,0.20485541131347418,colour,0.06
09,24,1,1,13,9,609,1770.390656950418,1770.9669358469546,"[78, 0, 176]",176,l,0.054389727767556906,colour,0.06
09,24,1,1,13,10,610,1772.9845738429576,1773.5993905626237,"[92, 0, 162]",162,l,0.09257230209186673,colour,0.06
09,24,1,1,13,11,611,1775.6098901010118,1776.1669252919964,"[97, 0, 157]",157,l,0.03491207771003246,colour,0.06
09,24,1,1,13,12,612,1778.1724970303476,1778.7189342211932,"[80, 0, 174]",174,l,0.02430383814498782,colour,0.06
09,24,1,1,13,13,613,1780.735282371752,1781.2789496444166,"[89, 0, 165]",165,l,0.021559125743806362,colour,0.06
09,24,1,1,13,14,614,1783.2979275039397,1784.0949074146338,"[94, 0, 160]",160,l,0.2748414375819266,colour,0.06
09,24,1,1,13,15,615,1786.1106328945607,1786.8549335501157,"[59, 0, 195]",195,a,0.22206647787243128,colour,0.06
09,24,1,1,13,16,616,1788.8608168205246,1789.5429563806392,"[85, 0, 169]",169,l,0.15985221322625875,colour,0.06
09,24,1,1,13,17,617,1791.548558444716,1792.174943601247,"[98, 0, 156]",156,l,0.10417145863175392,colour,0.06
09,24,1,1,13,18,618,1794.189434374217,1795.270952208899,"[60, 0, 194]",194,l,0.5596491461619735,colour,0.06
09,24,1,1,13,19,619,1797.2833847431466,1798.2389541971497,"[56, 0, 198]",198,a,0.4333088886924088,colour,0.06
09,24,1,1,13,20,620,1800.2523339306936,1800.8309577857144,"[65, 0, 189]",189,a,0.05635304981842637,colour,0.06
09,24,1,1,13,21,621,1802.8463567676954,1803.5749331247061,"[74, 0, 180]",180,l,0.2063579335808754,colour,0.06
09,24,1,1,13,22,622,1805.5808991026133,1806.270944725722,"[51, 0, 203]",203,a,0.1678496482782066,colour,0.06
09,24,1,1,13,23,623,1808.2717284793034,1808.8469467484392,"[86, 0, 168]",168,l,0.052980546839535236,colour,0.06
09,24,1,1,13,24,624,1810.865731623955,1811.4869132875465,"[64, 0, 190]",190,a,0.09902664925903082,colour,0.06
09,24,1,1,13,25,625,1813.5065535958856,1814.0389265492558,"[90, 0, 164]",164,l,0.010372720193117857,colour,0.06
09,24,1,1,13,26,626,1816.0536166080274,1816.7589166713879,"[61, 0, 193]",193,l,0.1830973932519555,colour,0.06
09,24,1,1,13,27,627,1818.7725929711014,1819.9509295551106,"[30, 0, 224]",224,a,0.6562587632797658,colour,0.06
09,24,1,1,13,28,628,1821.9603267186321,1822.630884845741,"[45, 0, 209]",209,a,0.14837081730365753,colour,0.06
09,24,1,1,13,29,629,1824.6480707060546,1825.310953170061,"[95, 0, 159]",159,l,0.14067821856588125,colour,0.06
09,24,1,1,13,30,630,1827.3207812011242,1828.0308897290379,"[73, 0, 181]",181,l,0.18791412888094783,colour,0.06
09,24,1,1,13,31,631,1830.0397733179852,1830.7509286883287,"[76, 0, 178]",178,l,0.18912756815552711,colour,0.06
09,24,1,1,13,32,632,1832.7587087210268,1833.9189689583145,"[99, 0, 155]",155,l,0.6380177889950573,colour,0.06
09,24,1,1,13,33,633,1835.9589896118268,1836.5429059681483,"[79, 0, 175]",175,l,0.07155944081023335,colour,0.06
09,24,1,1,13,34,634,1838.5463505447842,1839.2869210857898,"[84, 0, 170]",170,l,0.21837062807753682,colour,0.06
09,24,1,1,13,35,635,1841.296578581445,1841.9189110631123,"[66, 0, 188]",188,l,0.10019952245056629,colour,0.06
09,24,1,1,13,36,636,1843.9374588429928,1844.6469013774768,"[54, 0, 200]",200,a,0.1872642831876874,colour,0.06
09,24,1,1,13,37,637,1846.6564159072004,1847.550889225211,"[71, 0, 183]",183,l,0.37241125106811523,colour,0.06
09,24,1,1,13,38,638,1849.5628869533539,1850.1908904225565,"[52, 0, 202]",202,a,0.1057728361338377,colour,0.06
09,24,1,1,13,39,639,1852.2037069564685,1852.7668818114325,"[75, 0, 179]",179,l,0.04085875768214464,colour,0.06
09,24,1,1,13,40,640,1854.7820425163954,1855.4788886769675,"[57, 0, 197]",197,a,0.17466239538043737,colour,0.06
09,24,1,1,13,41,641,1857.4853532640263,1858.086910767015,"[93, 0, 161]",161,l,0.0792874856851995,colour,0.06
09,24,1,1,13,42,642,1860.09526502667,1860.6229236442596,"[83, 0, 171]",171,l,0.005776144564151764,colour,0.06
09,24,1,1,13,43,643,1862.6327686104923,1863.1669079628773,"[72, 0, 182]",182,l,0.01191068859770894,colour,0.06
09,24,1,1,13,44,644,1865.1797969643958,1865.9109648279846,"[68, 0, 186]",186,l,0.20890257228165865,colour,0.06
09,24,1,1,13,45,645,1867.930088410154,1868.5428587067872,"[87, 0, 167]",167,l,0.09060425404459238,colour,0.06
09,24,1,1,13,46,646,1870.5553278685547,1871.1269010938704,"[81, 0, 173]",173,l,0.04939615540206432,colour,0.06
09,24,1,1,13,47,647,1873.1336354655214,1873.7829050389118,"[88, 0, 166]",166,l,0.12697001732885838,colour,0.06
09,24,1,1,13,48,648,1875.792021784,1876.9349145982414,"[58, 0, 196]",196,a,0.6207496146671474,colour,0.06
09,24,1,1,13,49,649,1878.9361705728807,1879.7349113686942,"[46, 0, 208]",208,a,0.2765613626688719,colour,0.06
09,24,1,1,13,50,650,1881.7488842341118,1882.5508860745467,"[50, 0, 204]",204,a,0.27982240729033947,colour,0.06
09,24,1,1,14,1,651,1893.0145726925693,1893.782851869706,"[57, 0, 197]",197,a,0.24530653841793537,colour,0.06
09,24,1,1,14,2,652,1895.796912169084,1896.4948780336417,"[95, 0, 159]",159,l,0.17589946556836367,colour,0.06
09,24,1,1,14,3,653,1898.5002004671842,1899.1268644663505,"[71, 0, 183]",183,l,0.10449165524914861,colour,0.06
09,24,1,1,14,4,654,1901.1410090485588,1901.7828581710346,"[86, 0, 168]",168,l,0.11990796588361263,colour,0.06
09,24,1,1,14,5,655,1903.7974371653982,1904.4068546518683,"[97, 0, 157]",157,l,0.08717031171545386,colour,0.06
09,24,1,1,14,6,656,1906.420738901943,1907.0628739562817,"[89, 0, 165]",165,l,0.11981738125905395,colour,0.06
09,24,1,1,14,7,657,1909.0772292464972,1909.726859582588,"[52, 0, 202]",202,a,0.12742018327116966,colour,0.06
09,24,1,1,14,8,658,1911.7337444033474,1912.4068719809875,"[60, 0, 194]",194,a,0.15088906791061163,colour,0.06
09,24,1,1,14,9,659,1914.4214324648492,1915.0628483565524,"[82, 0, 172]",172,a,0.11918565258383751,colour,0.06
09,24,1,1,14,10,660,1917.0778755475767,1917.878858902026,"[99, 0, 155]",155,l,0.2787251523695886,colour,0.06
09,24,1,1,14,11,661,1919.890588815324,1920.5828462769277,"[55, 0, 199]",199,a,0.17023438541218638,colour,0.06
09,24,1,1,14,12,662,1922.5939566702582,1923.2228447175585,"[59, 0, 195]",195,l,0.10716035543009639,colour,0.06
09,24,1,1,14,13,663,1925.2347943964414,1925.8068737140857,"[47, 0, 207]",207,a,0.049809693824499846,colour,0.06
09,24,1,1,14,14,664,1927.813056700863,1928.5908913677558,"[72, 0, 182]",182,l,0.25558394752442837,colour,0.06
09,24,1,1,14,15,665,1930.6101587037556,1931.1828413931653,"[75, 0, 179]",179,l,0.050372499506920576,colour,0.06
09,24,1,1,14,16,666,1933.1885234084912,1933.9268706892617,"[84, 0, 170]",170,l,0.21626670332625508,colour,0.06
09,24,1,1,14,17,667,1935.93984436756,1936.5508392066695,"[85, 0, 169]",169,l,0.08897373219951987,colour,0.06
09,24,1,1,14,18,668,1938.5683346302249,1939.1348658399656,"[67, 0, 187]",187,l,0.04429821390658617,colour,0.06
09,24,1,1,14,19,669,1941.1466481345706,1941.8548697470687,"[61, 0, 193]",193,l,0.1860453300178051,colour,0.06
09,24,1,1,14,20,670,1943.8672664412297,1944.4708609152585,"[93, 0, 161]",161,l,0.08129531191661954,colour,0.06
09,24,1,1,14,21,671,1946.4769025119022,1947.0788660701364,"[50, 0, 204]",204,a,0.07974001439288259,colour,0.06
09,24,1,1,14,22,672,1949.0864739916287,1949.6308427038603,"[76, 0, 178]",178,l,0.022184159141033888,colour,0.06
09,24,1,1,14,23,673,1951.6491124285385,1952.2068451205269,"[79, 0, 175]",175,l,0.035492606461048126,colour,0.06
09,24,1,1,14,24,674,1954.2274212068878,1954.8388224951923,"[51, 0, 203]",203,a,0.08947509806603193,colour,0.06
09,24,1,1,14,25,675,1956.8401166726835,1957.3748393105343,"[81, 0, 173]",173,l,0.012697592377662659,colour,0.06
09,24,1,1,14,26,676,1959.3788254251704,1959.9828440714628,"[98, 0, 156]",156,l,0.08168994542211294,colour,0.06
09,24,1,1,14,27,677,1961.9885032433085,1962.5108575443737,"[63, 0, 191]",191,l,0.0009294766932725906,colour,0.06
09,24,1,1,14,28,678,1964.5199132435955,1965.1428766660392,"[94, 0, 160]",160,l,0.10070522036403418,colour,0.06
09,24,1,1,14,29,679,1967.1607533325441,1967.718832608778,"[65, 0, 189]",189,l,0.035857307724654675,colour,0.06
09,24,1,1,14,30,680,1969.7391223693267,1970.8388083167374,"[62, 0, 192]",192,l,0.5775195113383234,colour,0.06
09,24,1,1,14,31,681,1972.8488084585406,1973.4148394837976,"[69, 0, 185]",185,l,0.043897672556340694,colour,0.06
09,24,1,1,14,32,682,1975.4270806089044,1976.1668421905488,"[8, 0, 246]",246,a,0.21746675157919526,colour,0.06
09,24,1,1,14,33,683,1978.1772783198394,1978.862833705265,"[56, 0, 198]",198,l,0.1632778849452734,colour,0.06
09,24,1,1,14,34,684,1980.8806367227808,1981.454829417169,"[42, 0, 212]",212,a,0.05201207986101508,colour,0.06
09,24,1,1,14,35,685,1983.474534316454,1984.18284730101,"[92, 0, 162]",162,l,0.18632771773263812,colour,0.06
09,24,1,1,14,36,686,1986.1935260393657,1986.8548295749351,"[87, 0, 167]",167,l,0.1390492720529437,colour,0.06
09,24,1,1,14,37,687,1988.8656004732475,1989.5268803779036,"[58, 0, 196]",196,l,0.13905596733093262,colour,0.06
09,24,1,1,14,38,688,1991.5377733684145,1992.198799636215,"[78, 0, 176]",176,l,0.13891733344644308,colour,0.06
09,24,1,1,14,39,689,1994.2098159003071,1994.8788254251704,"[73, 0, 181]",181,l,0.14678676845505834,colour,0.06
09,24,1,1,14,40,690,1996.8975224727765,1997.510876448825,"[77, 0, 177]",177,l,0.0911477617919445,colour,0.06
09,24,1,1,14,41,691,1999.5227595679462,2000.1267931801267,"[70, 0, 184]",184,l,0.08193649305030704,colour,0.06
09,24,1,1,14,42,692,2002.1322692139074,2002.8068024278618,"[80, 0, 174]",174,l,0.15236677788197994,colour,0.06
09,24,1,1,14,43,693,2004.8199411276728,2005.5748059125617,"[91, 0, 163]",163,l,0.23261721665039659,colour,0.06
09,24,1,1,14,44,694,2007.583077070769,2008.182838242501,"[74, 0, 180]",180,l,0.07760221883654594,colour,0.06
09,24,1,1,14,45,695,2010.1925654490478,2010.862827797886,"[83, 0, 171]",171,l,0.14802698977291584,colour,0.06
09,24,1,1,14,46,696,2012.880290532019,2013.5348230684176,"[53, 0, 201]",201,a,0.13242242019623518,colour,0.06
09,24,1,1,14,47,697,2015.5523145534098,2016.10280678235,"[66, 0, 188]",188,l,0.028191491030156612,colour,0.06
09,24,1,1,14,48,698,2018.1026279758662,2018.6867952123284,"[88, 0, 166]",166,l,0.05914423568174243,colour,0.06
09,24,1,1,14,49,699,2020.6995420358144,2021.246791337151,"[96, 0, 158]",158,l,0.025027332827448845,colour,0.06
09,24,1,1,14,50,700,2023.2621962265112,2024.2548116152175,"[54, 0, 200]",200,a,0.47030283603817225,colour,0.06
09,24,1,1,15,1,701,2032.0278504202142,2032.6227806778625,"[53, 0, 201]",201,a,0.07197219133377075,colour,0.06
09,24,1,1,15,2,702,2034.6381690260023,2035.6868042708375,"[89, 0, 165]",165,l,0.5264601442031562,colour,0.06
09,24,1,1,15,3,703,2037.7008295180276,2038.862804560922,"[84, 0, 170]",170,l,0.63967115432024,colour,0.06
09,24,1,1,15,4,704,2040.8730280133896,2041.590820869431,"[85, 0, 169]",169,l,0.19564729370176792,colour,0.06
09,24,1,1,15,5,705,2043.607724735979,2044.3027686579153,"[86, 0, 168]",168,l,0.17315238993614912,colour,0.06
09,24,1,1,15,6,706,2046.2985828635283,2046.9907761281356,"[78, 0, 176]",176,l,0.1700217085890472,colour,0.06
09,24,1,1,15,7,707,2049.001985771116,2049.6787851741537,"[77, 0, 177]",177,l,0.15463533019647002,colour,0.06
09,24,1,1,15,8,708,2051.6896387799643,2052.358770397026,"[99, 0, 155]",155,l,0.14702937752008438,colour,0.06
09,24,1,1,15,9,709,2054.377272096928,2055.03079835698,"[93, 0, 161]",161,l,0.13120622420683503,colour,0.06
09,24,1,1,15,10,710,2057.038143189624,2057.6787828109227,"[97, 0, 157]",157,l,0.11844246508553624,colour,0.06
09,24,1,1,15,11,711,2059.6821746123023,2060.318792279344,"[60, 0, 194]",194,l,0.11446225875988603,colour,0.06
09,24,1,1,15,12,712,2062.3385948520154,2063.0387540445663,"[63, 0, 191]",191,l,0.17789350729435682,colour,0.06
09,24,1,1,15,13,713,2065.0576302916743,2065.670779468026,"[67, 0, 187]",187,l,0.09121274622157216,colour,0.06
09,24,1,1,15,14,714,2067.6829745131545,2068.3347784848884,"[61, 0, 193]",193,l,0.12962453858926892,colour,0.06
09,24,1,1,15,15,715,2070.3457242511213,2070.9907611622475,"[95, 0, 159]",159,l,0.12273144768550992,colour,0.06
09,24,1,1,15,16,716,2073.0022925767116,2073.56676042825,"[70, 0, 184]",184,l,0.04241838725283742,colour,0.06
09,24,1,1,15,17,717,2075.580446967855,2076.2147681191564,"[40, 0, 214]",214,a,0.1120054479688406,colour,0.06
09,24,1,1,15,18,718,2078.2092267069966,2078.8228272306733,"[87, 0, 167]",167,l,0.08983546681702137,colour,0.06
09,24,1,1,15,19,719,2080.836164822802,2081.3987871119753,"[71, 0, 183]",183,l,0.04052044404670596,colour,0.06
09,24,1,1,15,20,720,2083.4145263764076,2083.990774946753,"[65, 0, 189]",189,l,0.05401754332706332,colour,0.06
09,24,1,1,15,21,721,2086.008381040767,2087.0947900484316,"[80, 0, 174]",174,l,0.564440282061696,colour,0.06
09,24,1,1,15,22,722,2089.1024389299564,2089.8147612661123,"[76, 0, 178]",178,l,0.19009524770081043,colour,0.06
09,24,1,1,15,23,723,2091.8087306972593,2092.4867541738786,"[46, 0, 208]",208,a,0.15572746517136693,colour,0.06
09,24,1,1,15,24,724,2094.496455386281,2095.1027906346135,"[75, 0, 179]",179,l,0.08432123018428683,colour,0.06
09,24,1,1,15,25,725,2097.12447500322,2097.8547484423034,"[74, 0, 180]",180,l,0.20830550137907267,colour,0.06
09,24,1,1,15,26,726,2099.874809772242,2100.534765567165,"[56, 0, 198]",198,l,0.15026009595021605,colour,0.06
09,24,1,1,15,27,727,2102.5499554164708,2103.310733010061,"[20, 0, 234]",234,a,0.23862730525434017,colour,0.06
09,24,1,1,15,28,728,2105.315789204091,2105.9347621798515,"[73, 0, 181]",181,l,0.09673170885071158,colour,0.06
09,24,1,1,15,29,729,2107.9409924284555,2108.5827123695053,"[82, 0, 172]",172,l,0.11972443386912346,colour,0.06
09,24,1,1,15,30,730,2110.5974252712913,2111.2467578602955,"[50, 0, 204]",204,a,0.12763955537229776,colour,0.06
09,24,1,1,15,31,731,2113.2538904096,2113.87075079605,"[79, 0, 175]",175,l,0.09461675630882382,colour,0.06
09,24,1,1,15,32,732,2115.8791605881415,2116.7987490664236,"[55, 0, 199]",199,a,0.39737911289557815,colour,0.06
09,24,1,1,15,33,733,2118.8168758247048,2119.4867293615825,"[98, 0, 156]",156,l,0.14767292188480496,colour,0.06
09,24,1,1,15,34,734,2121.504616661463,2122.1427356693894,"[91, 0, 163]",163,l,0.11591279320418835,colour,0.06
09,24,1,1,15,35,735,2124.161034144461,2124.7187751075253,"[94, 0, 160]",160,l,0.03554380685091019,colour,0.06
09,24,1,1,15,36,736,2126.739315747749,2127.366730417125,"[62, 0, 192]",192,l,0.10530927963554859,colour,0.06
09,24,1,1,15,37,737,2129.3801881321706,2130.4227254609577,"[96, 0, 158]",158,l,0.5203362344764173,colour,0.06
09,24,1,1,15,38,738,2132.442969535012,2133.0307507016696,"[68, 0, 186]",186,l,0.0655784965492785,colour,0.06
09,24,1,1,15,39,739,2135.036979768891,2135.9027228141204,"[90, 0, 164]",164,l,0.3442189721390605,colour,0.06
09,24,1,1,15,40,740,2137.9122156822123,2138.6947335707955,"[51, 0, 203]",203,a,0.2602876489982009,colour,0.06
09,24,1,1,15,41,741,2140.712140379008,2141.406705778092,"[72, 0, 182]",182,l,0.17268647020682693,colour,0.06
09,24,1,1,15,42,742,2143.415302646812,2144.102741403505,"[57, 0, 197]",197,a,0.16516755754128098,colour,0.06
09,24,1,1,15,43,743,2146.118636631407,2146.7907339078374,"[88, 0, 166]",166,l,0.15035186195746064,colour,0.06
09,24,1,1,15,44,744,2148.806360926479,2149.3987032226287,"[58, 0, 196]",196,a,0.0702144568786025,colour,0.06
09,24,1,1,15,45,745,2151.415967852343,2152.030708953738,"[83, 0, 171]",171,l,0.09254630841314793,colour,0.06
09,24,1,1,15,46,746,2154.0424223253503,2154.702725492418,"[66, 0, 188]",188,l,0.13806702010333538,colour,0.06
09,24,1,1,15,47,747,2156.7144932146184,2157.454730167985,"[52, 0, 202]",202,a,0.21803310187533498,colour,0.06
09,24,1,1,15,48,748,2159.4656144939363,2160.1026870529167,"[92, 0, 162]",162,l,0.11486476892605424,colour,0.06
09,24,1,1,15,49,749,2162.122071361635,2162.6866999017075,"[69, 0, 185]",185,l,0.042504639364778996,colour,0.06
09,24,1,1,15,50,750,2164.700416767504,2165.326712520793,"[81, 0, 173]",173,l,0.10462083667516708,colour,0.06
09,24,1,1,16,1,751,2173.2765054362826,2174.022711124737,"[97, 0, 157]",157,l,0.2231066250242293,colour,0.06
09,24,1,1,16,2,752,2176.0431796913035,2176.7106906324625,"[86, 0, 168]",168,l,0.14526100968942046,colour,0.06
09,24,1,1,16,3,753,2178.7308890204877,2179.4147138469853,"[94, 0, 160]",160,l,0.16156189842149615,colour,0.06
09,24,1,1,16,4,754,2181.434282475617,2182.086723689921,"[55, 0, 199]",199,a,0.13034212589263916,colour,0.06
09,24,1,1,16,5,755,2184.1063545462675,2184.694703244604,"[58, 0, 196]",196,a,0.06621495168656111,colour,0.06
09,24,1,1,16,6,756,2186.7002887674607,2187.3347087744623,"[87, 0, 167]",167,l,0.11233864165842533,colour,0.06
09,24,1,1,16,7,757,2189.341129250359,2189.942710384261,"[70, 0, 184]",184,l,0.07988770632073283,colour,0.06
09,24,1,1,16,8,758,2191.950725542847,2192.7826777896844,"[67, 0, 187]",187,l,0.30975115252658725,colour,0.06
09,24,1,1,16,9,759,2194.794752711896,2195.47071361728,"[92, 0, 162]",162,l,0.1538102230988443,colour,0.06
09,24,1,1,16,10,760,2197.4823600347154,2198.126695900224,"[60, 0, 194]",194,a,0.12210956448689103,colour,0.06
09,24,1,1,16,11,761,2200.129601695575,2200.7586874533445,"[59, 0, 195]",195,a,0.10681258933618665,colour,0.06
09,24,1,1,16,12,762,2202.770417366177,2203.342712117359,"[61, 0, 193]",193,a,0.050001890398561954,colour,0.06
09,24,1,1,16,13,763,2205.3487655292265,2205.9587151012383,"[20, 0, 234]",234,a,0.08776817005127668,colour,0.06
09,24,1,1,16,14,764,2207.9739652089775,2208.5826989784837,"[54, 0, 200]",200,a,0.08679655147716403,colour,0.06
09,24,1,1,16,15,765,2210.5991018735804,2211.4067061720416,"[73, 0, 181]",181,l,0.2857694807462394,colour,0.06
09,24,1,1,16,16,766,2213.4118561008945,2213.998702671379,"[64, 0, 190]",190,l,0.06457143276929855,colour,0.06
09,24,1,1,16,17,767,2215.9932542070746,2216.686685329303,"[83, 0, 171]",171,l,0.17115165246650577,colour,0.06
09,24,1,1,16,18,768,2218.6965314773843,2219.342697938904,"[57, 0, 197]",197,a,0.12394094839692116,colour,0.06
09,24,1,1,16,19,769,2221.353049391415,2221.8947127759457,"[84, 0, 170]",170,l,0.019478044006973505,colour,0.06
09,24,1,1,16,20,770,2223.9001549389213,2224.542667691596,"[51, 0, 203]",203,a,0.12031874759122729,colour,0.06
09,24,1,1,16,21,771,2226.5565999909304,2227.1666866214946,"[32, 0, 222]",222,a,0.0880710375495255,colour,0.06
09,24,1,1,16,22,772,2229.181793369353,2230.2466979958117,"[95, 0, 159]",159,l,0.5426795072853565,colour,0.06
09,24,1,1,16,23,773,2232.2601143568754,2233.022692614235,"[77, 0, 177]",177,l,0.24029996898025274,colour,0.06
09,24,1,1,16,24,774,2235.041651568841,2235.6706837634556,"[62, 0, 192]",192,l,0.10706622572615743,colour,0.06
09,24,1,1,16,25,775,2237.670041400939,2238.2466893307865,"[72, 0, 182]",182,l,0.05439721094444394,colour,0.06
09,24,1,1,16,26,776,2240.265484446194,2240.8386669256724,"[50, 0, 204]",204,a,0.05095617892220616,colour,0.06
09,24,1,1,16,27,777,2242.8438668735325,2243.4866698905826,"[85, 0, 169]",169,l,0.12057002075016499,colour,0.06
09,24,1,1,16,28,778,2245.500320590567,2246.1426521739922,"[99, 0, 155]",155,l,0.12012339988723397,colour,0.06
09,24,1,1,16,29,779,2248.1567624919116,2248.7586866654456,"[75, 0, 179]",179,l,0.07991763902828097,colour,0.06
09,24,1,1,16,30,780,2250.7663115225732,2251.3427101480775,"[93, 0, 161]",161,l,0.05411324789747596,colour,0.06
09,24,1,1,16,31,781,2253.360187454615,2253.9906922392547,"[89, 0, 165]",165,l,0.1081158253364265,colour,0.06
09,24,1,1,16,32,782,2256.001053931657,2256.5826426586136,"[96, 0, 158]",158,l,0.05927026644349098,colour,0.06
09,24,1,1,16,33,783,2258.5950491991825,2259.214658236131,"[80, 0, 174]",174,l,0.0977434990927577,colour,0.06
09,24,1,1,16,34,784,2261.2202280052006,2261.902660192456,"[56, 0, 198]",198,l,0.1601932835765183,colour,0.06
09,24,1,1,16,35,785,2263.907961358782,2264.6466646762565,"[52, 0, 202]",202,a,0.21669048117473722,colour,0.06
09,24,1,1,16,36,786,2266.6582705276087,2267.2866406673566,"[90, 0, 164]",164,l,0.10642268182709813,colour,0.06
09,24,1,1,16,37,787,2269.299066506326,2269.9346278784797,"[65, 0, 189]",189,l,0.11410661553964019,colour,0.06
09,24,1,1,16,38,788,2271.9277418763377,2272.6306237257086,"[63, 0, 191]",191,l,0.18076621927320957,colour,0.06
09,24,1,1,16,39,789,2274.6465992978774,2275.2786188134924,"[53, 0, 201]",201,l,0.10972783667966723,colour,0.06
09,24,1,1,16,40,790,2277.2873759777285,2277.9506365335546,"[74, 0, 180]",180,l,0.1410259841941297,colour,0.06
09,24,1,1,16,41,791,2279.9594610454515,2280.574639315717,"[79, 0, 175]",175,l,0.09292440069839358,colour,0.06
09,24,1,1,16,42,792,2282.584737131372,2283.2466629431583,"[98, 0, 156]",156,l,0.1397030558437109,colour,0.06
09,24,1,1,16,43,793,2285.256808414124,2285.8306631888263,"[91, 0, 163]",163,l,0.051767895463854074,colour,0.06
09,24,1,1,16,44,794,2287.8509301063605,2288.3906471044756,"[66, 0, 188]",188,l,0.017674623522907495,colour,0.06
09,24,1,1,16,45,795,2290.3978131311014,2291.070661471691,"[71, 0, 183]",183,l,0.15064606443047523,colour,0.06
09,24,1,1,16,46,796,2293.085631555412,2293.6786587494425,"[82, 0, 172]",172,l,0.07088714558631182,colour,0.06
09,24,1,1,16,47,797,2295.6951766475104,2296.4386529838666,"[23, 0, 231]",231,a,0.22126263845711946,colour,0.06
09,24,1,1,16,48,798,2298.4453503335826,2299.0866264100187,"[78, 0, 176]",176,l,0.13073124550282955,colour,0.06
09,24,1,1,16,49,799,2301.1058594817296,2301.678652448114,"[69, 0, 185]",185,l,0.0506040807813406,colour,0.06
09,24,1,1,16,50,800,2303.684148961678,2304.310615643859,"[76, 0, 178]",178,l,0.10421911347657442,colour,0.06
