id,age,condition,counterbalance,block,trialinblock,trial,tstart,tend,trialstim,trialintensity,response,RT,trialtype,colourfreq
25,19,0,2,Practice,1,NA,5.5138953030109406e-06,1.9094618405215442,"[95, 0, 159]",159,l,1.3079200112260878,colour,0.5
25,19,0,2,Practice,2,NA,3.923049929086119,4.525386146269739,"[15, 0, 239]",239,a,0.0802327785640955,colour,0.5
25,19,0,2,Practice,3,NA,6.5325387879274786,8.757417502813041,"[33, 0, 221]",221,a,1.7030549077317119,colour,0.5
25,19,0,2,Practice,4,NA,10.767301467712969,11.557438928168267,"[61, 0, 193]",193,a,0.2679024776443839,colour,0.5
25,19,0,2,Practice,5,NA,13.564754228107631,14.421448156703264,"[99, 0, 155]",155,l,0.3349169888533652,colour,0.5
25,19,0,2,Practice,6,NA,16.43958989577368,17.23743256367743,"[7, 0, 247]",247,a,0.27563919266685843,colour,0.5
25,19,0,2,Practice,7,NA,19.252308135852218,20.037450443953276,"[39, 0, 215]",215,a,0.2628517933189869,colour,0.5
25,19,0,2,Practice,8,NA,22.049401707947254,22.95739135146141,"[88, 0, 166]",166,l,0.3857369376346469,colour,0.5
25,19,0,2,Practice,9,NA,24.971508769784123,25.99749119952321,"[72, 0, 182]",182,l,0.5037029422819614,colour,0.5
25,19,0,2,Practice,10,NA,28.002968024928123,28.813421649392694,"[8, 0, 246]",246,a,0.28877750923857093,colour,0.5
25,19,0,2,1,1,1,6.2912654359824955,7.079997259192169,"[45, 0, 209]",209,a,0.2656878801062703,colour,0.5
25,19,0,2,1,2,2,9.089157728478312,9.927997820079327,"[16, 0, 238]",238,a,0.3165487889200449,colour,0.5
25,19,0,2,1,3,3,11.933105611708015,12.856010605581105,"[99, 0, 155]",155,l,0.4006542572751641,colour,0.5
25,19,0,2,1,4,4,14.870810559485108,15.744006644934416,"[76, 0, 178]",178,l,0.3510075765661895,colour,0.5
25,19,0,2,1,5,5,17.761703338008374,18.57599066151306,"[44, 0, 210]",210,a,0.2920054732821882,colour,0.5
25,19,0,2,1,6,6,20.59005687944591,21.728028697427362,"[56, 0, 198]",198,l,0.6164225214160979,colour,0.5
25,19,0,2,1,7,7,23.746551679447293,24.70399895729497,"[80, 0, 174]",174,l,0.4352256855927408,colour,0.5
25,19,0,2,1,8,8,26.715548104140908,27.584016459994018,"[74, 0, 180]",180,l,0.3462959947064519,colour,0.5
25,19,0,2,1,9,9,29.59083315031603,30.42404242232442,"[4, 0, 250]",250,a,0.3117781290784478,colour,0.5
25,19,0,2,1,10,10,32.434703445993364,33.272001235280186,"[39, 0, 215]",215,a,0.314927717205137,colour,0.5
25,19,0,2,1,11,11,35.27867653500289,36.33602290926501,"[58, 0, 196]",196,l,0.5352708990685642,colour,0.5
25,19,0,2,1,12,12,38.341387094929814,39.312007741536945,"[47, 0, 207]",207,a,0.4483061064966023,colour,0.5
25,19,0,2,1,13,13,41.32607671665028,42.200014021247625,"[48, 0, 206]",206,a,0.35174446320161223,colour,0.5
25,19,0,2,1,14,14,44.21693168580532,45.07203211262822,"[52, 0, 202]",202,a,0.33292767172679305,colour,0.5
25,19,0,2,1,15,15,47.092103698290884,48.04803742514923,"[8, 0, 246]",246,a,0.4335329346358776,colour,0.5
25,19,0,2,1,16,16,50.06114226439968,50.87999308435246,"[9, 0, 245]",245,a,0.2966162306256592,colour,0.5
25,19,0,2,1,17,17,52.890181492548436,53.85602517798543,"[61, 0, 193]",193,l,0.44420301681384444,colour,0.5
25,19,0,2,1,18,18,55.874064123257995,56.82401611329988,"[96, 0, 158]",158,l,0.4276602934114635,colour,0.5
25,19,0,2,1,19,19,58.84308614768088,59.816042696125805,"[33, 0, 221]",221,a,0.45068533159792423,colour,0.5
25,19,0,2,1,20,20,61.827730083372444,62.632029072381556,"[15, 0, 239]",239,a,0.28212544647976756,colour,0.5
25,19,0,2,1,21,21,64.64056765846908,65.43999989004806,"[28, 0, 226]",226,a,0.27734690997749567,colour,0.5
25,19,0,2,1,22,22,67.4531854679808,68.32801010785624,"[78, 0, 176]",176,l,0.3527995771728456,colour,0.5
25,19,0,2,1,23,23,70.34398372331634,71.20802130876109,"[20, 0, 234]",234,a,0.3417478580959141,colour,0.5
25,19,0,2,1,24,24,73.21922977874056,74.04000099282712,"[73, 0, 181]",181,l,0.2986851050518453,colour,0.5
25,19,0,2,1,25,25,76.0475478740409,77.05603407882154,"[38, 0, 216]",216,a,0.4861622126773,colour,0.5
25,19,0,2,1,26,26,79.06349707115442,79.85601572552696,"[65, 0, 189]",189,l,0.2703458992764354,colour,0.5
25,19,0,2,1,27,27,81.87610779097304,82.64802159229293,"[14, 0, 240]",240,a,0.24968236312270164,colour,0.5
25,19,0,2,1,28,28,84.65769721288234,85.49604184553027,"[85, 0, 169]",169,l,0.316103741992265,colour,0.5
25,19,0,2,1,29,29,87.50156475137919,88.25628677057102,"[81, 0, 173]",173,l,0.23244135035201907,colour,0.5
25,19,0,2,1,30,30,90.267476729583,91.05603841133416,"[13, 0, 241]",241,a,0.2663597818464041,colour,0.5
25,19,0,2,1,31,31,93.064666794613,94.48806409630924,"[62, 0, 192]",192,l,0.9012915007770061,colour,0.5
25,19,0,2,1,32,32,96.5023134527728,97.31204476300627,"[88, 0, 166]",166,l,0.28770230896770954,colour,0.5
25,19,0,2,1,33,33,99.33071307465434,100.18402386410162,"[83, 0, 171]",171,l,0.3311254312284291,colour,0.5
25,19,0,2,1,34,34,102.19021197594702,102.9760462725535,"[95, 0, 159]",159,l,0.26439763978123665,colour,0.5
25,19,0,2,1,35,35,104.98738943785429,105.72004504036158,"[84, 0, 170]",170,l,0.210682921577245,colour,0.5
25,19,0,2,1,36,36,107.73759010247886,108.53601684421301,"[82, 0, 172]",172,l,0.27614686032757163,colour,0.5
25,19,0,2,1,37,37,110.55035560391843,111.36004989268258,"[77, 0, 177]",177,l,0.2874530041590333,colour,0.5
25,19,0,2,1,38,38,113.3786658225581,114.3280207416974,"[29, 0, 225]",225,a,0.4271333273500204,colour,0.5
25,19,0,2,1,39,39,116.34767485037446,117.328054218553,"[69, 0, 185]",185,l,0.4581435979343951,colour,0.5
25,19,0,2,1,40,40,119.34793242579326,120.1760339057073,"[1, 0, 253]",253,a,0.305851137265563,colour,0.5
25,19,0,2,1,41,41,122.19189291168004,123.02412347588688,"[43, 0, 211]",211,a,0.30996998120099306,colour,0.5
25,19,0,2,1,42,42,125.03587742242962,125.76805056352168,"[41, 0, 213]",213,a,0.21007403498515487,colour,0.5
25,19,0,2,1,43,43,127.78604697342962,128.31204082490876,"[35, 0, 219]",219,a,0.003899865783751011,colour,0.5
25,19,0,2,1,44,44,130.33322660112754,131.3360646571964,"[6, 0, 248]",248,a,0.4806916886009276,colour,0.5
25,19,0,2,1,45,45,133.34904582891613,134.16805615648627,"[75, 0, 179]",179,l,0.2968021263368428,colour,0.5
25,19,0,2,1,46,46,136.1773851918988,137.00805927580222,"[36, 0, 218]",218,a,0.308493057731539,colour,0.5
25,19,0,2,1,47,47,139.0213823057711,139.7040312527679,"[27, 0, 227]",227,a,0.16034228401258588,colour,0.5
25,19,0,2,1,48,48,141.70905633689836,142.57602138118818,"[63, 0, 191]",191,l,0.3446501106955111,colour,0.5
25,19,0,2,1,49,49,144.58423937670887,145.35202882019803,"[11, 0, 243]",243,a,0.24546151282265782,colour,0.5
25,19,0,2,1,50,50,147.36573073081672,148.19206384103745,"[70, 0, 184]",184,l,0.30403235508129,colour,0.5
25,19,0,2,2,1,51,156.19380779238418,156.97602382302284,"[65, 0, 189]",189,l,0.25920753413811326,colour,0.5
25,19,0,2,2,2,52,158.99163273721933,159.76806907448918,"[86, 0, 168]",168,l,0.2541438532061875,colour,0.5
25,19,0,2,2,3,53,161.77305083535612,162.55202275514603,"[39, 0, 215]",215,a,0.25655419239774346,colour,0.5
25,19,0,2,2,4,54,164.57027477072552,165.7120389342308,"[62, 0, 192]",192,l,0.6197981773875654,colour,0.5
25,19,0,2,2,5,55,167.72675184812397,168.5520641086623,"[90, 0, 164]",164,l,0.30359439784660935,colour,0.5
25,19,0,2,2,6,56,170.57070563873276,171.43204734660685,"[73, 0, 181]",181,l,0.33930364809930325,colour,0.5
25,19,0,2,2,7,57,173.44597493112087,174.33606426324695,"[45, 0, 209]",209,a,0.36786222644150257,colour,0.5
25,19,0,2,2,8,58,176.3524222727865,177.2560610966757,"[59, 0, 195]",195,a,0.3814727640710771,colour,0.5
25,19,0,2,2,9,59,179.27455650968477,180.1440402008593,"[12, 0, 242]",242,a,0.34723610524088144,colour,0.5
25,19,0,2,2,10,60,182.1497391560115,182.95203504292294,"[31, 0, 223]",223,a,0.2800203380174935,colour,0.5
25,19,0,2,2,11,61,184.9625499495305,185.99206911865622,"[97, 0, 157]",157,l,0.5073751644231379,colour,0.5
25,19,0,2,2,12,62,188.00962520809844,188.73604386206716,"[15, 0, 239]",239,a,0.2042663786560297,colour,0.5
25,19,0,2,2,13,63,190.74419490387663,191.52004007808864,"[84, 0, 170]",170,l,0.2536019207909703,colour,0.5
25,19,0,2,2,14,64,193.52570910053328,194.32808533264324,"[0, 0, 254]",254,a,0.28002939699217677,colour,0.5
25,19,0,2,2,15,65,196.33837889740244,197.31207430176437,"[27, 0, 227]",227,a,0.4513749568723142,colour,0.5
25,19,0,2,2,16,66,199.32311341771856,200.1840490703471,"[79, 0, 175]",175,l,0.33875974686816335,colour,0.5
25,19,0,2,2,17,67,202.19826494995505,203.22412292426452,"[58, 0, 196]",196,l,0.5037257852964103,colour,0.5
25,19,0,2,2,18,68,205.22973405150697,206.09602168062702,"[66, 0, 188]",188,l,0.3440258647315204,colour,0.5
25,19,0,2,2,19,69,208.10496514104307,208.93606379069388,"[95, 0, 159]",159,l,0.3088435810059309,colour,0.5
25,19,0,2,2,20,70,210.9489315347746,211.72006906522438,"[96, 0, 158]",158,l,0.24893051059916615,colour,0.5
25,19,0,2,2,21,71,213.73040634719655,214.53605268429965,"[1, 0, 253]",253,a,0.28384261578321457,colour,0.5
25,19,0,2,2,22,72,216.54317342396826,217.27202486619353,"[98, 0, 156]",156,l,0.20671216398477554,colour,0.5
25,19,0,2,2,23,73,219.27775060245767,220.05604116804898,"[19, 0, 235]",235,a,0.2561075701378286,colour,0.5
25,19,0,2,2,24,74,222.0747315348126,222.6880623633042,"[25, 0, 229]",229,a,0.09099305188283324,colour,0.5
25,19,0,2,2,25,75,224.7000896395184,225.5440284642391,"[55, 0, 199]",199,a,0.32179797114804387,colour,0.5
25,19,0,2,2,26,76,227.55967873195186,228.56803221069276,"[69, 0, 185]",185,l,0.48629375733435154,colour,0.5
25,19,0,2,2,27,77,230.5753943780437,231.23206995334476,"[75, 0, 179]",179,l,0.13428147835657,colour,0.5
25,19,0,2,2,28,78,233.247534325812,234.0960516128689,"[53, 0, 201]",201,l,0.32619802094995975,colour,0.5
25,19,0,2,2,29,79,236.10723881516606,236.84807105967775,"[7, 0, 247]",247,a,0.21863231388852,colour,0.5
25,19,0,2,2,30,80,238.85743396589532,239.6320416755043,"[38, 0, 216]",216,a,0.2523427945561707,colour,0.5
25,19,0,2,2,31,81,241.63886072905734,242.3920183912851,"[35, 0, 219]",219,a,0.23161506094038486,colour,0.5
25,19,0,2,2,32,82,244.40473883692175,245.08005948690698,"[41, 0, 213]",213,a,0.15316758723929524,colour,0.5
25,19,0,2,2,33,83,247.09243807382882,247.8960462566465,"[49, 0, 205]",205,a,0.28129364317283034,colour,0.5
25,19,0,2,2,34,84,249.90519451675937,250.72808934981003,"[26, 0, 228]",228,a,0.3006590623408556,colour,0.5
25,19,0,2,2,35,85,252.73347283387557,253.5040770964697,"[29, 0, 225]",225,a,0.24871113849803805,colour,0.5
25,19,0,2,2,36,86,255.5150082986802,256.2880752813071,"[72, 0, 182]",182,l,0.2508709905669093,colour,0.5
25,19,0,2,2,37,87,258.29640473565087,259.11205161595717,"[88, 0, 166]",166,l,0.2933788145892322,colour,0.5
25,19,0,2,2,38,88,261.1248717047274,261.8880598428659,"[2, 0, 252]",252,a,0.24099765997380018,colour,0.5
25,19,0,2,2,39,89,263.9062941353768,264.6160739674233,"[77, 0, 177]",177,l,0.1875208243727684,colour,0.5
25,19,0,2,2,40,90,266.62519741570577,268.98409452009946,"[14, 0, 240]",240,a,1.8366050138138235,colour,0.5
25,19,0,2,2,41,91,271.0005537481047,271.8080460424535,"[93, 0, 161]",161,l,0.2852324992418289,colour,0.5
25,19,0,2,2,42,92,273.81327238166705,274.77606966672465,"[54, 0, 200]",200,a,0.4404740803875029,colour,0.5
25,19,0,2,2,43,93,276.78227510815486,277.6160404905677,"[4, 0, 250]",250,a,0.3117095995694399,colour,0.5
25,19,0,2,2,44,94,279.62625961890444,280.44807491917163,"[9, 0, 245]",245,a,0.29957440961152315,colour,0.5
25,19,0,2,2,45,95,282.4546135542914,283.2400622749701,"[17, 0, 237]",237,a,0.26324012549594045,colour,0.5
25,19,0,2,2,46,96,285.2517307572998,286.12004275619984,"[81, 0, 173]",173,l,0.3460336928255856,colour,0.5
25,19,0,2,2,47,97,288.1270130467601,288.9280604412779,"[20, 0, 234]",234,a,0.2788443132303655,colour,0.5
25,19,0,2,2,48,98,290.93974349601194,291.89607815817,"[92, 0, 162]",162,l,0.43407053453847766,colour,0.5
25,19,0,2,2,49,99,293.9086631205864,294.5920812492259,"[22, 0, 232]",232,a,0.16113745979964733,colour,0.5
25,19,0,2,2,50,100,296.61200041603297,297.6720655108802,"[48, 0, 206]",206,a,0.5378281427547336,colour,0.5
25,19,0,2,3,1,101,305.9401066224091,306.56804481334984,"[40, 0, 214]",214,a,0.10487652523443103,colour,0.5
25,19,0,2,3,2,102,308.58176050847396,309.1680801808834,"[80, 0, 174]",174,l,0.06404569884762168,colour,0.5
25,19,0,2,3,3,103,311.1756585701369,311.9120864318684,"[10, 0, 244]",244,a,0.2142732236534357,colour,0.5
25,19,0,2,3,4,104,313.92597148101777,314.7920881807804,"[32, 0, 222]",222,a,0.3439364614896476,colour,0.5
25,19,0,2,3,5,105,316.80111277336255,318.4720845730044,"[7, 0, 247]",247,a,1.1486828597262502,colour,0.5
25,19,0,2,3,6,106,320.4889309518039,321.04808862507343,"[97, 0, 157]",157,l,0.036956561263650656,colour,0.5
25,19,0,2,3,7,107,323.0672445180826,323.90409292886034,"[98, 0, 156]",156,l,0.31465123733505607,colour,0.5
25,19,0,2,3,8,108,325.91127668414265,326.7440669038333,"[95, 0, 159]",159,l,0.31062376592308283,colour,0.5
25,19,0,2,3,9,109,328.7552222041413,329.60806825524196,"[13, 0, 241]",241,a,0.3306413944810629,colour,0.5
25,19,0,2,3,10,110,331.6147939674556,332.48810111777857,"[77, 0, 177]",177,l,0.3510792567394674,colour,0.5
25,19,0,2,3,11,111,334.50565169379115,335.408060929738,"[79, 0, 175]",175,l,0.38023687480017543,colour,0.5
25,19,0,2,3,12,112,337.4276571427472,338.3120459448546,"[53, 0, 201]",201,a,0.36202227463945746,colour,0.5
25,19,0,2,3,13,113,340.3186078169383,341.19208786590025,"[65, 0, 189]",189,a,0.3511911095120013,colour,0.5
25,19,0,2,3,14,114,343.20945254620165,344.1120669762604,"[4, 0, 250]",250,a,0.38040150282904506,colour,0.5
25,19,0,2,3,15,115,346.13158638915047,346.99208487244323,"[38, 0, 216]",216,a,0.3383072172291577,colour,0.5
25,19,0,2,3,16,116,349.00680842017755,350.02410063240677,"[62, 0, 192]",192,l,0.4950544727034867,colour,0.5
25,19,0,2,3,17,117,352.0382633432746,353.09607248660177,"[15, 0, 239]",239,a,0.5355595885775983,colour,0.5
25,19,0,2,3,18,118,355.1166399247013,355.96806143410504,"[31, 0, 223]",223,a,0.32918258802965283,colour,0.5
25,19,0,2,3,19,119,357.97627903567627,358.84007204230875,"[78, 0, 176]",176,l,0.34156787022948265,colour,0.5
25,19,0,2,3,20,120,360.85144829098135,361.68805606197566,"[19, 0, 235]",235,a,0.3143353727646172,colour,0.5
25,19,0,2,3,21,121,363.6955068446696,364.544076513499,"[45, 0, 209]",209,a,0.3270270675420761,colour,0.5
25,19,0,2,3,22,122,366.55515501415357,367.7200840311125,"[44, 0, 210]",210,a,0.6427794988267124,colour,0.5
25,19,0,2,3,23,123,369.7272512447089,370.6320940568112,"[0, 0, 254]",254,a,0.38317496748641133,colour,0.5
25,19,0,2,3,24,124,372.6493421588093,373.44009756390005,"[21, 0, 233]",233,a,0.2686429084278643,colour,0.5
25,19,0,2,3,25,125,375.4463865002617,376.2560851215385,"[70, 0, 184]",184,l,0.2874967213720083,colour,0.5
25,19,0,2,3,26,126,378.27483377745375,379.10408016853034,"[34, 0, 220]",220,a,0.3070393712259829,colour,0.5
25,19,0,2,3,27,127,381.11871313117445,381.92810179525986,"[83, 0, 171]",171,l,0.2870875149965286,colour,0.5
25,19,0,2,3,28,128,383.94706588517874,385.0880817407742,"[66, 0, 188]",188,l,0.6187099805101752,colour,0.5
25,19,0,2,3,29,129,387.1036150357686,388.0720935529098,"[42, 0, 212]",212,a,0.4465117435902357,colour,0.5
25,19,0,2,3,30,130,390.08817902067676,391.0721037928015,"[47, 0, 207]",207,a,0.4617413831874728,colour,0.5
25,19,0,2,3,31,131,393.0891577284783,394.03208232019097,"[59, 0, 195]",195,a,0.4214075906202197,colour,0.5
25,19,0,2,3,32,132,396.0418430115096,396.8961104536429,"[93, 0, 161]",161,l,0.3318906747736037,colour,0.5
25,19,0,2,3,33,133,398.9014104423113,399.808071248699,"[74, 0, 180]",180,l,0.3844636329449713,colour,0.5
25,19,0,2,3,34,134,401.8235155348666,402.73608403420076,"[5, 0, 249]",249,a,0.39036344923079014,colour,0.5
25,19,0,2,3,35,135,404.74564425786957,405.6480775186792,"[8, 0, 246]",246,a,0.38024238869547844,colour,0.5
25,19,0,2,3,36,136,407.6677402914502,408.7120928913355,"[96, 0, 158]",158,l,0.5221321890130639,colour,0.5
25,19,0,2,3,37,137,410.73045675922185,411.5681046782993,"[37, 0, 217]",217,a,0.3159328131005168,colour,0.5
25,19,0,2,3,38,138,413.5744704147801,414.62411276297644,"[57, 0, 197]",197,l,0.5273923990316689,colour,0.5
25,19,0,2,3,39,139,416.63716522092,417.7040757574141,"[85, 0, 169]",169,l,0.5448764152824879,colour,0.5
25,19,0,2,3,40,140,419.7155055687763,420.4801115533337,"[84, 0, 170]",170,l,0.2423473708331585,colour,0.5
25,19,0,2,3,41,141,422.49702843045816,423.44008653610945,"[54, 0, 200]",200,a,0.4208266674540937,colour,0.5
25,19,0,2,3,42,142,425.45046083955094,426.31216173572466,"[91, 0, 163]",163,l,0.3395627993158996,colour,0.5
25,19,0,2,3,43,143,428.32548476569355,429.2321030367166,"[49, 0, 205]",205,a,0.38419306045398116,colour,0.5
25,19,0,2,3,44,144,431.247738732025,432.17611228115857,"[20, 0, 234]",234,a,0.4061826770193875,colour,0.5
25,19,0,2,3,45,145,434.1853924798779,435.0720888269134,"[87, 0, 167]",167,l,0.3643640843220055,colour,0.5
25,19,0,2,3,46,146,437.09190047346056,437.97608683863655,"[89, 0, 165]",165,l,0.36248031770810485,colour,0.5
25,19,0,2,3,47,147,439.9827270861715,440.91209391504526,"[28, 0, 226]",226,a,0.4070652863010764,colour,0.5
25,19,0,2,3,48,148,442.92050804616883,443.8401074889116,"[22, 0, 232]",232,a,0.3975527184084058,colour,0.5
25,19,0,2,3,49,149,445.85821575066075,446.62411079369485,"[12, 0, 242]",242,a,0.243629340082407,colour,0.5
25,19,0,2,3,50,150,448.6396838678047,449.6240820433013,"[50, 0, 204]",204,l,0.4620603988878429,colour,0.5
25,19,0,2,4,1,151,457.7490388182923,458.53608143515885,"[41, 0, 213]",213,a,0.2640498736873269,colour,0.5
25,19,0,2,4,2,152,460.547013818752,461.6560804741457,"[19, 0, 235]",235,a,0.5869840909726918,colour,0.5
25,19,0,2,4,3,153,463.6722340770066,464.4641233654693,"[12, 0, 242]",242,a,0.26973661920055747,colour,0.5
25,19,0,2,4,4,154,466.46935836970806,467.28010225854814,"[97, 0, 157]",157,l,0.28869125712662935,colour,0.5
25,19,0,2,4,5,155,469.2976674064994,470.15207348251715,"[3, 0, 251]",251,a,0.33217148715630174,colour,0.5
25,19,0,2,4,6,156,472.15721829561517,473.0481260404922,"[73, 0, 181]",181,l,0.36872041737660766,colour,0.5
25,19,0,2,4,7,157,475.0636955695227,475.872090165969,"[95, 0, 159]",159,l,0.2861166843213141,colour,0.5
25,19,0,2,4,8,158,477.89204202219844,478.6640987894498,"[54, 0, 200]",200,a,0.24975837534293532,colour,0.5
25,19,0,2,4,9,159,480.6735440096818,481.6081226062961,"[55, 0, 199]",199,a,0.4123637001030147,colour,0.5
25,19,0,2,4,10,160,483.626907102298,484.40011390065774,"[42, 0, 212]",212,a,0.2510643694549799,colour,0.5
25,19,0,2,4,11,161,486.4083425300196,487.20810165349394,"[70, 0, 184]",184,l,0.27751311333850026,colour,0.5
25,19,0,2,4,12,162,489.22110330546275,489.9841201202944,"[44, 0, 210]",210,a,0.24103862000629306,colour,0.5
25,19,0,2,4,13,163,492.00253676390275,492.68010627571493,"[13, 0, 241]",241,a,0.15542275086045265,colour,0.5
25,19,0,2,4,14,164,494.691061896272,495.51208438398317,"[63, 0, 191]",191,l,0.29968311125412583,colour,0.5
25,19,0,2,4,15,165,497.51863601617515,498.34409715095535,"[80, 0, 174]",174,l,0.3032332411967218,colour,0.5
25,19,0,2,4,16,166,500.36259886529297,501.160115822684,"[61, 0, 193]",193,l,0.275239045266062,colour,0.5
25,19,0,2,4,17,167,503.1753257699311,504.02411559876055,"[76, 0, 178]",178,l,0.3264894671738148,colour,0.5
25,19,0,2,4,18,168,506.0349566102959,506.75212184665725,"[21, 0, 233]",233,a,0.19500075234100223,colour,0.5
25,19,0,2,4,19,169,508.76945738261566,509.47211726242676,"[5, 0, 249]",249,a,0.1804587678052485,colour,0.5
25,19,0,2,4,20,170,511.48852253332734,512.1040971037,"[48, 0, 206]",206,a,0.09345774119719863,colour,0.5
25,19,0,2,4,21,171,514.1137211304158,514.8480895701796,"[64, 0, 190]",190,l,0.21212558029219508,colour,0.5
25,19,0,2,4,22,172,516.8638910748996,517.4320867313072,"[20, 0, 234]",234,a,0.045925621408969164,colour,0.5
25,19,0,2,4,23,173,519.4424933302216,520.2481195814908,"[25, 0, 229]",229,a,0.2835913421586156,colour,0.5
25,19,0,2,4,24,174,522.2549862903543,523.0163075970486,"[93, 0, 161]",161,l,0.23921392997726798,colour,0.5
25,19,0,2,4,25,175,525.0364303826354,526.5041046654806,"[89, 0, 165]",165,l,0.9455743893049657,colour,0.5
25,19,0,2,4,26,176,528.5210845582187,529.1121327485889,"[23, 0, 231]",231,a,0.06902824761345983,colour,0.5
25,19,0,2,4,27,177,531.1307085058652,532.0080951154232,"[96, 0, 158]",158,l,0.35518195293843746,colour,0.5
25,19,0,2,4,28,178,534.0214772229083,535.2241225303151,"[53, 0, 201]",201,a,0.6803949647583067,colour,0.5
25,19,0,2,4,29,179,537.2405002322048,538.0801110807806,"[43, 0, 211]",211,a,0.31730891205370426,colour,0.5
25,19,0,2,4,30,180,540.1000920813531,541.0801012343727,"[67, 0, 187]",187,l,0.45775408390909433,colour,0.5
25,19,0,2,4,31,181,543.1004000692628,543.9921309524216,"[2, 0, 252]",252,a,0.36952662048861384,colour,0.5
25,19,0,2,4,32,182,546.0068340199068,546.9121128199622,"[18, 0, 236]",236,a,0.38297213707119226,colour,0.5
25,19,0,2,4,33,183,548.9290178813972,549.8401067010127,"[85, 0, 169]",169,l,0.38885383680462837,colour,0.5
25,19,0,2,4,34,184,551.8511414849199,552.7442177468911,"[9, 0, 245]",245,a,0.370951556134969,colour,0.5
25,19,0,2,4,35,185,554.7575541678816,555.6081316643395,"[16, 0, 238]",238,a,0.32829722156748176,colour,0.5
25,19,0,2,4,36,186,557.6171747678891,558.5041133300401,"[88, 0, 166]",166,l,0.364731936249882,colour,0.5
25,19,0,2,4,37,187,560.5236087185331,561.2482042582706,"[27, 0, 227]",227,a,0.20230778120458126,colour,0.5
25,19,0,2,4,38,188,563.258247337304,563.9601329155266,"[62, 0, 192]",192,l,0.1796053033322096,colour,0.5
25,19,0,2,4,39,189,565.9771785801277,566.720111600589,"[28, 0, 226]",226,a,0.22072088066488504,colour,0.5
25,19,0,2,4,40,190,568.7273623095825,569.5281233778223,"[94, 0, 160]",160,l,0.2790967687033117,colour,0.5
25,19,0,2,4,41,191,571.5401293863542,572.4081566343084,"[79, 0, 175]",175,l,0.3457249170169234,colour,0.5
25,19,0,2,4,42,192,574.4153246358037,575.2961251046509,"[8, 0, 246]",246,a,0.3584890798665583,colour,0.5
25,19,0,2,4,43,193,577.3062623129226,578.4640898886137,"[51, 0, 203]",203,a,0.6356678176671267,colour,0.5
25,19,0,2,4,44,194,580.4784314050339,581.3361233402975,"[99, 0, 155]",155,l,0.3354380475357175,colour,0.5
25,19,0,2,4,45,195,583.3536329558119,584.1361325560138,"[86, 0, 168]",168,l,0.260398524813354,colour,0.5
25,19,0,2,4,46,196,586.1508399560116,586.992144736927,"[24, 0, 230]",230,a,0.3191623520106077,colour,0.5
25,19,0,2,4,47,197,589.0103498850949,589.7761460728943,"[6, 0, 248]",248,a,0.24362618941813707,colour,0.5
25,19,0,2,4,48,198,591.7918668393977,592.6481519555673,"[26, 0, 228]",228,a,0.33401980716735125,colour,0.5
25,19,0,2,4,49,199,594.6670687836595,595.520135782659,"[66, 0, 188]",188,l,0.3308280776254833,colour,0.5
25,19,0,2,4,50,200,597.5266492115334,598.3201186107472,"[10, 0, 244]",244,a,0.2712474134750664,colour,0.5
25,19,0,2,5,1,201,607.2141200178303,608.0401345067658,"[71, 0, 183]",183,l,0.3029008354060352,colour,0.5
25,19,0,2,5,2,202,610.0588705595583,610.8321454934776,"[97, 0, 157]",157,l,0.25096748350188136,colour,0.5
25,19,0,2,5,3,203,612.8404387133196,613.5681208260357,"[6, 0, 248]",248,a,0.20547863747924566,colour,0.5
25,19,0,2,5,4,204,615.575050550513,616.2801373107359,"[21, 0, 233]",233,a,0.1829762328416109,colour,0.5
25,19,0,2,5,5,205,618.2939585563727,619.1041459408589,"[87, 0, 167]",167,l,0.28795870300382376,colour,0.5
25,19,0,2,5,6,206,621.1223369105719,622.1441418132745,"[96, 0, 158]",158,l,0.4995872490108013,colour,0.5
25,19,0,2,5,7,207,624.1538989595138,624.8641368350945,"[23, 0, 231]",231,a,0.18828409863635898,colour,0.5
25,19,0,2,5,8,208,626.8728183875792,628.1761760842055,"[24, 0, 230]",230,a,0.7811491014435887,colour,0.5
25,19,0,2,5,9,209,630.1854740059935,631.0801457390189,"[56, 0, 198]",198,l,0.372417451813817,colour,0.5
25,19,0,2,5,10,210,633.0920548615977,633.6641495954245,"[15, 0, 239]",239,a,0.0499530928209424,colour,0.5
25,19,0,2,5,11,211,635.6703633074649,636.2241024444811,"[40, 0, 214]",214,a,0.031666025053709745,colour,0.5
25,19,0,2,5,12,212,638.2329876152799,638.9681335077621,"[22, 0, 232]",232,a,0.21287664491683245,colour,0.5
25,19,0,2,5,13,213,640.9832761078142,641.6082116151229,"[45, 0, 209]",209,a,0.10277850599959493,colour,0.5
25,19,0,2,5,14,214,643.6242179200053,644.4001524974592,"[93, 0, 161]",161,l,0.2538138101808727,colour,0.5
25,19,0,2,5,15,215,646.4055678830482,647.1761221271008,"[1, 0, 253]",253,a,0.24829956889152527,colour,0.5
25,19,0,2,5,16,216,649.1870293049142,649.9201445258223,"[35, 0, 219]",219,a,0.21098066912963986,colour,0.5
25,19,0,2,5,17,217,651.9373508803546,652.7681521759368,"[9, 0, 245]",245,a,0.30886327289044857,colour,0.5
25,19,0,2,5,18,218,654.7812491385266,655.5361322411336,"[0, 0, 254]",254,a,0.23270837822929025,colour,0.5
25,19,0,2,5,19,219,657.5470784092322,658.5681405183859,"[52, 0, 202]",202,a,0.49956755712628365,colour,0.5
25,19,0,2,5,20,220,660.5785597204231,661.8321454934776,"[49, 0, 205]",205,a,0.7312196395359933,colour,0.5
25,19,0,2,5,21,221,663.8444965109229,664.5681208260357,"[34, 0, 220]",220,a,0.20138421189039946,colour,0.5
25,19,0,2,5,22,222,666.5791217386723,667.3361556357704,"[66, 0, 188]",188,l,0.23487453255802393,colour,0.5
25,19,0,2,5,23,223,669.3448982341215,670.0881471191533,"[85, 0, 169]",169,l,0.2209768802858889,colour,0.5
25,19,0,2,5,24,224,672.0951776681468,673.1521707624197,"[62, 0, 192]",192,l,0.5348191577941179,colour,0.5
25,19,0,2,5,25,225,675.1579354899004,676.0401372634806,"[89, 0, 165]",165,l,0.360085338819772,colour,0.5
25,19,0,2,5,26,226,678.048679000698,678.8481691270135,"[47, 0, 207]",207,a,0.2772933468222618,colour,0.5
25,19,0,2,5,27,227,680.8614126006141,681.6241549048573,"[31, 0, 223]",223,a,0.24073457065969706,colour,0.5
25,19,0,2,5,28,228,683.6428582682274,684.4161588023417,"[50, 0, 204]",204,a,0.25098914513364434,colour,0.5
25,19,0,2,5,29,229,686.4244157881476,687.3201465741731,"[64, 0, 190]",190,a,0.37347768619656563,colour,0.5
25,19,0,2,5,30,230,689.3308509206399,689.9521228708327,"[28, 0, 226]",226,a,0.09894795808941126,colour,0.5
25,19,0,2,5,31,231,691.9717088439502,692.7681643851101,"[82, 0, 172]",172,l,0.27425561053678393,colour,0.5
25,19,0,2,5,32,232,694.7844448070973,695.7201202651486,"[55, 0, 199]",199,a,0.4134522909298539,colour,0.5
25,19,0,2,5,33,233,697.737784662284,698.4641655068845,"[41, 0, 213]",213,a,0.2047468707896769,colour,0.5
25,19,0,2,5,34,234,700.4723697178997,701.3681422509253,"[81, 0, 173]",173,l,0.3735706331208348,colour,0.5
25,19,0,2,5,35,235,703.3787926407531,703.9443148691207,"[25, 0, 229]",229,a,0.043761436361819506,colour,0.5
25,19,0,2,5,36,236,705.9572420842014,706.9041650029831,"[13, 0, 241]",241,a,0.42468557320535183,colour,0.5
25,19,0,2,5,37,237,708.9105709115975,709.92816953687,"[58, 0, 196]",196,a,0.4954735254868865,colour,0.5
25,19,0,2,5,38,238,711.9420321364887,712.6641570786014,"[54, 0, 200]",200,a,0.19990571308881044,colour,0.5
25,19,0,2,5,39,239,714.6766124656424,715.2481605415232,"[42, 0, 212]",212,a,0.04929537000134587,colour,0.5
25,19,0,2,5,40,240,717.2549579334445,718.0161677817814,"[75, 0, 179]",179,l,0.23917493922635913,colour,0.5
25,19,0,2,5,41,241,720.0364378658123,720.9041488552466,"[98, 0, 156]",156,l,0.34558667754754424,colour,0.5
25,19,0,2,5,42,242,722.9117146413773,723.6401423048228,"[4, 0, 250]",250,a,0.2062537269666791,colour,0.5
25,19,0,2,5,43,243,725.6462894566357,726.6561844493262,"[51, 0, 203]",203,a,0.4877466559410095,colour,0.5
25,19,0,2,5,44,244,728.6621067151427,729.5441399225965,"[39, 0, 215]",215,a,0.35975726461037993,colour,0.5
25,19,0,2,5,45,245,731.5530128846876,732.5681657241657,"[80, 0, 174]",174,l,0.4930643676780164,colour,0.5
25,19,0,2,5,46,246,734.5844496907666,735.3121164431795,"[84, 0, 170]",170,l,0.20543492026627064,colour,0.5
25,19,0,2,5,47,247,737.319115484599,738.0801366805099,"[3, 0, 251]",251,a,0.23886458855122328,colour,0.5
25,19,0,2,5,48,248,740.1004894725047,740.7921712822281,"[11, 0, 243]",243,a,0.1694220146164298,colour,0.5
25,19,0,2,5,49,249,742.8038677275181,743.6881761848927,"[61, 0, 193]",193,l,0.36229954194277525,colour,0.5
25,19,0,2,5,50,250,745.6947018229403,746.5361759578809,"[86, 0, 168]",168,l,0.31926278257742524,colour,0.5
25,19,0,2,6,1,251,767.6643961435184,768.3601377201267,"[23, 0, 231]",231,a,0.17272008303552866,colour,0.5
25,19,0,2,6,2,252,770.3686093529686,770.9201854858547,"[89, 0, 165]",165,l,0.029362024273723364,colour,0.5
25,19,0,2,6,3,253,772.9312679250725,773.6481421091594,"[99, 0, 155]",155,l,0.1946045425720513,colour,0.5
25,19,0,2,6,4,254,775.6659203283489,776.2961751231924,"[39, 0, 215]",215,a,0.10810448927804828,colour,0.5
25,19,0,2,6,5,255,778.3066561589949,779.0721372696571,"[17, 0, 237]",237,a,0.24316263245418668,colour,0.5
25,19,0,2,6,6,256,781.0881845345721,781.8801561365835,"[45, 0, 209]",209,a,0.2699646563269198,colour,0.5
25,19,0,2,6,7,257,783.8852505376562,784.5201349947602,"[76, 0, 178]",178,l,0.11276250798255205,colour,0.5
25,19,0,2,6,8,258,786.5260434760712,787.3042076169513,"[19, 0, 235]",235,a,0.2558858348056674,colour,0.5
25,19,0,2,6,9,259,789.3231279901229,789.8721921718679,"[81, 0, 173]",173,l,0.02675594389438629,colour,0.5
25,19,0,2,6,10,260,791.8858929006383,792.8641474689357,"[50, 0, 204]",204,a,0.4559782315045595,colour,0.5
25,19,0,2,6,11,261,794.8704659440555,795.6241423017345,"[22, 0, 232]",232,a,0.2315083290450275,colour,0.5
25,19,0,2,6,12,262,797.6363164824434,798.3681899067014,"[62, 0, 192]",192,l,0.20967585686594248,colour,0.5
25,19,0,2,6,13,263,800.3865494425409,801.0721573559567,"[0, 0, 254]",254,a,0.16343988431617618,colour,0.5
25,19,0,2,6,14,264,803.0898894947022,803.8241752269678,"[64, 0, 190]",190,l,0.2120507494546473,colour,0.5
25,19,0,2,6,15,265,805.8401236361824,806.4401806653477,"[85, 0, 169]",169,l,0.0777976275421679,colour,0.5
25,19,0,2,6,16,266,808.449786181096,809.0961500746198,"[14, 0, 240]",240,a,0.12422225205227733,colour,0.5
25,19,0,2,6,17,267,811.1061671595089,811.8881370364688,"[47, 0, 207]",207,a,0.25966754648834467,colour,0.5
25,19,0,2,6,18,268,813.9033320182934,814.6801570816897,"[8, 0, 246]",246,a,0.2547350162640214,colour,0.5
25,19,0,2,6,19,269,816.7003712398,817.3921562372707,"[80, 0, 174]",174,l,0.16957522090524435,colour,0.5
25,19,0,2,6,20,270,819.4037045966834,820.1441426007077,"[96, 0, 158]",158,l,0.21835977211594582,colour,0.5
25,19,0,2,6,21,271,822.1539115626365,822.8161773914471,"[38, 0, 216]",216,a,0.14013521512970328,colour,0.5
25,19,0,2,6,22,272,824.8258983045816,825.3601483539678,"[84, 0, 170]",170,l,0.011843349784612656,colour,0.5
25,19,0,2,6,23,273,827.3731653657742,828.07215814339,"[65, 0, 189]",189,l,0.1767959976568818,colour,0.5
25,19,0,2,6,24,274,830.0921218153089,830.8081559254788,"[87, 0, 167]",167,l,0.19389601377770305,colour,0.5
25,19,0,2,6,25,275,832.8266344028525,833.5121820578352,"[92, 0, 162]",162,l,0.16329770581796765,colour,0.5
25,19,0,2,6,26,276,835.5299661844037,836.2721607428975,"[29, 0, 225]",225,a,0.21997414762154222,colour,0.5
25,19,0,2,6,27,277,838.280277913902,839.0241660112515,"[77, 0, 177]",177,l,0.22171652363613248,colour,0.5
25,19,0,2,6,28,278,841.0304364371113,841.8881878429092,"[53, 0, 201]",201,a,0.3354896414093673,colour,0.5
25,19,0,2,6,29,279,843.9056364125572,844.8561949254945,"[61, 0, 193]",193,a,0.4282817826606333,colour,0.5
25,19,0,2,6,30,280,846.8746005417779,847.5841956599616,"[78, 0, 176]",176,l,0.18732232647016644,colour,0.5
25,19,0,2,6,31,281,849.5935755018145,850.2641873261891,"[5, 0, 249]",249,a,0.1483252476900816,colour,0.5
25,19,0,2,6,32,282,852.2813302711584,853.0001898342744,"[55, 0, 199]",199,a,0.19658677140250802,colour,0.5
25,19,0,2,6,33,283,855.0159570742399,855.6881848494522,"[13, 0, 241]",241,a,0.15004162956029177,colour,0.5
25,19,0,2,6,34,284,857.7036586739123,858.3121932432987,"[30, 0, 224]",224,a,0.08642916195094585,colour,0.5
25,19,0,2,6,35,285,860.3288990189321,860.9521602862515,"[43, 0, 211]",211,a,0.10181358316913247,colour,0.5
25,19,0,2,6,36,286,862.9696706896648,863.8001714809798,"[7, 0, 247]",247,a,0.3083441839553416,colour,0.5
25,19,0,2,6,37,287,865.8136441726238,866.5442068767734,"[10, 0, 244]",244,a,0.20834701973944902,colour,0.5
25,19,0,2,6,38,288,868.5638574403711,869.6881710649468,"[36, 0, 218]",218,a,0.6020711585879326,colour,0.5
25,19,0,2,6,39,289,871.7044983543456,872.3361835987307,"[26, 0, 228]",228,a,0.10941717866808176,colour,0.5
25,19,0,2,6,40,290,874.3455980988219,874.9921640357934,"[18, 0, 236]",236,a,0.1244282340630889,colour,0.5
25,19,0,2,6,41,291,877.0020527266897,877.7441696976312,"[16, 0, 238]",238,a,0.21990010514855385,colour,0.5
25,19,0,2,6,42,292,879.7522880500183,880.5522011672147,"[51, 0, 203]",203,l,0.2777525712735951,colour,0.5
25,19,0,2,6,43,293,882.5650035329163,883.2962082060985,"[12, 0, 242]",242,a,0.20896732714027166,colour,0.5
25,19,0,2,6,44,294,885.3152175885625,886.1681522550061,"[58, 0, 196]",196,l,0.33070874214172363,colour,0.5
25,19,0,2,6,45,295,888.1748267668299,889.0241837343201,"[82, 0, 172]",172,l,0.327113320119679,colour,0.5
25,19,0,2,6,46,296,891.0343784438446,891.7922110608779,"[70, 0, 184]",184,l,0.23562165861949325,colour,0.5
25,19,0,2,6,47,297,893.800213622395,894.5922009781934,"[15, 0, 239]",239,a,0.26987604051828384,colour,0.5
25,19,0,2,6,48,298,896.5973205855116,897.352210777346,"[98, 0, 156]",156,l,0.23263394134119153,colour,0.5
25,19,0,2,6,49,299,899.3632262623869,900.3281759172678,"[49, 0, 205]",205,a,0.4427950168028474,colour,0.5
25,19,0,2,6,50,300,902.3478560196236,903.4162324513309,"[52, 0, 202]",202,l,0.5468795169144869,colour,0.5
25,19,0,2,7,1,301,910.8164136991836,911.5441974243149,"[14, 0, 240]",240,a,0.2047705017030239,colour,0.5
25,19,0,2,7,2,302,913.5518022011966,914.5361594166607,"[15, 0, 239]",239,a,0.46210254030302167,colour,0.5
25,19,0,2,7,3,303,916.5520255118608,917.2882013125345,"[18, 0, 236]",236,a,0.21391009772196412,colour,0.5
25,19,0,2,7,4,304,919.3022698936984,920.0241612847894,"[59, 0, 195]",195,l,0.1996485316194594,colour,0.5
25,19,0,2,7,5,305,922.0368797611445,922.8081582887098,"[9, 0, 245]",245,a,0.24915067059919238,colour,0.5
25,19,0,2,7,6,306,924.8183864750899,925.5682007768191,"[87, 0, 167]",167,l,0.22755805123597383,colour,0.5
25,19,0,2,7,7,307,927.5841684844345,928.3121999385767,"[90, 0, 164]",164,l,0.20576575119048357,colour,0.5
25,19,0,2,7,8,308,930.3188445181586,930.9761762414128,"[2, 0, 252]",252,a,0.13548152800649405,colour,0.5
25,19,0,2,7,9,309,932.9909029398113,933.736178163439,"[37, 0, 217]",217,a,0.22305284393951297,colour,0.5
25,19,0,2,7,10,310,935.7411185707897,936.3362107742578,"[91, 0, 163]",163,l,0.07284225430339575,colour,0.5
25,19,0,2,7,11,311,938.3506633555517,939.1441658376716,"[71, 0, 183]",183,l,0.27129113022238016,colour,0.5
25,19,0,2,7,12,312,941.1633764752187,941.8161947210319,"[65, 0, 189]",189,l,0.1306096506305039,colour,0.5
25,19,0,2,7,13,313,943.8355250880122,944.5602072733454,"[39, 0, 215]",215,a,0.20246295677497983,colour,0.5
25,19,0,2,7,14,314,946.5700203464366,947.2561851581559,"[44, 0, 210]",210,a,0.16401293082162738,colour,0.5
25,19,0,2,7,15,315,949.2734104171395,950.0481807850301,"[72, 0, 182]",182,l,0.25254680681973696,colour,0.5
25,19,0,2,7,16,316,952.054871445056,952.7841947143897,"[21, 0, 233]",233,a,0.20732026221230626,colour,0.5
25,19,0,2,7,17,317,954.7897652755491,955.7522159758955,"[60, 0, 194]",194,l,0.4411786715500057,colour,0.5
25,19,0,2,7,18,318,957.7585580819286,958.4961777226999,"[79, 0, 175]",175,l,0.2155484980903566,colour,0.5
25,19,0,2,7,19,319,960.5087689864449,961.2322034672834,"[22, 0, 232]",232,a,0.20122470427304506,colour,0.5
25,19,0,2,7,20,320,963.2432630634867,963.9361941539682,"[33, 0, 221]",221,a,0.17064451379701495,colour,0.5
25,19,0,2,7,21,321,965.9466405310668,966.8162081115879,"[57, 0, 197]",197,l,0.347367649897933,colour,0.5
25,19,0,2,7,22,322,968.8218322359025,969.4721806715243,"[10, 0, 244]",244,a,0.12826784048229456,colour,0.5
25,19,0,2,7,23,323,971.4782986789942,972.1682270858437,"[64, 0, 190]",190,l,0.16772808227688074,colour,0.5
25,19,0,2,7,24,324,974.1816603927873,974.8642014255747,"[61, 0, 193]",193,l,0.160265089944005,colour,0.5
25,19,0,2,7,25,325,976.8693895619363,977.6802256111987,"[67, 0, 187]",187,l,0.2885868875309825,colour,0.5
25,19,0,2,7,26,326,979.6977186854929,980.4001824297011,"[38, 0, 216]",216,a,0.18023230601102114,colour,0.5
25,19,0,2,7,27,327,982.4166920697317,983.0881967437454,"[68, 0, 186]",186,l,0.1493177399970591,colour,0.5
25,19,0,2,7,28,328,985.1044271467254,985.7522037667222,"[69, 0, 185]",185,l,0.1257499814964831,colour,0.5
25,19,0,2,7,29,329,987.7608896517195,988.4002257529646,"[47, 0, 207]",207,a,0.11719603557139635,colour,0.5
25,19,0,2,7,30,330,990.4173320699483,991.0961977299303,"[94, 0, 160]",160,l,0.15667163720354438,colour,0.5
25,19,0,2,7,31,331,993.1050005871803,993.8321903916076,"[48, 0, 206]",206,a,0.2051277202554047,colour,0.5
25,19,0,2,7,32,332,995.8396600792184,996.4642332484946,"[82, 0, 172]",172,l,0.10243231570348144,colour,0.5
25,19,0,2,7,33,333,998.480441596359,999.1282280622981,"[75, 0, 179]",179,l,0.12560425838455558,colour,0.5
25,19,0,2,7,34,334,1001.1369076455012,1001.7682006191462,"[35, 0, 219]",219,a,0.10911746136844158,colour,0.5
25,19,0,2,7,35,335,1003.7777730519883,1004.592178135179,"[3, 0, 251]",251,a,0.2923240945674479,colour,0.5
25,19,0,2,7,36,336,1006.606080907397,1007.336213924922,"[62, 0, 192]",192,l,0.20784801617264748,colour,0.5
25,19,0,2,7,37,337,1009.3563355286606,1010.0001898342744,"[41, 0, 213]",213,a,0.12160278111696243,colour,0.5
25,19,0,2,7,38,338,1012.0128728640266,1012.7041962742805,"[78, 0, 176]",176,l,0.1692038243636489,colour,0.5
25,19,0,2,7,39,339,1014.7161384797655,1015.3762224004604,"[19, 0, 235]",235,a,0.13790092570707202,colour,0.5
25,19,0,2,7,40,340,1017.3881988706999,1018.2162219751626,"[55, 0, 199]",199,l,0.3060504235327244,colour,0.5
25,19,0,2,7,41,341,1020.2321802303195,1020.9122274289839,"[36, 0, 218]",218,a,0.1578618404455483,colour,0.5
25,19,0,2,7,42,342,1022.919973202981,1023.4562176899053,"[1, 0, 253]",253,a,0.014043374918401241,colour,0.5
25,19,0,2,7,43,343,1025.4669700860977,1026.176205622498,"[63, 0, 191]",191,l,0.18700567353516817,colour,0.5
25,19,0,2,7,44,344,1028.1859218091704,1028.7601925437339,"[17, 0, 237]",237,a,0.052042053546756506,colour,0.5
25,19,0,2,7,45,345,1030.7799399937503,1031.4161985805258,"[0, 0, 254]",254,a,0.11411576392129064,colour,0.5
25,19,0,2,7,46,346,1033.436344997026,1034.0882097408175,"[81, 0, 173]",173,l,0.12963803205639124,colour,0.5
25,19,0,2,7,47,347,1036.1084428029135,1036.7521966774948,"[42, 0, 212]",212,a,0.12143382057547569,colour,0.5
25,19,0,2,7,48,348,1038.764937209431,1039.4082164992578,"[12, 0, 242]",242,a,0.1210265839472413,colour,0.5
25,19,0,2,7,49,349,1041.4213280337863,1042.2402072106488,"[56, 0, 198]",198,l,0.29689192306250334,colour,0.5
25,19,0,2,7,50,350,1044.2497556186281,1044.8882288029417,"[99, 0, 155]",155,l,0.11630318593233824,colour,0.5
25,19,0,2,8,1,351,1052.5308468248695,1053.1123615731485,"[71, 0, 183]",183,l,0.05842039315029979,colour,0.5
25,19,0,2,8,2,352,1055.125582203269,1055.6881966651417,"[93, 0, 161]",161,l,0.040403897408396006,colour,0.5
25,19,0,2,8,3,353,1057.7039186125621,1058.320231250953,"[51, 0, 203]",203,a,0.0942403138615191,colour,0.5
25,19,0,2,8,4,354,1060.3291534436867,1060.9442376755178,"[82, 0, 172]",172,l,0.09288390772417188,colour,0.5
25,19,0,2,8,5,355,1062.9543425883166,1063.528238774743,"[99, 0, 155]",155,l,0.05182977020740509,colour,0.5
25,19,0,2,8,6,356,1065.548438360449,1066.1442355485633,"[72, 0, 182]",182,l,0.07375361444428563,colour,0.5
25,19,0,2,8,7,357,1068.1578764128499,1068.7442299560644,"[58, 0, 196]",196,l,0.06411698507145047,colour,0.5
25,19,0,2,8,8,358,1070.7518311883323,1071.392239339184,"[13, 0, 241]",241,a,0.11818419583141804,colour,0.5
25,19,0,2,8,9,359,1073.4083169298247,1074.0402132757008,"[95, 0, 159]",159,l,0.10967475362122059,colour,0.5
25,19,0,2,8,10,360,1076.0491547668353,1077.2082095672376,"[66, 0, 188]",188,l,0.6369297006167471,colour,0.5
25,19,0,2,8,11,361,1079.2213077116758,1079.9442376755178,"[50, 0, 204]",204,a,0.20096594747155905,colour,0.5
25,19,0,2,8,12,362,1081.955903400667,1082.6562391938642,"[15, 0, 239]",239,a,0.1781606748700142,colour,0.5
25,19,0,2,8,13,363,1084.674799197819,1085.4242476159707,"[78, 0, 176]",176,l,0.22713309060782194,colour,0.5
25,19,0,2,8,14,364,1087.4406871516258,1088.040217214264,"[21, 0, 233]",233,a,0.07729626120999455,colour,0.5
25,19,0,2,8,15,365,1090.050291406922,1090.8642238751054,"[55, 0, 199]",199,a,0.29261317756026983,colour,0.5
25,19,0,2,8,16,366,1092.8785917791538,1093.4722251761705,"[44, 0, 210]",210,a,0.07137754000723362,colour,0.5
25,19,0,2,8,17,367,1095.488123960793,1096.200212519616,"[42, 0, 212]",212,a,0.1900768866762519,colour,0.5
25,19,0,2,8,18,368,1098.207104434725,1098.816203779541,"[53, 0, 201]",201,a,0.08671785099431872,colour,0.5
25,19,0,2,8,19,369,1100.8323514750227,1101.5762328766286,"[81, 0, 173]",173,l,0.22171219112351537,colour,0.5
25,19,0,2,8,20,370,1103.5826301211491,1104.4322403315455,"[70, 0, 184]",184,l,0.32741224905475974,colour,0.5
25,19,0,2,8,21,371,1106.4422203949653,1107.0082404450513,"[9, 0, 245]",245,a,0.04386935057118535,colour,0.5
25,19,0,2,8,22,372,1109.0204756720923,1109.896226244513,"[76, 0, 178]",178,l,0.3536813990212977,colour,0.5
25,19,0,2,8,23,373,1111.9113152814098,1112.6402265876532,"[18, 0, 236]",236,a,0.2067306744866073,colour,0.5
25,19,0,2,8,24,374,1114.6459239674732,1115.7202025786974,"[10, 0, 244]",244,a,0.5520199974998832,colour,0.5
25,19,0,2,8,25,375,1117.7399370321073,1118.480237978045,"[57, 0, 197]",197,l,0.2181234648451209,colour,0.5
25,19,0,2,8,26,376,1120.4901672350243,1121.0802264777012,"[30, 0, 224]",224,a,0.0678029921837151,colour,0.5
25,19,0,2,8,27,377,1123.0996958720498,1123.7362407851033,"[40, 0, 214]",214,a,0.1143252900801599,colour,0.5
25,19,0,2,8,28,378,1125.7564454907551,1126.4882141519338,"[67, 0, 187]",187,l,0.20977707533165812,colour,0.5
25,19,0,2,8,29,379,1128.506449626293,1129.1522207809612,"[28, 0, 226]",226,a,0.12360391346737742,colour,0.5
25,19,0,2,8,30,380,1131.162895983085,1131.9202355043963,"[2, 0, 252]",252,a,0.2352073322981596,colour,0.5
25,19,0,2,8,31,381,1133.9286831123754,1134.6642456939444,"[4, 0, 250]",250,a,0.21326064504683018,colour,0.5
25,19,0,2,8,32,382,1136.6789302509278,1137.4402015390806,"[74, 0, 180]",180,l,0.23905796697363257,colour,0.5
25,19,0,2,8,33,383,1139.4604724110104,1140.136197540909,"[12, 0, 242]",242,a,0.1535196858458221,colour,0.5
25,19,0,2,8,34,384,1142.1480952417478,1142.7842474901117,"[14, 0, 240]",240,a,0.11393774580210447,colour,0.5
25,19,0,2,8,35,385,1144.804629820399,1145.4722216315567,"[88, 0, 166]",166,l,0.1455395733937621,colour,0.5
25,19,0,2,8,36,386,1147.4923038510606,1148.2722237585112,"[45, 0, 209]",209,a,0.2576423892751336,colour,0.5
25,19,0,2,8,37,387,1150.2894631954841,1151.0722294296138,"[36, 0, 218]",218,a,0.2605442479252815,colour,0.5
25,19,0,2,8,38,388,1153.086503598839,1153.8162660072558,"[25, 0, 229]",229,a,0.20754160406067967,colour,0.5
25,19,0,2,8,39,389,1155.8366802386008,1156.536221250426,"[27, 0, 227]",227,a,0.17723710555583239,colour,0.5
25,19,0,2,8,40,390,1158.556397992652,1161.9442313737236,"[56, 0, 198]",198,a,2.8669406259432435,colour,0.5
25,19,0,2,8,41,391,1163.9623404233716,1164.7202817420475,"[60, 0, 194]",194,l,0.23571066791191697,colour,0.5
25,19,0,2,8,42,392,1166.7282520080917,1167.344214123208,"[90, 0, 164]",164,l,0.09427812322974205,colour,0.5
25,19,0,2,8,43,393,1169.353403343819,1170.056213278789,"[37, 0, 217]",217,a,0.18057613400742412,colour,0.5
25,19,0,2,8,44,394,1172.072458254639,1172.8162471023388,"[80, 0, 174]",174,l,0.2218689420260489,colour,0.5
25,19,0,2,8,45,395,1174.8226061435416,1175.680223641917,"[26, 0, 228]",228,a,0.33544395538046956,colour,0.5
25,19,0,2,8,46,396,1177.6978364451788,1178.520255905576,"[48, 0, 206]",206,l,0.3002352835610509,colour,0.5
25,19,0,2,8,47,397,1180.526171082165,1181.3122251448222,"[41, 0, 213]",213,a,0.26379938749596477,colour,0.5
25,19,0,2,8,48,398,1183.3232827717438,1184.0722676329315,"[86, 0, 168]",168,l,0.22667819866910577,colour,0.5
25,19,0,2,8,49,399,1186.089374737814,1186.8402417902835,"[5, 0, 249]",249,a,0.22912792209535837,colour,0.5
25,19,0,2,8,50,400,1188.8549137441441,1189.4722239947878,"[3, 0, 251]",251,a,0.0952339880168438,colour,0.5
25,19,0,2,9,1,401,1197.182959297672,1197.9282337338664,"[45, 0, 209]",209,a,0.22222852380946279,colour,0.5
25,19,0,2,9,2,402,1199.9340390269645,1200.576258870773,"[72, 0, 182]",182,l,0.12002424523234367,colour,0.5
25,19,0,2,9,3,403,1202.5904097654857,1203.2242611641996,"[35, 0, 219]",219,a,0.11150220036506653,colour,0.5
25,19,0,2,9,4,404,1205.2311960086226,1205.9922955799848,"[48, 0, 206]",206,a,0.23879290837794542,colour,0.5
25,19,0,2,9,5,405,1208.0127759780735,1208.7682738746516,"[58, 0, 196]",196,l,0.23330190451815724,colour,0.5
25,19,0,2,9,6,406,1210.778573741205,1211.5602557165548,"[51, 0, 203]",203,a,0.2594241495244205,colour,0.5
25,19,0,2,9,7,407,1213.575720089022,1214.3122330214828,"[43, 0, 211]",211,a,0.21426613442599773,colour,0.5
25,19,0,2,9,8,408,1216.3258537999354,1217.0322382836603,"[2, 0, 252]",252,a,0.184143987018615,colour,0.5
25,19,0,2,9,9,409,1219.0448972890154,1219.7522317296825,"[65, 0, 189]",189,l,0.18511875625699759,colour,0.5
25,19,0,2,9,10,410,1221.7638616152108,1222.5042661423795,"[94, 0, 160]",160,l,0.21823492273688316,colour,0.5
25,19,0,2,9,11,411,1224.5140737015754,1225.1762564289384,"[12, 0, 242]",242,a,0.1399721633642912,colour,0.5
25,19,0,2,9,12,412,1227.1860939199105,1227.9042370766401,"[23, 0, 231]",231,a,0.19588926946744323,colour,0.5
25,19,0,2,9,13,413,1229.9207234801725,1230.688229748048,"[74, 0, 180]",180,l,0.2453476912342012,colour,0.5
25,19,0,2,9,14,414,1232.7021683598869,1233.4322367869318,"[79, 0, 175]",175,l,0.20789252081885934,colour,0.5
25,19,0,2,9,15,415,1235.4524666983634,1236.12022313755,"[0, 0, 254]",254,a,0.1455509946681559,colour,0.5
25,19,0,2,9,16,416,1238.1402864526026,1239.352254100144,"[47, 0, 207]",207,a,0.6898854770697653,colour,0.5
25,19,0,2,9,17,417,1241.3591775232926,1242.0002611200325,"[50, 0, 204]",204,a,0.11883049691095948,colour,0.5
25,19,0,2,9,18,418,1244.0155833140016,1244.760230353102,"[77, 0, 177]",177,l,0.22242820402607322,colour,0.5
25,19,0,2,9,19,419,1246.7658450249583,1247.5602427199483,"[3, 0, 251]",251,a,0.2721508969552815,colour,0.5
25,19,0,2,9,20,420,1249.5784699232318,1250.2802653107792,"[6, 0, 248]",248,a,0.17944973381236196,colour,0.5
25,19,0,2,9,21,421,1252.2974728462286,1252.9842705694027,"[28, 0, 226]",226,a,0.16451075254008174,colour,0.5
25,19,0,2,9,22,422,1255.0008518896066,1256.1762465825304,"[91, 0, 163]",163,l,0.6531368670985103,colour,0.5
25,19,0,2,9,23,423,1258.1885968125425,1258.8322443487123,"[78, 0, 176]",176,l,0.12156497174873948,colour,0.5
25,19,0,2,9,24,424,1260.8450817666017,1261.448270660825,"[4, 0, 250]",250,a,0.08096296992152929,colour,0.5
25,19,0,2,9,25,425,1263.4546789326705,1264.232253485825,"[37, 0, 217]",217,a,0.25551010575145483,colour,0.5
25,19,0,2,9,26,426,1266.2517744745128,1266.9202276277356,"[16, 0, 238]",238,a,0.14619060140103102,colour,0.5
25,19,0,2,9,27,427,1268.9395028557628,1269.6642472692765,"[40, 0, 214]",214,a,0.2026011967100203,colour,0.5
25,19,0,2,9,28,428,1271.6740501020104,1272.4322954700328,"[26, 0, 228]",228,a,0.236011172644794,colour,0.5
25,19,0,2,9,29,429,1274.4398628314957,1275.1122698066756,"[66, 0, 188]",188,l,0.15009164763614535,colour,0.5
25,19,0,2,9,30,430,1277.1276814038865,1277.8882370735519,"[99, 0, 155]",155,l,0.2384482929483056,colour,0.5
25,19,0,2,9,31,431,1279.8934149700217,1280.6482968907803,"[54, 0, 200]",200,l,0.23312861192971468,colour,0.5
25,19,0,2,9,32,432,1282.659272597637,1283.4082854222506,"[38, 0, 216]",216,a,0.22667544148862362,colour,0.5
25,19,0,2,9,33,433,1285.4251640960574,1286.2243190598674,"[46, 0, 208]",208,a,0.27694912534207106,colour,0.5
25,19,0,2,9,34,434,1288.2378583117388,1289.1042845747434,"[5, 0, 249]",249,a,0.3443728433921933,colour,0.5
25,19,0,2,9,35,435,1291.1130409575999,1291.8562752702273,"[96, 0, 158]",158,l,0.22097766818478703,colour,0.5
25,19,0,2,9,36,436,1293.8633530810475,1294.4802427040413,"[34, 0, 220]",220,a,0.09480193862691522,colour,0.5
25,19,0,2,9,37,437,1296.4885115055367,1297.416275380645,"[44, 0, 210]",210,a,0.4058171878568828,colour,0.5
25,19,0,2,9,38,438,1299.4262199979275,1300.4562728283927,"[55, 0, 199]",199,a,0.5077398661524057,colour,0.5
25,19,0,2,9,39,439,1302.473315342795,1303.2003290979192,"[17, 0, 237]",237,a,0.20543373888358474,colour,0.5
25,19,0,2,9,40,440,1305.2079823180102,1305.9763054233044,"[39, 0, 215]",215,a,0.24604440527036786,colour,0.5
25,19,0,2,9,41,441,1307.9894858812913,1308.9842890803702,"[57, 0, 197]",197,l,0.47258554538711905,colour,0.5
25,19,0,2,9,42,442,1310.9897950505838,1311.7522939573973,"[80, 0, 174]",174,l,0.24038207810372114,colour,0.5
25,19,0,2,9,43,443,1313.771174551919,1314.704235658981,"[52, 0, 202]",202,a,0.4109801179729402,colour,0.5
25,19,0,2,9,44,444,1316.7245486718602,1317.4722901610658,"[63, 0, 191]",191,a,0.2259361925534904,colour,0.5
25,19,0,2,9,45,445,1319.4903838504106,1320.2642298615538,"[95, 0, 159]",159,l,0.251607877202332,colour,0.5
25,19,0,2,9,46,446,1322.2718775677495,1323.1122946194373,"[64, 0, 190]",190,l,0.31845776131376624,colour,0.5
25,19,0,2,9,47,447,1325.1313737123273,1325.9122829614207,"[59, 0, 195]",195,l,0.2586147957481444,colour,0.5
25,19,0,2,9,48,448,1327.928509819787,1328.5602691075765,"[29, 0, 225]",225,a,0.1093872464261949,colour,0.5
25,19,0,2,9,49,449,1330.5693602599204,1331.480248611886,"[62, 0, 192]",192,l,0.388663609046489,colour,0.5
25,19,0,2,9,50,450,1333.4915433339775,1334.2162625412457,"[89, 0, 165]",165,l,0.20245350431650877,colour,0.5
25,19,0,2,10,1,451,1341.8976460602134,1342.6642756261863,"[62, 0, 192]",192,l,0.2437018076889217,colour,0.5
25,19,0,2,10,2,452,1344.6798932049423,1345.736244329717,"[50, 0, 204]",204,a,0.5340826651081443,colour,0.5
25,19,0,2,10,3,453,1347.742698288057,1348.5362543333322,"[43, 0, 211]",211,a,0.27137186890468,colour,0.5
25,19,0,2,10,4,454,1350.55533185089,1351.1442666626535,"[0, 0, 254]",254,a,0.06689360085874796,colour,0.5
25,19,0,2,10,5,455,1353.1493248296902,1353.8002423732542,"[42, 0, 212]",212,a,0.12891256716102362,colour,0.5
25,19,0,2,10,6,456,1355.805760552641,1356.416300192941,"[14, 0, 240]",240,a,0.08851851569488645,colour,0.5
25,19,0,2,10,7,457,1358.4309626943432,1359.2082753395662,"[66, 0, 188]",188,l,0.25505639472976327,colour,0.5
25,19,0,2,10,8,458,1361.228014912922,1361.8642727117985,"[11, 0, 243]",243,a,0.11403620708733797,colour,0.5
25,19,0,2,10,9,459,1363.8845392512158,1364.4563003978692,"[23, 0, 231]",231,a,0.04956672992557287,colour,0.5
25,19,0,2,10,10,460,1366.4628492728807,1367.1202908791602,"[5, 0, 249]",249,a,0.13581590354442596,colour,0.5
25,19,0,2,10,11,461,1369.1349470792338,1369.8882756703533,"[67, 0, 187]",187,l,0.23120624851435423,colour,0.5
25,19,0,2,10,12,462,1371.900798405055,1372.5362732382491,"[12, 0, 242]",242,a,0.11329853301867843,colour,0.5
25,19,0,2,10,13,463,1374.5416169436648,1375.3122720122337,"[52, 0, 202]",202,l,0.2484200857579708,colour,0.5
25,19,0,2,10,14,464,1377.3231409867294,1378.144275720697,"[57, 0, 197]",197,l,0.29896512953564525,colour,0.5
25,19,0,2,10,15,465,1380.1514177285135,1380.8883032398298,"[26, 0, 228]",228,a,0.21463556215167046,colour,0.5
25,19,0,2,10,16,466,1382.9016991318204,1383.6402974799275,"[59, 0, 195]",195,l,0.21639605471864343,colour,0.5
25,19,0,2,10,17,467,1385.6518399314955,1386.3762688743882,"[9, 0, 245]",245,a,0.20215142471715808,colour,0.5
25,19,0,2,10,18,468,1388.3864584639668,1389.04029834643,"[30, 0, 224]",224,a,0.13157221022993326,colour,0.5
25,19,0,2,10,19,469,1391.058551543858,1391.9282892658375,"[36, 0, 218]",218,a,0.3474097913131118,colour,0.5
25,19,0,2,10,20,470,1393.9337558518164,1394.6882738587447,"[95, 0, 159]",159,l,0.23217156575992703,colour,0.5
25,19,0,2,10,21,471,1396.6996481381357,1397.4643096546642,"[40, 0, 214]",214,a,0.24246552446857095,colour,0.5
25,19,0,2,10,22,472,1399.4810745073482,1400.264306661673,"[34, 0, 220]",220,a,0.2609097375534475,colour,0.5
25,19,0,2,10,23,473,1402.278173987288,1403.1602843888104,"[53, 0, 201]",201,l,0.3598108277656138,colour,0.5
25,19,0,2,10,24,474,1405.1690061134286,1405.984267812688,"[51, 0, 203]",203,l,0.29298930102959275,colour,0.5
25,19,0,2,10,25,475,1407.9974033720791,1408.6802775985561,"[80, 0, 174]",174,l,0.16064436361193657,colour,0.5
25,19,0,2,10,26,476,1410.700713885948,1411.3602999849245,"[46, 0, 208]",208,a,0.13738419953733683,colour,0.5
25,19,0,2,10,27,477,1413.3728613168932,1414.3122802833095,"[13, 0, 241]",241,l,0.4174565253779292,colour,0.5
25,19,0,2,10,28,478,1416.326170451939,1417.1043204143643,"[64, 0, 190]",190,l,0.25582203175872564,colour,0.5
25,19,0,2,10,29,479,1419.123379027471,1419.784277816303,"[70, 0, 184]",184,l,0.13875557202845812,colour,0.5
25,19,0,2,10,30,480,1421.7954004276544,1422.400321457535,"[68, 0, 186]",186,l,0.0827955361455679,colour,0.5
25,19,0,2,10,31,481,1424.4206218677573,1425.1442828099243,"[79, 0, 175]",175,l,0.20149055030196905,colour,0.5
25,19,0,2,10,32,482,1427.1551801413298,1427.7842589113861,"[44, 0, 210]",210,a,0.10721203312277794,colour,0.5
25,19,0,2,10,33,483,1429.795965203084,1430.352306087967,"[99, 0, 155]",155,l,0.03406848665326834,colour,0.5
25,19,0,2,10,34,484,1432.3587151477113,1432.9683142830618,"[98, 0, 156]",156,l,0.0873456415720284,colour,0.5
25,19,0,2,10,35,485,1434.9838802679442,1435.704316791147,"[96, 0, 158]",158,l,0.1981641249731183,colour,0.5
25,19,0,2,10,36,486,1437.7184928925708,1438.3443054957315,"[81, 0, 173]",173,l,0.10352720832452178,colour,0.5
25,19,0,2,10,37,487,1440.3594248588197,1441.0403022849932,"[7, 0, 247]",247,a,0.15868300944566727,colour,0.5
25,19,0,2,10,38,488,1443.0471221264452,1443.6722805509344,"[4, 0, 250]",250,a,0.10286712180823088,colour,0.5
25,19,0,2,10,39,489,1445.6879875324667,1446.3122810707428,"[77, 0, 177]",177,l,0.10224641999229789,colour,0.5
25,19,0,2,10,40,490,1448.3287473879755,1448.920279615093,"[10, 0, 244]",244,a,0.06929685035720468,colour,0.5
25,19,0,2,10,41,491,1450.9383272249252,1451.5523023856804,"[94, 0, 160]",160,l,0.09194261487573385,colour,0.5
25,19,0,2,10,42,492,1453.5634840740822,1454.288312770892,"[71, 0, 183]",183,l,0.20258898753672838,colour,0.5
25,19,0,2,10,43,493,1456.298060071189,1457.0162859358825,"[61, 0, 193]",193,l,0.19589675264433026,colour,0.5
25,19,0,2,10,44,494,1459.0326786036603,1459.8322821580805,"[73, 0, 181]",181,l,0.27805031975731254,colour,0.5
25,19,0,2,10,45,495,1461.8453948744573,1462.5043535763398,"[15, 0, 239]",239,a,0.1367481374181807,colour,0.5
25,19,0,2,10,46,496,1464.5175631791353,1465.2962857941166,"[72, 0, 182]",182,l,0.25657152151688933,colour,0.5
25,19,0,2,10,47,497,1467.3145598652773,1467.992287703324,"[2, 0, 252]",252,a,0.15543850464746356,colour,0.5
25,19,0,2,10,48,498,1470.002367803827,1470.6882813419215,"[17, 0, 237]",237,a,0.1637065182439983,colour,0.5
25,19,0,2,10,49,499,1472.7056885575876,1473.512319510337,"[29, 0, 225]",225,a,0.2847602777183056,colour,0.5
25,19,0,2,10,50,500,1475.5183902559802,1476.288336795289,"[6, 0, 248]",248,a,0.24773676227778196,colour,0.5
25,19,0,2,11,1,501,1483.7994617698714,1486.0483418679796,"[92, 0, 162]",162,a,1.7258003149181604,colour,0.5
25,19,0,2,11,2,502,1488.0662189424038,1488.592334492132,"[34, 0, 220]",220,a,0.0038305483758449554,colour,0.5
25,19,0,2,11,3,503,1490.613331222441,1491.4802769687958,"[32, 0, 222]",222,a,0.3447154895402491,colour,0.5
25,19,0,2,11,4,504,1493.4886332042515,1494.200296015013,"[63, 0, 191]",191,l,0.1896913112141192,colour,0.5
25,19,0,2,11,5,505,1496.207529000938,1496.7683022315614,"[93, 0, 161]",161,l,0.038489410653710365,colour,0.5
25,19,0,2,11,6,506,1498.7859075516462,1499.4323395807296,"[35, 0, 219]",219,a,0.12421201216056943,colour,0.5
25,19,0,2,11,7,507,1501.442296013236,1502.0963458162732,"[18, 0, 236]",236,a,0.1316698845475912,colour,0.5
25,19,0,2,11,8,508,1504.1144343856722,1504.7203195514157,"[0, 0, 254]",254,a,0.083691930398345,colour,0.5
25,19,0,2,11,9,509,1506.7396121090278,1507.488346484024,"[53, 0, 201]",201,l,0.22649072762578726,colour,0.5
25,19,0,2,11,10,510,1509.505524481181,1510.4482990177348,"[41, 0, 213]",213,a,0.4207274182699621,colour,0.5
25,19,0,2,11,11,511,1512.4588462198153,1513.1842971933074,"[86, 0, 168]",168,l,0.20316360937431455,colour,0.5
25,19,0,2,11,12,512,1515.1935147708282,1515.9043268738315,"[24, 0, 230]",230,a,0.18856806214898825,colour,0.5
25,19,0,2,11,13,513,1517.9124613734894,1518.6963161989115,"[26, 0, 228]",228,a,0.26162653788924217,colour,0.5
25,19,0,2,11,14,514,1520.7095486447215,1521.376324406825,"[94, 0, 160]",160,l,0.14453526539728045,colour,0.5
25,19,0,2,11,15,515,1523.3816362107173,1524.03230326809,"[48, 0, 206]",206,a,0.12832297896966338,colour,0.5
25,19,0,2,11,16,516,1526.0381810292602,1526.760287460871,"[70, 0, 184]",184,l,0.2000868828035891,colour,0.5
25,19,0,2,11,17,517,1528.7727093705907,1529.4723070962355,"[28, 0, 226]",226,a,0.17758999206125736,colour,0.5
25,19,0,2,11,18,518,1531.491672909353,1532.1523105776869,"[7, 0, 247]",247,a,0.13894146727398038,colour,0.5
25,19,0,2,11,19,519,1534.1512987869792,1534.8003258686513,"[85, 0, 169]",169,l,0.13915059994906187,colour,0.5
25,19,0,2,11,20,520,1536.8112972429954,1537.9443310168572,"[73, 0, 181]",181,l,0.6108527481555939,colour,0.5
25,19,0,2,11,21,521,1539.9521287786774,1540.7363290064968,"[56, 0, 198]",198,a,0.26203141128644347,colour,0.5
25,19,0,2,11,22,522,1542.7492164429277,1543.5123199042864,"[37, 0, 217]",217,a,0.24085075547918677,colour,0.5
25,19,0,2,11,23,523,1545.5306963752955,1546.63230358297,"[57, 0, 197]",197,l,0.5793667109683156,colour,0.5
25,19,0,2,11,24,524,1548.640343166422,1549.4483226486482,"[17, 0, 237]",237,a,0.2857637978158891,colour,0.5
25,19,0,2,11,25,525,1551.4686396000907,1552.1443032901734,"[9, 0, 245]",245,a,0.15337238693609834,colour,0.5
25,19,0,2,11,26,526,1554.1564124864526,1554.808331974782,"[72, 0, 182]",182,l,0.12992593320086598,colour,0.5
25,19,0,2,11,27,527,1556.8285012342967,1557.5523362564854,"[81, 0, 173]",173,l,0.20172528270632029,colour,0.5
25,19,0,2,11,28,528,1559.563140640501,1560.240301339887,"[50, 0, 204]",204,a,0.15516163082793355,colour,0.5
25,19,0,2,11,29,529,1562.2507595326751,1562.9603227493353,"[16, 0, 238]",238,a,0.18730302760377526,colour,0.5
25,19,0,2,11,30,530,1564.9707695203833,1565.7523234961554,"[76, 0, 178]",178,l,0.259334746748209,colour,0.5
25,19,0,2,11,31,531,1567.7679225634784,1568.4323183130473,"[27, 0, 227]",227,a,0.14221472339704633,colour,0.5
25,19,0,2,11,32,532,1570.429268761538,1570.992317635566,"[8, 0, 246]",246,a,0.04096867283806205,colour,0.5
25,19,0,2,11,33,533,1573.0074854418635,1573.664307134226,"[10, 0, 244]",244,a,0.134639878757298,colour,0.5
25,19,0,2,11,34,534,1575.6671877251938,1576.3283035233617,"[80, 0, 174]",174,l,0.13851887034252286,colour,0.5
25,19,0,2,11,35,535,1578.3396998578683,1579.0403432450257,"[69, 0, 185]",185,l,0.17846157355234027,colour,0.5
25,19,0,2,11,36,536,1581.0586964795366,1581.8003191733733,"[15, 0, 239]",239,a,0.21935896016657352,colour,0.5
25,19,0,2,11,37,537,1583.8088904488832,1584.3923381944187,"[40, 0, 214]",214,a,0.0612080367282033,colour,0.5
25,19,0,2,11,38,538,1586.4028755500913,1587.0563152851537,"[66, 0, 188]",188,l,0.13123310916125774,colour,0.5
25,19,0,2,11,39,539,1589.074943818152,1589.712344952859,"[77, 0, 177]",177,l,0.1151165273040533,colour,0.5
25,19,0,2,11,40,540,1591.7313480335288,1592.336332472507,"[23, 0, 231]",231,a,0.0832441272214055,colour,0.5
25,19,0,2,11,41,541,1594.3566076764837,1595.008332605008,"[36, 0, 218]",218,a,0.12957777315750718,colour,0.5
25,19,0,2,11,42,542,1597.019945554901,1597.59235260915,"[4, 0, 250]",250,a,0.050174434669315815,colour,0.5
25,19,0,2,11,43,543,1599.598336708732,1600.3362997835502,"[90, 0, 164]",164,l,0.2158084367401898,colour,0.5
25,19,0,2,11,44,544,1602.3485543089919,1603.0243475739844,"[65, 0, 189]",189,l,0.15364492870867252,colour,0.5
25,19,0,2,11,45,545,1605.0363000198267,1605.7283339281566,"[6, 0, 248]",248,a,0.16991195967420936,colour,0.5
25,19,0,2,11,46,546,1607.7395896594971,1608.3363261711784,"[20, 0, 234]",234,a,0.07514310395345092,colour,0.5
25,19,0,2,11,47,547,1610.3491360195912,1610.9764168816619,"[96, 0, 158]",158,l,0.10503327613696456,colour,0.5
25,19,0,2,11,48,548,1612.990009302739,1613.7523246775381,"[64, 0, 190]",190,a,0.24020917946472764,colour,0.5
25,19,0,2,11,49,549,1615.7714797826484,1616.4403291451745,"[51, 0, 203]",203,a,0.14674001652747393,colour,0.5
25,19,0,2,11,50,550,1618.4591672043316,1619.1843452425674,"[55, 0, 199]",199,a,0.20280087692663074,colour,0.5
25,19,0,2,12,1,551,1627.1933765304275,1627.9203505073674,"[77, 0, 177]",177,l,0.20382487680763006,colour,0.5
25,19,0,2,12,2,552,1629.9288989398628,1631.0803422681056,"[4, 0, 250]",250,a,0.6292658466845751,colour,0.5
25,19,0,2,12,3,553,1633.0854185521603,1633.8323526564054,"[66, 0, 188]",188,l,0.2247696197591722,colour,0.5
25,19,0,2,12,4,554,1635.8511848077178,1636.6643358846195,"[58, 0, 196]",196,l,0.2909452384337783,colour,0.5
25,19,0,2,12,5,555,1638.6795422877185,1639.2483535259962,"[39, 0, 215]",215,a,0.04653765819966793,colour,0.5
25,19,0,2,12,6,556,1641.2452563191764,1642.528308879584,"[89, 0, 165]",165,l,0.7609097375534475,colour,0.5
25,19,0,2,12,7,557,1644.542495614849,1645.4002994019538,"[71, 0, 183]",183,l,0.335585739929229,colour,0.5
25,19,0,2,12,8,558,1647.4176967716776,1648.1843227935024,"[54, 0, 200]",200,a,0.24441112531349063,colour,0.5
25,19,0,2,12,9,559,1650.199157799594,1650.856363098137,"[9, 0, 245]",245,a,0.13497189106419683,colour,0.5
25,19,0,2,12,10,560,1652.8712662393227,1653.6163327246904,"[61, 0, 193]",193,l,0.22296265326440334,colour,0.5
25,19,0,2,12,11,561,1655.6117400838993,1656.384326968342,"[6, 0, 248]",248,a,0.2504200371913612,colour,0.5
25,19,0,2,12,12,562,1658.3932901206426,1659.0643395083025,"[14, 0, 240]",240,a,0.14891601726412773,colour,0.5
25,19,0,2,12,13,563,1661.080863326788,1661.7363077388145,"[87, 0, 167]",167,l,0.1331838290207088,colour,0.5
25,19,0,2,12,14,564,1663.7529800375924,1664.4003403619863,"[46, 0, 208]",208,a,0.12519268924370408,colour,0.5
25,19,0,2,12,15,565,1666.4095098902471,1667.040326309856,"[41, 0, 213]",213,a,0.10855780635029078,colour,0.5
25,19,0,2,12,16,566,1669.0503374869004,1669.7923154300079,"[92, 0, 162]",162,l,0.21973862778395414,colour,0.5
25,19,0,2,12,17,567,1671.80051570246,1672.4083259883337,"[18, 0, 236]",236,a,0.0830180593766272,colour,0.5
25,19,0,2,12,18,568,1674.42828532774,1675.0963233667426,"[72, 0, 182]",182,l,0.145812114700675,colour,0.5
25,19,0,2,12,19,569,1677.1159668415785,1677.8163593485951,"[48, 0, 206]",206,a,0.17810238571837544,colour,0.5
25,19,0,2,12,20,570,1679.8349374691024,1680.648358331062,"[78, 0, 176]",176,l,0.29111734963953495,colour,0.5
25,19,0,2,12,21,571,1682.6633512694389,1683.5043370346539,"[26, 0, 228]",228,a,0.318774807266891,colour,0.5
25,19,0,2,12,22,572,1685.522898613941,1686.2963251783513,"[44, 0, 210]",210,a,0.25138732325285673,colour,0.5
25,19,0,2,12,23,573,1688.3043753956445,1689.0003394954838,"[81, 0, 173]",173,l,0.17373502487316728,colour,0.5
25,19,0,2,12,24,574,1691.0078977984376,1691.6563825542107,"[52, 0, 202]",202,a,0.1269051330164075,colour,0.5
25,19,0,2,12,25,575,1693.6644020508975,1694.2803425048478,"[12, 0, 242]",242,a,0.09389451704919338,colour,0.5
25,19,0,2,12,26,576,1696.2894104202278,1696.9123668507673,"[45, 0, 209]",209,a,0.10095499828457832,colour,0.5
25,19,0,2,12,27,577,1698.9302317155525,1699.4643608545884,"[21, 0, 233]",233,a,0.011932753026485443,colour,0.5
25,19,0,2,12,28,578,1701.464787390083,1702.0803548712283,"[31, 0, 223]",223,a,0.09341441839933395,colour,0.5
25,19,0,2,12,29,579,1704.0899509349838,1704.7603745008819,"[0, 0, 254]",254,a,0.14846506342291832,colour,0.5
25,19,0,2,12,30,580,1706.7775651011616,1707.5443498427048,"[53, 0, 201]",201,l,0.244499740190804,colour,0.5
25,19,0,2,12,31,581,1709.559137193486,1710.1523279072717,"[57, 0, 197]",197,l,0.07100850623100996,colour,0.5
25,19,0,2,12,32,582,1712.1686646486633,1713.0163587974384,"[88, 0, 166]",166,l,0.3255032766610384,colour,0.5
25,19,0,2,12,33,583,1715.0282517718151,1715.6883384496905,"[8, 0, 246]",246,a,0.13784893788397312,colour,0.5
25,19,0,2,12,34,584,1717.7003775411285,1718.5123644089326,"[35, 0, 219]",219,a,0.28968296200037,colour,0.5
25,19,0,2,12,35,585,1720.5288035506383,1721.1523346025497,"[43, 0, 211]",211,a,0.10148550942540169,colour,0.5
25,19,0,2,12,36,586,1723.1696209073998,1723.8483644747175,"[80, 0, 174]",174,l,0.15651527978479862,colour,0.5
25,19,0,2,12,37,587,1725.8572854860686,1726.5843275981024,"[74, 0, 180]",180,l,0.21410623285919428,colour,0.5
25,19,0,2,12,38,588,1728.5983756994829,1729.224334419705,"[38, 0, 216]",216,a,0.10391042055562139,colour,0.5
25,19,0,2,12,39,589,1731.239067419432,1732.0083810482174,"[70, 0, 184]",184,l,0.24735473189502954,colour,0.5
25,19,0,2,12,40,590,1734.0206170626916,1734.776396165602,"[99, 0, 155]",155,l,0.23364061256870627,colour,0.5
25,19,0,2,12,41,591,1736.78645893652,1737.640365615487,"[62, 0, 192]",192,l,0.331725652795285,colour,0.5
25,19,0,2,12,42,592,1739.6460074628703,1740.3283499972895,"[91, 0, 163]",163,l,0.16014142241328955,colour,0.5
25,19,0,2,12,43,593,1742.3336803121492,1743.016374945175,"[27, 0, 227]",227,a,0.16045531816780567,colour,0.5
25,19,0,2,12,44,594,1745.0370896812528,1745.9363631135784,"[59, 0, 195]",195,a,0.377094769384712,colour,0.5
25,19,0,2,12,45,595,1747.9436287889257,1748.5843630447052,"[47, 0, 207]",207,a,0.11856189416721463,colour,0.5
25,19,0,2,12,46,596,1750.5896890270524,1751.2803488061763,"[49, 0, 205]",205,a,0.16864574421197176,colour,0.5
25,19,0,2,12,47,597,1753.2958848583512,1754.6243246523663,"[25, 0, 229]",229,a,0.8062280481681228,colour,0.5
25,19,0,2,12,48,598,1756.640045418404,1757.3363470449112,"[86, 0, 168]",168,l,0.1743135852739215,colour,0.5
25,19,0,2,12,49,599,1759.3433472677134,1759.9923578076996,"[75, 0, 179]",179,l,0.1268452680669725,colour,0.5
25,19,0,2,12,50,600,1761.9997270647436,1762.5683677676134,"[24, 0, 230]",230,a,0.04633876634761691,colour,0.5
25,19,0,2,13,1,601,1770.9216754063964,1771.5523961214349,"[76, 0, 178]",178,l,0.10880002146586776,colour,0.5
25,19,0,2,13,2,602,1773.5651165670715,1774.088382245507,"[8, 0, 246]",246,a,0.0010992251336574554,colour,0.5
25,19,0,2,13,3,603,1776.1122816223651,1776.7124954019673,"[7, 0, 247]",247,a,0.07800518441945314,colour,0.5
25,19,0,2,13,4,604,1778.7217184929177,1779.3843442974612,"[19, 0, 235]",235,a,0.14090636605396867,colour,0.5
25,19,0,2,13,5,605,1781.3938875854947,1782.2243608073331,"[52, 0, 202]",202,a,0.3083430021069944,colour,0.5
25,19,0,2,13,6,606,1784.2377748163417,1784.968336338643,"[51, 0, 203]",203,a,0.20832338882610202,colour,0.5
25,19,0,2,13,7,607,1786.9880865453742,1787.6883479016833,"[35, 0, 219]",219,a,0.18740070145577192,colour,0.5
25,19,0,2,13,8,608,1789.6855831011198,1790.312366141472,"[84, 0, 170]",170,l,0.10464336816221476,colour,0.5
25,19,0,2,13,9,609,1792.3264272399247,1792.92034656927,"[44, 0, 210]",210,a,0.07171467272564769,colour,0.5
25,19,0,2,13,10,610,1794.9359003445134,1795.544358113315,"[81, 0, 173]",173,l,0.08620388153940439,colour,0.5
25,19,0,2,13,11,611,1797.5610481351614,1798.4803360453807,"[68, 0, 186]",186,l,0.3969265026971698,colour,0.5
25,19,0,2,13,12,612,1800.4988869908266,1801.1043424699455,"[67, 0, 187]",187,l,0.09559553861618042,colour,0.5
25,19,0,2,13,13,613,1803.0989578044973,1803.7283985191025,"[22, 0, 232]",232,a,0.10810015676543117,colour,0.5
25,19,0,2,13,14,614,1805.7399807488546,1806.5843689520843,"[49, 0, 205]",205,l,0.32248326344415545,colour,0.5
25,19,0,2,13,15,615,1808.5994686228223,1809.1843799012713,"[45, 0, 209]",209,a,0.06259595090523362,colour,0.5
25,19,0,2,13,16,616,1811.1935116196983,1811.888336322736,"[64, 0, 190]",190,l,0.1726066553965211,colour,0.5
25,19,0,2,13,17,617,1813.8967839307152,1814.5203555487096,"[98, 0, 156]",156,l,0.10134766297414899,colour,0.5
25,19,0,2,13,18,618,1816.5342961298302,1817.424362225458,"[61, 0, 193]",193,l,0.36775273736566305,colour,0.5
25,19,0,2,13,19,619,1819.4408096377738,1820.0803564465605,"[79, 0, 175]",175,l,0.11741225654259324,colour,0.5
25,19,0,2,13,20,620,1822.097228425555,1822.720356572885,"[95, 0, 159]",159,l,0.1009699646383524,colour,0.5
25,19,0,2,13,21,621,1824.7380355424248,1826.2563560875133,"[91, 0, 163]",163,l,0.996136368252337,colour,0.5
25,19,0,2,13,22,622,1828.2695511179045,1828.9043954028748,"[32, 0, 222]",222,a,0.11259315442293882,colour,0.5
25,19,0,2,13,23,623,1830.9104566965252,1831.6403652215376,"[11, 0, 243]",243,a,0.20768417604267597,colour,0.5
25,19,0,2,13,24,624,1833.6483382447623,1834.3443362158723,"[6, 0, 248]",248,a,0.1738082803785801,colour,0.5
25,19,0,2,13,25,625,1836.3516377308406,1837.072390513029,"[85, 0, 169]",169,l,0.19856899930164218,colour,0.5
25,19,0,2,13,26,626,1839.086190097034,1839.768374699168,"[29, 0, 225]",225,a,0.15991338528692722,colour,0.5
25,19,0,2,13,27,627,1841.7739499863237,1842.5683386228047,"[12, 0, 242]",242,a,0.2721997336484492,colour,0.5
25,19,0,2,13,28,628,1844.5866859494708,1845.3123614154756,"[70, 0, 184]",184,l,0.20345741836354136,colour,0.5
25,19,0,2,13,29,629,1847.32124658674,1848.0563700296916,"[72, 0, 182]",182,l,0.21292863273993134,colour,0.5
25,19,0,2,13,30,630,1850.061255298555,1850.728380008135,"[92, 0, 162]",162,l,0.14467823132872581,colour,0.5
25,19,0,2,13,31,631,1852.7334968582727,1853.360372452531,"[82, 0, 172]",172,l,0.105164032895118,colour,0.5
25,19,0,2,13,32,632,1855.377184566576,1856.1683653257787,"[37, 0, 217]",217,a,0.2689347486011684,colour,0.5
25,19,0,2,13,33,633,1858.174308465328,1858.8163624992594,"[74, 0, 180]",180,l,0.11984977126121521,colour,0.5
25,19,0,2,13,34,634,1860.830745763611,1861.5283640180714,"[48, 0, 206]",206,a,0.1756034316495061,colour,0.5
25,19,0,2,13,35,635,1863.5340814837255,1864.4083874281496,"[15, 0, 239]",239,a,0.352046936750412,colour,0.5
25,19,0,2,13,36,636,1866.4249596898444,1867.0883991806768,"[34, 0, 220]",220,a,0.14196463115513325,colour,0.5
25,19,0,2,13,37,637,1869.0971630471759,1869.7763906517066,"[77, 0, 177]",177,l,0.15718166809529066,colour,0.5
25,19,0,2,13,38,638,1871.7865798473358,1872.4483742425218,"[26, 0, 228]",228,a,0.13967874785885215,colour,0.5
25,19,0,2,13,39,639,1874.4483557315543,1875.192395459395,"[60, 0, 194]",194,l,0.22180041251704097,colour,0.5
25,19,0,2,13,40,640,1877.1986131099984,1877.9443971831352,"[16, 0, 238]",238,a,0.2241071704775095,colour,0.5
25,19,0,2,13,41,641,1879.9644990945235,1880.5764368888922,"[71, 0, 183]",183,l,0.0897059622220695,colour,0.5
25,19,0,2,13,42,642,1882.5896850884892,1883.240403345786,"[46, 0, 208]",208,a,0.12878220342099667,colour,0.5
25,19,0,2,13,43,643,1885.2461168733425,1885.9523985632695,"[39, 0, 215]",215,l,0.18397857155650854,colour,0.5
25,19,0,2,13,44,644,1887.965154061094,1888.9763924633153,"[14, 0, 240]",240,a,0.48908140091225505,colour,0.5
25,19,0,2,13,45,645,1890.9965759008192,1891.6084282309748,"[87, 0, 167]",167,l,0.0895724487490952,colour,0.5
25,19,0,2,13,46,646,1893.621834362857,1894.3363734325394,"[38, 0, 216]",216,a,0.19243799475952983,colour,0.5
25,19,0,2,13,47,647,1896.3564757378772,1897.0643914961256,"[2, 0, 252]",252,a,0.1865212433040142,colour,0.5
25,19,0,2,13,48,648,1899.0753577505238,1899.872348528821,"[69, 0, 185]",185,l,0.2746979002840817,colour,0.5
25,19,0,2,13,49,649,1901.8880933197215,1903.2483783382922,"[97, 0, 157]",157,l,0.8380984789691865,colour,0.5
25,19,0,2,13,50,650,1905.263360642828,1905.9763837987557,"[40, 0, 214]",214,a,0.19078699173405766,colour,0.5
25,19,0,2,14,1,651,1913.3888538368046,1914.0083810482174,"[25, 0, 229]",229,a,0.0966616808436811,colour,0.5
25,19,0,2,14,2,652,1916.0148732094094,1917.1283674840815,"[55, 0, 199]",199,l,0.5912707136012614,colour,0.5
25,19,0,2,14,3,653,1919.140192716848,1919.7844022717327,"[9, 0, 245]",245,a,0.12227743957191706,colour,0.5
25,19,0,2,14,4,654,1921.7965780277736,1922.5044039888307,"[74, 0, 180]",180,l,0.185644147451967,colour,0.5
25,19,0,2,14,5,655,1924.5154887908138,1925.1924108196981,"[90, 0, 164]",164,l,0.1546523873694241,colour,0.5
25,19,0,2,14,6,656,1927.203299486544,1928.6083707292564,"[58, 0, 196]",196,l,0.8828823398798704,colour,0.5
25,19,0,2,14,7,657,1930.6161657338962,1931.376394117251,"[56, 0, 198]",198,a,0.23806783743202686,colour,0.5
25,19,0,2,14,8,658,1933.3820603829809,1934.112375357654,"[83, 0, 171]",171,l,0.20811425615102053,colour,0.5
25,19,0,2,14,9,659,1936.1322756200098,1936.9843843909912,"[35, 0, 219]",219,a,0.32983125280588865,colour,0.5
25,19,0,2,14,10,660,1938.991843444761,1939.6723880711943,"[68, 0, 186]",186,l,0.15831870213150978,colour,0.5
25,19,0,2,14,11,661,1941.6795556787401,1942.3444019882008,"[64, 0, 190]",190,l,0.14261250849813223,colour,0.5
25,19,0,2,14,12,662,1944.351614100393,1944.9043887075968,"[60, 0, 194]",194,l,0.030492363031953573,colour,0.5
25,19,0,2,14,13,663,1946.9143553804606,1947.4964057593606,"[84, 0, 170]",170,l,0.05987880565226078,colour,0.5
25,19,0,2,14,14,664,1949.508428703528,1950.0643800743856,"[78, 0, 176]",176,l,0.03384202532470226,colour,0.5
25,19,0,2,14,15,665,1952.0710463155992,1952.6243868800811,"[29, 0, 225]",225,a,0.03117804927751422,colour,0.5
25,19,0,2,14,16,666,1954.6337883835658,1955.3123960741796,"[49, 0, 205]",205,a,0.1563211139291525,colour,0.5
25,19,0,2,14,17,667,1957.3215703279711,1957.968395021744,"[59, 0, 195]",195,a,0.12468738481402397,colour,0.5
25,19,0,2,14,18,668,1959.9780119587667,1960.6644083526917,"[94, 0, 160]",160,l,0.16414880799129605,colour,0.5
25,19,0,2,14,19,669,1962.6813516174443,1963.2164188981988,"[19, 0, 235]",235,a,0.012865380849689245,colour,0.5
25,19,0,2,14,20,670,1965.2283886726946,1965.8803869304247,"[20, 0, 234]",234,a,0.1297447639517486,colour,0.5
25,19,0,2,14,21,671,1967.9005108973943,1968.6404235106893,"[76, 0, 178]",178,l,0.21770953200757504,colour,0.5
25,19,0,2,14,22,672,1970.6515949591994,1971.2564147706144,"[4, 0, 250]",250,a,0.08257419476285577,colour,0.5
25,19,0,2,14,23,673,1973.2768475133926,1973.8724202089943,"[57, 0, 197]",197,a,0.07338851923123002,colour,0.5
25,19,0,2,14,24,674,1975.8863347964361,1976.7203876865096,"[67, 0, 187]",187,l,0.3117907322011888,colour,0.5
25,19,0,2,14,25,675,1978.7303177318536,1979.3044116292149,"[87, 0, 167]",167,l,0.05240872409194708,colour,0.5
25,19,0,2,14,26,676,1981.3242886546068,1981.9844229877926,"[10, 0, 244]",244,a,0.13791431626304984,colour,0.5
25,19,0,2,14,27,677,1983.99638646096,1984.5684311767109,"[70, 0, 184]",184,l,0.049873142037540674,colour,0.5
25,19,0,2,14,28,678,1986.5747346854769,1987.2163921166211,"[14, 0, 240]",240,a,0.1288948436267674,colour,0.5
25,19,0,2,14,29,679,1989.2217255821452,1989.8004164532758,"[26, 0, 228]",228,a,0.05657994979992509,colour,0.5
25,19,0,2,14,30,680,1991.8157102898695,1992.4004120421596,"[16, 0, 238]",238,a,0.06246086163446307,colour,0.5
25,19,0,2,14,31,681,1994.4096733364277,1994.9844021140598,"[7, 0, 247]",247,a,0.05251978896558285,colour,0.5
25,19,0,2,14,32,682,1997.0035887272097,1997.5684296013787,"[63, 0, 191]",191,l,0.04260628530755639,colour,0.5
25,19,0,2,14,33,683,1999.5819341945462,2000.1364326672629,"[3, 0, 251]",251,a,0.03225915739312768,colour,0.5
25,19,0,2,14,34,684,2002.1445754379965,2002.7043817760423,"[43, 0, 211]",211,l,0.03749888762831688,colour,0.5
25,19,0,2,14,35,685,2004.7229630472139,2005.4564126441255,"[53, 0, 201]",201,l,0.2118947864510119,colour,0.5
25,19,0,2,14,36,686,2007.4732184563763,2008.0803879546002,"[0, 0, 254]",254,a,0.08509953692555428,colour,0.5
25,19,0,2,14,37,687,2010.089161273092,2010.8644101643004,"[40, 0, 214]",214,a,0.2531068562529981,colour,0.5
25,19,0,2,14,38,688,2012.870588036254,2013.5044110780582,"[65, 0, 189]",189,l,0.11151913600042462,colour,0.5
25,19,0,2,14,39,689,2015.5113723101094,2016.2003925074823,"[96, 0, 158]",158,l,0.1672491654753685,colour,0.5
25,19,0,2,14,40,690,2018.2147761657834,2018.9283853643574,"[21, 0, 233]",233,a,0.19133128691464663,colour,0.5
25,19,0,2,14,41,691,2020.9337475812063,2021.6004110970534,"[2, 0, 252]",252,a,0.1444147485308349,colour,0.5
25,19,0,2,14,42,692,2023.6084731291048,2024.2964413631707,"[80, 0, 174]",174,l,0.16569544188678265,colour,0.5
25,19,0,2,14,43,693,2026.3117489847355,2026.8963782689534,"[23, 0, 231]",231,a,0.06224542763084173,colour,0.5
25,19,0,2,14,44,694,2028.9058475140482,2029.6084227170795,"[18, 0, 236]",236,a,0.1804902758449316,colour,0.5
25,19,0,2,14,45,695,2031.6247118031606,2032.336425814312,"[66, 0, 188]",188,l,0.18932464066892862,colour,0.5
25,19,0,2,14,46,696,2034.343735600356,2035.01639739424,"[44, 0, 210]",210,a,0.15043153753504157,colour,0.5
25,19,0,2,14,47,697,2037.031368670985,2037.7684251116589,"[15, 0, 239]",239,a,0.2147344178520143,colour,0.5
25,19,0,2,14,48,698,2039.7816024185158,2040.5363882412203,"[30, 0, 224]",224,a,0.2324173259548843,colour,0.5
25,19,0,2,14,49,699,2042.5475356648676,2043.2163818767294,"[91, 0, 163]",163,l,0.14664628123864532,colour,0.5
25,19,0,2,14,50,700,2045.235224661883,2046.128446646966,"[11, 0, 243]",243,a,0.3710669530555606,colour,0.5
25,19,0,2,15,1,701,2053.9539621328004,2054.7124142698012,"[61, 0, 193]",193,l,0.23543930798768997,colour,0.5
25,19,0,2,15,2,702,2056.720645655878,2057.376394117251,"[41, 0, 213]",213,a,0.13359500467777252,colour,0.5
25,19,0,2,15,3,703,2059.392664298881,2060.0404224079102,"[71, 0, 183]",183,l,0.12551879370585084,colour,0.5
25,19,0,2,15,4,704,2062.0430603902787,2062.616403616965,"[48, 0, 206]",206,a,0.05102947447448969,colour,0.5
25,19,0,2,15,5,705,2064.6370486426167,2065.3604945451953,"[43, 0, 211]",211,a,0.2012684214860201,colour,0.5
25,19,0,2,15,6,706,2067.37167741498,2068.064404492732,"[29, 0, 225]",225,a,0.1706035532988608,colour,0.5
25,19,0,2,15,7,707,2070.0782844219357,2070.79243279621,"[93, 0, 161]",161,l,0.19181138556450605,colour,0.5
25,19,0,2,15,8,708,2072.8130195327103,2073.4644270208664,"[18, 0, 236]",236,a,0.12924576085060835,colour,0.5
25,19,0,2,15,9,709,2075.485001154244,2076.144452557899,"[56, 0, 198]",198,l,0.13717231014743447,colour,0.5
25,19,0,2,15,10,710,2078.1570895081386,2078.768401086796,"[94, 0, 160]",160,l,0.08934047305956483,colour,0.5
25,19,0,2,15,11,711,2080.782379477285,2081.4244543854147,"[78, 0, 176]",176,l,0.1199041223153472,colour,0.5
25,19,0,2,15,12,712,2083.438789994456,2084.0884153284132,"[0, 0, 254]",254,a,0.1275132312439382,colour,0.5
25,19,0,2,15,13,713,2086.0952532864176,2086.752427471336,"[77, 0, 177]",177,l,0.13491832790896297,colour,0.5
25,19,0,2,15,14,714,2088.7672412097454,2089.4004317345098,"[19, 0, 235]",235,a,0.11166052659973502,colour,0.5
25,19,0,2,15,15,715,2091.4095701486804,2092.024411770981,"[12, 0, 242]",242,a,0.0924632796086371,colour,0.5
25,19,0,2,15,16,716,2094.034856573213,2095.160458468832,"[70, 0, 184]",184,l,0.6033539157360792,colour,0.5
25,19,0,2,15,17,717,2097.1757467915304,2097.90442927368,"[34, 0, 220]",220,a,0.2064695544540882,colour,0.5
25,19,0,2,15,18,718,2099.9103806838393,2100.680401660502,"[97, 0, 157]",157,l,0.2478029290214181,colour,0.5
25,19,0,2,15,19,719,2102.6917987824418,2103.3524254234508,"[9, 0, 245]",245,a,0.13834636565297842,colour,0.5
25,19,0,2,15,20,720,2105.3638623240404,2106.048438360449,"[75, 0, 179]",179,l,0.16234814282506704,colour,0.5
25,19,0,2,15,21,721,2108.054839543067,2108.824433984235,"[35, 0, 219]",219,a,0.24734646128490567,colour,0.5
25,19,0,2,15,22,722,2110.8363517709076,2111.6004426046275,"[98, 0, 156]",156,l,0.24186333362013102,colour,0.5
25,19,0,2,15,23,723,2113.617751752492,2114.384423854295,"[30, 0, 224]",224,a,0.2444162447936833,colour,0.5
25,19,0,2,15,24,724,2116.39927973412,2117.0564105957747,"[45, 0, 209]",209,a,0.13485885737463832,colour,0.5
25,19,0,2,15,25,725,2119.0714854542166,2119.8644416718744,"[86, 0, 168]",168,l,0.2708653826266527,colour,0.5
25,19,0,2,15,26,726,2121.884053245187,2122.872528122738,"[20, 0, 234]",234,a,0.4662568303756416,colour,0.5
25,19,0,2,15,27,727,2124.8842942789197,2125.568415422924,"[5, 0, 249]",249,a,0.1618522903881967,colour,0.5
25,19,0,2,15,28,728,2127.5876748976298,2128.6404172093607,"[15, 0, 239]",239,a,0.531248941551894,colour,0.5
25,19,0,2,15,29,729,2130.6504748607986,2131.4964530211873,"[80, 0, 174]",174,l,0.3237825622782111,colour,0.5
25,19,0,2,15,30,730,2133.5099867591634,2134.2884462848306,"[64, 0, 190]",190,l,0.2562178475782275,colour,0.5
25,19,0,2,15,31,731,2136.3071248359047,2137.016446230933,"[87, 0, 167]",167,l,0.18558743316680193,colour,0.5
25,19,0,2,15,32,732,2139.0276247686706,2139.6964461682364,"[49, 0, 205]",205,a,0.14664037385955453,colour,0.5
25,19,0,2,15,33,733,2141.715351968538,2142.4084205115214,"[46, 0, 208]",208,a,0.17085600923746824,colour,0.5
25,19,0,2,15,34,734,2144.4186727227643,2145.064409612678,"[55, 0, 199]",199,a,0.12345819035544991,colour,0.5
25,19,0,2,15,35,735,2147.0782647295855,2147.824410747271,"[14, 0, 240]",240,a,0.22411583503708243,colour,0.5
25,19,0,2,15,36,736,2149.8439628495835,2150.4647590331733,"[23, 0, 231]",231,a,0.0986356376670301,colour,0.5
25,19,0,2,15,37,737,2152.4846947416663,2153.16050179163,"[69, 0, 185]",185,l,0.15352126071229577,colour,0.5
25,19,0,2,15,38,738,2155.172498741653,2155.8484140997753,"[91, 0, 163]",163,l,0.15393716283142567,colour,0.5
25,19,0,2,15,39,739,2157.8601830126718,2158.5364134474657,"[50, 0, 204]",204,a,0.1540226275101304,colour,0.5
25,19,0,2,15,40,740,2160.5478511359543,2161.2644185139798,"[92, 0, 162]",162,l,0.19428277062252164,colour,0.5
25,19,0,2,15,41,741,2163.282472031191,2164.104443294462,"[36, 0, 218]",218,a,0.2997606988064945,colour,0.5
25,19,0,2,15,42,742,2166.1109023727477,2166.7764414576814,"[59, 0, 195]",195,a,0.1433363975957036,colour,0.5
25,19,0,2,15,43,743,2168.7829698529094,2169.336430146359,"[51, 0, 203]",203,a,0.03198031382635236,colour,0.5
25,19,0,2,15,44,744,2171.345635120757,2171.88045191532,"[4, 0, 250]",250,a,0.012564088683575392,colour,0.5
25,19,0,2,15,45,745,2173.8927273144946,2174.560446732212,"[8, 0, 246]",246,a,0.14552342565730214,colour,0.5
25,19,0,2,15,46,746,2176.5812402376905,2177.2804744429886,"[83, 0, 171]",171,l,0.17700040386989713,colour,0.5
25,19,0,2,15,47,747,2179.3001281577162,2179.912428290583,"[11, 0, 243]",243,a,0.08992809150367975,colour,0.5
25,19,0,2,15,48,748,2181.9254153701477,2182.672425486613,"[84, 0, 170]",170,l,0.22477907221764326,colour,0.5
25,19,0,2,15,49,749,2184.6913021425717,2185.3044510139152,"[99, 0, 155]",155,l,0.09089655941352248,colour,0.5
25,19,0,2,15,50,750,2187.316505859606,2188.0644206404686,"[42, 0, 212]",212,a,0.22564198914915323,colour,0.5
25,19,0,2,16,1,751,2230.006587078329,2231.4724697549827,"[48, 0, 206]",206,a,0.9430805551819503,colour,0.5
25,19,0,2,16,2,752,2233.492216023151,2234.81642984692,"[25, 0, 229]",229,a,0.8021233822219074,colour,0.5
25,19,0,2,16,3,753,2236.836014638655,2237.552473315038,"[10, 0, 244]",244,a,0.19422093639150262,colour,0.5
25,19,0,2,16,4,754,2239.5706871277653,2240.288424623199,"[84, 0, 170]",170,l,0.1955312630161643,colour,0.5
25,19,0,2,16,5,755,2242.3053355924785,2242.9444665000774,"[50, 0, 204]",204,a,0.1170428292825818,colour,0.5
25,19,0,2,16,6,756,2244.961624804884,2245.6724384832196,"[1, 0, 253]",253,a,0.18848771695047617,colour,0.5
25,19,0,2,16,7,757,2247.680728552863,2248.360523295589,"[0, 0, 254]",254,a,0.15762041229754686,colour,0.5
25,19,0,2,16,8,758,2250.3708326146007,2250.9924696600065,"[83, 0, 171]",171,l,0.09940560720860958,colour,0.5
25,19,0,2,16,9,759,2253.0117232273333,2253.7284418419003,"[89, 0, 165]",165,l,0.1944064381532371,colour,0.5
25,19,0,2,16,10,760,2255.748170781415,2256.352435269393,"[9, 0, 245]",245,a,0.08206613268703222,colour,0.5
25,19,0,2,16,11,761,2258.357795910444,2259.4324305593036,"[56, 0, 198]",198,a,0.5525063979439437,colour,0.5
25,19,0,2,16,12,762,2261.4518286674283,2262.528429002501,"[85, 0, 169]",169,l,0.5544323059730232,colour,0.5
25,19,0,2,16,13,763,2264.545775959734,2266.080423794687,"[70, 0, 184]",184,l,1.0123825259506702,colour,0.5
25,19,0,2,16,14,764,2268.0929169906303,2268.68844321277,"[86, 0, 168]",168,l,0.07333377469331026,colour,0.5
25,19,0,2,16,15,765,2270.7024791045114,2271.800440477673,"[45, 0, 209]",209,a,0.5763553627766669,colour,0.5
25,19,0,2,16,16,766,2273.8147051944397,2274.600458752364,"[63, 0, 191]",191,l,0.26355874724686146,colour,0.5
25,19,0,2,16,17,767,2276.614743948914,2277.4884866932407,"[59, 0, 195]",195,l,0.3515309984795749,colour,0.5
25,19,0,2,16,18,768,2279.505557564553,2280.2324779783376,"[58, 0, 196]",196,l,0.20479964651167393,colour,0.5
25,19,0,2,16,19,769,2282.240144982934,2283.056431469973,"[71, 0, 183]",183,l,0.2942661503329873,colour,0.5
25,19,0,2,16,20,770,2285.06850797683,2285.7364432220347,"[87, 0, 167]",167,l,0.1458042380400002,colour,0.5
25,19,0,2,16,21,771,2287.7562202108093,2288.328468150925,"[4, 0, 250]",250,a,0.050678557716310024,colour,0.5
25,19,0,2,16,22,772,2290.3344711554237,2290.9844422861934,"[76, 0, 178]",178,l,0.12768258480355144,colour,0.5
25,19,0,2,16,23,773,2292.990965955425,2293.66445443267,"[7, 0, 247]",247,a,0.15123025747016072,colour,0.5
25,19,0,2,16,24,774,2295.678658890538,2297.128450585529,"[54, 0, 200]",200,a,0.9281990751624107,colour,0.5
25,19,0,2,16,25,775,2299.1477904045023,2299.992442484945,"[40, 0, 214]",214,a,0.32243718346580863,colour,0.5
25,19,0,2,16,26,776,2302.0073267216794,2303.296465387568,"[98, 0, 156]",156,l,0.7671061200089753,colour,0.5
25,19,0,2,16,27,777,2305.304487641901,2305.9684540987946,"[60, 0, 194]",194,a,0.14175864960998297,colour,0.5
25,19,0,2,16,28,778,2307.967324941419,2308.5844418136403,"[42, 0, 212]",212,a,0.09486731700599194,colour,0.5
25,19,0,2,16,29,779,2310.5802883114666,2311.16849175049,"[28, 0, 226]",226,a,0.0659830286167562,colour,0.5
25,19,0,2,16,30,780,2313.1772611304186,2313.832458994817,"[94, 0, 160]",160,l,0.13298729993402958,colour,0.5
25,19,0,2,16,31,781,2315.849260475021,2316.608473129105,"[16, 0, 238]",238,a,0.23693080339580774,colour,0.5
25,19,0,2,16,32,782,2318.6151846628636,2319.2084718691185,"[34, 0, 220]",220,a,0.07114674663171172,colour,0.5
25,19,0,2,16,33,783,2321.2246699766256,2321.7844841917977,"[80, 0, 174]",174,l,0.037599712144583464,colour,0.5
25,19,0,2,16,34,784,2323.8030835799873,2324.448449466843,"[23, 0, 231]",231,a,0.12322385190054774,colour,0.5
25,19,0,2,16,35,785,2326.4594988231547,2327.088461014442,"[3, 0, 251]",251,a,0.10670712264254689,colour,0.5
25,19,0,2,16,36,786,2329.1002697059885,2329.840466282796,"[77, 0, 177]",177,l,0.2179336305707693,colour,0.5
25,19,0,2,16,37,787,2331.8505318108946,2332.57652314147,"[38, 0, 216]",216,a,0.20373192941769958,colour,0.5
25,19,0,2,16,38,788,2334.585195241496,2335.280446086079,"[22, 0, 232]",232,a,0.17057913495227695,colour,0.5
25,19,0,2,16,39,789,2337.29096768843,2337.856460771989,"[19, 0, 235]",235,a,0.04319035913795233,colour,0.5
25,19,0,2,16,40,790,2339.869299371261,2340.4964482947253,"[8, 0, 246]",246,a,0.10491630341857672,colour,0.5
25,19,0,2,16,41,791,2342.510177774355,2343.1204618085176,"[90, 0, 164]",164,l,0.08714753715321422,colour,0.5
25,19,0,2,16,42,792,2345.1363531099632,2345.896453099791,"[81, 0, 173]",173,l,0.23792211432009935,colour,0.5
25,19,0,2,16,43,793,2347.9022910823114,2348.544453030452,"[21, 0, 233]",233,a,0.11994980834424496,colour,0.5
25,19,0,2,16,44,794,2350.55883275019,2351.168457879685,"[31, 0, 223]",223,a,0.08744567912071943,colour,0.5
25,19,0,2,16,45,795,2353.1721241939813,2356.5444613010623,"[35, 0, 219]",219,a,2.8501781364902854,colour,0.5
25,19,0,2,16,46,796,2358.5632355571724,2359.2084825029597,"[95, 0, 159]",159,l,0.12312066461890936,colour,0.5
25,19,0,2,16,47,797,2361.2136580361985,2362.0004611941986,"[6, 0, 248]",248,a,0.26462134439498186,colour,0.5
25,19,0,2,16,48,798,2364.010853614658,2364.720461729914,"[64, 0, 190]",190,l,0.18747041234746575,colour,0.5
25,19,0,2,16,49,799,2366.7300042300485,2367.360456735827,"[30, 0, 224]",224,a,0.1088969074189663,colour,0.5
25,19,0,2,16,50,800,2369.361632760614,2370.0164804956876,"[69, 0, 185]",185,l,0.13164113368839025,colour,0.5
