id,age,condition,counterbalance,block,trialinblock,trial,tstart,tend,trialstim,trialintensity,response,RT,trialtype,colourfreq
77,19,1,1,Practice,1,NA,6.3014449551701546e-06,0.83188568695914,"[23, 0, 231]",231,a,0.22368006478063762,colour,0.5
77,19,1,1,Practice,2,NA,2.841039847698994,4.127910521347076,"[39, 0, 215]",215,a,0.7704528125468642,colour,0.5
77,19,1,1,Practice,3,NA,6.136809469899163,7.271895863930695,"[90, 0, 164]",164,l,0.6183896900620311,colour,0.5
77,19,1,1,Practice,4,NA,9.281307206023484,10.27185726701282,"[17, 0, 237]",237,a,0.47364225552883,colour,0.5
77,19,1,1,Practice,5,NA,12.281045298557729,13.255867516505532,"[89, 0, 165]",165,l,0.4559762967983261,colour,0.5
77,19,1,1,Practice,6,NA,15.265346600092016,16.279868880752474,"[82, 0, 172]",172,l,0.4981103272875771,colour,0.5
77,19,1,1,Practice,7,NA,18.28834877733607,19.527824426535517,"[20, 0, 234]",234,a,0.723072360502556,colour,0.5
77,19,1,1,Practice,8,NA,21.536811990546994,22.71184972091578,"[65, 0, 189]",189,l,0.6588979245861992,colour,0.5
77,19,1,1,Practice,9,NA,24.720861309440807,25.783837666152976,"[8, 0, 246]",246,a,0.5463336096145213,colour,0.5
77,19,1,1,Practice,10,NA,27.793126522214152,28.719816436292604,"[86, 0, 168]",168,l,0.41067377594299614,colour,0.5
77,19,1,1,1,1,1,6.391957430052571,7.415998572716489,"[29, 0, 225]",225,a,0.5073125371709466,colour,0.5
77,19,1,1,1,2,2,9.424756130669266,10.479959150310606,"[25, 0, 229]",229,a,0.538460235693492,colour,0.5
77,19,1,1,1,3,3,12.489057384897023,13.624207581975497,"[4, 0, 250]",250,a,0.6188816035864875,colour,0.5
77,19,1,1,1,4,4,15.632901730714366,16.752083444967866,"[94, 0, 160]",160,l,0.6025822901865467,colour,0.5
77,19,1,1,1,5,5,18.76105761807412,23.767992457025684,"[51, 0, 203]",203,a,4.490314541035332,colour,0.5
77,19,1,1,1,6,6,25.777365989983082,27.847968779038638,"[52, 0, 202]",202,a,1.553573285229504,colour,0.5
77,19,1,1,1,7,7,29.856640872429125,31.007933632237837,"[34, 0, 220]",220,a,0.632992709055543,colour,0.5
77,19,1,1,1,8,8,33.01651120255701,34.00799467833713,"[8, 0, 246]",246,a,0.4747824395308271,colour,0.5
77,19,1,1,1,9,9,36.016021652147174,36.99995352618862,"[67, 0, 187]",187,l,0.4670276133110747,colour,0.5
77,19,1,1,1,10,10,39.008076204452664,40.10391112638172,"[23, 0, 231]",231,a,0.5782343415776268,colour,0.5
77,19,1,1,1,11,11,42.11277541646268,43.28795690066181,"[53, 0, 201]",201,l,0.6581381957512349,colour,0.5
77,19,1,1,1,12,12,45.29696770152077,46.12792942603119,"[15, 0, 239]",239,a,0.3146828910103068,colour,0.5
77,19,1,1,1,13,13,48.13701072521508,49.143964468850754,"[46, 0, 208]",208,l,0.4905374579830095,colour,0.5
77,19,1,1,1,14,14,51.15316707256716,52.47995481803082,"[24, 0, 230]",230,a,0.810688505647704,colour,0.5
77,19,1,1,1,15,15,54.489173963316716,55.42397040803917,"[62, 0, 192]",192,l,0.41849831282161176,colour,0.5
77,19,1,1,1,16,16,57.432030858588405,59.31993167567998,"[39, 0, 215]",215,l,1.3716597928432748,colour,0.5
77,19,1,1,1,17,17,61.32902242720593,62.328020876972005,"[2, 0, 252]",252,a,0.4818480353569612,colour,0.5
77,19,1,1,1,18,18,64.33665319194552,65.1919278127607,"[90, 0, 164]",164,l,0.33843888924457133,colour,0.5
77,19,1,1,1,19,19,67.20063220150769,68.06398775300477,"[20, 0, 234]",234,a,0.3467836966738105,colour,0.5
77,19,1,1,1,20,20,70.07296744000632,72.27993110846728,"[48, 0, 206]",206,a,1.6881638272898272,colour,0.5
77,19,1,1,1,21,21,74.28904824773781,75.35997792892158,"[54, 0, 200]",200,l,0.5551431551575661,colour,0.5
77,19,1,1,1,22,22,77.36990914761554,78.5039876899682,"[12, 0, 242]",242,a,0.6178902934771031,colour,0.5
77,19,1,1,1,23,23,80.51258810330182,83.21601030929014,"[42, 0, 212]",212,a,2.1865191266406327,colour,0.5
77,19,1,1,1,24,24,85.22525820543524,86.19993194343988,"[18, 0, 236]",236,a,0.45716216682922095,colour,0.5
77,19,1,1,1,25,25,88.20903293497395,89.11193376779556,"[11, 0, 243]",243,a,0.38642586406785995,colour,0.5
77,19,1,1,1,26,26,91.12110919621773,92.71192100713961,"[37, 0, 217]",217,a,1.0739567809505388,colour,0.5
77,19,1,1,1,27,27,94.721132275532,95.86393844347913,"[98, 0, 156]",156,l,0.6258857594802976,colour,0.5
77,19,1,1,1,28,28,97.87228679552209,98.71993143938016,"[85, 0, 169]",169,l,0.3309231275925413,colour,0.5
77,19,1,1,1,29,29,100.72901234473102,101.67996749980375,"[36, 0, 218]",218,a,0.43421827885322273,colour,0.5
77,19,1,1,1,30,30,103.68904210370965,104.55193843087181,"[87, 0, 167]",167,l,0.3466812967089936,colour,0.5
77,19,1,1,1,31,31,106.56102051783819,107.43195681564976,"[28, 0, 226]",226,a,0.3547212673583999,colour,0.5
77,19,1,1,1,32,32,109.44099400413688,110.255899418029,"[77, 0, 177]",177,l,0.2977396394126117,colour,0.5
77,19,1,1,1,33,33,112.26459317293484,113.04795743629802,"[70, 0, 184]",184,l,0.2664529134053737,colour,0.5
77,19,1,1,1,34,34,115.05698202177882,115.9919222202152,"[40, 0, 214]",214,a,0.41647945856675506,colour,0.5
77,19,1,1,1,35,35,118.00100470101461,118.89588013535831,"[73, 0, 181]",181,l,0.3778069398831576,colour,0.5
77,19,1,1,1,36,36,120.90491338539869,121.99990941549186,"[44, 0, 210]",210,a,0.578747522784397,colour,0.5
77,19,1,1,1,37,37,124.0089946531225,125.09585815877654,"[0, 0, 254]",254,a,0.5689064946491271,colour,0.5
77,19,1,1,1,38,38,127.10481972887646,127.95989663910586,"[88, 0, 166]",166,l,0.3390698304865509,colour,0.5
77,19,1,1,1,39,39,129.96901653520763,130.86396404344123,"[66, 0, 188]",188,l,0.37874665623530746,colour,0.5
77,19,1,1,1,40,40,132.87305912736338,134.1759758713888,"[61, 0, 193]",193,l,0.7847186994040385,colour,0.5
77,19,1,1,1,41,41,136.18513436452486,138.1358827505028,"[56, 0, 198]",198,l,1.4337381806690246,colour,0.5
77,19,1,1,1,42,42,140.1449798035901,141.00785525690299,"[1, 0, 253]",253,a,0.3460160909453407,colour,0.5
77,19,1,1,1,43,43,143.0166667717276,143.8478537760675,"[79, 0, 175]",175,l,0.3145296849543229,colour,0.5
77,19,1,1,1,44,44,145.85667789389845,146.63190018059686,"[86, 0, 168]",168,l,0.2564228393603116,colour,0.5
77,19,1,1,1,45,45,148.64145015645772,149.62387438840233,"[92, 0, 162]",162,l,0.46557983569800854,colour,0.5
77,19,1,1,1,46,46,151.6333822227316,152.46391938137822,"[71, 0, 183]",183,l,0.31424138974398375,colour,0.5
77,19,1,1,1,47,47,154.47298256366048,155.27184545167256,"[43, 0, 211]",211,a,0.2801516621839255,colour,0.5
77,19,1,1,1,48,48,157.28100197552703,158.0718579760287,"[84, 0, 170]",170,l,0.27541172655764967,colour,0.5
77,19,1,1,1,49,49,160.0806860323064,160.83988587919157,"[91, 0, 163]",163,l,0.24285681650508195,colour,0.5
77,19,1,1,1,50,50,162.8489774185,163.62388423457742,"[74, 0, 180]",180,l,0.2581707275239751,colour,0.5
77,19,1,1,2,1,51,173.176100326702,174.07986053125933,"[90, 0, 164]",164,l,0.3863569409586489,colour,0.5
77,19,1,1,2,2,52,176.0890249320073,177.0158755352022,"[58, 0, 196]",196,a,0.40903852751944214,colour,0.5
77,19,1,1,2,3,53,179.0247819669312,179.8798600586597,"[10, 0, 244]",244,a,0.3384451908059418,colour,0.5
77,19,1,1,2,4,54,181.88892245327588,182.69584500428755,"[9, 0, 245]",245,a,0.29062166216317564,colour,0.5
77,19,1,1,2,5,55,184.70491291279905,185.5839002089342,"[1, 0, 253]",253,a,0.3622011891566217,colour,0.5
77,19,1,1,2,6,56,187.5932603511028,188.43982625100762,"[69, 0, 185]",185,l,0.3293162363115698,colour,0.5
77,19,1,1,2,7,57,190.44837034435477,191.7998821613146,"[60, 0, 194]",194,l,0.8345157901057974,colour,0.5
77,19,1,1,2,8,58,193.80950657406356,194.63188994058874,"[3, 0, 251]",251,a,0.30516599817201495,colour,0.5
77,19,1,1,2,9,59,196.64094563981052,197.3838757117046,"[79, 0, 175]",175,l,0.2257832019822672,colour,0.5
77,19,1,1,2,10,60,199.392949133995,200.17585653613787,"[5, 0, 249]",249,a,0.26582039683125913,colour,0.5
77,19,1,1,2,11,61,202.1840902789263,203.36783751810435,"[47, 0, 207]",207,a,0.6673474949784577,colour,0.5
77,19,1,1,2,12,62,205.37682783894707,206.12786916759796,"[31, 0, 223]",223,a,0.23398386186454445,colour,0.5
77,19,1,1,2,13,63,208.13706822670065,208.9118155351607,"[87, 0, 167]",167,l,0.25802382291294634,colour,0.5
77,19,1,1,2,14,64,210.92199172615074,211.8321208130801,"[99, 0, 155]",155,l,0.3938746720086783,colour,0.5
77,19,1,1,2,15,65,213.84056053729728,216.08785836037714,"[57, 0, 197]",197,a,1.7288520493311808,colour,0.5
77,19,1,1,2,16,66,218.09783250838518,218.84785928984638,"[84, 0, 170]",170,l,0.23348604049533606,colour,0.5
77,19,1,1,2,17,67,220.85680865077302,221.7118532656459,"[30, 0, 224]",224,a,0.337051764014177,colour,0.5
77,19,1,1,2,18,68,223.7209066018695,227.86389236350078,"[52, 0, 202]",202,l,3.626601377502084,colour,0.5
77,19,1,1,2,19,69,229.8730071396567,231.7758603170514,"[50, 0, 204]",204,a,1.3849887202959508,colour,0.5
77,19,1,1,2,20,70,233.7850105393445,234.56784980604425,"[27, 0, 227]",227,a,0.26665535010397434,colour,0.5
77,19,1,1,2,21,71,236.5768972345395,237.3278330124449,"[15, 0, 239]",239,a,0.23462149826809764,colour,0.5
77,19,1,1,2,22,72,239.3371797639411,240.10387056018226,"[20, 0, 234]",234,a,0.25028947670944035,colour,0.5
77,19,1,1,2,23,73,242.11339729919564,242.63982987438794,"[75, 0, 179]",179,l,0.010138775571249425,colour,0.5
77,19,1,1,2,24,74,244.64871700759977,245.80783075967338,"[65, 0, 189]",189,l,0.6429806416854262,colour,0.5
77,19,1,1,2,25,75,247.81664306216408,248.6398582312977,"[64, 0, 190]",190,l,0.3062474991893396,colour,0.5
77,19,1,1,2,26,76,250.64801911253016,251.43179258180317,"[23, 0, 231]",231,a,0.2663851717952639,colour,0.5
77,19,1,1,2,27,77,253.44112003478222,254.7918221045984,"[45, 0, 209]",209,a,0.8340577472699806,colour,0.5
77,19,1,1,2,28,78,256.8009490899276,257.5998123717727,"[67, 0, 187]",187,l,0.2823694085236639,colour,0.5
77,19,1,1,2,29,79,259.6091315540252,260.4318264526082,"[4, 0, 250]",250,a,0.3051813581259921,colour,0.5
77,19,1,1,2,30,80,262.4416533021722,263.21582598949317,"[77, 0, 177]",177,l,0.2581656075781211,colour,0.5
77,19,1,1,2,31,81,265.2250853070291,265.9597749407403,"[93, 0, 161]",161,l,0.21842537249904126,colour,0.5
77,19,1,1,2,32,82,267.9697510579135,268.95981432532426,"[54, 0, 200]",200,a,0.47369424323551357,colour,0.5
77,19,1,1,2,33,83,270.96900353836827,271.7358219407033,"[21, 0, 233]",233,a,0.24963017867412418,colour,0.5
77,19,1,1,2,34,84,273.74487251997925,274.5277917374624,"[18, 0, 236]",236,a,0.26635720883496106,colour,0.5
77,19,1,1,2,35,85,276.536910058232,277.30379620206077,"[88, 0, 166]",166,l,0.24979204928968102,colour,0.5
77,19,1,1,2,36,86,279.31297202431597,280.18380749761127,"[35, 0, 219]",219,a,0.3546649473719299,colour,0.5
77,19,1,1,2,37,87,282.192991590593,282.9998089846922,"[36, 0, 218]",218,a,0.2897886779392138,colour,0.5
77,19,1,1,2,38,88,285.008817816386,285.7678680018289,"[82, 0, 172]",172,l,0.24281900736968964,colour,0.5
77,19,1,1,2,39,89,287.77687210717704,288.55979093082715,"[37, 0, 217]",217,a,0.26563095685560256,colour,0.5
77,19,1,1,2,40,90,290.5688706546789,291.38385720096994,"[19, 0, 235]",235,a,0.29786448867525905,colour,0.5
77,19,1,1,2,41,91,293.39294283255003,294.1439294165466,"[95, 0, 159]",159,l,0.234156760154292,colour,0.5
77,19,1,1,2,42,92,296.15280000818893,296.92777929187287,"[32, 0, 222]",222,a,0.2578418661141768,colour,0.5
77,19,1,1,2,43,93,298.936962991138,299.70383810729254,"[83, 0, 171]",171,l,0.2504438643809408,colour,0.5
77,19,1,1,2,44,94,301.71289498812985,302.56782971997745,"[66, 0, 188]",188,l,0.33869291993323714,colour,0.5
77,19,1,1,2,45,95,304.57672197313514,305.36778513656463,"[12, 0, 242]",242,a,0.2735169337829575,colour,0.5
77,19,1,1,2,46,96,307.37690188200213,308.0637979191961,"[16, 0, 238]",238,a,0.1699204903561622,colour,0.5
77,19,1,1,2,47,97,310.07293120620307,310.82377443031874,"[28, 0, 226]",226,a,0.23442260618321598,colour,0.5
77,19,1,1,2,48,98,312.8324398281984,313.59976826107595,"[81, 0, 173]",173,l,0.2512118639424443,colour,0.5
77,19,1,1,2,49,99,315.6089291172102,316.32780465565156,"[98, 0, 156]",156,l,0.20174284698441625,colour,0.5
77,19,1,1,2,50,100,318.33693597326055,319.0957931742305,"[0, 0, 254]",254,a,0.2421892477432266,colour,0.5
77,19,1,1,3,1,101,327.903836610727,328.711814274895,"[40, 0, 214]",214,a,0.29078944050706923,colour,0.5
77,19,1,1,3,2,102,330.72118505090475,331.4958019963233,"[43, 0, 211]",211,a,0.25740548479370773,colour,0.5
77,19,1,1,3,3,103,333.5049715171335,334.27982634550426,"[46, 0, 208]",208,a,0.2580876260763034,colour,0.5
77,19,1,1,3,4,104,336.2890557307983,337.0397626842605,"[26, 0, 228]",228,a,0.23379048344213516,colour,0.5
77,19,1,1,3,5,105,339.04813584848307,339.839763786993,"[21, 0, 233]",233,a,0.27487570222001523,colour,0.5
77,19,1,1,3,6,106,341.8481294681551,342.63976882817224,"[9, 0, 245]",245,a,0.27546568331308663,colour,0.5
77,19,1,1,3,7,107,344.64789111260325,345.6397629205603,"[72, 0, 182]",182,l,0.4754125929903239,colour,0.5
77,19,1,1,3,8,108,347.6475768235978,348.4318607172463,"[68, 0, 186]",186,l,0.26786051876842976,colour,0.5
77,19,1,1,3,9,109,350.4409975487506,351.2237493817229,"[6, 0, 248]",248,a,0.2646514622028917,colour,0.5
77,19,1,1,3,10,110,353.23274167173076,354.0077465554932,"[37, 0, 217]",217,a,0.259421976050362,colour,0.5
77,19,1,1,3,11,111,356.01668961474206,356.8077795597492,"[15, 0, 239]",239,a,0.274301081080921,colour,0.5
77,19,1,1,3,12,112,358.8169278127607,359.67175738781225,"[24, 0, 230]",230,a,0.33754919143393636,colour,0.5
77,19,1,1,3,13,113,361.6809536900837,362.55173087411094,"[39, 0, 215]",215,a,0.35424156312365085,colour,0.5
77,19,1,1,3,14,114,364.5605482965475,365.3517638783669,"[70, 0, 184]",184,l,0.2749477759934962,colour,0.5
77,19,1,1,3,15,115,367.3607159961248,368.2477416874608,"[59, 0, 195]",195,l,0.3704577749595046,colour,0.5
77,19,1,1,3,16,116,370.2568095959723,371.06373647926375,"[67, 0, 187]",187,l,0.2886122602503747,colour,0.5
77,19,1,1,3,17,117,373.07277563703246,373.895754498546,"[19, 0, 235]",235,a,0.3066200773464516,colour,0.5
77,19,1,1,3,18,118,375.9050181484781,378.4557262046728,"[48, 0, 206]",206,a,2.033893198473379,colour,0.5
77,19,1,1,3,19,119,380.4647318854695,381.55176671408117,"[54, 0, 200]",200,l,0.5708836012054235,colour,0.5
77,19,1,1,3,20,120,383.56087676400784,384.31972136185504,"[85, 0, 169]",169,l,0.24253268132451922,colour,0.5
77,19,1,1,3,21,121,386.3283544644946,389.74372130830307,"[55, 0, 199]",199,a,2.8988902997225523,colour,0.5
77,19,1,1,3,22,122,391.75245917390566,392.8558256113902,"[47, 0, 207]",207,a,0.585885192384012,colour,0.5
77,19,1,1,3,23,123,394.8648616182618,395.6317627283279,"[98, 0, 156]",156,l,0.2502367013366893,colour,0.5
77,19,1,1,3,24,124,397.6408609629143,398.38375046872534,"[91, 0, 163]",163,l,0.22470209503080696,colour,0.5
77,19,1,1,3,25,125,400.39299403247423,401.1598380347714,"[3, 0, 251]",251,a,0.25023355055600405,colour,0.5
77,19,1,1,3,26,126,403.16900558630005,403.95174796693027,"[14, 0, 240]",240,a,0.26539701235014945,colour,0.5
77,19,1,1,3,27,127,405.9607296232134,406.6957201551413,"[86, 0, 168]",168,l,0.21778300974983722,colour,0.5
77,19,1,1,3,28,128,408.70493299898226,409.54372871259693,"[66, 0, 188]",188,l,0.32227702799718827,colour,0.5
77,19,1,1,3,29,129,411.55281040573027,412.3597238982329,"[5, 0, 249]",249,a,0.2896996687632054,colour,0.5
77,19,1,1,3,30,130,414.36937351722736,415.18372636532877,"[96, 0, 158]",158,l,0.2971996767446399,colour,0.5
77,19,1,1,3,31,131,417.19273283390794,417.9117032891372,"[89, 0, 165]",165,l,0.20266996033024043,colour,0.5
77,19,1,1,3,32,132,419.92083933297545,420.7036967165768,"[80, 0, 174]",174,l,0.26593146135564893,colour,0.5
77,19,1,1,3,33,133,422.7127953451127,423.63178832829,"[88, 0, 166]",166,l,0.401160427602008,colour,0.5
77,19,1,1,3,34,134,425.6408097629901,426.3598723781761,"[20, 0, 234]",234,a,0.20051050302572548,colour,0.5
77,19,1,1,3,35,135,428.3684594008373,429.1277029645862,"[77, 0, 177]",177,l,0.2429442503489554,colour,0.5
77,19,1,1,3,36,136,431.13681025768165,431.9196853643516,"[74, 0, 180]",180,l,0.26613350422121584,colour,0.5
77,19,1,1,3,37,137,433.92826608545147,434.65571958804503,"[13, 0, 241]",241,a,0.21128494595177472,colour,0.5
77,19,1,1,3,38,138,436.664786314941,437.64771742664743,"[64, 0, 190]",190,l,0.46624110301490873,colour,0.5
77,19,1,1,3,39,139,439.65723904559854,441.7677191280527,"[51, 0, 203]",203,a,1.5919602657668293,colour,0.5
77,19,1,1,3,40,140,443.7768358733738,444.52771769440733,"[84, 0, 170]",170,l,0.23364279116503894,colour,0.5
77,19,1,1,3,41,141,446.5368883967167,447.23970092914533,"[36, 0, 218]",218,a,0.18575664097443223,colour,0.5
77,19,1,1,3,42,142,449.24819579184987,450.04770301189274,"[78, 0, 176]",176,l,0.28348359873052686,colour,0.5
77,19,1,1,3,43,143,452.0567870680243,452.8077256028773,"[90, 0, 164]",164,l,0.23244549962691963,colour,0.5
77,19,1,1,3,44,144,454.8167052898789,455.5756723737577,"[97, 0, 157]",157,l,0.2419840539805591,colour,0.5
77,19,1,1,3,45,145,457.584008910344,458.34369870158844,"[22, 0, 232]",232,a,0.2426425643498078,colour,0.5
77,19,1,1,3,46,146,460.3527417978039,461.11173920787405,"[8, 0, 246]",246,a,0.2426764351548627,colour,0.5
77,19,1,1,3,47,147,463.1208366547944,463.89571511396207,"[95, 0, 159]",159,l,0.2585425180150196,colour,0.5
77,19,1,1,3,48,148,465.90557189576793,466.6636492818361,"[23, 0, 231]",231,a,0.24142242968082428,colour,0.5
77,19,1,1,3,49,149,468.67277075338643,469.75168526673224,"[1, 0, 253]",253,a,0.5612123208120465,colour,0.5
77,19,1,1,3,50,150,471.7607638090849,472.5196883575991,"[33, 0, 221]",221,a,0.24267525353934616,colour,0.5
77,19,1,1,4,1,151,480.103987532435,481.60770465026144,"[53, 0, 201]",201,l,0.9863611158216372,colour,0.5
77,19,1,1,4,2,152,483.6169623924652,485.7276996562723,"[39, 0, 215]",215,a,1.5935781847219914,colour,0.5
77,19,1,1,4,3,153,487.73679592169356,488.519647397683,"[5, 0, 249]",249,a,0.26587395987007767,colour,0.5
77,19,1,1,4,4,154,490.52823678334244,491.29568612691946,"[12, 0, 242]",242,a,0.25030956289265305,colour,0.5
77,19,1,1,4,5,155,493.3047477338696,494.26364085345995,"[56, 0, 198]",198,l,0.44208416959736496,colour,0.5
77,19,1,1,4,6,156,496.27276902040467,497.0397359026829,"[23, 0, 231]",231,a,0.2501981045352295,colour,0.5
77,19,1,1,4,7,157,499.04822879610583,499.7677238541655,"[79, 0, 175]",175,l,0.20227768970653415,colour,0.5
77,19,1,1,4,8,158,501.77688313485123,502.50366394862067,"[29, 0, 225]",225,a,0.2099474451970309,colour,0.5
77,19,1,1,4,9,159,504.5126712048659,505.2956865207525,"[60, 0, 194]",194,l,0.2665009625488892,colour,0.5
77,19,1,1,4,10,160,507.30478396767285,508.1036842711037,"[8, 0, 246]",246,a,0.2828380852006376,colour,0.5
77,19,1,1,4,11,161,510.1128498533508,511.1036941172788,"[30, 0, 224]",224,a,0.4736257140757516,colour,0.5
77,19,1,1,4,12,162,513.1127895949176,514.0876693143509,"[88, 0, 166]",166,l,0.4580680123763159,colour,0.5
77,19,1,1,4,13,163,516.0971621826757,516.7276776009239,"[22, 0, 232]",232,a,0.11376869585365057,colour,0.5
77,19,1,1,4,14,164,518.736827035551,519.5036544962786,"[61, 0, 193]",193,l,0.25077666412107646,colour,0.5
77,19,1,1,4,15,165,521.5127716355491,522.2556241197744,"[6, 0, 248]",248,a,0.22532791609410197,colour,0.5
77,19,1,1,4,16,166,524.2644431176595,524.9756713497918,"[74, 0, 180]",180,l,0.1944354297593236,colour,0.5
77,19,1,1,4,17,167,526.9849145197077,527.7676958910888,"[21, 0, 233]",233,a,0.26677901775110513,colour,0.5
77,19,1,1,4,18,168,529.7768043656833,530.4236466666916,"[91, 0, 163]",163,l,0.12978286494035274,colour,0.5
77,19,1,1,4,19,169,532.432849270408,533.1996377405012,"[66, 0, 188]",188,l,0.2500476553104818,colour,0.5
77,19,1,1,4,20,170,535.2087143136887,535.999619938666,"[7, 0, 247]",247,a,0.2747819668147713,colour,0.5
77,19,1,1,4,21,171,538.0085535456892,539.3436593170045,"[37, 0, 217]",217,a,0.8190002300543711,colour,0.5
77,19,1,1,4,22,172,541.3528024500702,542.5276412883541,"[50, 0, 204]",204,l,0.6581106266239658,colour,0.5
77,19,1,1,4,23,173,544.5366965937428,545.2396497292211,"[0, 0, 254]",254,a,0.18636907148174942,colour,0.5
77,19,1,1,4,24,174,547.2482784994645,548.2716485287528,"[38, 0, 216]",216,a,0.5071664203424007,colour,0.5
77,19,1,1,4,25,175,550.2808196248952,551.0076228878461,"[4, 0, 250]",250,a,0.209998645237647,colour,0.5
77,19,1,1,4,26,176,553.0165029318305,553.9117296767654,"[34, 0, 220]",220,a,0.3793165512615815,colour,0.5
77,19,1,1,4,27,177,555.9207822253229,556.695610272116,"[85, 0, 169]",169,l,0.2581565489526838,colour,0.5
77,19,1,1,4,28,178,558.7047636451898,559.4156460806262,"[67, 0, 187]",187,l,0.19478319573681802,colour,0.5
77,19,1,1,4,29,179,561.4247856690781,562.5356595973717,"[54, 0, 200]",200,l,0.5942871073493734,colour,0.5
77,19,1,1,4,30,180,564.544676305959,565.319632352679,"[89, 0, 165]",165,l,0.25754057394806296,colour,0.5
77,19,1,1,4,31,181,567.3288002980407,568.0396161734825,"[20, 0, 234]",234,a,0.19427198357880116,colour,0.5
77,19,1,1,4,32,182,570.0479830362601,570.8636804743437,"[59, 0, 195]",195,l,0.29889478953555226,colour,0.5
77,19,1,1,4,33,183,572.8736388685647,573.6396349206334,"[96, 0, 158]",158,l,0.2470674233045429,colour,0.5
77,19,1,1,4,34,184,575.6487422137288,576.4236273681745,"[62, 0, 192]",192,l,0.25883317622356117,colour,0.5
77,19,1,1,4,35,185,578.4326377752004,579.1676369718043,"[17, 0, 237]",237,a,0.2186364739900455,colour,0.5
77,19,1,1,4,36,186,581.1766635264503,582.8556133284001,"[46, 0, 208]",208,l,1.1614496522815898,colour,0.5
77,19,1,1,4,37,187,584.8644977046642,585.6316477253567,"[19, 0, 235]",235,a,0.25049191364087164,colour,0.5
77,19,1,1,4,38,188,587.6417876824271,588.3835882041603,"[65, 0, 189]",189,l,0.22405027993954718,colour,0.5
77,19,1,1,4,39,189,590.3930011217017,591.079630131484,"[80, 0, 174]",174,l,0.16988110588863492,colour,0.5
77,19,1,1,4,40,190,593.0888299783692,593.8076180828502,"[16, 0, 238]",238,a,0.20062235521618277,colour,0.5
77,19,1,1,4,41,191,595.8169762558537,596.6556018281262,"[44, 0, 210]",210,a,0.3216031576739624,colour,0.5
77,19,1,1,4,42,192,598.6644105860032,599.4236206727801,"[31, 0, 223]",223,a,0.24238144443370402,colour,0.5
77,19,1,1,4,43,193,601.4317591049476,602.1595930627082,"[2, 0, 252]",252,a,0.2115645766025409,colour,0.5
77,19,1,1,4,44,194,604.1690516662784,604.9596177962376,"[93, 0, 161]",161,l,0.2741939550032839,colour,0.5
77,19,1,1,4,45,195,606.9686502584955,607.7196080918657,"[90, 0, 164]",164,l,0.23428594158031046,colour,0.5
77,19,1,1,4,46,196,609.7281919636298,610.455623804708,"[94, 0, 160]",160,l,0.21093757380731404,colour,0.5
77,19,1,1,4,47,197,612.4646775347646,613.0635809100932,"[87, 0, 167]",167,l,0.08271433878690004,colour,0.5
77,19,1,1,4,48,198,615.0725944678998,615.8316151149338,"[68, 0, 186]",186,l,0.2425149583723396,colour,0.5
77,19,1,1,4,49,199,617.8407834541285,618.4795794828096,"[77, 0, 177]",177,l,0.1207145624794066,colour,0.5
77,19,1,1,4,50,200,620.4887419143924,621.2395882892888,"[25, 0, 229]",229,a,0.23350415751338005,colour,0.5
77,19,1,1,5,1,201,628.8475280654384,629.7355793316383,"[51, 0, 203]",203,l,0.3707366179442033,colour,0.4
77,19,1,1,5,2,202,631.7446685078321,636.8235889289062,"[45, 0, 209]",209,l,4.561179631622508,colour,0.4
77,19,1,1,5,3,203,638.8319132562028,639.5916030474473,"[78, 0, 176]",176,l,0.2432569640222937,colour,0.4
77,19,1,1,5,4,204,641.6008277066285,642.5436066203984,"[60, 0, 194]",194,l,0.426467391080223,colour,0.4
77,19,1,1,5,5,205,644.5526800426887,645.6555978896795,"[53, 0, 201]",201,l,0.5859781400067732,colour,0.4
77,19,1,1,5,6,206,647.6646847027587,648.4235820759786,"[33, 0, 221]",221,a,0.2417323865229264,colour,0.4
77,19,1,1,5,7,207,650.4322711046552,651.1916072221939,"[14, 0, 240]",240,a,0.24321088404394686,colour,0.4
77,19,1,1,5,8,208,653.200549493893,653.8155792843318,"[81, 0, 173]",173,l,0.09808614512439817,colour,0.4
77,19,1,1,5,9,209,655.8249772357522,656.5596601739526,"[72, 0, 182]",182,l,0.216808634926565,colour,0.4
77,19,1,1,5,10,210,658.5687662855489,659.3516492692288,"[6, 0, 248]",248,a,0.26662463019602,colour,0.4
77,19,1,1,5,11,211,661.3616273555672,662.3115801728563,"[55, 0, 199]",199,l,0.43363696231972426,colour,0.4
77,19,1,1,5,12,212,664.3206331152469,665.0955773466267,"[35, 0, 219]",219,a,0.25867800100240856,colour,0.4
77,19,1,1,5,13,213,667.1047445043223,668.2556107289856,"[43, 0, 211]",211,a,0.6345294958446175,colour,0.4
77,19,1,1,5,14,214,670.264733382035,670.9515778255882,"[25, 0, 229]",229,a,0.17106500663794577,colour,0.4
77,19,1,1,5,15,215,672.9606035925681,673.7355726362439,"[65, 0, 189]",189,l,0.257933238404803,colour,0.4
77,19,1,1,5,16,216,675.7446570862085,676.4875438350718,"[79, 0, 175]",175,l,0.22625227249227464,colour,0.4
77,19,1,1,5,17,217,678.496695238864,679.2476270783227,"[9, 0, 245]",245,a,0.23460416903253645,colour,0.4
77,19,1,1,5,18,218,681.2566847468261,681.983538028202,"[68, 0, 186]",186,l,0.20892895967699587,colour,0.4
77,19,1,1,5,19,219,683.9934054439655,684.7755487848772,"[93, 0, 161]",161,l,0.26589562138542533,colour,0.4
77,19,1,1,5,20,220,686.7840046568308,687.5675603293348,"[34, 0, 220]",220,a,0.26711772521957755,colour,0.4
77,19,1,1,5,21,221,689.5770086930133,690.2875331224641,"[18, 0, 236]",236,a,0.19347799033857882,colour,0.4
77,19,1,1,5,22,222,692.2965880340198,693.047651024186,"[95, 0, 159]",159,l,0.2352099041454494,colour,0.4
77,19,1,1,5,23,223,695.056839843397,695.8075605813647,"[88, 0, 166]",166,l,0.233234372921288,colour,0.4
77,19,1,1,5,24,224,697.8164110869402,698.8395597748458,"[59, 0, 195]",195,l,0.5067225560778752,colour,0.4
77,19,1,1,5,25,225,700.8483937388519,701.5676016832003,"[92, 0, 162]",162,l,0.20216071757022291,colour,0.4
77,19,1,1,5,26,226,703.5766404470196,704.2155282419408,"[89, 0, 165]",165,l,0.12218360789120197,colour,0.4
77,19,1,1,5,27,227,706.2246319904225,707.0075516017387,"[58, 0, 196]",196,l,0.265403707860969,colour,0.4
77,19,1,1,5,28,228,709.0165572825354,710.0635667317547,"[49, 0, 205]",205,a,0.5312276493059471,colour,0.4
77,19,1,1,5,29,229,712.0726740247337,712.7355222239858,"[44, 0, 210]",210,a,0.14648075040895492,colour,0.4
77,19,1,1,5,30,230,714.7445231786696,715.3995397516992,"[30, 0, 224]",224,a,0.138475438230671,colour,0.4
77,19,1,1,5,31,231,717.408579697134,718.0635411316762,"[73, 0, 181]",181,l,0.13833956129383296,colour,0.4
77,19,1,1,5,32,232,720.0726121909684,720.855499113095,"[77, 0, 177]",177,l,0.2665895778918639,colour,0.4
77,19,1,1,5,33,233,722.8646040430758,723.6315725008026,"[62, 0, 192]",192,l,0.25050845509395003,colour,0.4
77,19,1,1,5,34,234,725.6400319172535,726.3755442950642,"[23, 0, 231]",231,a,0.21964747633319348,colour,0.4
77,19,1,1,5,35,235,728.3840836622985,729.1275186446728,"[97, 0, 157]",157,l,0.22642320161685348,colour,0.4
77,19,1,1,5,36,236,731.1366066393675,731.7995359707857,"[40, 0, 214]",214,a,0.14563358784653246,colour,0.4
77,19,1,1,5,37,237,733.8085897008423,734.5915857182117,"[90, 0, 164]",164,l,0.2667246670462191,colour,0.4
77,19,1,1,5,38,238,736.6005019959994,737.3515385985374,"[21, 0, 233]",233,a,0.23354432976339012,colour,0.4
77,19,1,1,5,39,239,739.3606191100553,740.0875381636433,"[5, 0, 249]",249,a,0.2108454138506204,colour,0.4
77,19,1,1,5,40,240,742.0956372112269,742.9675266161794,"[46, 0, 208]",208,a,0.3556007253937423,colour,0.4
77,19,1,1,5,41,241,744.9775102164131,745.6315016085282,"[39, 0, 215]",215,a,0.13770546950399876,colour,0.4
77,19,1,1,5,42,242,747.6408066122094,748.3915383779677,"[82, 0, 172]",172,l,0.23225015203934163,colour,0.4
77,19,1,1,5,43,243,750.4010848092148,751.1595288658282,"[38, 0, 216]",216,a,0.2413546881871298,colour,0.4
77,19,1,1,5,44,244,753.168851986411,753.959535876289,"[67, 0, 187]",187,l,0.27366698917467147,colour,0.4
77,19,1,1,5,45,245,755.9686526216101,756.7195175072411,"[91, 0, 163]",163,l,0.23406932631041855,colour,0.4
77,19,1,1,5,46,246,758.7285873850342,759.3594978307374,"[96, 0, 158]",158,l,0.11359146516770124,colour,0.4
77,19,1,1,5,47,247,761.3685948838247,764.2395437846426,"[63, 0, 191]",191,l,2.35430930450093,colour,0.4
77,19,1,1,5,48,248,766.2487117300043,766.967545126914,"[84, 0, 170]",170,l,0.20225090824533254,colour,0.4
77,19,1,1,5,49,249,768.9760234480491,769.7915164801525,"[50, 0, 204]",204,a,0.29867266048677266,colour,0.4
77,19,1,1,5,50,250,771.8004044010304,772.5355233267182,"[75, 0, 179]",179,l,0.21891964913811535,colour,0.4
77,19,1,1,6,1,251,810.8476363731315,811.9594752239063,"[95, 0, 159]",159,l,0.594581310171634,colour,0.28
77,19,1,1,6,2,252,813.9686573477229,814.9035270478344,"[84, 0, 170]",170,l,0.41826594376470894,colour,0.28
77,19,1,1,6,3,253,816.91224128264,817.7034816767555,"[30, 0, 224]",224,a,0.2746724777389318,colour,0.28
77,19,1,1,6,4,254,819.7120675178012,820.4475310586859,"[61, 0, 193]",193,l,0.218944855267182,colour,0.28
77,19,1,1,6,5,255,822.4567013671622,823.1675073964288,"[64, 0, 190]",190,l,0.19443858054000884,colour,0.28
77,19,1,1,6,6,256,825.1774059259333,825.7915192369837,"[71, 0, 183]",183,l,0.09708183794282377,colour,0.28
77,19,1,1,6,7,257,827.8007757976884,828.455486352439,"[98, 0, 156]",156,l,0.13801463844720274,colour,0.28
77,19,1,1,6,8,258,830.4645810425282,831.4715028845239,"[42, 0, 212]",212,a,0.4911431928630918,colour,0.28
77,19,1,1,6,9,259,833.480425857706,834.2795262348372,"[77, 0, 177]",177,l,0.2825742084532976,colour,0.28
77,19,1,1,6,10,260,836.2887201741105,837.8634705544682,"[55, 0, 199]",199,l,1.0584420084487647,colour,0.28
77,19,1,1,6,11,261,839.8724514230853,840.6634685065364,"[41, 0, 213]",213,a,0.2738938443362713,colour,0.28
77,19,1,1,6,12,262,842.6725427164929,843.4634833938908,"[63, 0, 191]",191,l,0.2745803177822381,colour,0.28
77,19,1,1,6,13,263,845.472530428553,846.2715043812059,"[1, 0, 253]",253,a,0.28192751354072243,colour,0.28
77,19,1,1,6,14,264,848.2804907636018,849.6554624066921,"[90, 0, 164]",164,l,0.8581721453228965,colour,0.28
77,19,1,1,6,15,265,851.6646000258625,852.5914695336251,"[74, 0, 180]",180,l,0.4099518562434241,colour,0.28
77,19,1,1,6,16,266,854.6003787223017,855.3274486188311,"[73, 0, 181]",181,l,0.2102255003992468,colour,0.28
77,19,1,1,6,17,267,857.3365177089581,858.0474808827275,"[99, 0, 155]",155,l,0.19475129421334714,colour,0.28
77,19,1,1,6,18,268,860.0565783296479,860.8074333692202,"[92, 0, 162]",162,l,0.23386807111091912,colour,0.28
77,19,1,1,6,19,269,862.8165768961189,863.8074215537636,"[76, 0, 178]",178,l,0.47384902462363243,colour,0.28
77,19,1,1,6,20,270,865.8169841327472,866.647459063679,"[32, 0, 222]",222,a,0.31355688557960093,colour,0.28
77,19,1,1,6,21,271,868.6564470214071,869.3914540949045,"[2, 0, 252]",252,a,0.2182808310026303,colour,0.28
77,19,1,1,6,22,272,871.4003491050098,872.1514522674261,"[19, 0, 235]",235,a,0.23435840918682516,colour,0.28
77,19,1,1,6,23,273,874.1604926066939,874.8634221114917,"[39, 0, 215]",215,a,0.18651321902871132,colour,0.28
77,19,1,1,6,24,274,876.8723521739012,877.6394588714465,"[83, 0, 171]",171,l,0.25003347685560584,colour,0.28
77,19,1,1,6,25,275,879.6485232353443,880.3994176593842,"[72, 0, 182]",182,l,0.23430799692869186,colour,0.28
77,19,1,1,6,26,276,882.408457210986,883.9594740424072,"[49, 0, 205]",205,a,1.0347494194284081,colour,0.28
77,19,1,1,6,27,277,885.9685939386254,886.7754235418979,"[60, 0, 194]",194,l,0.29073193902149796,colour,0.28
77,19,1,1,6,28,278,888.7839633030817,889.5034418195719,"[79, 0, 175]",175,l,0.20343638444319367,colour,0.28
77,19,1,1,6,29,279,891.5123734573135,892.3354878018145,"[43, 0, 211]",211,a,0.30602458224166185,colour,0.28
77,19,1,1,6,30,280,894.3444730027113,895.1033963697264,"[68, 0, 186]",186,l,0.2420234385645017,colour,0.28
77,19,1,1,6,31,281,897.112481213524,897.8474150317488,"[82, 0, 172]",172,l,0.21784641908016056,colour,0.28
77,19,1,1,6,32,282,899.857026053709,900.455406401772,"[10, 0, 244]",244,a,0.0813240627758205,colour,0.28
77,19,1,1,6,33,283,902.4644947901834,903.175422911765,"[38, 0, 216]",216,a,0.1939584823558107,colour,0.28
77,19,1,1,6,34,284,905.1839654297801,905.7994532630546,"[87, 0, 167]",167,l,0.0990955721354112,colour,0.28
77,19,1,1,6,35,285,907.8085227470146,908.5594222911168,"[52, 0, 202]",202,a,0.23433989856857806,colour,0.28
77,19,1,1,6,36,286,910.5684748395579,911.3034492238658,"[85, 0, 169]",169,l,0.218443883350119,colour,0.28
77,19,1,1,6,37,287,913.3132894642185,913.9914850512287,"[6, 0, 248]",248,a,0.1613917569629848,colour,0.28
77,19,1,1,6,38,288,916.0016604544362,916.7434641269501,"[88, 0, 166]",166,l,0.22510578704532236,colour,0.28
77,19,1,1,6,39,289,918.7521633956349,919.5034788410412,"[75, 0, 179]",179,l,0.23431902460288256,colour,0.28
77,19,1,1,6,40,290,921.5130638692062,922.2394654093077,"[81, 0, 173]",173,l,0.2086898951092735,colour,0.28
77,19,1,1,6,41,291,924.2492615389638,924.9834281451767,"[93, 0, 161]",161,l,0.2180689419619739,colour,0.28
77,19,1,1,6,42,292,926.9924432783155,927.7674229558324,"[78, 0, 176]",176,l,0.2585236133309081,colour,0.28
77,19,1,1,6,43,293,929.7764432090335,930.503458754858,"[7, 0, 247]",247,a,0.2102117157774046,colour,0.28
77,19,1,1,6,44,294,932.5125152418623,933.2074567636009,"[86, 0, 168]",168,l,0.17865559901110828,colour,0.28
77,19,1,1,6,45,295,935.2166432196973,936.0954150820617,"[65, 0, 189]",189,l,0.3621043029706925,colour,0.28
77,19,1,1,6,46,296,938.1045255259378,939.0154911415884,"[51, 0, 203]",203,a,0.3942763947416097,colour,0.28
77,19,1,1,6,47,297,941.0250757759204,941.7833985280013,"[66, 0, 188]",188,l,0.24210890312679112,colour,0.28
77,19,1,1,6,48,298,943.7925467810128,944.4954242981039,"[96, 0, 158]",158,l,0.1856948072090745,colour,0.28
77,19,1,1,6,49,299,946.5045560096623,947.3034279561834,"[54, 0, 200]",200,a,0.2819944672519341,colour,0.28
77,19,1,1,6,50,300,949.3129897473846,949.9434051287826,"[94, 0, 160]",160,l,0.11376436345744878,colour,0.28
77,19,1,1,7,1,301,958.3435072924476,959.0474115659017,"[85, 0, 169]",169,l,0.18649864674080163,colour,0.14
77,19,1,1,7,2,302,961.0565038927598,962.0634867809713,"[64, 0, 190]",190,a,0.4897670953068882,colour,0.14
77,19,1,1,7,3,303,964.0725574464304,964.695407835301,"[99, 0, 155]",155,l,0.1066987676313147,colour,0.14
77,19,1,1,7,4,304,966.7044930730481,967.7353678363143,"[75, 0, 179]",179,l,0.5149125818861648,colour,0.14
77,19,1,1,7,5,305,969.7445511417463,970.4794117044657,"[91, 0, 163]",163,l,0.21803822193760425,colour,0.14
77,19,1,1,7,6,306,972.4885575944791,973.1913874561433,"[59, 0, 195]",195,a,0.18667863425798714,colour,0.14
77,19,1,1,7,7,307,975.2010465273634,975.9513824780006,"[40, 0, 214]",214,a,0.2341035909485072,colour,0.14
77,19,1,1,7,8,308,977.9610836907523,978.639385616174,"[77, 0, 177]",177,l,0.16181907977443188,colour,0.14
77,19,1,1,7,9,309,980.648437770782,981.375370608992,"[95, 0, 159]",159,l,0.21015421429183334,colour,0.14
77,19,1,1,7,10,310,983.3846791574033,984.1033467451343,"[94, 0, 160]",160,l,0.20130095188505948,colour,0.14
77,19,1,1,7,11,311,986.1118939892622,986.8713651960716,"[57, 0, 197]",197,a,0.24287060124333948,colour,0.14
77,19,1,1,7,12,312,988.879915197147,989.6153720426373,"[26, 0, 228]",228,a,0.21840056020300835,colour,0.14
77,19,1,1,7,13,313,991.6244616126642,992.3273651235504,"[76, 0, 178]",178,l,0.18459755252115428,colour,0.14
77,19,1,1,7,14,314,994.3365700903814,994.9513580595376,"[98, 0, 156]",156,l,0.09849810798186809,colour,0.14
77,19,1,1,7,15,315,996.9604050941998,998.471414663014,"[58, 0, 196]",196,l,0.9947756337933242,colour,0.14
77,19,1,1,7,16,316,1000.4804892669199,1001.2316605646629,"[83, 0, 171]",171,l,0.23478297505062073,colour,0.14
77,19,1,1,7,17,317,1003.2400802028133,1003.9913909219904,"[72, 0, 182]",182,l,0.2348778919549659,colour,0.14
77,19,1,1,7,18,318,1006.0006746581057,1006.6154090641066,"[79, 0, 175]",175,l,0.09754185006022453,colour,0.14
77,19,1,1,7,19,319,1008.6242623266298,1009.5753856539959,"[66, 0, 188]",188,l,0.43206079094670713,colour,0.14
77,19,1,1,7,20,320,1011.5841168242041,1012.463340821676,"[69, 0, 185]",185,l,0.3616868263343349,colour,0.14
77,19,1,1,7,21,321,1014.4723969147308,1015.8873313157819,"[68, 0, 186]",186,l,0.8977678387891501,colour,0.14
77,19,1,1,7,22,322,1017.8963661412708,1018.6234131947858,"[81, 0, 173]",173,l,0.21031490340828896,colour,0.14
77,19,1,1,7,23,323,1020.6325449063443,1021.3353326264769,"[80, 0, 174]",174,l,0.18645217292942107,colour,0.14
77,19,1,1,7,24,324,1023.3445734333945,1024.0953441899037,"[70, 0, 184]",184,l,0.23358765279408544,colour,0.14
77,19,1,1,7,25,325,1026.104408553685,1026.7433841762831,"[96, 0, 158]",158,l,0.12296854273881763,colour,0.14
77,19,1,1,7,26,326,1028.752400490921,1029.4074769285508,"[53, 0, 201]",201,a,0.13825212756637484,colour,0.14
77,19,1,1,7,27,327,1031.4162285787752,1032.6633668942377,"[30, 0, 224]",224,a,0.7306377467466518,colour,0.14
77,19,1,1,7,28,328,1034.6724958488485,1035.5193382286234,"[20, 0, 234]",234,a,0.3299326051492244,colour,0.14
77,19,1,1,7,29,329,1037.5284297678154,1038.311316689942,"[52, 0, 202]",202,a,0.266628174809739,colour,0.14
77,19,1,1,7,30,330,1040.3204999952577,1040.9836227050982,"[38, 0, 216]",216,a,0.14581790775991976,colour,0.14
77,19,1,1,7,31,331,1042.992628385895,1044.671395837213,"[67, 0, 187]",187,l,1.162257036427036,colour,0.14
77,19,1,1,7,32,332,1046.68052124721,1047.543377008289,"[60, 0, 194]",194,l,0.34591093414928764,colour,0.14
77,19,1,1,7,33,333,1049.5517545047915,1050.7193824180868,"[61, 0, 193]",193,l,0.6512088706949726,colour,0.14
77,19,1,1,7,34,334,1052.7284495389322,1053.4393808111781,"[88, 0, 166]",166,l,0.19473120803013444,colour,0.14
77,19,1,1,7,35,335,1055.4485058273422,1056.2233389941975,"[43, 0, 211]",211,a,0.25828454887960106,colour,0.14
77,19,1,1,7,36,336,1058.23197682295,1059.895319692674,"[56, 0, 198]",198,l,1.1466233226237819,colour,0.14
77,19,1,1,7,37,337,1061.9043974472443,1062.583331495407,"[82, 0, 172]",172,l,0.16219599032774568,colour,0.14
77,19,1,1,7,38,338,1064.5923635639483,1065.135321520036,"[86, 0, 168]",168,l,0.027027282398194075,colour,0.14
77,19,1,1,7,39,339,1067.1445926530287,1067.8873431312386,"[89, 0, 165]",165,l,0.22531846386846155,colour,0.14
77,19,1,1,7,40,340,1069.8963015505578,1070.6233395455638,"[84, 0, 170]",170,l,0.21039406640920788,colour,0.14
77,19,1,1,7,41,341,1072.6320344819687,1073.3514720385429,"[74, 0, 180]",180,l,0.20231077284552157,colour,0.14
77,19,1,1,7,42,342,1075.3607258422999,1076.0393286660546,"[87, 0, 167]",167,l,0.1620108827482909,colour,0.14
77,19,1,1,7,43,343,1078.0475167226978,1078.8073703538394,"[34, 0, 220]",220,a,0.24286784417927265,colour,0.14
77,19,1,1,7,44,344,1080.8163701269077,1081.5993354243692,"[65, 0, 189]",189,l,0.2664651225786656,colour,0.14
77,19,1,1,7,45,345,1083.6082387053175,1084.4075895684073,"[63, 0, 191]",191,l,0.28241312538739294,colour,0.14
77,19,1,1,7,46,346,1086.416322707897,1087.175318542635,"[90, 0, 164]",164,l,0.24288123496808112,colour,0.14
77,19,1,1,7,47,347,1089.1841249373974,1089.9993154958356,"[54, 0, 200]",200,a,0.2989511095220223,colour,0.14
77,19,1,1,7,48,348,1092.0085791457677,1093.0553455919726,"[78, 0, 176]",176,l,0.5304974589962512,colour,0.14
77,19,1,1,7,49,349,1095.0644509157864,1096.1512868521968,"[62, 0, 192]",192,a,0.5706094844499603,colour,0.14
77,19,1,1,7,50,350,1098.1606517204782,1098.9352934781928,"[73, 0, 181]",181,l,0.257783183013089,colour,0.14
77,19,1,1,8,1,351,1107.1757364131045,1109.4073158456013,"[54, 0, 200]",200,l,1.7134873324539512,colour,0.06
77,19,1,1,8,2,352,1111.4165854031453,1112.1753016072325,"[88, 0, 166]",166,l,0.24108254071325064,colour,0.06
77,19,1,1,8,3,353,1114.1839225005824,1114.967309213127,"[67, 0, 187]",187,l,0.26629773806780577,colour,0.06
77,19,1,1,8,4,354,1116.9759537372738,1117.7193646950182,"[76, 0, 178]",178,l,0.2264866108307615,colour,0.06
77,19,1,1,8,5,355,1119.7285487881163,1120.4632955293637,"[85, 0, 169]",169,l,0.21727809926960617,colour,0.06
77,19,1,1,8,6,356,1122.4730341575341,1123.247292309301,"[28, 0, 226]",226,a,0.2566107037710026,colour,0.06
77,19,1,1,8,7,357,1125.256352340919,1126.8712777622277,"[51, 0, 203]",203,a,1.098040458979085,colour,0.06
77,19,1,1,8,8,358,1128.8800227170577,1129.6953542722622,"[65, 0, 189]",189,l,0.2986183096654713,colour,0.06
77,19,1,1,8,9,359,1131.7041496394668,1133.6393399300287,"[55, 0, 199]",199,a,1.4189437525346875,colour,0.06
77,19,1,1,8,10,360,1135.6484291062225,1136.3273044712842,"[92, 0, 162]",162,l,0.1626713623991236,colour,0.06
77,19,1,1,8,11,361,1138.3372159977444,1139.0153592032148,"[78, 0, 176]",176,l,0.1617753627942875,colour,0.06
77,19,1,1,8,12,362,1141.0242790257325,1141.7753270496614,"[52, 0, 202]",202,a,0.2324561334680766,colour,0.06
77,19,1,1,8,13,363,1143.783863266115,1145.1512758245226,"[56, 0, 198]",198,a,0.8504649745300412,colour,0.06
77,19,1,1,8,14,364,1147.1603122253437,1147.903341940255,"[29, 0, 225]",225,a,0.22602659882977605,colour,0.06
77,19,1,1,8,15,365,1149.9123925194144,1150.6953152815113,"[59, 0, 195]",195,l,0.26617013197392225,colour,0.06
77,19,1,1,8,16,366,1152.7042733069975,1153.3672944045393,"[72, 0, 182]",182,l,0.14611604902893305,colour,0.06
77,19,1,1,8,17,367,1155.3764174515381,1156.0712731148815,"[64, 0, 190]",190,l,0.17846773460041732,colour,0.06
77,19,1,1,8,18,368,1158.0804016755428,1158.775255369721,"[68, 0, 186]",186,l,0.17820031323935837,colour,0.06
77,19,1,1,8,19,369,1160.7827612853143,1161.4152636561776,"[89, 0, 165]",165,l,0.1161924236221239,colour,0.06
77,19,1,1,8,20,370,1163.4238932142034,1164.4233465560246,"[91, 0, 163]",163,l,0.48076062672771513,colour,0.06
77,19,1,1,8,21,371,1166.4315200404963,1167.5593218603171,"[95, 0, 159]",159,l,0.6111783712403849,colour,0.06
77,19,1,1,8,22,372,1169.567426815629,1171.271253895131,"[60, 0, 194]",194,a,1.1877073599025607,colour,0.06
77,19,1,1,8,23,373,1173.2803706405684,1173.887292325031,"[99, 0, 155]",155,l,0.09068026638124138,colour,0.06
77,19,1,1,8,24,374,1175.8963941043476,1178.039260924561,"[66, 0, 188]",188,l,1.6260432979324833,colour,0.06
77,19,1,1,8,25,375,1180.0484465929912,1180.7673244944308,"[98, 0, 156]",156,l,0.2019854560494423,colour,0.06
77,19,1,1,8,26,376,1182.7764554182068,1183.4952643966535,"[93, 0, 161]",161,l,0.20146833639591932,colour,0.06
77,19,1,1,8,27,377,1185.5044441573555,1186.1192230680026,"[87, 0, 167]",167,l,0.09819799731485546,colour,0.06
77,19,1,1,8,28,378,1188.1283677765168,1188.8632464561379,"[83, 0, 171]",171,l,0.21862544619943947,colour,0.06
77,19,1,1,8,29,379,1190.8732091826387,1191.6712615357246,"[26, 0, 228]",228,a,0.2812670337734744,colour,0.06
77,19,1,1,8,30,380,1193.6802703674184,1194.399228219525,"[82, 0, 172]",172,l,0.20196615753229707,colour,0.06
77,19,1,1,8,31,381,1196.4083603249164,1197.1272449217504,"[81, 0, 173]",173,l,0.20083542598877102,colour,0.06
77,19,1,1,8,32,382,1199.136200584122,1200.4632711109007,"[57, 0, 197]",197,a,0.810236370540224,colour,0.06
77,19,1,1,8,33,383,1202.4724386624293,1203.215256882133,"[96, 0, 158]",158,l,0.22564220521599054,colour,0.06
77,19,1,1,8,34,384,1205.2244267966598,1206.199245469994,"[63, 0, 191]",191,a,0.45628979813773185,colour,0.06
77,19,1,1,8,35,385,1208.2075922465883,1208.8632460623048,"[75, 0, 179]",179,l,0.13692053442355245,colour,0.06
77,19,1,1,8,36,386,1210.8718161495635,1211.607243850478,"[94, 0, 160]",160,l,0.219069704413414,colour,0.06
77,19,1,1,8,37,387,1213.615453962586,1214.7272809980204,"[62, 0, 192]",192,a,0.5953638821374625,colour,0.06
77,19,1,1,8,38,388,1216.736690764781,1217.5832279139431,"[69, 0, 185]",185,l,0.3289802856743336,colour,0.06
77,19,1,1,8,39,389,1219.5923068501288,1220.2472261431394,"[86, 0, 168]",168,l,0.13769719854462892,colour,0.06
77,19,1,1,8,40,390,1222.2558698796201,1224.0952626637882,"[61, 0, 193]",193,a,1.3231915383366868,colour,0.06
77,19,1,1,8,41,391,1226.104213600047,1226.7034174798755,"[74, 0, 180]",180,l,0.08122402592562139,colour,0.06
77,19,1,1,8,42,392,1228.7125448590377,1229.463291590917,"[73, 0, 181]",181,l,0.23368217574898154,colour,0.06
77,19,1,1,8,43,393,1231.472416213248,1232.3272469697986,"[58, 0, 196]",196,a,0.3378264589700848,colour,0.06
77,19,1,1,8,44,394,1234.336394435144,1235.087219148525,"[53, 0, 201]",201,a,0.23422253248281777,colour,0.06
77,19,1,1,8,45,395,1237.096802995191,1237.7112435922027,"[84, 0, 170]",170,l,0.09742802870459855,colour,0.06
77,19,1,1,8,46,396,1239.7204075990012,1240.5832050708123,"[70, 0, 184]",184,l,0.34623310004826635,colour,0.06
77,19,1,1,8,47,397,1242.591888191877,1243.9112543048104,"[90, 0, 164]",164,l,0.8025453474838287,colour,0.06
77,19,1,1,8,48,398,1245.9209547297796,1246.5752229955979,"[77, 0, 177]",177,l,0.1381729645654559,colour,0.06
77,19,1,1,8,49,399,1248.584122731816,1249.359265067731,"[80, 0, 174]",174,l,0.2583849795628339,colour,0.06
77,19,1,1,8,50,400,1251.3683680285467,1252.10321165598,"[97, 0, 157]",157,l,0.2180736680747941,colour,0.06
77,19,1,1,9,1,401,1260.7040925318142,1261.4712685461855,"[54, 0, 200]",200,a,0.24984364316333085,colour,0.06
77,19,1,1,9,2,402,1263.4803175501293,1264.2072113975883,"[97, 0, 157]",157,l,0.20918653486296535,colour,0.06
77,19,1,1,9,3,403,1266.2153644020436,1266.9752243346302,"[89, 0, 165]",165,l,0.24385954823810607,colour,0.06
77,19,1,1,9,4,404,1268.9839149387553,1269.6952089432161,"[78, 0, 176]",176,l,0.19487456802744418,colour,0.06
77,19,1,1,9,5,405,1271.7043414423242,1272.4392346943496,"[98, 0, 156]",156,l,0.2179799327859655,colour,0.06
77,19,1,1,9,6,406,1274.448979623965,1275.4232264331076,"[73, 0, 181]",181,l,0.45772260962985456,colour,0.06
77,19,1,1,9,7,407,1277.4321690985234,1278.0713235271396,"[15, 0, 239]",239,a,0.12302171194460243,colour,0.06
77,19,1,1,9,8,408,1280.080647829338,1280.7032181938412,"[91, 0, 163]",163,l,0.10591540823224932,colour,0.06
77,19,1,1,9,9,409,1282.712282557739,1283.3911965197185,"[50, 0, 204]",204,a,0.16261740552727133,colour,0.06
77,19,1,1,9,10,410,1285.399949351442,1286.2392417048104,"[69, 0, 185]",185,l,0.32228490500710905,colour,0.06
77,19,1,1,9,11,411,1288.2482887394726,1289.0474749749992,"[71, 0, 183]",183,l,0.2828715620562434,colour,0.06
77,19,1,1,9,12,412,1291.0564853820251,1291.8072494431399,"[92, 0, 162]",162,l,0.23377039725892246,colour,0.06
77,19,1,1,9,13,413,1293.8155832227785,1294.503225204302,"[52, 0, 202]",202,a,0.17084720986895263,colour,0.06
77,19,1,1,9,14,414,1296.5122316727648,1297.215178506798,"[93, 0, 161]",161,l,0.1859909794293344,colour,0.06
77,19,1,1,9,15,415,1299.2242708336562,1300.1912492163246,"[60, 0, 194]",194,a,0.44826085527893156,colour,0.06
77,19,1,1,9,16,416,1302.1998756234534,1302.9112023171037,"[81, 0, 173]",173,l,0.19472333113662899,colour,0.06
77,19,1,1,9,17,417,1304.920176096377,1305.6071690197568,"[82, 0, 172]",172,l,0.16966252133715898,colour,0.06
77,19,1,1,9,18,418,1307.6155697533395,1308.3672105154255,"[53, 0, 201]",201,a,0.23474989214446396,colour,0.06
77,19,1,1,9,19,419,1310.3763804299524,1312.1192077080486,"[59, 0, 195]",195,a,1.226514180074446,colour,0.06
77,19,1,1,9,20,420,1314.1283008226892,1314.8072226615623,"[80, 0, 174]",174,l,0.16133071086369455,colour,0.06
77,19,1,1,9,21,421,1316.8159613149473,1317.3671916107414,"[88, 0, 166]",166,l,0.03442843502853066,colour,0.06
77,19,1,1,9,22,422,1319.3763800361194,1320.0792457378702,"[33, 0, 221]",221,a,0.18640333611983806,colour,0.06
77,19,1,1,9,23,423,1322.0883471232373,1323.2711810336914,"[58, 0, 196]",196,a,0.6666373908519745,colour,0.06
77,19,1,1,9,24,424,1325.2799397731433,1325.9831839607796,"[51, 0, 203]",203,a,0.18711225874722004,colour,0.06
77,19,1,1,9,25,425,1327.9930159302894,1328.7512240731157,"[62, 0, 192]",192,l,0.24067569780163467,colour,0.06
77,19,1,1,9,26,426,1330.7608764489414,1331.575183611014,"[94, 0, 160]",160,l,0.2973583966959268,colour,0.06
77,19,1,1,9,27,427,1333.5849698944949,1334.1911598131992,"[79, 0, 175]",175,l,0.09005090058781207,colour,0.06
77,19,1,1,9,28,428,1336.1998980727512,1336.8312019704608,"[76, 0, 178]",178,l,0.11529130418784916,colour,0.06
77,19,1,1,9,29,429,1338.8400583837647,1339.5111745903268,"[96, 0, 158]",158,l,0.15471882547717541,colour,0.06
77,19,1,1,9,30,430,1341.5207513477653,1342.2471926662838,"[72, 0, 182]",182,l,0.2089474704116583,colour,0.06
77,19,1,1,9,31,431,1344.2562601809623,1345.0231577462982,"[57, 0, 197]",197,a,0.2505695011932403,colour,0.06
77,19,1,1,9,32,432,1347.032182331779,1347.6631388574606,"[83, 0, 171]",171,l,0.11448707082308829,colour,0.06
77,19,1,1,9,33,433,1349.6715766125126,1351.0791823286563,"[64, 0, 190]",190,a,0.8916171471355483,colour,0.06
77,19,1,1,9,34,434,1353.0884227416245,1353.9993024988798,"[68, 0, 186]",186,l,0.3947375883581117,colour,0.06
77,19,1,1,9,35,435,1356.0084062473616,1356.7271388196386,"[56, 0, 198]",198,a,0.19991658336948603,colour,0.06
77,19,1,1,9,36,436,1358.7361677373992,1359.4551610357594,"[77, 0, 177]",177,l,0.20269595412537456,colour,0.06
77,19,1,1,9,37,437,1361.464683836326,1363.1751251642127,"[63, 0, 191]",191,a,1.194262137520127,colour,0.06
77,19,1,1,9,38,438,1365.1846775031881,1365.8951692434493,"[99, 0, 155]",155,l,0.19408726994879544,colour,0.06
77,19,1,1,9,39,439,1367.9043627887731,1368.6872071755351,"[61, 0, 193]",193,a,0.26655216247309,colour,0.06
77,19,1,1,9,40,440,1370.6964952439303,1371.4631513818167,"[70, 0, 184]",184,l,0.25035800598561764,colour,0.06
77,19,1,1,9,41,441,1373.4722960902145,1374.3351282204967,"[66, 0, 188]",188,l,0.34677424433175474,colour,0.06
77,19,1,1,9,42,442,1376.3441189351724,1376.9831595423166,"[90, 0, 164]",164,l,0.12251483229920268,colour,0.06
77,19,1,1,9,43,443,1378.9930234133499,1379.943105018232,"[65, 0, 189]",189,a,0.4348043216159567,colour,0.06
77,19,1,1,9,44,444,1381.9521485082805,1382.7751620282652,"[67, 0, 187]",187,l,0.30597968387883157,colour,0.06
77,19,1,1,9,45,445,1384.784435524256,1385.535172016127,"[95, 0, 159]",159,l,0.2335222742985934,colour,0.06
77,19,1,1,9,46,446,1387.5442537092604,1388.3111662408337,"[84, 0, 170]",170,l,0.24992713856045157,colour,0.06
77,19,1,1,9,47,447,1390.338954433566,1390.983132366906,"[87, 0, 167]",167,l,0.12787231826223433,colour,0.06
77,19,1,1,9,48,448,1392.9921018138994,1393.7191441413015,"[85, 0, 169]",169,l,0.21007465745788068,colour,0.06
77,19,1,1,9,49,449,1395.7283176005585,1396.431109652971,"[9, 0, 245]",245,a,0.18631550832651556,colour,0.06
77,19,1,1,9,50,450,1398.440075555467,1399.1351486217463,"[86, 0, 168]",168,l,0.1785264175850898,colour,0.06
77,19,1,1,10,1,451,1406.4562409612117,1407.0791504271328,"[97, 0, 157]",157,l,0.10579213441815227,colour,0.06
77,19,1,1,10,2,452,1409.0883975354955,1409.7351059288485,"[82, 0, 172]",172,l,0.12971512344665825,colour,0.06
77,19,1,1,10,3,453,1411.744174231193,1412.463137991028,"[0, 0, 254]",254,a,0.20250808959826827,colour,0.06
77,19,1,1,10,4,454,1414.4712661831873,1415.1831568641355,"[79, 0, 175]",175,l,0.1948564510094002,colour,0.06
77,19,1,1,10,5,455,1417.1922822741326,1417.9191843924345,"[81, 0, 173]",173,l,0.21068787563126534,colour,0.06
77,19,1,1,10,6,456,1419.928346430068,1420.8470830195583,"[93, 0, 161]",161,l,0.4017732518259436,colour,0.06
77,19,1,1,10,7,457,1422.8561544726836,1423.4631316894665,"[89, 0, 165]",165,l,0.09097880159970373,colour,0.06
77,19,1,1,10,8,458,1425.4721866010223,1426.1671269412618,"[74, 0, 180]",180,l,0.1776264796499163,colour,0.06
77,19,1,1,10,9,459,1428.1765481295297,1428.9111290617147,"[85, 0, 169]",169,l,0.21726943471003324,colour,0.06
77,19,1,1,10,10,460,1430.9202851917362,1431.5991251106607,"[95, 0, 159]",159,l,0.16241851320955902,colour,0.06
77,19,1,1,10,11,461,1433.6082186191343,1434.3831081059761,"[75, 0, 179]",179,l,0.2559990610461682,colour,0.06
77,19,1,1,10,12,462,1436.391964913113,1437.1191135789268,"[54, 0, 200]",200,a,0.20943544548936188,colour,0.06
77,19,1,1,10,13,463,1439.1288364531938,1439.7671764083207,"[83, 0, 171]",171,l,0.1218189065111801,colour,0.06
77,19,1,1,10,14,464,1441.7763486859621,1442.5992314490722,"[58, 0, 196]",196,a,0.30673823109827936,colour,0.06
77,19,1,1,10,15,465,1444.6082930560224,1445.3191116884118,"[49, 0, 205]",205,a,0.1926871476462111,colour,0.06
77,19,1,1,10,16,466,1447.3281650246354,1447.9510859119473,"[50, 0, 204]",204,a,0.1058732665842399,colour,0.06
77,19,1,1,10,17,467,1449.9605256110663,1450.7030716831796,"[63, 0, 191]",191,l,0.2256134544732049,colour,0.06
77,19,1,1,10,18,468,1452.7121718869312,1453.423109854688,"[66, 0, 188]",188,l,0.19443936820607632,colour,0.06
77,19,1,1,10,19,469,1455.432339633815,1456.1751523396233,"[94, 0, 160]",160,l,0.22615578025579453,colour,0.06
77,19,1,1,10,20,470,1458.1843179218704,1458.7990861986764,"[98, 0, 156]",156,l,0.09868479089345783,colour,0.06
77,19,1,1,10,21,471,1460.8081340210047,1461.6470955439145,"[53, 0, 201]",201,a,0.3209174720104784,colour,0.06
77,19,1,1,10,22,472,1463.656164240092,1464.2951524656964,"[78, 0, 176]",176,l,0.12217573099769652,colour,0.06
77,19,1,1,10,23,473,1466.3042081649182,1466.9830890438752,"[86, 0, 168]",168,l,0.16292302997317165,colour,0.06
77,19,1,1,10,24,474,1468.9923546629725,1469.583103852463,"[80, 0, 174]",174,l,0.07484923582524061,colour,0.06
77,19,1,1,10,25,475,1471.5924509976758,1472.6070831613615,"[88, 0, 166]",166,l,0.4981827948940918,colour,0.06
77,19,1,1,10,26,476,1474.6157005100977,1475.3751004306832,"[70, 0, 184]",184,l,0.24251101980917156,colour,0.06
77,19,1,1,10,27,477,1477.3833928565728,1478.1671206397004,"[67, 0, 187]",187,l,0.2666900085750967,colour,0.06
77,19,1,1,10,28,478,1480.176287403563,1480.8871107620653,"[27, 0, 227]",227,a,0.19427828514017165,colour,0.06
77,19,1,1,10,29,479,1482.8960400368087,1483.7111155922757,"[55, 0, 199]",199,a,0.2988187773153186,colour,0.06
77,19,1,1,10,30,480,1485.7202496668324,1486.4151620439952,"[61, 0, 193]",193,a,0.17862251598853618,colour,0.06
77,19,1,1,10,31,481,1488.42519645032,1489.1991600054316,"[56, 0, 198]",198,a,0.25726803264115006,colour,0.06
77,19,1,1,10,32,482,1491.2080845540622,1491.8951129235793,"[87, 0, 167]",167,l,0.16805129765998572,colour,0.06
77,19,1,1,10,33,483,1493.904233213514,1494.439112208318,"[76, 0, 178]",178,l,0.018742339685559273,colour,0.06
77,19,1,1,10,34,484,1496.4482612489955,1497.079111830215,"[90, 0, 164]",164,l,0.1139624681090936,colour,0.06
77,19,1,1,10,35,485,1499.0882636278402,1499.7670779468026,"[62, 0, 192]",192,a,0.16251658089458942,colour,0.06
77,19,1,1,10,36,486,1501.7760442431318,1502.5190987702226,"[71, 0, 183]",183,l,0.22594861721154302,colour,0.06
77,19,1,1,10,37,487,1504.5281690418487,1505.127060601837,"[91, 0, 163]",163,l,0.08191049925517291,colour,0.06
77,19,1,1,10,38,488,1507.136105273501,1507.8151878014905,"[96, 0, 158]",158,l,0.1633684695698321,colour,0.06
77,19,1,1,10,39,489,1509.823658639565,1510.519088924164,"[77, 0, 177]",177,l,0.17811878712382168,colour,0.06
77,19,1,1,10,40,490,1512.527962666587,1513.143086586264,"[69, 0, 185]",185,l,0.09894236619584262,colour,0.06
77,19,1,1,10,41,491,1515.1520702117123,1515.8155627428787,"[92, 0, 162]",162,l,0.14588131697382778,colour,0.06
77,19,1,1,10,42,492,1517.8246783067007,1518.4630710372003,"[68, 0, 186]",186,l,0.11973231076262891,colour,0.06
77,19,1,1,10,43,493,1520.4717628228245,1521.0550592659274,"[99, 0, 155]",155,l,0.06650403456296772,colour,0.06
77,19,1,1,10,44,494,1523.0650499553885,1523.7510704732267,"[73, 0, 181]",181,l,0.16958060138858855,colour,0.06
77,19,1,1,10,45,495,1525.760182492435,1526.5911024692468,"[57, 0, 197]",197,a,0.3145584356971085,colour,0.06
77,19,1,1,10,46,496,1528.6000766424695,1529.199043820845,"[51, 0, 203]",203,a,0.0824095020070672,colour,0.06
77,19,1,1,10,47,497,1531.208217673935,1532.8070859970758,"[60, 0, 194]",194,a,1.0807328999508172,colour,0.06
77,19,1,1,10,48,498,1534.8160916778725,1535.5430678392295,"[72, 0, 182]",182,l,0.2095630515832454,colour,0.06
77,19,1,1,10,49,499,1537.5524386152392,1538.3510604695184,"[84, 0, 170]",170,l,0.2814769536489621,colour,0.06
77,19,1,1,10,50,500,1540.3601122304099,1541.3271760775242,"[59, 0, 195]",195,a,0.4507472044788301,colour,0.06
77,19,1,1,11,1,501,1549.8238618640462,1550.3670718816575,"[76, 0, 178]",178,l,0.024013179703615606,colour,0.06
77,19,1,1,11,2,502,1552.376308356179,1553.0151508587878,"[88, 0, 166]",166,l,0.12229900469537824,colour,0.06
77,19,1,1,11,3,503,1555.0247918131063,1555.751052356325,"[55, 0, 199]",199,a,0.20796955097466707,colour,0.06
77,19,1,1,11,4,504,1557.7601411386859,1558.5350357454736,"[66, 0, 188]",188,l,0.2581140137044713,colour,0.06
77,19,1,1,11,5,505,1560.544103653985,1561.159025136847,"[80, 0, 174]",174,l,0.09821532655041665,colour,0.06
77,19,1,1,11,6,506,1563.1680241222493,1563.7910930957878,"[54, 0, 200]",200,a,0.10672673082444817,colour,0.06
77,19,1,1,11,7,507,1565.8000487581594,1566.42304723314,"[69, 0, 185]",185,l,0.10659006622154266,colour,0.06
77,19,1,1,11,8,508,1568.4321190800983,1569.0790098240832,"[86, 0, 168]",168,l,0.13080922735389322,colour,0.06
77,19,1,1,11,9,509,1571.088089547935,1571.9110538371606,"[65, 0, 189]",189,a,0.306126588373445,colour,0.06
77,19,1,1,11,10,510,1573.9192552845925,1574.5430981653044,"[94, 0, 160]",160,l,0.10756601637694985,colour,0.06
77,19,1,1,11,11,511,1576.552117630723,1577.1270078265807,"[91, 0, 163]",163,l,0.05744163994677365,colour,0.06
77,19,1,1,11,12,512,1579.136451070197,1579.6790269957855,"[90, 0, 164]",164,l,0.02598910464439541,colour,0.06
77,19,1,1,11,13,513,1581.688238264178,1582.2710148306796,"[52, 0, 202]",202,a,0.0659278379753232,colour,0.06
77,19,1,1,11,14,514,1584.280137483729,1585.5510077729123,"[64, 0, 190]",190,l,0.754357511177659,colour,0.06
77,19,1,1,11,15,515,1587.5609492317308,1588.1831060580444,"[37, 0, 217]",217,a,0.10559284838382155,colour,0.06
77,19,1,1,11,16,516,1590.191999098868,1590.807087572408,"[96, 0, 158]",158,l,0.09679354273248464,colour,0.06
77,19,1,1,11,17,517,1592.8164047853788,1593.422981854761,"[77, 0, 177]",177,l,0.08934315957594663,colour,0.06
77,19,1,1,11,18,518,1595.4317591049476,1596.3990395673318,"[60, 0, 194]",194,l,0.45065149990841746,colour,0.06
77,19,1,1,11,19,519,1598.407562786946,1599.0070667774417,"[56, 0, 198]",198,a,0.08126183517742902,colour,0.06
77,19,1,1,11,20,520,1601.0165769748855,1601.8549839626066,"[61, 0, 193]",193,a,0.32155392691493034,colour,0.06
77,19,1,1,11,21,521,1603.864235009416,1604.7750505697913,"[63, 0, 191]",191,l,0.39373052422888577,colour,0.06
77,19,1,1,11,22,522,1606.7828057898441,1607.4630064464873,"[93, 0, 161]",161,l,0.16373789706267416,colour,0.06
77,19,1,1,11,23,523,1609.472189751803,1610.0390766046476,"[50, 0, 204]",204,a,0.05039494868833572,colour,0.06
77,19,1,1,11,24,524,1612.048248488456,1612.671024440555,"[87, 0, 167]",167,l,0.10534511937294155,colour,0.06
77,19,1,1,11,25,525,1614.6801400043769,1615.3509868204128,"[99, 0, 155]",155,l,0.1537928938632831,colour,0.06
77,19,1,1,11,26,526,1617.3608432083856,1617.8870453836862,"[95, 0, 159]",159,l,0.009130136109888554,colour,0.06
77,19,1,1,11,27,527,1619.8960049845045,1620.5269815963693,"[51, 0, 203]",203,a,0.11432086781132966,colour,0.06
77,19,1,1,11,28,528,1622.536012089462,1623.270995926112,"[73, 0, 181]",181,l,0.21832336648367345,colour,0.06
77,19,1,1,11,29,529,1625.2800315391505,1625.8790676407516,"[70, 0, 184]",184,l,0.08172775490675122,colour,0.06
77,19,1,1,11,30,530,1627.8882997828769,1628.4870164754102,"[89, 0, 165]",165,l,0.08086759538855404,colour,0.06
77,19,1,1,11,31,531,1630.496096199262,1631.423020845512,"[72, 0, 182]",182,l,0.41009521624073386,colour,0.06
77,19,1,1,11,32,532,1633.4325889382744,1634.0630173166282,"[53, 0, 201]",201,a,0.11409992026165128,colour,0.06
77,19,1,1,11,33,533,1636.0723152311984,1636.8554120730842,"[92, 0, 162]",162,l,0.26540252624545246,colour,0.06
77,19,1,1,11,34,534,1638.8641629356425,1639.5269906548783,"[79, 0, 175]",175,l,0.14661465806420892,colour,0.06
77,19,1,1,11,35,535,1641.536060532555,1642.1829800272826,"[78, 0, 176]",176,l,0.12999317853245884,colour,0.06
77,19,1,1,11,36,536,1644.192121191183,1644.8790223484393,"[85, 0, 169]",169,l,0.17018357943743467,colour,0.06
77,19,1,1,11,37,537,1646.8877074386692,1647.5670491172932,"[13, 0, 241]",241,a,0.1623365932609886,colour,0.06
77,19,1,1,11,38,538,1649.5761315980926,1650.1674491072772,"[82, 0, 172]",172,l,0.07416276237927377,colour,0.06
77,19,1,1,11,39,539,1652.1770502830623,1652.8630278717028,"[47, 0, 207]",207,a,0.16881575260777026,colour,0.06
77,19,1,1,11,40,540,1654.8721119278343,1655.454952297383,"[57, 0, 197]",197,l,0.06576754269190133,colour,0.06
77,19,1,1,11,41,541,1657.4640343843494,1658.2709947444964,"[58, 0, 196]",196,l,0.29023372393567115,colour,0.06
77,19,1,1,11,42,542,1660.2806435757084,1660.934998093755,"[81, 0, 173]",173,l,0.13774682313669473,colour,0.06
77,19,1,1,11,43,543,1662.944122322253,1663.5909642293118,"[98, 0, 156]",156,l,0.12993252626620233,colour,0.06
77,19,1,1,11,44,544,1665.5996855534613,1666.7510106086265,"[62, 0, 192]",192,l,0.6342786160530522,colour,0.06
77,19,1,1,11,45,545,1668.760077335639,1669.4069830457447,"[75, 0, 179]",179,l,0.13060324592515826,colour,0.06
77,19,1,1,11,46,546,1671.4163053786615,1672.0390001984779,"[59, 0, 195]",195,a,0.10656564775854349,colour,0.06
77,19,1,1,11,47,547,1674.0481133993017,1674.6469557285309,"[83, 0, 171]",171,l,0.08226377901155502,colour,0.06
77,19,1,1,11,48,548,1676.6564352060668,1677.3669702693587,"[71, 0, 183]",183,l,0.19453152816276997,colour,0.06
77,19,1,1,11,49,549,1679.376100799418,1679.8949766528094,"[74, 0, 180]",180,l,0.0018294142792001367,colour,0.06
77,19,1,1,11,50,550,1681.906164240092,1682.4470308744349,"[84, 0, 170]",170,l,0.024655148503370583,colour,0.06
77,19,1,1,12,1,551,1690.5191885671811,1691.2869659843855,"[55, 0, 199]",199,a,0.24995076935738325,colour,0.06
77,19,1,1,12,2,552,1693.2961965511786,1693.9189488724805,"[68, 0, 186]",186,l,0.10615486651659012,colour,0.06
77,19,1,1,12,3,553,1695.9285543806618,1696.6150234889938,"[73, 0, 181]",181,l,0.17027298244647682,colour,0.06
77,19,1,1,12,4,554,1698.624125268194,1699.2309870881727,"[87, 0, 167]",167,l,0.09067514643538743,colour,0.06
77,19,1,1,12,5,555,1701.2401065904414,1704.3749803077662,"[97, 0, 157]",157,l,2.6185952776577324,colour,0.06
77,19,1,1,12,6,556,1706.3835830842145,1707.110955060576,"[69, 0, 185]",185,l,0.21093521069269627,colour,0.06
77,19,1,1,12,7,557,1709.1199603476562,1709.7350204642862,"[90, 0, 164]",164,l,0.0974993146955967,colour,0.06
77,19,1,1,12,8,558,1711.744085222017,1712.318930125446,"[52, 0, 202]",202,a,0.058594820788130164,colour,0.06
77,19,1,1,12,9,559,1714.3280972831417,1714.9349850969156,"[81, 0, 173]",173,l,0.09035140508785844,colour,0.06
77,19,1,1,12,10,560,1716.9440364638576,1717.5749264295446,"[60, 0, 194]",194,a,0.11389354499988258,colour,0.06
77,19,1,1,12,11,561,1719.5835571690695,1720.239001852693,"[80, 0, 174]",174,l,0.13839469978120178,colour,0.06
77,19,1,1,12,12,562,1722.2475660322234,1722.871022943873,"[76, 0, 178]",178,l,0.10620094649493694,colour,0.06
77,19,1,1,12,13,563,1724.8799683663528,1725.4869254969526,"[59, 0, 195]",195,a,0.09043214342091233,colour,0.06
77,19,1,1,12,14,564,1727.4960367284948,1728.1029399023391,"[71, 0, 183]",183,l,0.09089333715382963,colour,0.06
77,19,1,1,12,15,565,1730.1119278600672,1730.6869826833718,"[91, 0, 163]",163,l,0.05832031008321792,colour,0.06
77,19,1,1,12,16,566,1732.6960954903625,1733.5670345450053,"[64, 0, 190]",190,a,0.3541395568754524,colour,0.06
77,19,1,1,12,17,567,1735.5761048166314,1736.2949165519094,"[99, 0, 155]",155,l,0.20229304966051131,colour,0.06
77,19,1,1,12,18,568,1738.3039576789597,1738.8629140502308,"[96, 0, 158]",158,l,0.04249479330610484,colour,0.06
77,19,1,1,12,19,569,1740.87210877717,1741.5269075533142,"[85, 0, 169]",169,l,0.13855696422979236,colour,0.06
77,19,1,1,12,20,570,1743.5366103415145,1744.1109842052683,"[88, 0, 166]",166,l,0.05777640896849334,colour,0.06
77,19,1,1,12,21,571,1746.1199048153358,1746.8709059716202,"[95, 0, 159]",159,l,0.2342469508294016,colour,0.06
77,19,1,1,12,22,572,1748.8799825448077,1749.543010337744,"[86, 0, 168]",168,l,0.14574110775720328,colour,0.06
77,19,1,1,12,23,573,1751.552088092314,1752.1989441778278,"[21, 0, 233]",233,a,0.13011684617958963,colour,0.06
77,19,1,1,12,24,574,1754.208016418619,1754.8229016676778,"[61, 0, 193]",193,a,0.09664466907270253,colour,0.06
77,19,1,1,12,25,575,1756.8316288994392,1757.7109816846205,"[65, 0, 189]",189,a,0.362575342762284,colour,0.06
77,19,1,1,12,26,576,1759.7199160793098,1760.406925150426,"[94, 0, 160]",160,l,0.1700839364202693,colour,0.06
77,19,1,1,12,27,577,1762.415863089729,1763.006926568225,"[92, 0, 162]",162,l,0.07493076182436198,colour,0.06
77,19,1,1,12,28,578,1765.015769196907,1765.6549571023788,"[72, 0, 182]",182,l,0.12267473374959081,colour,0.06
77,19,1,1,12,29,579,1767.6632180204615,1768.3589247849304,"[18, 0, 236]",236,a,0.1794984294101596,colour,0.06
77,19,1,1,12,30,580,1770.3677713519428,1770.8949345112778,"[77, 0, 177]",177,l,0.010446369182318449,colour,0.06
77,19,1,1,12,31,581,1772.9056132496335,1773.4389322206844,"[78, 0, 176]",176,l,0.0170235960977152,colour,0.06
77,19,1,1,12,32,582,1775.4486680919072,1776.110929854447,"[83, 0, 171]",171,l,0.14549062168225646,colour,0.06
77,19,1,1,12,33,583,1778.1197110431967,1778.8310263152234,"[79, 0, 175]",175,l,0.19473120803013444,colour,0.06
77,19,1,1,12,34,584,1780.8400930422358,1781.5269237010507,"[93, 0, 161]",161,l,0.17006148723885417,colour,0.06
77,19,1,1,12,35,585,1783.5361113386462,1784.1669245044468,"[53, 0, 201]",201,a,0.11447052925359458,colour,0.06
77,19,1,1,12,36,586,1786.17603022221,1786.806918612565,"[50, 0, 204]",204,a,0.11361903441138566,colour,0.06
77,19,1,1,12,37,587,1788.8161893517245,1789.4389219806762,"[56, 0, 198]",198,a,0.10533684852998704,colour,0.06
77,19,1,1,12,38,588,1791.4479276615893,1792.0629109782167,"[51, 0, 203]",203,a,0.09838231722824275,colour,0.06
77,19,1,1,12,39,589,1794.071597250062,1794.942917547538,"[63, 0, 191]",191,l,0.3544900798005983,colour,0.06
77,19,1,1,12,40,590,1796.952196163591,1797.502934545977,"[82, 0, 172]",172,l,0.03522557916585356,colour,0.06
77,19,1,1,12,41,591,1799.512015451328,1800.6629222421907,"[62, 0, 192]",192,l,0.6342538037570193,colour,0.06
77,19,1,1,12,42,592,1802.6721673813881,1803.2869864642853,"[84, 0, 170]",170,l,0.09778052067849785,colour,0.06
77,19,1,1,12,43,593,1805.2961201451253,1805.990869470057,"[36, 0, 218]",218,a,0.17778638110030442,colour,0.06
77,19,1,1,12,44,594,1808.0001165784197,1808.5668703112751,"[89, 0, 165]",165,l,0.05020747799426317,colour,0.06
77,19,1,1,12,45,595,1810.5760205335682,1811.2229026129935,"[74, 0, 180]",180,l,0.12898808380123228,colour,0.06
77,19,1,1,12,46,596,1813.2316424477613,1813.85489180265,"[66, 0, 188]",188,l,0.10656328476034105,colour,0.06
77,19,1,1,12,47,597,1815.863943169592,1816.5188994841883,"[67, 0, 187]",187,l,0.1373813342070207,colour,0.06
77,19,1,1,12,48,598,1818.5279295835644,1819.2469508448849,"[70, 0, 184]",184,l,0.20264908636454493,colour,0.06
77,19,1,1,12,49,599,1821.2567213744624,1821.958929747343,"[54, 0, 200]",200,a,0.18547661660704762,colour,0.06
77,19,1,1,12,50,600,1823.9677656806307,1824.534873874858,"[75, 0, 179]",179,l,0.05103494832292199,colour,0.06
77,19,1,1,13,1,601,1832.846651364467,1833.3909590305993,"[90, 0, 164]",164,l,0.026922125602141023,colour,0.06
77,19,1,1,13,2,602,1835.3992833580123,1836.086902102572,"[71, 0, 183]",183,l,0.1710220774402842,colour,0.06
77,19,1,1,13,3,603,1838.0961984416936,1838.6469872362213,"[35, 0, 219]",219,a,0.0331236234633252,colour,0.06
77,19,1,1,13,4,604,1840.656341864611,1841.3669206447667,"[63, 0, 191]",191,l,0.19422078365460038,colour,0.06
77,19,1,1,13,5,605,1843.3760007624514,1844.0068576452322,"[93, 0, 161]",161,l,0.11389315116684884,colour,0.06
77,19,1,1,13,6,606,1846.0159999905154,1846.7348542612744,"[84, 0, 170]",170,l,0.20268295716959983,colour,0.06
77,19,1,1,13,7,607,1848.7439422558527,1849.3828871584265,"[96, 0, 158]",158,l,0.12200992170255631,colour,0.06
77,19,1,1,13,8,608,1851.391970033059,1852.0149287296226,"[73, 0, 181]",181,l,0.10393948317505419,colour,0.06
77,19,1,1,13,9,609,1854.0241155796684,1854.6308659411734,"[60, 0, 194]",194,a,0.09056998952291906,colour,0.06
77,19,1,1,13,10,610,1856.6399117943365,1857.1748727089725,"[48, 0, 206]",206,a,0.01859464740846306,colour,0.06
77,19,1,1,13,11,611,1859.1836499592755,1859.8308746844996,"[53, 0, 201]",201,a,0.13103923329617828,colour,0.06
77,19,1,1,13,12,612,1861.839853583835,1862.4388723560842,"[50, 0, 204]",204,a,0.08242210512980819,colour,0.06
77,19,1,1,13,13,613,1864.447995796916,1865.0149535419187,"[58, 0, 196]",196,a,0.050633619306609035,colour,0.06
77,19,1,1,13,14,614,1867.0242353087524,1867.8388484891038,"[5, 0, 249]",249,a,0.2977522425353527,colour,0.06
77,19,1,1,13,15,615,1869.8476919053355,1870.510863452102,"[65, 0, 189]",189,l,0.1456229540053755,colour,0.06
77,19,1,1,13,16,616,1872.5197899698978,1873.4629158619791,"[98, 0, 156]",156,l,0.42711132927797735,colour,0.06
77,19,1,1,13,17,617,1875.4720798687777,1876.11097829754,"[82, 0, 172]",172,l,0.1223509922856465,colour,0.06
77,19,1,1,13,18,618,1878.120109221316,1878.8788655977696,"[52, 0, 202]",202,a,0.24239601683802903,colour,0.06
77,19,1,1,13,19,619,1880.8879595000762,1881.5428622516338,"[54, 0, 200]",200,a,0.13886613340582699,colour,0.06
77,19,1,1,13,20,620,1883.551756474073,1884.4388680238044,"[56, 0, 198]",198,a,0.37071889475919306,colour,0.06
77,19,1,1,13,21,621,1886.4479430215433,1887.3508663035464,"[61, 0, 193]",193,l,0.3866216054884717,colour,0.06
77,19,1,1,13,22,622,1889.3599090058124,1890.0388639278244,"[75, 0, 179]",179,l,0.16270208230707794,colour,0.06
77,19,1,1,13,23,623,1892.0472173998132,1892.678841494373,"[69, 0, 185]",185,l,0.11422240640968084,colour,0.06
77,19,1,1,13,24,624,1894.688846756122,1895.5428157778224,"[97, 0, 157]",157,l,0.33787214499898255,colour,0.06
77,19,1,1,13,25,625,1897.551998295472,1898.454833355965,"[51, 0, 203]",203,a,0.386084399651736,colour,0.06
77,19,1,1,13,26,626,1900.4638729075668,1901.0868650809862,"[68, 0, 186]",186,l,0.1061225711600855,colour,0.06
77,19,1,1,13,27,627,1903.0959314141655,1903.9348846662324,"[83, 0, 171]",171,l,0.3227807570947334,colour,0.06
77,19,1,1,13,28,628,1905.9439462731825,1906.51900149032,"[88, 0, 166]",166,l,0.05817183025646955,colour,0.06
77,19,1,1,13,29,629,1908.5288011645898,1909.0868512963643,"[95, 0, 159]",159,l,0.04174451681319624,colour,0.06
77,19,1,1,13,30,630,1911.0959920664318,1911.6788273159182,"[91, 0, 163]",163,l,0.0661479978589341,colour,0.06
77,19,1,1,13,31,631,1913.6879826581571,1914.390832999954,"[62, 0, 192]",192,a,0.1863131453283131,colour,0.06
77,19,1,1,13,32,632,1916.3998059915612,1917.006862765178,"[92, 0, 162]",162,l,0.0909189369995147,colour,0.06
77,19,1,1,13,33,633,1919.0155143785523,1919.75083377189,"[79, 0, 175]",175,l,0.21849823405500501,colour,0.06
77,19,1,1,13,34,634,1921.7599068003474,1922.3508277066285,"[89, 0, 165]",165,l,0.07399459020234644,colour,0.06
77,19,1,1,13,35,635,1924.359848353546,1924.9108490373474,"[78, 0, 176]",176,l,0.034677739604376256,colour,0.06
77,19,1,1,13,36,636,1926.920315517811,1927.5748460850446,"[76, 0, 178]",178,l,0.13740496500395238,colour,0.06
77,19,1,1,13,37,637,1929.5836954090046,1930.198820510297,"[80, 0, 174]",174,l,0.09922711679246277,colour,0.06
77,19,1,1,13,38,638,1932.2079211079981,1932.8548685658025,"[70, 0, 184]",184,l,0.1279140659607947,colour,0.06
77,19,1,1,13,39,639,1934.863862825092,1935.4948307722807,"[74, 0, 180]",180,l,0.1146816307445988,colour,0.06
77,19,1,1,13,40,640,1937.5034126748797,1938.0468286739197,"[85, 0, 169]",169,l,0.02714819321408868,colour,0.06
77,19,1,1,13,41,641,1940.0560509699862,1941.3668336048722,"[59, 0, 195]",195,a,0.7946857583010569,colour,0.06
77,19,1,1,13,42,642,1943.3759708302096,1944.0547835738398,"[99, 0, 155]",155,l,0.16233895637560636,colour,0.06
77,19,1,1,13,43,643,1946.0639389160788,1946.726813896792,"[94, 0, 160]",160,l,0.14676983328536153,colour,0.06
77,19,1,1,13,44,644,1948.7360074421158,1949.8948687390657,"[67, 0, 187]",187,a,0.6416734671220183,colour,0.06
77,19,1,1,13,45,645,1951.9040181736927,1952.4788122710306,"[86, 0, 168]",168,l,0.05859206384047866,colour,0.06
77,19,1,1,13,46,646,1954.4879684009356,1955.4467925976496,"[64, 0, 190]",190,a,0.4426134985405952,colour,0.06
77,19,1,1,13,47,647,1957.4558526291512,1958.0708284628345,"[81, 0, 173]",173,l,0.09733665641397238,colour,0.06
77,19,1,1,13,48,648,1960.0799203958595,1960.7988380758325,"[57, 0, 197]",197,a,0.20215284067671746,colour,0.06
77,19,1,1,13,49,649,1962.8079170119017,1963.4628280343022,"[72, 0, 182]",182,l,0.1376593894092366,colour,0.06
77,19,1,1,13,50,650,1965.4719884966034,1966.2708387816092,"[66, 0, 188]",188,l,0.2823922516545281,colour,0.06
77,19,1,1,14,1,651,1973.7910690711578,1974.7028389201732,"[75, 0, 179]",179,l,0.3929727647919208,colour,0.06
77,19,1,1,14,2,652,1976.7119292778661,1977.2787661122857,"[99, 0, 155]",155,l,0.04980181681457907,colour,0.06
77,19,1,1,14,3,653,1979.2886063526385,1979.8788589023752,"[80, 0, 174]",174,l,0.07390203641261905,colour,0.06
77,19,1,1,14,4,654,1981.8879693462513,1982.5347860471811,"[14, 0, 240]",240,a,0.13014559692237526,colour,0.06
77,19,1,1,14,5,655,1984.544369893847,1985.3988280721242,"[62, 0, 192]",192,l,0.33810490800533444,colour,0.06
77,19,1,1,14,6,656,1987.4079444236122,1988.006827712874,"[91, 0, 163]",163,l,0.08051195240113884,colour,0.06
77,19,1,1,14,7,657,1990.015814882936,1990.6307627535425,"[76, 0, 178]",178,l,0.09862335096113384,colour,0.06
77,19,1,1,14,8,658,1992.639805849758,1993.4627764404286,"[63, 0, 191]",191,l,0.30574849620461464,colour,0.06
77,19,1,1,14,9,659,1995.4723240532912,1996.0867599241901,"[88, 0, 166]",166,l,0.09724725340493023,colour,0.06
77,19,1,1,14,10,660,1998.0958715495653,1998.7347628889838,"[98, 0, 156]",156,l,0.12221669079735875,colour,0.06
77,19,1,1,14,11,661,2000.743518083822,2001.414761108812,"[56, 0, 198]",198,a,0.15499806229490787,colour,0.06
77,19,1,1,14,12,662,2003.423490703688,2004.0307538525667,"[55, 0, 199]",199,a,0.0896007347619161,colour,0.06
77,19,1,1,14,13,663,2006.0398871395737,2006.64678834402,"[41, 0, 213]",213,a,0.09096147236414254,colour,0.06
77,19,1,1,14,14,664,2008.6558401049115,2009.2708545353962,"[73, 0, 181]",181,l,0.09857727098278701,colour,0.06
77,19,1,1,14,15,665,2011.2796640809393,2011.8547846765723,"[90, 0, 164]",164,l,0.05877165752463043,colour,0.06
77,19,1,1,14,16,666,2013.863912055851,2014.7988920327043,"[71, 0, 183]",183,l,0.4180839868495241,colour,0.06
77,19,1,1,14,17,667,2016.8079642734956,2017.4067825782113,"[52, 0, 202]",202,a,0.07935168244875968,colour,0.06
77,19,1,1,14,18,668,2019.4158686036244,2020.3827280446421,"[96, 0, 158]",158,l,0.45006151869893074,colour,0.06
77,19,1,1,14,19,669,2022.3918341562385,2023.0387422294589,"[61, 0, 193]",193,a,0.1281984227243811,colour,0.06
77,19,1,1,14,20,670,2025.0478865440236,2025.6307678734884,"[92, 0, 162]",162,l,0.06633861921727657,colour,0.06
77,19,1,1,14,21,671,2027.6398097882047,2028.2707682831679,"[85, 0, 169]",169,l,0.11347252374980599,colour,0.06
77,19,1,1,14,22,672,2030.2798495823517,2031.134763046517,"[50, 0, 204]",204,a,0.33843534463085234,colour,0.06
77,19,1,1,14,23,673,2033.1436478167307,2033.7907350898022,"[82, 0, 172]",172,l,0.13050675368867815,colour,0.06
77,19,1,1,14,24,674,2035.7994355401024,2036.5347698994447,"[64, 0, 190]",190,l,0.2191201166715473,colour,0.06
77,19,1,1,14,25,675,2038.5438228418352,2039.2467562849633,"[68, 0, 186]",186,l,0.18520761979743838,colour,0.06
77,19,1,1,14,26,676,2041.256596131483,2041.830791583052,"[95, 0, 159]",159,l,0.05738768295850605,colour,0.06
77,19,1,1,14,27,677,2043.8399343222845,2044.590731860255,"[67, 0, 187]",187,l,0.2343064215965569,colour,0.06
77,19,1,1,14,28,678,2046.599437036668,2047.1988299625227,"[53, 0, 201]",201,a,0.08335945836734027,colour,0.06
77,19,1,1,14,29,679,2049.208013267955,2049.758753619506,"[54, 0, 200]",200,a,0.03207638720050454,colour,0.06
77,19,1,1,14,30,680,2051.7682181308046,2052.7187475385144,"[58, 0, 196]",196,a,0.43344043323304504,colour,0.06
77,19,1,1,14,31,681,2054.7279769238085,2055.358780637267,"[47, 0, 207]",207,a,0.11403296643402427,colour,0.06
77,19,1,1,14,32,682,2057.3669872047612,2057.98272670561,"[97, 0, 157]",157,l,0.09779351763427258,colour,0.06
77,19,1,1,14,33,683,2059.9921498631593,2060.5427374024875,"[79, 0, 175]",175,l,0.03190112579613924,colour,0.06
77,19,1,1,14,34,684,2062.5517741971416,2063.2147610300453,"[77, 0, 177]",177,l,0.14643742726184428,colour,0.06
77,19,1,1,14,35,685,2065.22395772615,2065.7427579612704,"[78, 0, 176]",176,l,0.002452872460708022,colour,0.06
77,19,1,1,14,36,686,2067.7563751839334,2068.382756007719,"[57, 0, 197]",197,a,0.11007166421040893,colour,0.06
77,19,1,1,14,37,687,2070.391868026927,2071.198835870251,"[70, 0, 184]",184,l,0.28892221697606146,colour,0.06
77,19,1,1,14,38,688,2073.2080278402427,2074.006713103736,"[60, 0, 194]",194,a,0.27994449925608933,colour,0.06
77,19,1,1,14,39,689,2076.0159558798186,2076.9587438520975,"[66, 0, 188]",188,l,0.4257880069781095,colour,0.06
77,19,1,1,14,40,690,2078.968020892702,2079.510750418296,"[86, 0, 168]",168,l,0.025995800038799644,colour,0.06
77,19,1,1,14,41,691,2081.520335840294,2082.166740972316,"[94, 0, 160]",160,l,0.1294311605161056,colour,0.06
77,19,1,1,14,42,692,2084.175945545314,2084.9347712385934,"[93, 0, 161]",161,l,0.24221839231904596,colour,0.06
77,19,1,1,14,43,693,2086.9439116147114,2087.534750601044,"[74, 0, 180]",180,l,0.07432384532876313,colour,0.06
77,19,1,1,14,44,694,2089.5439039741177,2090.2547068526037,"[84, 0, 170]",170,l,0.19452365126926452,colour,0.06
77,19,1,1,14,45,695,2092.2635002505267,2093.3827741246205,"[65, 0, 189]",189,a,0.60302851756569,colour,0.06
77,19,1,1,14,46,696,2095.3917609008495,2095.990730442456,"[83, 0, 171]",171,l,0.08032448182348162,colour,0.06
77,19,1,1,14,47,697,2097.9995525910053,2098.6307670858223,"[72, 0, 182]",182,l,0.11507587041705847,colour,0.06
77,19,1,1,14,48,698,2100.6398475974565,2101.2548190987436,"[59, 0, 195]",195,a,0.09894906159024686,colour,0.06
77,19,1,1,14,49,699,2103.2639299364528,2103.8467124105664,"[69, 0, 185]",185,l,0.06654735759366304,colour,0.06
77,19,1,1,14,50,700,2105.855828762171,2106.4147532319184,"[89, 0, 165]",165,l,0.04184455377981067,colour,0.06
77,19,1,1,15,1,701,2113.7673882974777,2114.5027230507694,"[73, 0, 181]",181,l,0.21793385280761868,colour,0.06
77,19,1,1,15,2,702,2116.5118527930463,2117.1426825003,"[63, 0, 191]",191,l,0.11380414199084044,colour,0.06
77,19,1,1,15,3,703,2119.151627528947,2120.03074991412,"[86, 0, 168]",168,l,0.3630767085123807,colour,0.06
77,19,1,1,15,4,704,2122.0398713856703,2122.622707029106,"[75, 0, 179]",179,l,0.06650245923083276,colour,0.06
77,19,1,1,15,5,705,2124.6317316144705,2126.2467413188424,"[65, 0, 189]",189,l,1.0985784524818882,colour,0.06
77,19,1,1,15,6,706,2128.2564492269885,2128.958678079769,"[67, 0, 187]",187,l,0.1862261053174734,colour,0.06
77,19,1,1,15,7,707,2130.9671721548075,2131.7587217179826,"[50, 0, 204]",204,a,0.27552160958293825,colour,0.06
77,19,1,1,15,8,708,2133.7673028329154,2134.4146882473724,"[58, 0, 196]",196,a,0.13116250711027533,colour,0.06
77,19,1,1,15,9,709,2136.4237652142765,2137.446711465367,"[89, 0, 165]",165,l,0.506573288468644,colour,0.06
77,19,1,1,15,10,710,2139.4558589307126,2140.8387232461246,"[13, 0, 241]",241,a,0.8660203129984438,colour,0.06
77,19,1,1,15,11,711,2142.8477104161866,2143.46271421283,"[15, 0, 239]",239,a,0.09829567116685212,colour,0.06
77,19,1,1,15,12,712,2145.471795118181,2146.350668199011,"[52, 0, 202]",202,a,0.3616123894462362,colour,0.06
77,19,1,1,15,13,713,2148.3593446246814,2149.174666727544,"[64, 0, 190]",190,l,0.2992067155428231,colour,0.06
77,19,1,1,15,14,714,2151.183356937836,2151.7827356853522,"[82, 0, 172]",172,l,0.08261824049986899,colour,0.06
77,19,1,1,15,15,715,2153.7922210705,2154.454685269855,"[81, 0, 173]",173,l,0.14452254842035472,colour,0.06
77,19,1,1,15,16,716,2156.4634755169973,2157.1026575147407,"[19, 0, 235]",235,a,0.12254279525950551,colour,0.06
77,19,1,1,15,17,717,2159.1120479831006,2160.766700248583,"[71, 0, 183]",183,l,1.1378976661944762,colour,0.06
77,19,1,1,15,18,718,2162.7760280953953,2163.382777669234,"[72, 0, 182]",182,l,0.0901796881807968,colour,0.06
77,19,1,1,15,19,719,2165.391702217865,2166.046703036991,"[77, 0, 177]",177,l,0.13702214672230184,colour,0.06
77,19,1,1,15,20,720,2168.0558890992543,2169.326691253227,"[62, 0, 192]",192,l,0.7540329822804779,colour,0.06
77,19,1,1,15,21,721,2171.3363518997794,2171.9346940447576,"[53, 0, 201]",201,l,0.08134375500958413,colour,0.06
77,19,1,1,15,22,722,2173.943639073288,2174.71869279386,"[68, 0, 186]",186,l,0.2582928197225556,colour,0.06
77,19,1,1,15,23,723,2176.727609465597,2177.3186816086527,"[78, 0, 176]",176,l,0.07406193774659187,colour,0.06
77,19,1,1,15,24,724,2179.3279925200623,2180.190668687341,"[59, 0, 195]",195,a,0.34597906935960054,colour,0.06
77,19,1,1,15,25,725,2182.199577482068,2182.7987644266104,"[76, 0, 178]",178,l,0.08259224658831954,colour,0.06
77,19,1,1,15,26,726,2184.8079898734577,2185.4466575084953,"[74, 0, 180]",180,l,0.11995601537637413,colour,0.06
77,19,1,1,15,27,727,2187.4558845306747,2188.046671529417,"[66, 0, 188]",188,l,0.07436165458057076,colour,0.06
77,19,1,1,15,28,728,2190.0558071793057,2190.7506927750073,"[56, 0, 198]",198,a,0.1785713160643354,colour,0.06
77,19,1,1,15,29,729,2192.7596649789484,2193.502666730783,"[54, 0, 200]",200,a,0.2259391649859026,colour,0.06
77,19,1,1,15,30,730,2195.511778356158,2196.1026858716505,"[85, 0, 169]",169,l,0.07383547641802579,colour,0.06
77,19,1,1,15,31,731,2198.1118368816096,2198.7506687503774,"[55, 0, 199]",199,a,0.1218051218893379,colour,0.06
77,19,1,1,15,32,732,2200.7606558952248,2201.3906282000244,"[91, 0, 163]",163,l,0.1136395144276321,colour,0.06
77,19,1,1,15,33,733,2203.399781966931,2203.9586646890966,"[97, 0, 157]",157,l,0.04221004282590002,colour,0.06
77,19,1,1,15,34,734,2205.968296978739,2206.6147119568195,"[60, 0, 194]",194,a,0.12946936348453164,colour,0.06
77,19,1,1,15,35,735,2208.623788530007,2209.286643424537,"[96, 0, 158]",158,l,0.1458108185324818,colour,0.06
77,19,1,1,15,36,736,2211.296371024917,2211.894662757637,"[95, 0, 159]",159,l,0.08215468376874924,colour,0.06
77,19,1,1,15,37,737,2213.9039090783335,2214.446690985351,"[88, 0, 166]",166,l,0.025864255498163402,colour,0.06
77,19,1,1,15,38,738,2216.454886919004,2217.1026342778932,"[79, 0, 175]",175,l,0.13138069782871753,colour,0.06
77,19,1,1,15,39,739,2219.1119597615907,2220.1426954972558,"[69, 0, 185]",185,l,0.513638490345329,colour,0.06
77,19,1,1,15,40,740,2222.151605079649,2223.5586909191916,"[61, 0, 193]",193,l,0.8902950063347816,colour,0.06
77,19,1,1,15,41,741,2225.5673468648456,2226.1746647583786,"[99, 0, 155]",155,l,0.09059204498771578,colour,0.06
77,19,1,1,15,42,742,2228.182936704252,2228.77464727161,"[92, 0, 162]",162,l,0.0753655678126961,colour,0.06
77,19,1,1,15,43,743,2230.7830007435987,2231.382626826293,"[90, 0, 164]",164,l,0.08235593908466399,colour,0.06
77,19,1,1,15,44,744,2233.391736876336,2234.094639993389,"[84, 0, 170]",170,l,0.18449987878557295,colour,0.06
77,19,1,1,15,45,745,2236.104012738564,2236.7426303551765,"[94, 0, 160]",160,l,0.12220723857171834,colour,0.06
77,19,1,1,15,46,746,2238.7515915314434,2239.3746561725857,"[87, 0, 167]",167,l,0.10557158081792295,colour,0.06
77,19,1,1,15,47,747,2241.3836728810566,2242.0466561693465,"[70, 0, 184]",184,a,0.14622790121939033,colour,0.06
77,19,1,1,15,48,748,2244.055683117942,2244.622721207561,"[83, 0, 171]",171,l,0.05012437654659152,colour,0.06
77,19,1,1,15,49,749,2246.6319222359452,2247.2787661122857,"[80, 0, 174]",174,l,0.1297009449917823,colour,0.06
77,19,1,1,15,50,750,2249.287873405381,2249.9266158710234,"[93, 0, 161]",161,l,0.12235847534611821,colour,0.06
77,19,1,1,16,1,751,2258.4148654780583,2259.102664997801,"[78, 0, 176]",176,l,0.17048368998803198,colour,0.06
77,19,1,1,16,2,752,2261.1123087090673,2261.822640547878,"[76, 0, 178]",178,l,0.19292227376718074,colour,0.06
77,19,1,1,16,3,753,2263.8310664874734,2264.4866041187197,"[88, 0, 166]",166,l,0.13767829409334809,colour,0.06
77,19,1,1,16,4,754,2266.495657060994,2267.230618054513,"[55, 0, 199]",199,a,0.21828949567861855,colour,0.06
77,19,1,1,16,5,755,2269.239348830888,2269.926616658806,"[99, 0, 155]",155,l,0.17097324063070118,colour,0.06
77,19,1,1,16,6,756,2271.9359787701396,2272.6066184231313,"[87, 0, 167]",167,l,0.15405125659890473,colour,0.06
77,19,1,1,16,7,757,2274.616290097474,2275.270578055526,"[92, 0, 162]",162,l,0.137437260360457,colour,0.06
77,19,1,1,16,8,758,2277.280432868167,2277.9907131132204,"[20, 0, 234]",234,a,0.19371469179168344,colour,0.06
77,19,1,1,16,9,759,2280.0004509536084,2280.654593582498,"[58, 0, 196]",196,a,0.13786143239121884,colour,0.06
77,19,1,1,16,10,760,2282.6636579463957,2283.6785973098595,"[64, 0, 190]",190,l,0.4982123333029449,colour,0.06
77,19,1,1,16,11,761,2285.68734974775,2286.310656210291,"[50, 0, 204]",204,a,0.10667513695079833,colour,0.06
77,19,1,1,16,12,762,2288.320115995477,2288.9106572343735,"[74, 0, 180]",180,l,0.07416709465906024,colour,0.06
77,19,1,1,16,13,763,2290.9198275427334,2291.9666432196973,"[65, 0, 189]",189,l,0.5297215824248269,colour,0.06
77,19,1,1,16,14,764,2293.9757339712232,2294.894752554479,"[66, 0, 188]",188,l,0.4000663235783577,colour,0.06
77,19,1,1,16,15,765,2296.903942555189,2297.46259448363,"[94, 0, 160]",160,l,0.04154720006044954,colour,0.06
77,19,1,1,16,16,766,2299.47187270585,2300.4866525616962,"[96, 0, 158]",158,l,0.49803746573161334,colour,0.06
77,19,1,1,16,17,767,2302.4957322856644,2303.3026158458088,"[63, 0, 191]",191,a,0.290446400642395,colour,0.06
77,19,1,1,16,18,768,2305.3117522835964,2305.8946202222724,"[51, 0, 203]",203,a,0.06677500053774565,colour,0.06
77,19,1,1,16,19,769,2307.9036534723127,2308.5346344164573,"[80, 0, 174]",174,l,0.1149963135831058,colour,0.06
77,19,1,1,16,20,770,2310.543709020363,2311.2225977762137,"[86, 0, 168]",168,l,0.1618935166625306,colour,0.06
77,19,1,1,16,21,771,2313.2317724169698,2313.9105954004917,"[89, 0, 165]",165,l,0.161591830663383,colour,0.06
77,19,1,1,16,22,772,2315.919617622858,2316.534557222738,"[98, 0, 156]",156,l,0.09821690199896693,colour,0.06
77,19,1,1,16,23,773,2318.543599531171,2319.1746001676656,"[91, 0, 163]",163,l,0.11329293006565422,colour,0.06
77,19,1,1,16,24,774,2321.182946156594,2321.87859226868,"[95, 0, 159]",159,l,0.1790108480490744,colour,0.06
77,19,1,1,16,25,775,2323.8873104419326,2324.5425708056428,"[62, 0, 192]",192,a,0.1387003242271021,colour,0.06
77,19,1,1,16,26,776,2326.5521148738917,2327.2385847698897,"[97, 0, 157]",157,l,0.1695490936981514,colour,0.06
77,19,1,1,16,27,777,2329.247582573793,2329.8545932674315,"[83, 0, 171]",171,l,0.08995834679808468,colour,0.06
77,19,1,1,16,28,778,2331.863521754509,2332.4786645787535,"[81, 0, 173]",173,l,0.09834923420567065,colour,0.06
77,19,1,1,16,29,779,2334.487826222554,2336.3825917739887,"[72, 0, 182]",182,l,1.3775911122793332,colour,0.06
77,19,1,1,16,30,780,2338.3917254547123,2339.1265974390553,"[85, 0, 169]",169,l,0.21630175528116524,colour,0.06
77,19,1,1,16,31,781,2341.1357098520966,2341.8065610004123,"[67, 0, 187]",187,a,0.15355855540838093,colour,0.06
77,19,1,1,16,32,782,2343.8157001950312,2344.4550184635445,"[54, 0, 200]",200,a,0.12242779228836298,colour,0.06
77,19,1,1,16,33,783,2346.464067861205,2347.094607304083,"[71, 0, 183]",183,l,0.1135682282038033,colour,0.06
77,19,1,1,16,34,784,2349.1036401602905,2349.782557666884,"[70, 0, 184]",184,l,0.16242048249114305,colour,0.06
77,19,1,1,16,35,785,2351.791653932305,2352.4386462885886,"[52, 0, 202]",202,a,0.1288120347307995,colour,0.06
77,19,1,1,16,36,786,2354.447782332427,2356.118695708341,"[61, 0, 193]",193,l,1.154121361207217,colour,0.06
77,19,1,1,16,37,787,2358.1269771065563,2358.7825694823405,"[84, 0, 170]",170,l,0.13954157917760313,colour,0.06
77,19,1,1,16,38,788,2360.792375064222,2361.326608545496,"[82, 0, 172]",172,l,0.016345787211321294,colour,0.06
77,19,1,1,16,39,789,2363.3360710876295,2363.9905725101708,"[60, 0, 194]",194,a,0.1382911183172837,colour,0.06
77,19,1,1,16,40,790,2365.9996904371073,2366.606547137024,"[59, 0, 195]",195,a,0.08991384226828814,colour,0.06
77,19,1,1,16,41,791,2368.615642220946,2369.238567440654,"[57, 0, 197]",197,a,0.10686969687230885,colour,0.06
77,19,1,1,16,42,792,2371.2476534660673,2371.9905843256274,"[11, 0, 243]",243,a,0.22608173720072955,colour,0.06
77,19,1,1,16,43,793,2373.999669957091,2374.73456675373,"[68, 0, 186]",186,l,0.2187274523312226,colour,0.06
77,19,1,1,16,44,794,2376.743590551545,2377.446596856229,"[53, 0, 201]",201,a,0.18664555135183036,colour,0.06
77,19,1,1,16,45,795,2379.4556407401105,2380.0225535867503,"[75, 0, 179]",179,l,0.0504496933426708,colour,0.06
77,19,1,1,16,46,796,2382.0317577659152,2382.7985635651276,"[79, 0, 175]",175,l,0.2502559998538345,colour,0.06
77,19,1,1,16,47,797,2384.8076873997925,2385.422523811925,"[73, 0, 181]",181,l,0.09825786191504449,colour,0.06
77,19,1,1,16,48,798,2387.431577541982,2388.1025523579447,"[56, 0, 198]",198,a,0.15409418591298163,colour,0.06
77,19,1,1,16,49,799,2390.111719515524,2390.7985379651655,"[15, 0, 239]",239,a,0.16959793050773442,colour,0.06
77,19,1,1,16,50,800,2392.807596421335,2393.4785456373356,"[90, 0, 164]",164,l,0.15291855589020997,colour,0.06
