id,age,condition,counterbalance,block,trialinblock,trial,tstart,tend,trialstim,trialintensity,response,RT,trialtype,colourfreq
15,20,1,2,Practice,1,NA,6.695394404232502e-06,1.5147592196590267,"[95, 0, 159]",159,l,0.6779737516480964,colour,0.5
15,20,1,2,Practice,2,NA,3.532387417857535,8.06675706768874,"[10, 0, 244]",244,a,4.0111765903711785,colour,0.5
15,20,1,2,Practice,3,NA,10.076104238716653,10.858836961910129,"[40, 0, 214]",214,a,0.25958928844192997,colour,0.5
15,20,1,2,Practice,4,NA,12.863780529558426,14.162769878748804,"[16, 0, 238]",238,a,0.7757769912132062,colour,0.5
15,20,1,2,Practice,5,NA,16.17690898629371,17.01880658842856,"[98, 0, 156]",156,l,0.3308818982623052,colour,0.5
15,20,1,2,Practice,6,NA,19.03978484927211,19.82678687403677,"[49, 0, 205]",205,a,0.26373492207494564,colour,0.5
15,20,1,2,Practice,7,NA,21.836910711339442,22.602801355009433,"[94, 0, 160]",160,l,0.24264126407797448,colour,0.5
15,20,1,2,Practice,8,NA,24.619349230837543,25.226803888217546,"[65, 0, 189]",189,a,0.08411193604115397,colour,0.5
15,20,1,2,Practice,9,NA,27.244587262131972,27.986788008303847,"[19, 0, 235]",235,a,0.21907818532781675,colour,0.5
15,20,1,2,Practice,10,NA,29.994784677954158,30.650769951200346,"[86, 0, 168]",168,l,0.13108646241016686,colour,0.5
15,20,1,2,1,1,1,6.30500260530971,7.1119837010337505,"[99, 0, 155]",155,l,0.2940572031366173,colour,0.5
15,20,1,2,1,2,2,9.122584487078711,10.48795478005195,"[38, 0, 216]",216,a,0.8429015181609429,colour,0.5
15,20,1,2,1,3,3,12.495507977961097,13.191935037291842,"[82, 0, 172]",172,l,0.17325566144427285,colour,0.5
15,20,1,2,1,4,4,15.187277796445414,15.975960760231828,"[71, 0, 183]",183,l,0.26523941761115566,colour,0.5
15,20,1,2,1,5,5,17.984388298500562,19.015988219238352,"[16, 0, 238]",238,a,0.508516350761056,colour,0.5
15,20,1,2,1,6,6,21.03145144044538,21.703969229507493,"[81, 0, 173]",173,l,0.14913056301884353,colour,0.5
15,20,1,2,1,7,7,23.719215834862553,24.423944795242278,"[8, 0, 246]",246,a,0.18142326068482362,colour,0.5
15,20,1,2,1,8,8,26.438205995364115,27.079974967084127,"[39, 0, 215]",215,a,0.11834551172796637,colour,0.5
15,20,1,2,1,9,9,29.094702088215854,29.663972490583546,"[84, 0, 170]",170,l,0.045937527203932405,colour,0.5
15,20,1,2,1,10,10,31.675274718145374,32.44800648430828,"[85, 0, 169]",169,l,0.24946111885947175,colour,0.5
15,20,1,2,1,11,11,34.45673767858534,35.015950803790474,"[20, 0, 234]",234,a,0.03593814556370489,colour,0.5
15,20,1,2,1,12,12,37.03511500530294,37.68003357152338,"[88, 0, 166]",166,l,0.12145375233376399,colour,0.5
15,20,1,2,1,13,13,39.69306872590096,40.5039894732472,"[12, 0, 242]",242,a,0.28771114628762007,colour,0.5
15,20,1,2,1,14,14,42.513280324143125,43.15205251399311,"[29, 0, 225]",225,a,0.11581780164851807,colour,0.5
15,20,1,2,1,15,15,45.16624833550304,46.32804738136474,"[63, 0, 191]",191,l,0.6385925955837592,colour,0.5
15,20,1,2,1,16,16,48.324942685401766,48.936058544553816,"[89, 0, 165]",165,l,0.08778495321166702,colour,0.5
15,20,1,2,1,17,17,50.94483266820316,51.744054190203315,"[1, 0, 253]",253,a,0.275913459219737,colour,0.5
15,20,1,2,1,18,18,53.74844715971267,54.57605638628593,"[65, 0, 189]",189,l,0.30415819730842486,colour,0.5
15,20,1,2,1,19,19,56.586529959749896,58.16004721439094,"[60, 0, 194]",194,a,1.0501595671230461,colour,0.5
15,20,1,2,1,20,20,60.17248253978323,60.96803537692176,"[17, 0, 237]",237,a,0.27231724219745956,colour,0.5
15,20,1,2,1,21,21,62.97777678878629,63.53602538263658,"[73, 0, 181]",181,l,0.034874364762799814,colour,0.5
15,20,1,2,1,22,22,65.55618916786625,66.24005172000034,"[44, 0, 210]",210,a,0.16059544941526838,colour,0.5
15,20,1,2,1,23,23,68.2595136698219,68.99205965048168,"[49, 0, 205]",205,a,0.20920168393058702,colour,0.5
15,20,1,2,1,24,24,71.00968666712288,71.74403567938134,"[33, 0, 221]",221,a,0.21101810631807894,colour,0.5
15,20,1,2,1,25,25,73.75993055690196,74.50407099959557,"[86, 0, 168]",168,l,0.22078748134663329,colour,0.5
15,20,1,2,1,26,26,76.52470306889154,77.36011007236084,"[40, 0, 214]",214,a,0.3237619320861995,colour,0.5
15,20,1,2,1,27,27,79.36076464608777,80.12009064783342,"[9, 0, 245]",245,a,0.23596516344696283,colour,0.5
15,20,1,2,1,28,28,82.12676280995947,83.36007935227826,"[67, 0, 187]",187,l,0.7100896119954996,colour,0.5
15,20,1,2,1,29,29,85.37828414249816,86.12011979249655,"[80, 0, 174]",174,l,0.21833026985405013,colour,0.5
15,20,1,2,1,30,30,88.12854378612246,88.88010273105465,"[93, 0, 161]",161,l,0.22827884525759146,colour,0.5
15,20,1,2,1,31,31,90.89570537407417,91.63215516626951,"[6, 0, 248]",248,a,0.21315590789890848,colour,0.5
15,20,1,2,1,32,32,93.64499024636461,94.50412968278397,"[90, 0, 164]",164,l,0.3357994719990529,colour,0.5
15,20,1,2,1,33,33,96.52279212322901,97.6802119842032,"[48, 0, 206]",206,a,0.634008216438815,colour,0.5
15,20,1,2,1,34,34,99.69498321620631,100.52810039318865,"[28, 0, 226]",226,a,0.30985676968703046,colour,0.5
15,20,1,2,1,35,35,102.53907887850073,103.12815702837543,"[7, 0, 247]",247,a,0.06583389028673992,colour,0.5
15,20,1,2,1,36,36,105.14932630499243,105.84011505058152,"[35, 0, 219]",219,a,0.16829830917413346,colour,0.5
15,20,1,2,1,37,37,107.85325851291418,108.89614648272982,"[69, 0, 185]",185,l,0.5204148626944516,colour,0.5
15,20,1,2,1,38,38,110.90833762296825,111.77614248124883,"[52, 0, 202]",202,a,0.3444763154257089,colour,0.5
15,20,1,2,1,39,39,113.78556881551049,114.72823808208341,"[83, 0, 171]",171,l,0.4194108285009861,colour,0.5
15,20,1,2,1,40,40,116.73805196181638,118.28014180067112,"[59, 0, 195]",195,a,1.018666378891794,colour,0.5
15,20,1,2,1,41,41,120.3007817469188,120.94431712245569,"[21, 0, 233]",233,a,0.1204419593559578,colour,0.5
15,20,1,2,1,42,42,122.95881226769416,123.55219437766937,"[15, 0, 239]",239,a,0.07015911812777631,colour,0.5
15,20,1,2,1,43,43,125.5684602590627,126.2321952598868,"[0, 0, 254]",254,a,0.14041197183541954,colour,0.5
15,20,1,2,1,44,44,128.2404187853972,129.00022173585603,"[43, 0, 211]",211,a,0.23634758888510987,colour,0.5
15,20,1,2,1,45,45,131.02199911227217,131.69628172978992,"[27, 0, 227]",227,a,0.15102299791760743,colour,0.5
15,20,1,2,1,46,46,133.70972372812685,134.28019418232725,"[32, 0, 222]",222,a,0.04719192991615273,colour,0.5
15,20,1,2,1,47,47,136.29018568704487,136.91225521915476,"[94, 0, 160]",160,l,0.09865709985024296,colour,0.5
15,20,1,2,1,48,48,138.93092671807972,139.6482213672134,"[61, 0, 193]",193,l,0.1939893432718236,colour,0.5
15,20,1,2,1,49,49,141.66660181319457,142.24022461881395,"[78, 0, 176]",176,l,0.05041084150434472,colour,0.5
15,20,1,2,1,50,50,144.26059241680196,145.4882064482954,"[50, 0, 204]",204,l,0.7042421654914506,colour,0.5
15,20,1,2,2,1,51,154.84636067642714,156.64824854265316,"[44, 0, 210]",210,l,1.2777381523919757,colour,0.5
15,20,1,2,2,2,52,158.66031404573005,159.4162750186224,"[78, 0, 176]",176,l,0.23297035080031492,colour,0.5
15,20,1,2,2,3,53,161.42583368549822,163.7362733487389,"[49, 0, 205]",205,l,1.787624303047778,colour,0.5
15,20,1,2,2,4,54,165.75547457186622,166.77630789697287,"[94, 0, 160]",160,l,0.4975110838422552,colour,0.5
15,20,1,2,2,5,55,168.7869815447193,169.5282693535264,"[39, 0, 215]",215,a,0.21805812156526372,colour,0.5
15,20,1,2,2,6,56,171.5372675761173,174.10430722901947,"[51, 0, 203]",203,l,2.043769399431767,colour,0.5
15,20,1,2,2,7,57,176.11567089671735,176.99229950332665,"[27, 0, 227]",227,a,0.3533071530109737,colour,0.5
15,20,1,2,2,8,58,179.00656818653806,180.11231256328756,"[42, 0, 212]",212,a,0.5824237108463421,colour,0.5
15,20,1,2,2,9,59,182.1308942650794,182.91228475768003,"[60, 0, 194]",194,a,0.2674815886421129,colour,0.5
15,20,1,2,2,10,60,184.9185563774372,185.5363168294425,"[53, 0, 201]",201,a,0.09435550286434591,colour,0.5
15,20,1,2,2,11,61,187.5387122069369,188.35235601247405,"[57, 0, 197]",197,a,0.29999996061087586,colour,0.5
15,20,1,2,2,12,62,190.37305897424812,191.14435634962865,"[93, 0, 161]",161,l,0.24801412492524832,colour,0.5
15,20,1,2,2,13,63,193.16444412237615,193.96032660943456,"[99, 0, 155]",155,l,0.27288871418568306,colour,0.5
15,20,1,2,2,14,64,195.96205441627535,196.68035573835368,"[28, 0, 226]",226,a,0.19501531473360956,colour,0.5
15,20,1,2,2,15,65,198.69663501056493,199.44847319298424,"[8, 0, 246]",246,a,0.22859116591280326,colour,0.5
15,20,1,2,2,16,66,201.4623228230048,202.19233164124307,"[76, 0, 178]",178,l,0.20678110024891794,colour,0.5
15,20,1,2,2,17,67,204.21261712518753,205.09637554414803,"[74, 0, 180]",180,l,0.36043539000093006,colour,0.5
15,20,1,2,2,18,68,207.10333836538484,207.82439149651327,"[45, 0, 209]",209,a,0.1976954436104279,colour,0.5
15,20,1,2,2,19,69,209.84024580780533,210.55234837185708,"[14, 0, 240]",240,a,0.18953572135069408,colour,0.5
15,20,1,2,2,20,70,212.55917019586195,213.29638877740945,"[21, 0, 233]",233,a,0.2139239095558878,colour,0.5
15,20,1,2,2,21,71,215.3105570296466,215.9763423979748,"[85, 0, 169]",169,l,0.1424599762831349,colour,0.5
15,20,1,2,2,22,72,217.97123735307832,218.64834936748957,"[20, 0, 234]",234,l,0.1538027700735256,colour,0.5
15,20,1,2,2,23,73,220.65895133509184,221.39240276999772,"[37, 0, 217]",217,a,0.21008823355077766,colour,0.5
15,20,1,2,2,24,74,223.4091672617069,224.24844499354367,"[22, 0, 232]",232,a,0.3159129550913349,colour,0.5
15,20,1,2,2,25,75,226.26879506840487,227.04839276944404,"[33, 0, 221]",221,a,0.25631996445008554,colour,0.5
15,20,1,2,2,26,76,229.06590832737857,229.80843557271874,"[4, 0, 250]",250,a,0.2191892501723487,colour,0.5
15,20,1,2,2,27,77,231.81747948154225,232.82441630889662,"[32, 0, 222]",222,a,0.4837051708600484,colour,0.5
15,20,1,2,2,28,78,234.83230270136846,235.97643140741275,"[66, 0, 188]",188,l,0.620861209492432,colour,0.5
15,20,1,2,2,29,79,237.99031175748678,239.12841893662699,"[91, 0, 163]",163,l,0.6148605564958416,colour,0.5
15,20,1,2,2,30,80,241.14676590560703,241.93644293924444,"[16, 0, 238]",238,a,0.266402447829023,colour,0.5
15,20,1,2,2,31,81,243.94392051853356,244.72845863641123,"[1, 0, 253]",253,a,0.26127731674932875,colour,0.5
15,20,1,2,2,32,82,246.74095737119205,247.53644207277102,"[77, 0, 177]",177,l,0.2727611077425536,colour,0.5
15,20,1,2,2,33,83,249.55372526097926,250.48042639452615,"[47, 0, 207]",207,a,0.40685774286976084,colour,0.5
15,20,1,2,2,34,84,252.4881690328184,253.14453476230847,"[75, 0, 179]",179,l,0.1330171004519798,colour,0.5
15,20,1,2,2,35,85,255.1603622919938,255.94452034751885,"[84, 0, 170]",170,l,0.2608771681843791,colour,0.5
15,20,1,2,2,36,86,257.9638582355692,258.9284978635842,"[59, 0, 195]",195,a,0.4415757503884379,colour,0.5
15,20,1,2,2,37,87,260.9482437771221,262.35248558814055,"[17, 0, 237]",237,a,0.8808427695767023,colour,0.5
15,20,1,2,2,38,88,264.3704627347761,265.0085193045961,"[73, 0, 181]",181,l,0.11473511622170918,colour,0.5
15,20,1,2,2,39,89,267.0270230246824,268.0085697170289,"[65, 0, 189]",189,l,0.45829337427858263,colour,0.5
15,20,1,2,2,40,90,270.02720616353326,270.6164694215113,"[96, 0, 158]",158,l,0.06601190913352184,colour,0.5
15,20,1,2,2,41,91,272.6389608425379,273.28859257590375,"[10, 0, 244]",244,a,0.12628979972214438,colour,0.5
15,20,1,2,2,42,92,275.29551758783055,280.40852017106954,"[86, 0, 168]",168,l,4.58973981285817,colour,0.5
15,20,1,2,2,43,93,282.4224662935885,283.20053074823227,"[63, 0, 191]",191,l,0.25478356730309315,colour,0.5
15,20,1,2,2,44,94,285.2083163158677,285.9205512125045,"[61, 0, 193]",193,l,0.18886736294371076,colour,0.5
15,20,1,2,2,45,95,287.9230328425183,288.56051400184515,"[7, 0, 247]",247,a,0.11426131826010533,colour,0.5
15,20,1,2,2,46,96,290.57941865819157,291.36874792492017,"[25, 0, 229]",229,a,0.2762222352612298,colour,0.5
15,20,1,2,2,47,97,293.3784109612461,294.2965730978176,"[98, 0, 156]",156,l,0.3948493476200383,colour,0.5
15,20,1,2,2,48,98,296.3048706665577,300.66464990741224,"[18, 0, 236]",236,a,3.836491658119485,colour,0.5
15,20,1,2,2,49,99,302.66578221757663,303.23262297775364,"[30, 0, 224]",224,a,0.04363037145230919,colour,0.5
15,20,1,2,2,50,100,305.2440748671652,305.896641942265,"[55, 0, 199]",199,l,0.1292668892419897,colour,0.5
15,20,1,2,3,1,101,314.16583243306377,314.79280142195057,"[7, 0, 247]",247,a,0.10281691196723841,colour,0.5
15,20,1,2,3,2,102,316.79511487926356,317.664606190403,"[55, 0, 199]",199,a,0.34623602384817787,colour,0.5
15,20,1,2,3,3,103,319.6756524174125,321.62466025771573,"[67, 0, 187]",187,l,1.426235803286545,colour,0.5
15,20,1,2,3,4,104,323.62970701325685,324.2486293139518,"[84, 0, 170]",170,l,0.09597539558308199,colour,0.5
15,20,1,2,3,5,105,326.2547634810908,326.9686025166011,"[10, 0, 244]",244,a,0.19055893586482853,colour,0.5
15,20,1,2,3,6,106,328.992169533798,329.6086200506834,"[51, 0, 203]",203,a,0.09350636872113682,colour,0.5
15,20,1,2,3,7,107,331.6174567959679,332.2326915071171,"[27, 0, 227]",227,a,0.09211569491890259,colour,0.5
15,20,1,2,3,8,108,334.24265859331354,334.84069321799325,"[85, 0, 169]",169,l,0.07484589752857573,colour,0.5
15,20,1,2,3,9,109,336.8522577476688,337.42464623675914,"[45, 0, 209]",209,a,0.04925608207122423,colour,0.5
15,20,1,2,3,10,110,339.4462081788515,339.9766535371309,"[29, 0, 225]",225,a,0.007200310996267945,colour,0.5
15,20,1,2,3,11,111,342.00888479463174,342.55269220029004,"[0, 0, 254]",254,a,0.02056117684696801,colour,0.5
15,20,1,2,3,12,112,344.57165120751597,345.12071410764474,"[24, 0, 230]",230,a,0.025808794365730137,colour,0.5
15,20,1,2,3,13,113,347.135609007586,347.6647204060282,"[32, 0, 222]",222,a,0.005927397432969883,colour,0.5
15,20,1,2,3,14,114,349.68266801413847,350.2246932621056,"[12, 0, 242]",242,a,0.017232381942449138,colour,0.5
15,20,1,2,3,15,115,352.2313508519146,354.9368730201677,"[62, 0, 192]",192,l,2.1822440378309693,colour,0.5
15,20,1,2,3,16,116,356.9516670953017,358.1127205887751,"[90, 0, 164]",164,l,0.6378647663223092,colour,0.5
15,20,1,2,3,17,117,360.1238377082627,360.8886830819538,"[91, 0, 163]",163,l,0.2416172618395649,colour,0.5
15,20,1,2,3,18,118,362.90658736688783,363.88869607890956,"[80, 0, 174]",174,l,0.4588908402074594,colour,0.5
15,20,1,2,3,19,119,365.9068402166595,367.0166758761334,"[71, 0, 183]",183,l,0.5865811598778237,colour,0.5
15,20,1,2,3,20,120,369.03220723284176,369.824729417247,"[16, 0, 238]",238,a,0.26954771002056077,colour,0.5
15,20,1,2,3,21,121,371.8445871833537,372.93675289684325,"[64, 0, 190]",190,l,0.5691490974859335,colour,0.5
15,20,1,2,3,22,122,374.9543271379953,375.74486472734134,"[65, 0, 189]",189,a,0.26719841265003197,colour,0.5
15,20,1,2,3,23,123,377.75317568687024,378.4247198861558,"[6, 0, 248]",248,a,0.1489974427386187,colour,0.5
15,20,1,2,3,24,124,380.44088612424093,381.1608116714051,"[28, 0, 226]",226,a,0.1969947897887323,colour,0.5
15,20,1,2,3,25,125,383.17549822630826,384.36873650335474,"[15, 0, 239]",239,a,0.6698849218373653,colour,0.5
15,20,1,2,3,26,126,386.3788658545236,387.33674470483675,"[22, 0, 232]",232,a,0.4345345535839442,colour,0.5
15,20,1,2,3,27,127,389.34482329463935,390.7127760424337,"[63, 0, 191]",191,a,0.8447459036833607,colour,0.5
15,20,1,2,3,28,128,392.71779562253505,393.9207694037468,"[3, 0, 251]",251,a,0.6798189248947892,colour,0.5
15,20,1,2,3,29,129,395.93685923554585,397.1287686727883,"[87, 0, 167]",167,l,0.6687128331686836,colour,0.5
15,20,1,2,3,30,130,399.1402800330834,399.840777107398,"[20, 0, 234]",234,a,0.17721618694486097,colour,0.5
15,20,1,2,3,31,131,401.85918236573343,402.7288115233241,"[57, 0, 197]",197,l,0.3463793841365259,colour,0.5
15,20,1,2,3,32,132,404.75011628333596,405.4487508551392,"[23, 0, 231]",231,a,0.17533399211242795,colour,0.5
15,20,1,2,3,33,133,407.46908596379217,408.5528202005662,"[8, 0, 246]",246,a,0.5606325498083606,colour,0.5
15,20,1,2,3,34,134,410.5646710570145,412.0648161896388,"[72, 0, 182]",182,l,0.9771462397475261,colour,0.5
15,20,1,2,3,35,135,414.0805295036698,415.70482860368793,"[2, 0, 252]",252,a,1.101012698811246,colour,0.5
15,20,1,2,3,36,136,417.721484393609,418.6648385601293,"[5, 0, 249]",249,a,0.42008903305395506,colour,0.5
15,20,1,2,3,37,137,420.67486944954726,421.9688226770668,"[50, 0, 204]",204,a,0.7706290169735439,colour,0.5
15,20,1,2,3,38,138,423.98777223197976,425.0888247093244,"[48, 0, 206]",206,a,0.5808463535795454,colour,0.5
15,20,1,2,3,39,139,427.08911064226413,427.93693130952306,"[73, 0, 181]",181,l,0.3243712133844383,colour,0.5
15,20,1,2,3,40,140,429.95512704126304,430.99284655682277,"[94, 0, 160]",160,l,0.5144240558729507,colour,0.5
15,20,1,2,3,41,141,433.0065729127091,433.7848894294293,"[98, 0, 156]",156,l,0.25508998025907204,colour,0.5
15,20,1,2,3,42,142,435.79991429889924,436.89686722276383,"[49, 0, 205]",205,a,0.5850490950106177,colour,0.5
15,20,1,2,3,43,143,438.9137798009324,439.94487008365104,"[1, 0, 253]",253,a,0.5078235738619696,colour,0.5
15,20,1,2,3,44,144,441.9609335276764,442.9368871986808,"[4, 0, 250]",250,a,0.452599134267075,colour,0.5
15,20,1,2,3,45,145,444.94563060221844,445.88889103315887,"[43, 0, 211]",211,a,0.4201315685349982,colour,0.5
15,20,1,2,3,46,146,447.8989447657077,448.80889637372456,"[61, 0, 193]",193,a,0.3868180194403976,colour,0.5
15,20,1,2,3,47,147,450.8210256799939,451.8169198249525,"[68, 0, 186]",186,l,0.4725325189647265,colour,0.5
15,20,1,2,3,48,148,453.83695954835275,454.80090285488404,"[70, 0, 184]",184,l,0.4406958961626515,colour,0.5
15,20,1,2,3,49,149,456.82155422269716,458.76910679831053,"[69, 0, 185]",185,l,1.4242618420976214,colour,0.5
15,20,1,2,3,50,150,460.77842521850835,461.51288647713955,"[75, 0, 179]",179,l,0.2097865467367228,colour,0.5
15,20,1,2,4,1,151,469.17642258523847,469.8489923621237,"[15, 0, 239]",239,a,0.14855554641690105,colour,0.5
15,20,1,2,4,2,152,471.86289437377127,472.52101351012243,"[1, 0, 253]",253,a,0.13484533823793754,colour,0.5
15,20,1,2,4,3,153,474.5349564818607,475.2809385531582,"[89, 0, 165]",165,l,0.22017977538052946,colour,0.5
15,20,1,2,4,4,154,477.2865717468958,478.2489566008153,"[61, 0, 193]",193,l,0.43907442802446894,colour,0.5
15,20,1,2,4,5,155,480.2579946019396,480.80097689811373,"[85, 0, 169]",169,l,0.01956592546775937,colour,0.5
15,20,1,2,4,6,156,482.82070311930147,483.70503379797447,"[86, 0, 168]",168,l,0.36098126193974167,colour,0.5
15,20,1,2,4,7,157,485.7139627034776,486.5370163017069,"[43, 0, 211]",211,a,0.2998187909834087,colour,0.5
15,20,1,2,4,8,158,488.557926820853,489.42493650200777,"[32, 0, 222]",222,a,0.3438071693526581,colour,0.5
15,20,1,2,4,9,159,491.4330450241978,492.6330283250718,"[51, 0, 203]",203,l,0.676664998056367,colour,0.5
15,20,1,2,4,10,160,494.645971713122,495.4330493565067,"[17, 0, 237]",237,a,0.26379951296257786,colour,0.5
15,20,1,2,4,11,161,497.43556840196834,498.16100465646014,"[98, 0, 156]",156,l,0.20230699822423048,colour,0.5
15,20,1,2,4,12,162,500.17019153173896,501.2570076213451,"[7, 0, 247]",247,a,0.563518266833853,colour,0.5
15,20,1,2,4,13,163,503.26564350465196,504.4890520378249,"[48, 0, 206]",206,a,0.7000921995786484,colour,0.5
15,20,1,2,4,14,164,506.4925954793289,507.33701685309643,"[92, 0, 162]",162,l,0.32177576163667254,colour,0.5
15,20,1,2,4,15,165,509.34551607150934,510.1210150067636,"[46, 0, 208]",208,a,0.25205972138792276,colour,0.5
15,20,1,2,4,16,166,512.1333865289344,512.8570059671765,"[47, 0, 207]",207,a,0.20028892616392113,colour,0.5
15,20,1,2,4,17,167,514.8679777570942,515.9210328874178,"[12, 0, 242]",242,a,0.5301495791645721,colour,0.5
15,20,1,2,4,18,168,517.9307620900217,518.505043801706,"[44, 0, 210]",210,a,0.05092756878002547,colour,0.5
15,20,1,2,4,19,169,520.5247645090276,521.3450729936303,"[55, 0, 199]",199,a,0.2970555603969842,colour,0.5
15,20,1,2,4,20,170,523.3539030435204,524.1450258895347,"[90, 0, 164]",164,l,0.2677872139320243,colour,0.5
15,20,1,2,4,21,171,526.166625247075,526.8571032473701,"[0, 0, 254]",254,a,0.16716914979042485,colour,0.5
15,20,1,2,4,22,172,528.8715594017704,530.369057882519,"[66, 0, 188]",188,l,0.9785967782663647,colour,0.5
15,20,1,2,4,23,173,532.3793546186644,533.0330965393805,"[3, 0, 251]",251,a,0.14069790477515198,colour,0.5
15,20,1,2,4,24,174,535.041481148306,535.9291248680092,"[88, 0, 166]",166,l,0.36447153412154876,colour,0.5
15,20,1,2,4,25,175,537.9354965248785,538.7290966685687,"[24, 0, 230]",230,a,0.2705405983433593,colour,0.5
15,20,1,2,4,26,176,540.7481947037741,541.6250942771148,"[80, 0, 174]",174,l,0.3536320767889265,colour,0.5
15,20,1,2,4,27,177,543.6390703320212,544.5610925630899,"[77, 0, 177]",177,l,0.3987283467722591,colour,0.5
15,20,1,2,4,28,178,546.576801150979,547.3211172494339,"[60, 0, 194]",194,l,0.2210568726877682,colour,0.5
15,20,1,2,4,29,179,549.3426945515675,550.2650869988429,"[67, 0, 187]",187,l,0.39911510454840027,colour,0.5
15,20,1,2,4,30,180,552.2803844104346,553.2091674192343,"[35, 0, 219]",219,a,0.4055218138091732,colour,0.5
15,20,1,2,4,31,181,555.218113260169,556.2650869988429,"[42, 0, 212]",212,a,0.5238204577763099,colour,0.5
15,20,1,2,4,32,182,558.2821712942969,559.5851857599046,"[68, 0, 186]",186,l,0.779735547490418,colour,0.5
15,20,1,2,4,33,183,561.5960492418963,562.6491260337934,"[99, 0, 155]",155,l,0.5295229685725644,colour,0.5
15,20,1,2,4,34,184,564.6480980931083,565.753136696032,"[84, 0, 170]",170,l,0.5818191556900274,colour,0.5
15,20,1,2,4,35,185,567.7631345022819,569.3131619337364,"[54, 0, 200]",200,a,1.0267095224699005,colour,0.5
15,20,1,2,4,36,186,571.3177600975323,571.9132949752675,"[40, 0, 214]",214,a,0.0801659828866832,colour,0.5
15,20,1,2,4,37,187,573.9201333408419,575.0171583387128,"[53, 0, 201]",201,a,0.5736629780440126,colour,0.5
15,20,1,2,4,38,188,577.0223512114899,577.6571522419399,"[49, 0, 205]",205,a,0.11178717136499472,colour,0.5
15,20,1,2,4,39,189,579.6715788578149,580.5931702202943,"[2, 0, 252]",252,a,0.3985164571204223,colour,0.5
15,20,1,2,4,40,190,582.6019368607958,583.2011628726614,"[11, 0, 243]",243,a,0.07589865053887479,colour,0.5
15,20,1,2,4,41,191,585.2037630506093,586.0011772087018,"[8, 0, 246]",246,a,0.2741316953615751,colour,0.5
15,20,1,2,4,42,192,588.0090860504424,589.4732134804362,"[59, 0, 195]",195,l,0.940332572296029,colour,0.5
15,20,1,2,4,43,193,591.4938967498601,592.4093830898637,"[58, 0, 196]",196,l,0.3764145507593639,colour,0.5
15,20,1,2,4,44,194,594.4158752639196,595.2571702801506,"[23, 0, 231]",231,a,0.3183666219410952,colour,0.5
15,20,1,2,4,45,195,597.2754479320429,597.809769926389,"[18, 0, 236]",236,a,0.011736640793969855,colour,0.5
15,20,1,2,4,46,196,599.814444102667,600.633269359445,"[76, 0, 178]",178,l,0.29570308976690285,colour,0.5
15,20,1,2,4,47,197,602.6423498960503,603.4652617093525,"[27, 0, 227]",227,a,0.29969866762985475,colour,0.5
15,20,1,2,4,48,198,605.4867429128208,606.6252466959122,"[52, 0, 202]",202,l,0.6167474774993025,colour,0.5
15,20,1,2,4,49,199,608.6441840415646,609.2814584312146,"[5, 0, 249]",249,a,0.1136969354993198,colour,0.5
15,20,1,2,4,50,200,611.3019617125683,612.0173981915286,"[70, 0, 184]",184,l,0.19332689262228087,colour,0.5
15,20,1,2,5,1,201,619.7086536458228,620.5053525777475,"[70, 0, 184]",184,l,0.2730308929749299,colour,0.4
15,20,1,2,5,2,202,622.5222545220458,623.129389375652,"[14, 0, 240]",240,a,0.08345972539973445,colour,0.4
15,20,1,2,5,3,203,625.147368885373,628.0813018376357,"[6, 0, 248]",248,a,2.409301563515328,colour,0.4
15,20,1,2,5,4,204,630.1008350737975,630.7855432154611,"[60, 0, 194]",194,l,0.16132367253885604,colour,0.4
15,20,1,2,5,5,205,632.80435137928,633.8093953778734,"[85, 0, 169]",169,l,0.4820360472367611,colour,0.4
15,20,1,2,5,6,206,635.8200044347032,636.7775040103588,"[52, 0, 202]",202,a,0.43440458408440463,colour,0.4
15,20,1,2,5,7,207,638.7977611373062,639.4334191788512,"[76, 0, 178]",178,l,0.11316209129290655,colour,0.4
15,20,1,2,5,8,208,641.4457591932733,642.3213133852405,"[54, 0, 200]",200,l,0.3524993727914989,colour,0.4
15,20,1,2,5,9,209,644.3303395709372,644.8813067213632,"[21, 0, 233]",233,a,0.028097439324483275,colour,0.4
15,20,1,2,5,10,210,646.8854113948473,647.4653404787532,"[20, 0, 234]",234,a,0.05679195068660192,colour,0.4
15,20,1,2,5,11,211,649.4792822689633,650.1533120367094,"[66, 0, 188]",188,l,0.15125103533500805,colour,0.4
15,20,1,2,5,12,212,652.1670446941571,652.7373513079947,"[24, 0, 230]",230,a,0.04693002166459337,colour,0.4
15,20,1,2,5,13,213,654.7468871317105,656.2573431789933,"[78, 0, 176]",176,l,0.9872015476867091,colour,0.4
15,20,1,2,5,14,214,658.2783399506297,659.6493517081253,"[99, 0, 155]",155,l,0.8476296514854766,colour,0.4
15,20,1,2,5,15,215,661.6693985207821,662.3773979867401,"[18, 0, 236]",236,a,0.18329482167609967,colour,0.4
15,20,1,2,5,16,216,664.38969979799,665.0333848353766,"[23, 0, 231]",231,a,0.12037106687785126,colour,0.4
15,20,1,2,5,17,217,667.0462340939848,667.6173650296114,"[69, 0, 185]",185,l,0.047827205125940964,colour,0.4
15,20,1,2,5,18,218,669.6156336781569,670.1853869369661,"[80, 0, 174]",174,l,0.046405811299337074,colour,0.4
15,20,1,2,5,19,219,672.1816603565821,673.2014023316442,"[22, 0, 232]",232,a,0.4965055924258195,colour,0.4
15,20,1,2,5,20,220,675.2130310583743,675.7773949147377,"[88, 0, 166]",166,l,0.041098722897004336,colour,0.4
15,20,1,2,5,21,221,677.7829524898261,678.4894033493474,"[62, 0, 192]",192,l,0.1831900583638344,colour,0.4
15,20,1,2,5,22,222,680.5018922379531,681.0813813947316,"[82, 0, 172]",172,l,0.056255531089846045,colour,0.4
15,20,1,2,5,23,223,683.0958544845635,683.7774086993595,"[43, 0, 211]",211,l,0.15830286598065868,colour,0.4
15,20,1,2,5,24,224,685.7991707157344,686.5534074264579,"[63, 0, 191]",191,l,0.23091486326302402,colour,0.4
15,20,1,2,5,25,225,688.5650054331054,689.1053922775318,"[87, 0, 167]",167,l,0.017794007784686983,colour,0.4
15,20,1,2,5,26,226,691.1121373013593,691.8173833828769,"[16, 0, 238]",238,a,0.1819238402240444,colour,0.4
15,20,1,2,5,27,227,693.8327993424318,694.4333983049728,"[17, 0, 237]",237,l,0.07758786040358245,colour,0.4
15,20,1,2,5,28,228,696.442893168598,697.1054541115009,"[31, 0, 223]",223,a,0.13919301534770057,colour,0.4
15,20,1,2,5,29,229,699.1150454676535,700.225449054502,"[57, 0, 197]",197,a,0.5874779494770337,colour,0.4
15,20,1,2,5,30,230,702.240228951152,702.78546287067,"[75, 0, 179]",179,l,0.021709634718718007,colour,0.4
15,20,1,2,5,31,231,704.7967969998426,705.3374363001785,"[1, 0, 253]",253,a,0.01734462834428996,colour,0.4
15,20,1,2,5,32,232,707.3420423409261,708.2094072720793,"[94, 0, 160]",160,l,0.34422149643069133,colour,0.4
15,20,1,2,5,33,233,710.2171621196321,711.3214843148307,"[59, 0, 195]",195,l,0.5809408768545836,colour,0.4
15,20,1,2,5,34,234,713.3281765631982,714.1694987548399,"[92, 0, 162]",162,l,0.3180279135121964,colour,0.4
15,20,1,2,5,35,235,716.1800203776511,716.9694390476507,"[98, 0, 156]",156,l,0.2660401086031925,colour,0.4
15,20,1,2,5,36,236,718.9720305609517,719.993530669075,"[27, 0, 227]",227,a,0.4982676639629062,colour,0.4
15,20,1,2,5,37,237,721.9941395565402,722.681492380827,"[73, 0, 181]",181,l,0.16402703837957233,colour,0.4
15,20,1,2,5,38,238,724.6974219168769,725.5534771373786,"[90, 0, 164]",164,l,0.3312454190745484,colour,0.4
15,20,1,2,5,39,239,727.5740981789713,728.1535290464235,"[96, 0, 158]",158,l,0.05596565970336087,colour,0.4
15,20,1,2,5,40,240,730.1681557365519,730.9615026366082,"[67, 0, 187]",187,l,0.2701325728558004,colour,0.4
15,20,1,2,5,41,241,732.981695960334,733.5775029863289,"[35, 0, 219]",219,a,0.07335991272702813,colour,0.4
15,20,1,2,5,42,242,735.5905058452918,736.5854842959379,"[71, 0, 183]",183,l,0.47174246187205426,colour,0.4
15,20,1,2,5,43,243,738.5934872671205,739.4575167079747,"[74, 0, 180]",180,l,0.3416496754507534,colour,0.4
15,20,1,2,5,44,244,741.4572378642915,742.3776402026415,"[64, 0, 190]",190,l,0.39700881074531935,colour,0.4
15,20,1,2,5,45,245,744.3878778617363,745.2575515240605,"[48, 0, 206]",206,a,0.34647587669314817,colour,0.4
15,20,1,2,5,46,246,747.2723093652457,748.3855269889464,"[2, 0, 252]",252,a,0.5902876540203579,colour,0.4
15,20,1,2,5,47,247,750.3904232949426,751.2655407105922,"[89, 0, 165]",165,l,0.35180698975455016,colour,0.4
15,20,1,2,5,48,248,753.2729529112694,754.2015378150099,"[47, 0, 207]",207,a,0.40512520985794254,colour,0.4
15,20,1,2,5,49,249,756.2108168505074,757.2495710021467,"[5, 0, 249]",249,a,0.5158163050364237,colour,0.4
15,20,1,2,5,50,250,759.258020201989,760.3375662696781,"[10, 0, 244]",244,a,0.5563648236275185,colour,0.4
15,20,1,2,6,1,251,770.371244521084,771.4415954427095,"[27, 0, 227]",227,a,0.5462583155895118,colour,0.28
15,20,1,2,6,2,252,773.4504904773785,774.2176304037275,"[58, 0, 196]",196,l,0.24384682974778116,colour,0.28
15,20,1,2,6,3,253,776.2220080131956,776.889593656233,"[59, 0, 195]",195,l,0.1442441032268107,colour,0.28
15,20,1,2,6,4,254,778.9114915498067,779.8575695622421,"[32, 0, 222]",222,a,0.42285659597837366,colour,0.28
15,20,1,2,6,5,255,781.8523778709932,782.8015901179169,"[31, 0, 223]",223,a,0.4260065843409393,colour,0.28
15,20,1,2,6,6,256,784.8213990469521,785.681610534928,"[72, 0, 182]",182,l,0.33699676691321656,colour,0.28
15,20,1,2,6,7,257,787.6966428874875,788.6896351677133,"[52, 0, 202]",202,a,0.4681950818921905,colour,0.28
15,20,1,2,6,8,258,790.6983194942004,791.5136076110066,"[51, 0, 203]",203,a,0.29188631841680035,colour,0.28
15,20,1,2,6,9,259,793.5261197365762,794.1936470902292,"[86, 0, 168]",168,l,0.14425001092604361,colour,0.28
15,20,1,2,6,10,260,796.2138782232942,797.1376601628144,"[98, 0, 156]",156,l,0.4005459507170599,colour,0.28
15,20,1,2,6,11,261,799.1515334236319,800.02571112031,"[28, 0, 226]",226,a,0.35086963389767334,colour,0.28
15,20,1,2,6,12,262,802.0424062949314,802.9456506884308,"[55, 0, 199]",199,a,0.38032939002732746,colour,0.28
15,20,1,2,6,13,263,804.9645384093456,805.8576467562525,"[18, 0, 236]",236,a,0.36981328108231537,colour,0.28
15,20,1,2,6,14,264,807.8723636373761,808.7056497746962,"[99, 0, 155]",155,l,0.3101714534277562,colour,0.28
15,20,1,2,6,15,265,810.715660577931,811.5776416204753,"[71, 0, 183]",183,l,0.33872733064345084,colour,0.28
15,20,1,2,6,16,266,813.5887701615284,814.5457246528822,"[56, 0, 198]",198,l,0.43368975174962543,colour,0.28
15,20,1,2,6,17,267,816.5468396337528,817.4256950513518,"[77, 0, 177]",177,l,0.35559067796566524,colour,0.28
15,20,1,2,6,18,268,819.4376833603892,820.2977227372176,"[65, 0, 189]",189,l,0.3366608154028654,colour,0.28
15,20,1,2,6,19,269,822.3128074714332,823.1857366730983,"[91, 0, 163]",163,l,0.34943996925721876,colour,0.28
15,20,1,2,6,20,270,825.2038331553631,826.0657153423526,"[68, 0, 186]",186,l,0.33919955321471207,colour,0.28
15,20,1,2,6,21,271,828.0790336727223,828.9217910428997,"[81, 0, 173]",173,l,0.31960960308788344,colour,0.28
15,20,1,2,6,22,272,830.9386815656326,831.9297810171265,"[43, 0, 211]",211,a,0.467995795304887,colour,0.28
15,20,1,2,6,23,273,833.9388540706132,834.777702903084,"[78, 0, 176]",176,l,0.31557267127209343,colour,0.28
15,20,1,2,6,24,274,836.7984117725573,837.6657845806621,"[76, 0, 178]",178,l,0.34397967436234467,colour,0.28
15,20,1,2,6,25,275,839.6737009054923,840.585748567275,"[37, 0, 217]",217,a,0.3886856419558171,colour,0.28
15,20,1,2,6,26,276,842.5968156681629,843.4978813000198,"[64, 0, 190]",190,l,0.37777686753543094,colour,0.28
15,20,1,2,6,27,277,845.5163917155005,846.4097399152524,"[23, 0, 231]",231,a,0.37009606321225874,colour,0.28
15,20,1,2,6,28,278,848.4155629432353,849.2657663849241,"[74, 0, 180]",180,l,0.3269044373591896,colour,0.28
15,20,1,2,6,29,279,851.2751927191857,852.1297792842088,"[90, 0, 164]",164,l,0.33131000999128446,colour,0.28
15,20,1,2,6,30,280,854.1503629103245,855.2898056246922,"[4, 0, 250]",250,a,0.6161236238549463,colour,0.28
15,20,1,2,6,31,281,857.3091781712719,858.5778290916642,"[53, 0, 201]",201,a,0.7453609745716676,colour,0.28
15,20,1,2,6,32,282,860.5906385717099,861.4099037556152,"[96, 0, 158]",158,l,0.29597366266534664,colour,0.28
15,20,1,2,6,33,283,863.4190232830588,864.2578213092347,"[95, 0, 159]",159,l,0.3155990590166766,colour,0.28
15,20,1,2,6,34,284,866.2808759314939,867.145804525062,"[20, 0, 234]",234,a,0.34170638941577636,colour,0.28
15,20,1,2,6,35,285,869.1560815688572,870.2978026881465,"[54, 0, 200]",200,a,0.6185780783707742,colour,0.28
15,20,1,2,6,36,286,872.3126101540693,873.1138525050774,"[60, 0, 194]",194,l,0.27801896529854275,colour,0.28
15,20,1,2,6,37,287,875.1254103393585,875.9378170714481,"[85, 0, 169]",169,l,0.2892676296760328,colour,0.28
15,20,1,2,6,38,288,877.9535508655244,878.7618403210363,"[88, 0, 166]",166,l,0.2852247901610099,colour,0.28
15,20,1,2,6,39,289,880.7833542137814,881.7299308365327,"[62, 0, 192]",192,l,0.42314883045037277,colour,0.28
15,20,1,2,6,40,290,883.737183529156,884.6418843688734,"[93, 0, 161]",161,l,0.38165862363530323,colour,0.28
15,20,1,2,6,41,291,886.6593187943508,887.5698158804735,"[44, 0, 210]",210,a,0.3858743620221503,colour,0.28
15,20,1,2,6,42,292,889.5827683269745,890.713898900256,"[80, 0, 174]",174,l,0.608755140186986,colour,0.28
15,20,1,2,6,43,293,892.7226556946116,893.9298503341852,"[63, 0, 191]",191,l,0.6838385274459142,colour,0.28
15,20,1,2,6,44,294,895.9430505104829,896.6578690434981,"[3, 0, 251]",251,a,0.1916160212131217,colour,0.28
15,20,1,2,6,45,295,898.6775259476271,899.8018941677874,"[25, 0, 229]",229,a,0.6011570437403861,colour,0.28
15,20,1,2,6,46,296,901.8184944253007,902.7378896968439,"[67, 0, 187]",187,l,0.39621442134375684,colour,0.28
15,20,1,2,6,47,297,904.7560964562872,905.6419462028716,"[6, 0, 248]",248,a,0.3625306560716126,colour,0.28
15,20,1,2,6,48,298,907.6625798475579,908.2099405409244,"[70, 0, 184]",184,l,0.02148711116751656,colour,0.28
15,20,1,2,6,49,299,910.2279535276175,911.7058935659879,"[50, 0, 204]",204,l,0.9547391019586939,colour,0.28
15,20,1,2,6,50,300,913.7125948728062,915.7138827525196,"[66, 0, 188]",188,l,1.4763004532724153,colour,0.28
15,20,1,2,7,1,301,924.964290679578,926.7939167966542,"[88, 0, 166]",166,l,1.305509880243335,colour,0.14
15,20,1,2,7,2,302,928.8091086572676,929.6179302000673,"[66, 0, 188]",188,l,0.28541816901997663,colour,0.14
15,20,1,2,7,3,303,931.637481947022,932.3859393467719,"[95, 0, 159]",159,l,0.22361372745945118,colour,0.14
15,20,1,2,7,4,304,934.4048739354766,935.2819582230586,"[93, 0, 161]",161,l,0.353717147721909,colour,0.14
15,20,1,2,7,5,305,937.2957806776394,938.2179356351553,"[49, 0, 205]",205,a,0.39882523313281126,colour,0.14
15,20,1,2,7,6,306,940.2334929857752,941.16200305862,"[7, 0, 247]",247,a,0.4052291854750365,colour,0.14
15,20,1,2,7,7,307,943.1712620079052,944.3859842453385,"[56, 0, 198]",198,a,0.6914035407826304,colour,0.14
15,20,1,2,7,8,308,946.3920435815235,947.498014026467,"[63, 0, 191]",191,l,0.5827699023648165,colour,0.14
15,20,1,2,7,9,309,949.517180591065,950.4179732869379,"[96, 0, 158]",158,l,0.37578912172466516,colour,0.14
15,20,1,2,7,10,310,952.4193257575389,953.2740249627968,"[79, 0, 175]",175,l,0.3423345753981266,colour,0.14
15,20,1,2,7,11,311,955.2858699115459,956.1299840846332,"[70, 0, 184]",184,l,0.32614116184413433,colour,0.14
15,20,1,2,7,12,312,958.1459049560362,959.0260108378716,"[74, 0, 180]",180,l,0.35716921676066704,colour,0.14
15,20,1,2,7,13,313,961.0367640427139,961.8659675619565,"[85, 0, 169]",169,l,0.30611443537054583,colour,0.14
15,20,1,2,7,14,314,963.8806919261697,964.6980438012979,"[82, 0, 172]",172,l,0.2944864963646978,colour,0.14
15,20,1,2,7,15,315,966.7105460806924,967.634060991928,"[87, 0, 167]",167,l,0.4004596982267685,colour,0.14
15,20,1,2,7,16,316,969.6482079764246,970.5460361858713,"[61, 0, 193]",193,l,0.37453708206885494,colour,0.14
15,20,1,2,7,17,317,972.5546882169147,973.4739775436174,"[83, 0, 171]",171,l,0.3960029254958499,colour,0.14
15,20,1,2,7,18,318,975.4924068266118,976.4580027151678,"[50, 0, 204]",204,a,0.4422803426568862,colour,0.14
15,20,1,2,7,19,319,978.4806741242937,979.4740555253229,"[99, 0, 155]",155,l,0.47012256912421435,colour,0.14
15,20,1,2,7,20,320,981.480901374016,982.5140254826983,"[65, 0, 189]",189,l,0.5098755167855415,colour,0.14
15,20,1,2,7,21,321,984.5280401345808,985.6180294495134,"[64, 0, 190]",190,l,0.5667848339071497,colour,0.14
15,20,1,2,7,22,322,987.636214153521,988.4741094823694,"[47, 0, 207]",207,a,0.31466642930172384,colour,0.14
15,20,1,2,7,23,323,990.4974283759657,991.370174832613,"[53, 0, 201]",201,a,0.34936710755573586,colour,0.14
15,20,1,2,7,24,324,993.3882776164392,994.2580666759459,"[55, 0, 199]",199,a,0.3463648118195124,colour,0.14
15,20,1,2,7,25,325,996.2791575769952,997.0820859870291,"[98, 0, 156]",156,l,0.2805065029824618,colour,0.14
15,20,1,2,7,26,326,999.0918813559401,999.8660553898662,"[60, 0, 194]",194,a,0.25085533724632114,colour,0.14
15,20,1,2,7,27,327,1001.8733963042032,1002.4821006381535,"[0, 0, 254]",254,a,0.08547070823260583,colour,0.14
15,20,1,2,7,28,328,1004.4985528091784,1005.322116439289,"[81, 0, 173]",173,l,0.30014489631867036,colour,0.14
15,20,1,2,7,29,329,1007.3425878190319,1008.1541229677096,"[51, 0, 203]",203,a,0.288226298202062,colour,0.14
15,20,1,2,7,30,330,1010.1709036071261,1011.1941839037172,"[72, 0, 182]",182,l,0.5002018465893343,colour,0.14
15,20,1,2,7,31,331,1013.2038268538308,1014.0581022796978,"[54, 0, 200]",200,a,0.3311934312514495,colour,0.14
15,20,1,2,7,32,332,1016.0791341037257,1016.9221195112914,"[52, 0, 202]",202,a,0.31968837248859927,colour,0.14
15,20,1,2,7,33,333,1018.9387059841538,1019.7301013722899,"[73, 0, 181]",181,l,0.2681054423155729,colour,0.14
15,20,1,2,7,34,334,1021.7515089263325,1022.5861014541879,"[68, 0, 186]",186,l,0.30903205400682054,colour,0.14
15,20,1,2,7,35,335,1024.5981645941793,1025.4181646965735,"[69, 0, 185]",185,l,0.2993032452650368,colour,0.14
15,20,1,2,7,36,336,1027.4395037212525,1028.2901919886062,"[84, 0, 170]",170,l,0.32770827910280786,colour,0.14
15,20,1,2,7,37,337,1030.2992248696974,1031.1941149804916,"[28, 0, 226]",226,a,0.37166278663789853,colour,0.14
15,20,1,2,7,38,338,1033.206810638745,1034.0662052880216,"[94, 0, 160]",160,l,0.3360684695071541,colour,0.14
15,20,1,2,7,39,339,1036.0820249407552,1036.9221549575159,"[75, 0, 179]",179,l,0.31679635390173644,colour,0.14
15,20,1,2,7,40,340,1038.943131642969,1039.77822120575,"[86, 0, 168]",168,l,0.31189453406841494,colour,0.14
15,20,1,2,7,41,341,1041.7859280039847,1042.6421852679923,"[77, 0, 177]",177,l,0.3330480568110943,colour,0.14
15,20,1,2,7,42,342,1044.6624723273271,1045.5142708493804,"[97, 0, 157]",157,l,0.3284597391902935,colour,0.14
15,20,1,2,7,43,343,1047.5219784353103,1048.0982447420538,"[76, 0, 178]",178,l,0.05390583985717967,colour,0.14
15,20,1,2,7,44,344,1050.1159997589712,1050.9462138896342,"[6, 0, 248]",248,a,0.3069805049453862,colour,0.14
15,20,1,2,7,45,345,1052.9600087749131,1053.8102153673535,"[90, 0, 164]",164,l,0.32691743431496434,colour,0.14
15,20,1,2,7,46,346,1055.8196424893104,1056.434275402251,"[91, 0, 163]",163,l,0.09143040113849565,colour,0.14
15,20,1,2,7,47,347,1058.445447266451,1059.6021991629095,"[62, 0, 192]",192,l,0.6336253971385304,colour,0.14
15,20,1,2,7,48,348,1061.6178077136574,1062.7542461630364,"[57, 0, 197]",197,a,0.6138428558188025,colour,0.14
15,20,1,2,7,49,349,1064.7673557545058,1065.4502415660536,"[80, 0, 174]",174,l,0.15956199486390688,colour,0.14
15,20,1,2,7,50,350,1067.4625792173902,1068.3462265715061,"[19, 0, 235]",235,a,0.3605885964643676,colour,0.14
15,20,1,2,8,1,351,1076.1061169560126,1076.86624798103,"[95, 0, 159]",159,l,0.23605535441311076,colour,0.06
15,20,1,2,8,2,352,1078.8750288000738,1079.474267415033,"[93, 0, 161]",161,l,0.07614086646935903,colour,0.06
15,20,1,2,8,3,353,1081.4846224405337,1082.098264434404,"[99, 0, 155]",155,l,0.09027879248606041,colour,0.06
15,20,1,2,8,4,354,1084.1098155732616,1084.8342313701578,"[90, 0, 164]",164,l,0.20109158637933433,colour,0.06
15,20,1,2,8,5,355,1086.8458337091142,1087.730356585147,"[67, 0, 187]",187,l,0.3612597117898986,colour,0.06
15,20,1,2,8,6,356,1089.736707761971,1090.5302945148433,"[77, 0, 177]",177,l,0.27041456729057245,colour,0.06
15,20,1,2,8,7,357,1092.5493960946915,1093.618287025456,"[51, 0, 203]",203,a,0.5581788829586003,colour,0.06
15,20,1,2,8,8,358,1095.6157963369915,1096.506329712167,"[89, 0, 165]",165,l,0.3663450643362012,colour,0.06
15,20,1,2,8,9,359,1098.5240244705055,1099.2823174115329,"[26, 0, 228]",228,a,0.23512390622636303,colour,0.06
15,20,1,2,8,10,360,1101.2897839630896,1102.1382922872435,"[84, 0, 170]",170,l,0.3257910318498034,colour,0.06
15,20,1,2,8,11,361,1104.149376323563,1105.0343639390485,"[71, 0, 183]",183,l,0.361640561837703,colour,0.06
15,20,1,2,8,12,362,1107.055921548832,1107.9223211609642,"[83, 0, 171]",171,l,0.34311833092942834,colour,0.06
15,20,1,2,8,13,363,1109.9311657832004,1110.914338275994,"[50, 0, 204]",204,a,0.4598344976257067,colour,0.06
15,20,1,2,8,14,364,1112.932656887977,1113.8423753385723,"[66, 0, 188]",188,l,0.38700864140992053,colour,0.06
15,20,1,2,8,15,365,1115.8565116891696,1116.7463542567275,"[87, 0, 167]",167,l,0.36670779742416926,colour,0.06
15,20,1,2,8,16,366,1118.7635933340644,1119.8265611996758,"[53, 0, 201]",201,a,0.540320678090211,colour,0.06
15,20,1,2,8,17,367,1121.8438963757071,1122.6751542009588,"[74, 0, 180]",180,l,0.30793755321064964,colour,0.06
15,20,1,2,8,18,368,1124.68792823478,1125.5623245165334,"[78, 0, 176]",176,l,0.35132610256550834,colour,0.06
15,20,1,2,8,19,369,1127.5787180043699,1128.4184151832596,"[79, 0, 175]",175,l,0.3164312577282544,colour,0.06
15,20,1,2,8,20,370,1130.4250349637587,1131.2663295861275,"[85, 0, 169]",169,l,0.3179656856809743,colour,0.06
15,20,1,2,8,21,371,1133.2827537940175,1134.1783496786375,"[88, 0, 166]",166,l,0.37239297895575874,colour,0.06
15,20,1,2,8,22,372,1136.189150932798,1137.7784019815153,"[63, 0, 191]",191,l,1.0659548013354652,colour,0.06
15,20,1,2,8,23,373,1139.8003298074764,1141.1864314192208,"[73, 0, 181]",181,l,0.8627758258371614,colour,0.06
15,20,1,2,8,24,374,1143.2069020112685,1144.7863793526485,"[52, 0, 202]",202,a,1.0562196910032071,colour,0.06
15,20,1,2,8,25,375,1146.8023711165297,1147.8104264693393,"[72, 0, 182]",182,l,0.48476501312688924,colour,0.06
15,20,1,2,8,26,376,1149.817063579103,1151.7384588057757,"[60, 0, 194]",194,a,1.398016665247269,colour,0.06
15,20,1,2,8,27,377,1153.7563489122258,1154.6264581693104,"[86, 0, 168]",168,l,0.3468476682610344,colour,0.06
15,20,1,2,8,28,378,1156.64720130348,1157.4503971356316,"[69, 0, 185]",185,l,0.2773214622575324,colour,0.06
15,20,1,2,8,29,379,1159.46247484794,1160.1064217936073,"[91, 0, 163]",163,l,0.12067117833066732,colour,0.06
15,20,1,2,8,30,380,1162.116885127034,1163.2504941795196,"[58, 0, 196]",196,a,0.6103313158964738,colour,0.06
15,20,1,2,8,31,381,1165.2517757577007,1166.210419065028,"[75, 0, 179]",179,l,0.43536202612449415,colour,0.06
15,20,1,2,8,32,382,1168.2130865908111,1168.8744486634096,"[97, 0, 157]",157,l,0.13810520991683006,colour,0.06
15,20,1,2,8,33,383,1170.8941437707108,1171.7784409723827,"[94, 0, 160]",160,l,0.36095251110964455,colour,0.06
15,20,1,2,8,34,384,1173.7849737126671,1174.6745169564965,"[54, 0, 200]",200,a,0.3665179631789215,colour,0.06
15,20,1,2,8,35,385,1176.691575651901,1177.7944331300969,"[68, 0, 186]",186,l,0.579610461689299,colour,0.06
15,20,1,2,8,36,386,1179.8019536387,1180.7224449864589,"[81, 0, 173]",173,l,0.3975026948901359,colour,0.06
15,20,1,2,8,37,387,1182.7396726422303,1183.706506391929,"[64, 0, 190]",190,l,0.44355640694266185,colour,0.06
15,20,1,2,8,38,388,1185.7242275380122,1186.6744842671906,"[56, 0, 198]",198,a,0.4270049865008332,colour,0.06
15,20,1,2,8,39,389,1188.6944578243128,1189.5465068330523,"[98, 0, 156]",156,l,0.32918599306140095,colour,0.06
15,20,1,2,8,40,390,1191.554134074191,1192.3385422225692,"[62, 0, 192]",192,a,0.26115010416833684,colour,0.06
15,20,1,2,8,41,391,1194.3513268902607,1195.2424742729345,"[76, 0, 178]",178,l,0.3679145446512848,colour,0.06
15,20,1,2,8,42,392,1197.2577618383511,1198.1145492204232,"[8, 0, 246]",246,a,0.3334639592503663,colour,0.06
15,20,1,2,8,43,393,1200.1247415871185,1200.970495739166,"[92, 0, 162]",162,l,0.32258354185614735,colour,0.06
15,20,1,2,8,44,394,1202.9869140393566,1204.562515926198,"[55, 0, 199]",199,l,1.0523296641476918,colour,0.06
15,20,1,2,8,45,395,1206.5711411756347,1207.6345241560193,"[57, 0, 197]",197,a,0.540330918127438,colour,0.06
15,20,1,2,8,46,396,1209.6442372108868,1210.314564422937,"[82, 0, 172]",172,l,0.1469781891501043,colour,0.06
15,20,1,2,8,47,397,1212.3226713697368,1213.13860500179,"[61, 0, 193]",193,a,0.29334237083094195,colour,0.06
15,20,1,2,8,48,398,1215.14577695576,1215.9625183680328,"[36, 0, 218]",218,a,0.29340420477092266,colour,0.06
15,20,1,2,8,49,399,1217.9672791906632,1218.7625638179888,"[96, 0, 158]",158,l,0.2722660420986358,colour,0.06
15,20,1,2,8,50,400,1220.779917898646,1221.7625638179888,"[65, 0, 189]",189,l,0.4592736594786402,colour,0.06
15,20,1,2,9,1,401,1229.4703872343234,1230.1065698800667,"[88, 0, 166]",166,l,0.11227711703395471,colour,0.06
15,20,1,2,9,2,402,1232.117350654211,1232.818594856275,"[51, 0, 203]",203,a,0.17802042255061679,colour,0.06
15,20,1,2,9,3,403,1234.8363542055013,1235.3946067378565,"[78, 0, 176]",176,l,0.03537415663595311,colour,0.06
15,20,1,2,9,4,404,1237.4143242943974,1238.498598101578,"[63, 0, 191]",191,l,0.5588425151654519,colour,0.06
15,20,1,2,9,5,405,1240.5055317781225,1241.402586078213,"[64, 0, 190]",190,l,0.3739352838601917,colour,0.06
15,20,1,2,9,6,406,1243.4152009978425,1244.274619277945,"[68, 0, 186]",186,l,0.3361578727781307,colour,0.06
15,20,1,2,9,7,407,1246.2904034844541,1246.9706099547911,"[94, 0, 160]",160,l,0.15572553116362542,colour,0.06
15,20,1,2,9,8,408,1248.9793517829676,1249.6506206831837,"[83, 0, 171]",171,l,0.14807347767055035,colour,0.06
15,20,1,2,9,9,409,1251.6684733741567,1252.4506657392776,"[67, 0, 187]",187,l,0.2588524007005617,colour,0.06
15,20,1,2,9,10,410,1254.4656390147866,1255.4905990688712,"[98, 0, 156]",156,l,0.5017567545874044,colour,0.06
15,20,1,2,9,11,411,1257.4980156018573,1258.2106293793186,"[92, 0, 162]",162,l,0.18941362874465995,colour,0.06
15,20,1,2,9,12,412,1260.2169281745155,1261.6586579190625,"[57, 0, 197]",197,l,0.9184476756490767,colour,0.06
15,20,1,2,9,13,413,1263.6717848397966,1264.2346607421641,"[72, 0, 182]",182,l,0.03995577886234969,colour,0.06
15,20,1,2,9,14,414,1266.2500739447714,1267.0107177585887,"[61, 0, 193]",193,a,0.23738025574130006,colour,0.06
15,20,1,2,9,15,415,1269.0315829853353,1269.5946550235094,"[97, 0, 157]",157,l,0.03988055410445668,colour,0.06
15,20,1,2,9,16,416,1271.6121162305644,1273.6267917577352,"[91, 0, 163]",163,l,1.4914470214862376,colour,0.06
15,20,1,2,9,17,417,1275.6441115736961,1276.2346359297808,"[96, 0, 158]",158,l,0.06722929023089819,colour,0.06
15,20,1,2,9,18,418,1278.2537130911078,1278.978688938456,"[50, 0, 204]",204,a,0.20177648632670753,colour,0.06
15,20,1,2,9,19,419,1280.98828659617,1281.7306874166243,"[58, 0, 196]",196,a,0.219341275136685,colour,0.06
15,20,1,2,9,20,420,1283.7401736156316,1284.4027002938383,"[55, 0, 199]",199,a,0.13928478170419112,colour,0.06
15,20,1,2,9,21,421,1286.412319613155,1287.1226734964876,"[74, 0, 180]",180,l,0.18772363124298863,colour,0.06
15,20,1,2,9,22,422,1289.1315531711152,1289.6747883170901,"[93, 0, 161]",161,l,0.02000664026127197,colour,0.06
15,20,1,2,9,23,423,1291.694143140543,1292.3947307996568,"[60, 0, 194]",194,a,0.1771842853340786,colour,0.06
15,20,1,2,9,24,424,1294.413210495084,1295.1547251597804,"[10, 0, 244]",244,a,0.21897657279623672,colour,0.06
15,20,1,2,9,25,425,1297.1634220893902,1298.4666980693873,"[59, 0, 195]",195,l,0.7800703174434602,colour,0.06
15,20,1,2,9,26,426,1300.4761799360858,1301.6667160288198,"[79, 0, 175]",175,l,0.6676080923061818,colour,0.06
15,20,1,2,9,27,427,1303.680847259442,1304.290813479165,"[56, 0, 198]",198,a,0.08676449561608024,colour,0.06
15,20,1,2,9,28,428,1306.3059950997413,1306.9867159342975,"[80, 0, 174]",174,l,0.15633402479579672,colour,0.06
15,20,1,2,9,29,429,1308.9950442231202,1309.6268216900935,"[82, 0, 172]",172,l,0.10659351089270785,colour,0.06
15,20,1,2,9,30,430,1311.6377663045714,1312.6107322521566,"[70, 0, 184]",184,l,0.4497012079518754,colour,0.06
15,20,1,2,9,31,431,1314.6224200559373,1315.1947872773162,"[71, 0, 183]",183,l,0.04915683262515813,colour,0.06
15,20,1,2,9,32,432,1317.2163236193592,1317.9227847188886,"[90, 0, 164]",164,l,0.18313413206487894,colour,0.06
15,20,1,2,9,33,433,1319.938009662641,1320.5547914048366,"[99, 0, 155]",155,l,0.09362334126490168,colour,0.06
15,20,1,2,9,34,434,1322.563170499925,1323.2268306697952,"[24, 0, 230]",230,a,0.14034501783316955,colour,0.06
15,20,1,2,9,35,435,1325.2352456049703,1326.3228450562456,"[87, 0, 167]",167,l,0.5645442382665351,colour,0.06
15,20,1,2,9,36,436,1328.3292722455517,1329.8268979388813,"[95, 0, 159]",159,l,0.9744424800155684,colour,0.06
15,20,1,2,9,37,437,1331.8451878000342,1332.7148870624078,"[89, 0, 165]",165,l,0.3463817472511437,colour,0.06
15,20,1,2,9,38,438,1334.7360449174594,1335.578818041511,"[86, 0, 168]",168,l,0.31955446451320313,colour,0.06
15,20,1,2,9,39,439,1337.5984127177799,1338.5468053690856,"[65, 0, 189]",189,a,0.4250381145393476,colour,0.06
15,20,1,2,9,40,440,1340.565808881016,1341.6908659395995,"[76, 0, 178]",178,l,0.6018569098669104,colour,0.06
15,20,1,2,9,41,441,1343.7054307957587,1344.6508447821252,"[53, 0, 201]",201,a,0.4225690876482986,colour,0.06
15,20,1,2,9,42,442,1346.6613904295955,1347.2748910323717,"[85, 0, 169]",169,l,0.09031817718641832,colour,0.06
15,20,1,2,9,43,443,1349.284687976673,1349.8828915617196,"[77, 0, 177]",177,l,0.07502667329390533,colour,0.06
15,20,1,2,9,44,444,1351.8818297501712,1352.8108612764336,"[69, 0, 185]",185,l,0.4057770266663283,colour,0.06
15,20,1,2,9,45,445,1354.82180274016,1355.4588498800877,"[52, 0, 202]",202,a,0.11392694216920063,colour,0.06
15,20,1,2,9,46,446,1357.477136984322,1359.2348781457113,"[66, 0, 188]",188,l,1.234544951148564,colour,0.06
15,20,1,2,9,47,447,1361.2430032094708,1362.3148720174504,"[4, 0, 250]",250,a,0.548554837499978,colour,0.06
15,20,1,2,9,48,448,1364.321353163803,1365.0908656245156,"[81, 0, 173]",173,l,0.24626465651090257,colour,0.06
15,20,1,2,9,49,449,1367.1041465394374,1368.21892419114,"[62, 0, 192]",192,l,0.5914963704999536,colour,0.06
15,20,1,2,9,50,450,1370.2293922507379,1370.8429050627747,"[75, 0, 179]",179,l,0.09032605410902761,colour,0.06
15,20,1,2,10,1,451,1379.620963215857,1380.3708778495202,"[68, 0, 186]",186,l,0.2258779538969975,colour,0.06
15,20,1,2,10,2,452,1382.3889857533795,1382.91494125576,"[77, 0, 177]",177,l,0.002771895262412727,colour,0.06
15,20,1,2,10,3,453,1384.9361743355985,1385.4749515272852,"[67, 0, 187]",187,l,0.015500636654905975,colour,0.06
15,20,1,2,10,4,454,1387.4831845051085,1388.0350315097312,"[79, 0, 175]",175,l,0.02856769264326431,colour,0.06
15,20,1,2,10,5,455,1390.0458784501534,1390.5790185096266,"[78, 0, 176]",176,l,0.009878864482743666,colour,0.06
15,20,1,2,10,6,456,1392.5930666385102,1393.162917177513,"[80, 0, 174]",174,l,0.04662203328916803,colour,0.06
15,20,1,2,10,7,457,1395.1716026855574,1397.7549712353793,"[94, 0, 160]",160,l,2.060282222897513,colour,0.06
15,20,1,2,10,8,458,1399.7681206054112,1400.3869472012739,"[97, 0, 157]",157,l,0.0955740654899273,colour,0.06
15,20,1,2,10,9,459,1402.3932605687878,1403.1389311070961,"[51, 0, 203]",203,l,0.22237350323121063,colour,0.06
15,20,1,2,10,10,460,1405.1591405785584,1405.7071684487455,"[82, 0, 172]",172,l,0.02528340244316496,colour,0.06
15,20,1,2,10,11,461,1407.7236572475522,1408.8429932845174,"[71, 0, 183]",183,l,0.5961607006029226,colour,0.06
15,20,1,2,10,12,462,1410.8632307191147,1411.515018764825,"[50, 0, 204]",204,l,0.12846225980320014,colour,0.06
15,20,1,2,10,13,463,1413.5189820472733,1414.2829901022196,"[73, 0, 181]",181,l,0.24147626460762694,colour,0.06
15,20,1,2,10,14,464,1416.28814122724,1417.4029874083062,"[56, 0, 198]",198,a,0.5916149184340611,colour,0.06
15,20,1,2,10,15,465,1419.4119482154201,1420.3549794273858,"[89, 0, 165]",165,l,0.41966761674848385,colour,0.06
15,20,1,2,10,16,466,1422.367574260832,1423.5870514131675,"[60, 0, 194]",194,l,0.6961946896044537,colour,0.06
15,20,1,2,10,17,467,1425.6022728123062,1426.2429756401689,"[49, 0, 205]",205,a,0.11746093136025593,colour,0.06
15,20,1,2,10,18,468,1428.258689348062,1428.8350836550817,"[86, 0, 168]",168,l,0.05314256434212439,colour,0.06
15,20,1,2,10,19,469,1430.8527390286908,1431.3950502095686,"[76, 0, 178]",178,l,0.01914962916634977,colour,0.06
15,20,1,2,10,20,470,1433.415377835161,1434.0030865790031,"[85, 0, 169]",169,l,0.06451922899577767,colour,0.06
15,20,1,2,10,21,471,1436.0093361432955,1436.6350211909448,"[39, 0, 215]",215,a,0.10236516944132745,colour,0.06
15,20,1,2,10,22,472,1438.650895194558,1439.6110063696979,"[65, 0, 189]",189,l,0.4371969593630638,colour,0.06
15,20,1,2,10,23,473,1441.6198781673738,1442.5870321146795,"[96, 0, 158]",158,l,0.4439486785850022,colour,0.06
15,20,1,2,10,24,474,1444.6045130140847,1445.4270278296317,"[92, 0, 162]",162,l,0.29936074692523107,colour,0.06
15,20,1,2,10,25,475,1447.4484042697586,1448.355045987555,"[81, 0, 173]",173,l,0.38323401170782745,colour,0.06
15,20,1,2,10,26,476,1450.3708979357325,1451.0030664927908,"[52, 0, 202]",202,a,0.10897274065064266,colour,0.06
15,20,1,2,10,27,477,1453.0095102236664,1453.8670463089366,"[61, 0, 193]",193,l,0.33425913637620397,colour,0.06
15,20,1,2,10,28,478,1455.8879343787848,1456.5231477670604,"[88, 0, 166]",166,l,0.1119982733798679,colour,0.06
15,20,1,2,10,29,479,1458.5444458316488,1459.4430826090102,"[70, 0, 184]",184,l,0.37573122620233335,colour,0.06
15,20,1,2,10,30,480,1461.4508819612965,1462.8510801451048,"[91, 0, 163]",163,l,0.8769830689125229,colour,0.06
15,20,1,2,10,31,481,1464.85881726956,1465.4430873351812,"[87, 0, 167]",167,l,0.061026593728456646,colour,0.06
15,20,1,2,10,32,482,1467.4527424945554,1468.403122497839,"[62, 0, 192]",192,a,0.4271601622167509,colour,0.06
15,20,1,2,10,33,483,1470.4239652752876,1471.6671071189048,"[84, 0, 170]",170,l,0.7198538670199923,colour,0.06
15,20,1,2,10,34,484,1473.6741408325906,1474.6191105595499,"[54, 0, 200]",200,a,0.42194996017497033,colour,0.06
15,20,1,2,10,35,485,1476.627620805666,1477.7151068290405,"[53, 0, 201]",201,a,0.5642035606142599,colour,0.06
15,20,1,2,10,36,486,1479.721583643055,1480.3711373947153,"[90, 0, 164]",164,l,0.12638156607863493,colour,0.06
15,20,1,2,10,37,487,1482.3780564989138,1483.0591128911183,"[75, 0, 179]",179,l,0.15780071105109528,colour,0.06
15,20,1,2,10,38,488,1485.0615968841885,1485.7152383739303,"[55, 0, 199]",199,l,0.13035311928251758,colour,0.06
15,20,1,2,10,39,489,1487.726242853154,1489.8911324164947,"[74, 0, 180]",180,l,1.6415255742613226,colour,0.06
15,20,1,2,10,40,490,1491.8984552138718,1492.651173250546,"[72, 0, 182]",182,l,0.22942848468665034,colour,0.06
15,20,1,2,10,41,491,1494.664360429888,1495.3631816851557,"[58, 0, 196]",196,a,0.175598657282535,colour,0.06
15,20,1,2,10,42,492,1497.3831993531494,1498.1551268837065,"[5, 0, 249]",249,a,0.24860135081689805,colour,0.06
15,20,1,2,10,43,493,1500.164689095196,1500.7391775765573,"[95, 0, 159]",159,l,0.05115088002639823,colour,0.06
15,20,1,2,10,44,494,1502.7586852126697,1503.371196865599,"[99, 0, 155]",155,l,0.08927408876479603,colour,0.06
15,20,1,2,10,45,495,1505.3839685363346,1506.779168407782,"[66, 0, 188]",188,a,0.8719886949984357,colour,0.06
15,20,1,2,10,46,496,1508.7904178598546,1509.6912377311673,"[93, 0, 161]",161,l,0.37752559315413237,colour,0.06
15,20,1,2,10,47,497,1511.7153892173374,1512.7312080823758,"[63, 0, 191]",191,a,0.4926151717081666,colour,0.06
15,20,1,2,10,48,498,1514.7468414454488,1516.8831826146343,"[69, 0, 185]",185,l,1.6130791864707135,colour,0.06
15,20,1,2,10,49,499,1518.8891438829305,1520.011232122779,"[64, 0, 190]",190,l,0.5990184544643853,colour,0.06
15,20,1,2,10,50,500,1522.0153887841152,1523.0752098121447,"[83, 0, 171]",171,l,0.536816227453528,colour,0.06
15,20,1,2,11,1,501,1530.5634694297914,1531.7712497198663,"[68, 0, 186]",186,l,0.6836924102099147,colour,0.06
15,20,1,2,11,2,502,1533.783267173596,1534.4352356012387,"[93, 0, 161]",161,l,0.12857214311952703,colour,0.06
15,20,1,2,11,3,503,1536.455355275597,1537.0272510620998,"[79, 0, 175]",175,l,0.04907609400106594,colour,0.06
15,20,1,2,11,4,504,1539.033701882232,1539.9312496726052,"[62, 0, 192]",192,a,0.37426020760904066,colour,0.06
15,20,1,2,11,5,505,1541.940195907373,1542.627257678745,"[92, 0, 162]",162,l,0.16377694555558264,colour,0.06
15,20,1,2,11,6,506,1544.6436129633803,1545.275259673188,"[73, 0, 181]",181,l,0.10837330552749336,colour,0.06
15,20,1,2,11,7,507,1547.2843350897601,1547.867279466358,"[95, 0, 159]",159,l,0.05961583377211355,colour,0.06
15,20,1,2,11,8,508,1549.8783922535076,1550.5312759816006,"[98, 0, 156]",156,l,0.1300258324481547,colour,0.06
15,20,1,2,11,9,509,1552.5504390015558,1553.9793218505802,"[58, 0, 196]",196,a,0.9041585123923142,colour,0.06
15,20,1,2,11,10,510,1555.9771927136753,1556.835292000149,"[77, 0, 177]",177,l,0.3391979778534733,colour,0.06
15,20,1,2,11,11,511,1558.8507926368038,1559.603317688423,"[72, 0, 182]",182,l,0.24922205370967276,colour,0.06
15,20,1,2,11,12,512,1561.6123084278952,1562.6113517735212,"[65, 0, 189]",189,l,0.4741134208452422,colour,0.06
15,20,1,2,11,13,513,1564.630523064261,1565.2912986986921,"[86, 0, 168]",168,l,0.1374955347564537,colour,0.06
15,20,1,2,11,14,514,1567.302695055696,1567.8752765298414,"[91, 0, 163]",163,l,0.049323036073474213,colour,0.06
15,20,1,2,11,15,515,1569.8966923546686,1570.5793194087455,"[2, 0, 252]",252,a,0.15947416698327288,colour,0.06
15,20,1,2,11,16,516,1572.5857182410546,1573.1312955951726,"[80, 0, 174]",174,l,0.02319680101936683,colour,0.06
15,20,1,2,11,17,517,1575.148499620118,1576.3233472111751,"[9, 0, 245]",245,a,0.6516592577390838,colour,0.06
15,20,1,2,11,18,518,1578.338518197881,1579.4352927090658,"[61, 0, 193]",193,l,0.5736074456071947,colour,0.06
15,20,1,2,11,19,519,1581.4481852908502,1582.0595386397326,"[84, 0, 170]",170,l,0.08938003360526636,colour,0.06
15,20,1,2,11,20,520,1584.0742763947346,1584.699339951796,"[90, 0, 164]",164,l,0.10243803111370653,colour,0.06
15,20,1,2,11,21,521,1586.7149713456456,1587.507305271196,"[64, 0, 190]",190,l,0.26887856394751,colour,0.06
15,20,1,2,11,22,522,1589.5301200406393,1590.1073567864078,"[87, 0, 167]",167,l,0.05480656796135008,colour,0.06
15,20,1,2,11,23,523,1592.116526726255,1594.1073225217115,"[81, 0, 173]",173,l,1.4675263296521734,colour,0.06
15,20,1,2,11,24,524,1596.1099880782422,1596.6994376258517,"[53, 0, 201]",201,l,0.06609579856740311,colour,0.06
15,20,1,2,11,25,525,1598.7195608448237,1599.251386243006,"[94, 0, 160]",160,l,0.008460621407721192,colour,0.06
15,20,1,2,11,26,526,1601.266666325333,1602.043422026356,"[32, 0, 222]",222,l,0.25349529372761026,colour,0.06
15,20,1,2,11,27,527,1604.0637409873016,1604.627347475849,"[99, 0, 155]",155,l,0.040203508629929274,colour,0.06
15,20,1,2,11,28,528,1606.6421525786864,1607.4673672154604,"[71, 0, 183]",183,l,0.30050762940663844,colour,0.06
15,20,1,2,11,29,529,1609.4875227299053,1610.5074301207205,"[54, 0, 200]",200,a,0.49648314315709285,colour,0.06
15,20,1,2,11,30,530,1612.5196834887902,1613.331408471713,"[82, 0, 172]",172,l,0.2869455077161547,colour,0.06
15,20,1,2,11,31,531,1615.3494545415742,1616.435401804687,"[70, 0, 184]",184,l,0.5637577258166857,colour,0.06
15,20,1,2,11,32,532,1618.4422614380019,1620.2914266989683,"[50, 0, 204]",204,a,1.3233574512123596,colour,0.06
15,20,1,2,11,33,533,1622.304514235002,1623.0514218467579,"[74, 0, 180]",180,l,0.22359521663747728,colour,0.06
15,20,1,2,11,34,534,1625.0727344836923,1625.7634751799633,"[89, 0, 165]",165,l,0.16760277535649948,colour,0.06
15,20,1,2,11,35,535,1627.7748160045303,1628.643408162956,"[60, 0, 194]",194,l,0.34519587390241213,colour,0.06
15,20,1,2,11,36,536,1630.6453254101798,1631.2274557049968,"[63, 0, 191]",191,l,0.056276798801263794,colour,0.06
15,20,1,2,11,37,537,1633.2425975470396,1633.9394452349807,"[51, 0, 203]",203,l,0.1735624682623893,colour,0.06
15,20,1,2,11,38,538,1635.9458361903671,1636.6994541674212,"[78, 0, 176]",176,l,0.23012874464620836,colour,0.06
15,20,1,2,11,39,539,1638.714591677155,1639.947470655432,"[57, 0, 197]",197,l,0.7096591372101102,colour,0.06
15,20,1,2,11,40,540,1641.964837339212,1642.9474793200789,"[85, 0, 169]",169,l,0.4593945704982616,colour,0.06
15,20,1,2,11,41,541,1644.9651512352866,1645.9794368539297,"[52, 0, 202]",202,a,0.4911130392283667,colour,0.06
15,20,1,2,11,42,542,1647.99647979546,1648.8354877420934,"[59, 0, 195]",195,l,0.31574557011481375,colour,0.06
15,20,1,2,11,43,543,1650.8562552947842,1651.4595131184615,"[83, 0, 171]",171,l,0.08043222347623669,colour,0.06
15,20,1,2,11,44,544,1653.4657941905316,1654.035520273872,"[96, 0, 158]",158,l,0.04655941162491217,colour,0.06
15,20,1,2,11,45,545,1656.044128587906,1656.6595046901202,"[97, 0, 157]",157,l,0.09210309182526544,colour,0.06
15,20,1,2,11,46,546,1658.6705308309174,1659.3394846984593,"[88, 0, 166]",166,l,0.14577853117953055,colour,0.06
15,20,1,2,11,47,547,1661.3605645718053,1662.0914926289406,"[69, 0, 185]",185,l,0.20770545915002003,colour,0.06
15,20,1,2,11,48,548,1664.1096489759802,1665.7955118770478,"[66, 0, 188]",188,l,1.1626284876547288,colour,0.06
15,20,1,2,11,49,549,1667.8076695403142,1670.5075309455278,"[67, 0, 187]",187,l,2.176534437778173,colour,0.06
15,20,1,2,11,50,550,1672.5241229322564,1673.187534978526,"[75, 0, 179]",179,l,0.15213679723092355,colour,0.06
15,20,1,2,12,1,551,1698.4694502722705,1699.3636153107218,"[68, 0, 186]",186,l,0.37004683233681135,colour,0.06
15,20,1,2,12,2,552,1701.3744252295292,1701.9556177746272,"[71, 0, 183]",183,l,0.057997516385512426,colour,0.06
15,20,1,2,12,3,553,1703.9696844143327,1704.595571899321,"[81, 0, 173]",173,l,0.10259281299659051,colour,0.06
15,20,1,2,12,4,554,1706.6105491133058,1707.8755947581958,"[78, 0, 176]",176,l,0.7420971644169185,colour,0.06
15,20,1,2,12,5,555,1709.8921016739623,1710.4196073581697,"[57, 0, 197]",197,l,0.004185018304269761,colour,0.06
15,20,1,2,12,6,556,1712.4391358681605,1713.2676048627472,"[95, 0, 159]",159,l,0.3057670623238664,colour,0.06
15,20,1,2,12,7,557,1715.2832075057668,1716.1236852894654,"[98, 0, 156]",156,l,0.31725321646081284,colour,0.06
15,20,1,2,12,8,558,1718.142770327715,1719.0676554327074,"[52, 0, 202]",202,a,0.4015285990026314,colour,0.06
15,20,1,2,12,9,559,1721.081713407766,1722.3476613561506,"[75, 0, 179]",179,l,0.7426824210560881,colour,0.06
15,20,1,2,12,10,560,1724.363093463442,1725.507653431967,"[92, 0, 162]",162,l,0.6212168533529621,colour,0.06
15,20,1,2,12,11,561,1727.5206267523754,1728.755648258375,"[62, 0, 192]",192,a,0.7117189570562914,colour,0.06
15,20,1,2,12,12,562,1730.7709314914828,1731.643662981951,"[90, 0, 164]",164,l,0.3494344553910196,colour,0.06
15,20,1,2,12,13,563,1733.6618299628608,1734.2276849239715,"[85, 0, 169]",169,l,0.04332080768654123,colour,0.06
15,20,1,2,12,14,564,1736.2309258909954,1737.6836612962943,"[53, 0, 201]",201,a,0.9294942964916117,colour,0.06
15,20,1,2,12,15,565,1739.6888774060644,1740.6596720750968,"[89, 0, 165]",165,l,0.4476555666187778,colour,0.06
15,20,1,2,12,16,566,1742.6733641662868,1743.5316812501696,"[86, 0, 168]",168,l,0.33512599364621565,colour,0.06
15,20,1,2,12,17,567,1745.5486576315598,1746.4757297689503,"[58, 0, 196]",196,a,0.40381094240001403,colour,0.06
15,20,1,2,12,18,568,1748.486395145912,1749.3557612136938,"[94, 0, 160]",160,l,0.3461107804905623,colour,0.06
15,20,1,2,12,19,569,1751.377269986464,1752.275722049555,"[69, 0, 185]",185,l,0.37511209869990125,colour,0.06
15,20,1,2,12,20,570,1754.2838376610016,1755.1557546758559,"[83, 0, 171]",171,l,0.3488251740927808,colour,0.06
15,20,1,2,12,21,571,1757.1769172570785,1758.0597213847504,"[80, 0, 174]",174,l,0.3594436832354404,colour,0.06
15,20,1,2,12,22,572,1760.0665156394534,1760.899695044267,"[84, 0, 170]",170,l,0.3097902095178142,colour,0.06
15,20,1,2,12,23,573,1762.9126498538535,1764.0117417608271,"[67, 0, 187]",187,l,0.5757436717685778,colour,0.06
15,20,1,2,12,24,574,1766.0222724420892,1767.1237754804315,"[55, 0, 199]",199,a,0.57828989267,colour,0.06
15,20,1,2,12,25,575,1769.1319958551612,1770.0917458725744,"[17, 0, 237]",237,a,0.4364695239055436,colour,0.06
15,20,1,2,12,26,576,1772.1008933631529,1773.2918106997968,"[70, 0, 184]",184,l,0.6675714645243715,colour,0.06
15,20,1,2,12,27,577,1775.3003122812952,1776.1477304369328,"[97, 0, 157]",157,l,0.32407976663671434,colour,0.06
15,20,1,2,12,28,578,1778.1619384677033,1779.0757773456862,"[50, 0, 204]",204,a,0.39049576281104237,colour,0.06
15,20,1,2,12,29,579,1781.0732468786591,1782.099743723753,"[79, 0, 175]",175,l,0.5032943332917057,colour,0.06
15,20,1,2,12,30,580,1784.1190540425014,1785.0037762050924,"[88, 0, 166]",166,l,0.3613365119381342,colour,0.06
15,20,1,2,12,31,581,1787.0278839742532,1787.883779686701,"[87, 0, 167]",167,l,0.3325848927197512,colour,0.06
15,20,1,2,12,32,582,1789.9032160365023,1790.9879368600086,"[56, 0, 198]",198,l,0.5615289455745369,colour,0.06
15,20,1,2,12,33,583,1792.9971666646306,1794.0278343495156,"[66, 0, 188]",188,l,0.5074639915546868,colour,0.06
15,20,1,2,12,34,584,1796.0442534374015,1796.8118163554464,"[93, 0, 161]",161,l,0.2441914458759129,colour,0.06
15,20,1,2,12,35,585,1798.826967649802,1799.8678229752113,"[74, 0, 180]",180,l,0.5174767640128266,colour,0.06
15,20,1,2,12,36,586,1801.8741245273268,1802.7957946592069,"[77, 0, 177]",177,l,0.3988476824306417,colour,0.06
15,20,1,2,12,37,587,1804.8119427803322,1805.8838234037394,"[99, 0, 155]",155,l,0.5486816562479362,colour,0.06
15,20,1,2,12,38,588,1807.89130413378,1809.003821497492,"[59, 0, 195]",195,a,0.589154162327759,colour,0.06
15,20,1,2,12,39,589,1811.016693205398,1812.0198624922486,"[76, 0, 178]",178,l,0.48016527394065633,colour,0.06
15,20,1,2,12,40,590,1814.0325459412707,1814.755859754223,"[41, 0, 213]",213,a,0.19994037155993283,colour,0.06
15,20,1,2,12,41,591,1816.7672261788393,1817.6278500246408,"[51, 0, 203]",203,a,0.3347179681295529,colour,0.06
15,20,1,2,12,42,592,1819.6449201416108,1820.3878703786468,"[42, 0, 212]",212,a,0.22066026876564138,colour,0.06
15,20,1,2,12,43,593,1822.3963636893604,1823.3158676626626,"[60, 0, 194]",194,a,0.3961533750407398,colour,0.06
15,20,1,2,12,44,594,1825.334131136071,1826.939861531253,"[65, 0, 189]",189,a,1.0825243387371302,colour,0.06
15,20,1,2,12,45,595,1828.9593782258453,1829.5719123280724,"[91, 0, 163]",163,l,0.08988494545337744,colour,0.06
15,20,1,2,12,46,596,1831.5847009342397,1832.427971880883,"[96, 0, 158]",158,l,0.3186123824561946,colour,0.06
15,20,1,2,12,47,597,1834.4457119316212,1835.8198843113787,"[63, 0, 191]",191,a,0.8509659294795711,colour,0.06
15,20,1,2,12,48,598,1837.8366271414852,1839.0598757727712,"[73, 0, 181]",181,l,0.7000516333500855,colour,0.06
15,20,1,2,12,49,599,1841.0711886342033,1842.0038986915315,"[72, 0, 182]",182,l,0.4093830898636952,colour,0.06
15,20,1,2,12,50,600,1844.0114085662353,1845.4119403384684,"[54, 0, 200]",200,a,0.877292632649187,colour,0.06
15,20,1,2,13,1,601,1862.8228271362022,1864.059935637517,"[70, 0, 184]",184,l,0.7132482650049496,colour,0.06
15,20,1,2,13,2,602,1866.0761412603024,1867.5799751640006,"[99, 0, 155]",155,l,0.9805778286827262,colour,0.06
15,20,1,2,13,3,603,1869.5920867471723,1870.171968175593,"[11, 0, 243]",243,a,0.05666710122022778,colour,0.06
15,20,1,2,13,4,604,1872.186012759863,1873.0599683268229,"[77, 0, 177]",177,l,0.3506959473597817,colour,0.06
15,20,1,2,13,5,605,1875.0768194648554,1875.7079750474368,"[93, 0, 161]",161,l,0.10784397515817545,colour,0.06
15,20,1,2,13,6,606,1877.720085055189,1878.4439857001998,"[60, 0, 194]",194,a,0.20064496385748498,colour,0.06
15,20,1,2,13,7,607,1880.4548015267064,1881.6279681787419,"[67, 0, 187]",187,l,0.6499176662764512,colour,0.06
15,20,1,2,13,8,608,1883.639860389114,1884.4759952218446,"[62, 0, 192]",192,l,0.31291381013579667,colour,0.06
15,20,1,2,13,9,609,1886.4838808266213,1887.0279844052275,"[68, 0, 186]",186,l,0.032032364775659516,colour,0.06
15,20,1,2,13,10,610,1889.0317310717946,1889.7400397076563,"[35, 0, 219]",219,a,0.1851486595114693,colour,0.06
15,20,1,2,13,11,611,1891.7506664875837,1892.628044191195,"[73, 0, 181]",181,l,0.34979640078381635,colour,0.06
15,20,1,2,13,12,612,1894.6458283528045,1895.348044963146,"[58, 0, 196]",196,a,0.18222552703809924,colour,0.06
15,20,1,2,13,13,613,1897.3501563769532,1899.1400748387969,"[75, 0, 179]",179,l,1.2665509281505365,colour,0.06
15,20,1,2,13,14,614,1901.1473574638076,1902.0760179861973,"[53, 0, 201]",201,a,0.4053886934998445,colour,0.06
15,20,1,2,13,15,615,1904.0850461411464,1905.1722166930558,"[91, 0, 163]",163,l,0.5641283358563669,colour,0.06
15,20,1,2,13,16,616,1907.1790688432811,1908.2600496956147,"[88, 0, 166]",166,l,0.5576920880412217,colour,0.06
15,20,1,2,13,17,617,1910.2730474345444,1910.8440775453346,"[90, 0, 164]",164,l,0.0481237719359342,colour,0.06
15,20,1,2,13,18,618,1912.8513333887386,1914.108103126462,"[72, 0, 182]",182,l,0.7334002348070499,colour,0.06
15,20,1,2,13,19,619,1916.1090645070071,1917.04406714777,"[80, 0, 174]",174,l,0.4117654704314191,colour,0.06
15,20,1,2,13,20,620,1919.0486538900004,1919.9080453884962,"[81, 0, 173]",173,l,0.33597040161839686,colour,0.06
15,20,1,2,13,21,621,1921.9238926105318,1922.8121337961347,"[50, 0, 204]",204,a,0.3650268584024161,colour,0.06
15,20,1,2,13,22,622,1924.830363792542,1925.7400779107993,"[59, 0, 195]",195,a,0.3863674584426917,colour,0.06
15,20,1,2,13,23,623,1927.7525230823958,1928.6361562579987,"[69, 0, 185]",185,l,0.3603215681796428,colour,0.06
15,20,1,2,13,24,624,1930.6434664523113,1931.6521094248747,"[78, 0, 176]",176,l,0.4841230425226968,colour,0.06
15,20,1,2,13,25,625,1933.6606283356377,1934.6681504196313,"[86, 0, 168]",168,l,0.4849402750842273,colour,0.06
15,20,1,2,13,26,626,1936.675800897734,1937.6441044844687,"[82, 0, 172]",172,l,0.44263834960293025,colour,0.06
15,20,1,2,13,27,627,1939.66278740493,1940.4841021686443,"[94, 0, 160]",160,l,0.30020633645472117,colour,0.06
15,20,1,2,13,28,628,1942.4921870600083,1943.756147262553,"[66, 0, 188]",188,l,0.7407884108251892,colour,0.06
15,20,1,2,13,29,629,1945.773505281686,1946.6761908062617,"[89, 0, 165]",165,l,0.37947907429770567,colour,0.06
15,20,1,2,13,30,630,1948.6955294820073,1950.0841591976932,"[51, 0, 203]",203,a,0.8658119924075436,colour,0.06
15,20,1,2,13,31,631,1952.1034226486518,1953.0522867348045,"[96, 0, 158]",158,a,0.4255895003734622,colour,0.06
15,20,1,2,13,32,632,1955.0637181441707,1956.004197621398,"[52, 0, 202]",202,a,0.4171158820099663,colour,0.06
15,20,1,2,13,33,633,1958.01715479407,1958.8761595348187,"[76, 0, 178]",178,l,0.3356277547136415,colour,0.06
15,20,1,2,13,34,634,1960.8923431021685,1961.9642130917055,"[56, 0, 198]",198,a,0.54875136713963,colour,0.06
15,20,1,2,13,35,635,1963.972531140491,1964.6201577987522,"[98, 0, 156]",156,l,0.12465139618143439,colour,0.06
15,20,1,2,13,36,636,1966.6285920323862,1967.8122740056715,"[74, 0, 180]",180,l,0.6588166394212749,colour,0.06
15,20,1,2,13,37,637,1969.8330336814106,1970.3722031447105,"[15, 0, 239]",239,a,0.01576884646783583,colour,0.06
15,20,1,2,13,38,638,1972.381016259169,1973.14818375482,"[61, 0, 193]",193,l,0.2423667526745703,colour,0.06
15,20,1,2,13,39,639,1975.163817117922,1976.036175241432,"[65, 0, 189]",189,l,0.34892284811940044,colour,0.06
15,20,1,2,13,40,640,1978.0547825432732,1978.724216904142,"[84, 0, 170]",170,l,0.1464646126551088,colour,0.06
15,20,1,2,13,41,641,1980.7424736821558,1981.6521858311899,"[57, 0, 197]",197,l,0.3863899077405222,colour,0.06
15,20,1,2,13,42,642,1983.6645916180569,1984.3882287794258,"[54, 0, 200]",200,l,0.20029837850597687,colour,0.06
15,20,1,2,13,43,643,1986.3991875723877,1987.6522311235894,"[55, 0, 199]",199,l,0.7297291868599132,colour,0.06
15,20,1,2,13,44,644,1989.6603427965601,1990.3882118439942,"[71, 0, 183]",183,l,0.20444676899933256,colour,0.06
15,20,1,2,13,45,645,1992.3937383051962,1992.9882192483346,"[97, 0, 157]",157,l,0.07116579110152088,colour,0.06
15,20,1,2,13,46,646,1995.003397324268,1995.5562242202577,"[85, 0, 169]",169,l,0.029567276360467076,colour,0.06
15,20,1,2,13,47,647,1997.568753675092,1998.7082251402899,"[95, 0, 159]",159,l,0.6164465784095228,colour,0.06
15,20,1,2,13,48,648,2000.7250203520525,2001.812266916415,"[63, 0, 191]",191,l,0.563812864391366,colour,0.06
15,20,1,2,13,49,649,2003.8191147343314,2004.5323448823765,"[79, 0, 175]",175,l,0.18997210383531637,colour,0.06
15,20,1,2,13,50,650,2006.5537205348373,2007.3162630850857,"[87, 0, 167]",167,l,0.23935146001167595,colour,0.06
15,20,1,2,14,1,651,2028.4211567523016,2032.732335272507,"[78, 0, 176]",176,l,3.7873694840236567,colour,0.06
15,20,1,2,14,2,652,2034.7517739853647,2035.3163174359652,"[86, 0, 168]",168,l,0.041140864515909925,colour,0.06
15,20,1,2,14,3,653,2037.3301773059939,2037.9483902881911,"[65, 0, 189]",189,l,0.0949927472975105,colour,0.06
15,20,1,2,14,4,654,2039.9581600570527,2040.596401341114,"[71, 0, 183]",183,l,0.11516834792564623,colour,0.06
15,20,1,2,14,5,655,2042.6130764295522,2043.4843479291594,"[62, 0, 192]",192,l,0.34804496314609423,colour,0.06
15,20,1,2,14,6,656,2045.5038213005755,2046.5403612443479,"[60, 0, 194]",194,a,0.5132188840070739,colour,0.06
15,20,1,2,14,7,657,2048.552008875733,2049.420320615085,"[52, 0, 202]",202,a,0.3449906796158757,colour,0.06
15,20,1,2,14,8,658,2051.4272716209234,2052.284335483593,"[69, 0, 185]",185,l,0.3338164523302112,colour,0.06
15,20,1,2,14,9,659,2054.3024016396666,2054.9483863497444,"[56, 0, 198]",198,a,0.12270106578944251,colour,0.06
15,20,1,2,14,10,660,2056.9474974370387,2057.5086041786417,"[80, 0, 174]",174,l,0.04204907570965588,colour,0.06
15,20,1,2,14,11,661,2059.5217295239854,2060.092394932435,"[90, 0, 164]",164,l,0.050580195704242215,colour,0.06
15,20,1,2,14,12,662,2062.101048538898,2062.748367602617,"[54, 0, 200]",200,a,0.1240771672455594,colour,0.06
15,20,1,2,14,13,663,2064.757905001723,2066.0123754606466,"[64, 0, 190]",190,l,0.731344747269759,colour,0.06
15,20,1,2,14,14,664,2068.023802537704,2068.6204098608287,"[89, 0, 165]",165,l,0.07338708819588646,colour,0.06
15,20,1,2,14,15,665,2070.633349310403,2071.4683983069262,"[66, 0, 188]",188,l,0.31173108756775036,colour,0.06
15,20,1,2,14,16,666,2073.477448517311,2074.348397850059,"[84, 0, 170]",170,l,0.34772358398186043,colour,0.06
15,20,1,2,14,17,667,2076.3682363176486,2077.2603978563566,"[75, 0, 179]",179,l,0.3688830144237727,colour,0.06
15,20,1,2,14,18,668,2079.274727585871,2079.996432927641,"[72, 0, 182]",182,l,0.19865327954175882,colour,0.06
15,20,1,2,14,19,669,2082.0093448079424,2083.1564415450266,"[51, 0, 203]",203,a,0.623103774356423,colour,0.06
15,20,1,2,14,20,670,2085.166630367108,2087.1085099704214,"[59, 0, 195]",195,a,1.4186735468974803,colour,0.06
15,20,1,2,14,21,671,2089.121423032251,2090.3884024659637,"[61, 0, 193]",193,a,0.7436670385941397,colour,0.06
15,20,1,2,14,22,672,2092.402891309641,2093.2684642369277,"[82, 0, 172]",172,l,0.3422018489509355,colour,0.06
15,20,1,2,14,23,673,2095.2782265226706,2096.444505578256,"[74, 0, 180]",180,l,0.6416929592378438,colour,0.06
15,20,1,2,14,24,674,2098.451576707419,2099.3644719279546,"[95, 0, 159]",159,l,0.3895946408447344,colour,0.06
15,20,1,2,14,25,675,2101.385059492546,2102.228435990197,"[88, 0, 166]",166,l,0.3303486294171307,colour,0.06
15,20,1,2,14,26,676,2104.2501822526974,2105.1724427612207,"[68, 0, 186]",186,l,0.3989945873618126,colour,0.06
15,20,1,2,14,27,677,2107.187831545336,2108.2444726526446,"[98, 0, 156]",156,l,0.5333850323222578,colour,0.06
15,20,1,2,14,28,678,2110.2521471554064,2111.348539634986,"[11, 0, 243]",243,a,0.5730974137259182,colour,0.06
15,20,1,2,14,29,679,2113.3617047588923,2113.956488964206,"[79, 0, 175]",175,l,0.07138477000989951,colour,0.06
15,20,1,2,14,30,680,2115.973237308179,2117.0444944717747,"[97, 0, 157]",157,l,0.5479794270067941,colour,0.06
15,20,1,2,14,31,681,2119.052434427431,2119.940558640461,"[50, 0, 204]",204,a,0.3647740086016711,colour,0.06
15,20,1,2,14,32,682,2121.9589327848807,2122.780549235409,"[10, 0, 244]",244,a,0.2988388996454887,colour,0.06
15,20,1,2,14,33,683,2124.787079612637,2125.6524993334024,"[91, 0, 163]",163,l,0.34269770231912844,colour,0.06
15,20,1,2,14,34,684,2127.662522739731,2128.2846674966277,"[57, 0, 197]",197,a,0.09921360568841919,colour,0.06
15,20,1,2,14,35,685,2130.30343982036,2131.8045766597497,"[63, 0, 191]",191,l,0.978412851691246,colour,0.06
15,20,1,2,14,36,686,2133.804064658645,2134.71654240138,"[93, 0, 161]",161,l,0.3893366710690316,colour,0.06
15,20,1,2,14,37,687,2136.7259009939444,2137.5245337146916,"[83, 0, 171]",171,l,0.2754050027288031,colour,0.06
15,20,1,2,14,38,688,2139.5401001237915,2140.4285961283895,"[20, 0, 234]",234,a,0.3651717940811068,colour,0.06
15,20,1,2,14,39,689,2142.4469013495836,2143.3085503791226,"[77, 0, 177]",177,l,0.338404769951012,colour,0.06
15,20,1,2,14,40,690,2145.322082568455,2146.252555180923,"[73, 0, 181]",181,l,0.4077438986278139,colour,0.06
15,20,1,2,14,41,691,2148.2598783721623,2149.9166733948805,"[58, 0, 196]",196,a,1.133507833816111,colour,0.06
15,20,1,2,14,42,692,2151.9335072036483,2152.796619768662,"[99, 0, 155]",155,l,0.3398946931702085,colour,0.06
15,20,1,2,14,43,693,2154.8086923609662,2155.333128007769,"[96, 0, 158]",158,l,0.001384766073897481,colour,0.06
15,20,1,2,14,44,694,2157.355790358386,2157.9406563145167,"[94, 0, 160]",160,l,0.06162327193305828,colour,0.06
15,20,1,2,14,45,695,2159.9496868325514,2160.7885947420727,"[81, 0, 173]",173,l,0.31558212361414917,colour,0.06
15,20,1,2,14,46,696,2162.809364263987,2163.604561063403,"[55, 0, 199]",199,a,0.27195805369410664,colour,0.06
15,20,1,2,14,47,697,2165.6221104922006,2166.660577923205,"[53, 0, 201]",201,a,0.5152999715937767,colour,0.06
15,20,1,2,14,48,698,2168.66805944097,2169.788606557471,"[67, 0, 187]",187,l,0.5974166787054855,colour,0.06
15,20,1,2,14,49,699,2171.806877907831,2172.708602839557,"[76, 0, 178]",178,l,0.37462057764059864,colour,0.06
15,20,1,2,14,50,700,2174.717126476491,2175.6606448772072,"[87, 0, 167]",167,l,0.42016031936509535,colour,0.06
15,20,1,2,15,1,701,2192.0496444152377,2193.3968717519892,"[71, 0, 183]",183,l,0.8230953460151795,colour,0.06
15,20,1,2,15,2,702,2195.410152666911,2196.6766693303944,"[50, 0, 204]",204,a,0.7432901270221919,colour,0.06
15,20,1,2,15,3,703,2198.692870620871,2199.3406926272146,"[67, 0, 187]",187,l,0.12458286678884178,colour,0.06
15,20,1,2,15,4,704,2201.349397039914,2201.932653343334,"[89, 0, 165]",165,l,0.060031342320144176,colour,0.06
15,20,1,2,15,5,705,2203.943262400164,2204.612661708641,"[59, 0, 195]",195,a,0.14878003919147886,colour,0.06
15,20,1,2,15,6,706,2206.6285313799453,2207.244706203928,"[55, 0, 199]",199,a,0.09288881660904735,colour,0.06
15,20,1,2,15,7,707,2209.251811203925,2210.51666701457,"[62, 0, 192]",192,a,0.7415087569970638,colour,0.06
15,20,1,2,15,8,708,2212.5359351916704,2213.3969520967803,"[57, 0, 197]",197,a,0.3389711219642777,colour,0.06
15,20,1,2,15,9,709,2215.4098962725257,2216.2608818943263,"[83, 0, 171]",171,l,0.32774411916034296,colour,0.06
15,20,1,2,15,10,710,2218.2717615240545,2220.388725026656,"[60, 0, 194]",194,a,1.594883454759838,colour,0.06
15,20,1,2,15,11,711,2222.3838775577024,2223.948823519924,"[70, 0, 184]",184,l,1.0417907120718155,colour,0.06
15,20,1,2,15,12,712,2225.962797999411,2226.532730064733,"[77, 0, 177]",177,l,0.04727306240238249,colour,0.06
15,20,1,2,15,13,713,2228.542792461929,2229.4927482919884,"[65, 0, 189]",189,l,0.4266631272912491,colour,0.06
15,20,1,2,15,14,714,2231.511677366827,2232.3487499492767,"[56, 0, 198]",198,l,0.31366527019417845,colour,0.06
15,20,1,2,15,15,715,2234.3556225795473,2234.972720580903,"[87, 0, 167]",167,l,0.09371431992622092,colour,0.06
15,20,1,2,15,16,716,2236.9838128880074,2238.0128212954733,"[53, 0, 201]",201,a,0.5057393355236854,colour,0.06
15,20,1,2,15,17,717,2240.0308831192087,2240.9567981341097,"[68, 0, 186]",186,l,0.4026908415253274,colour,0.06
15,20,1,2,15,18,718,2242.970318114152,2243.78074143274,"[81, 0, 173]",173,l,0.2870577541179955,colour,0.06
15,20,1,2,15,19,719,2245.796889160032,2246.636813194811,"[79, 0, 175]",175,l,0.3170129697828088,colour,0.06
15,20,1,2,15,20,720,2248.647601452045,2249.348775549355,"[86, 0, 168]",168,l,0.18325464928057045,colour,0.06
15,20,1,2,15,21,721,2251.3613806228095,2252.188902021502,"[72, 0, 182]",182,l,0.30430825302028097,colour,0.06
15,20,1,2,15,22,722,2254.2106041731313,2254.9968307131203,"[61, 0, 193]",193,l,0.2630476590129547,colour,0.06
15,20,1,2,15,23,723,2257.003283502505,2257.8608042277046,"[91, 0, 163]",163,l,0.3456507671799045,colour,0.06
15,20,1,2,15,24,724,2259.8685716783802,2260.6127668658155,"[98, 0, 156]",156,l,0.2211368236457929,colour,0.06
15,20,1,2,15,25,725,2262.633754578972,2263.42083419158,"[88, 0, 166]",166,l,0.2636683619057294,colour,0.06
15,20,1,2,15,26,726,2265.4309316411673,2266.556810658454,"[64, 0, 190]",190,l,0.6025559883273672,colour,0.06
15,20,1,2,15,27,727,2268.571793386276,2269.3890751566505,"[94, 0, 160]",160,l,0.2939827660447918,colour,0.06
15,20,1,2,15,28,728,2271.4023895485443,2272.300877845584,"[84, 0, 170]",170,l,0.37514990800991654,colour,0.06
15,20,1,2,15,29,729,2274.3088611244166,2274.900839563663,"[74, 0, 180]",180,l,0.0689212569850497,colour,0.06
15,20,1,2,15,30,730,2276.906225815328,2277.68485268348,"[18, 0, 236]",236,a,0.25267097193864174,colour,0.06
15,20,1,2,15,31,731,2279.706186588155,2280.388865236193,"[82, 0, 172]",172,l,0.1593371082271915,colour,0.06
15,20,1,2,15,32,732,2282.3956157738867,2283.108969196037,"[75, 0, 179]",179,l,0.1899039682757575,colour,0.06
15,20,1,2,15,33,733,2285.1145941189898,2285.876877517905,"[96, 0, 158]",158,l,0.23904229010804556,colour,0.06
15,20,1,2,15,34,734,2287.896133091941,2288.708857658581,"[69, 0, 185]",185,l,0.28938342072069645,colour,0.06
15,20,1,2,15,35,735,2290.7244685723854,2291.28488568787,"[99, 0, 155]",155,l,0.03546946760616265,colour,0.06
15,20,1,2,15,36,736,2293.3043803270266,2293.82891876786,"[76, 0, 178]",178,l,0.001222501101437956,colour,0.06
15,20,1,2,15,37,737,2295.8515322814637,2296.708889954025,"[66, 0, 188]",188,l,0.33410120371263474,colour,0.06
15,20,1,2,15,38,738,2298.729182133364,2299.5489215090347,"[78, 0, 176]",176,l,0.296395078941714,colour,0.06
15,20,1,2,15,39,739,2301.5575128876662,2302.156868475169,"[97, 0, 157]",157,l,0.0761136910005007,colour,0.06
15,20,1,2,15,40,740,2304.1671092850447,2304.9809003894043,"[80, 0, 174]",174,l,0.2904452322400175,colour,0.06
15,20,1,2,15,41,741,2306.995495965617,2308.156924795301,"[63, 0, 191]",191,l,0.638101862219628,colour,0.06
15,20,1,2,15,42,742,2310.167661852407,2310.8449447964376,"[92, 0, 162]",162,l,0.15402844443451613,colour,0.06
15,20,1,2,15,43,743,2312.855363231298,2313.5649534453114,"[85, 0, 169]",169,l,0.18791070856968872,colour,0.06
15,20,1,2,15,44,744,2315.5753848771274,2316.156919675297,"[52, 0, 202]",202,l,0.058422477333806455,colour,0.06
15,20,1,2,15,45,745,2318.1694408593467,2319.98895062221,"[58, 0, 196]",196,a,1.2962280878273305,colour,0.06
15,20,1,2,15,46,746,2322.0006092813273,2322.6929403317918,"[73, 0, 181]",181,l,0.1690470123430714,colour,0.06
15,20,1,2,15,47,747,2324.70387746318,2325.932936125493,"[30, 0, 224]",224,a,0.7057982550177258,colour,0.06
15,20,1,2,15,48,748,2327.954150694539,2328.868970251555,"[93, 0, 161]",161,l,0.39225350198103115,colour,0.06
15,20,1,2,15,49,749,2330.876240667305,2331.6929777472396,"[11, 0, 243]",243,a,0.293996550666634,colour,0.06
15,20,1,2,15,50,750,2333.7045576369565,2334.8609720065433,"[54, 0, 200]",200,a,0.6330436851130798,colour,0.06
15,20,1,2,16,1,751,2345.846906154533,2346.7410081774287,"[72, 0, 182]",182,l,0.3700716446910519,colour,0.06
15,20,1,2,16,2,752,2348.755361143907,2349.573022976634,"[51, 0, 203]",203,a,0.29441166543983854,colour,0.06
15,20,1,2,16,3,753,2351.5904723682906,2352.589084057574,"[70, 0, 184]",184,l,0.47533513425150886,colour,0.06
15,20,1,2,16,4,754,2354.592758650164,2355.1250519385794,"[89, 0, 165]",165,l,0.009272340103052557,colour,0.06
15,20,1,2,16,5,755,2357.1397105303186,2357.94101077682,"[86, 0, 168]",168,l,0.2715263973805122,colour,0.06
15,20,1,2,16,6,756,2359.9556863040198,2361.1890918557474,"[64, 0, 190]",190,l,0.710189649136737,colour,0.06
15,20,1,2,16,7,757,2363.1945533321996,2364.797087265062,"[55, 0, 199]",199,a,1.0792451685701963,colour,0.06
15,20,1,2,16,8,758,2366.804356893117,2368.2290645700414,"[76, 0, 178]",178,l,0.9016205622756388,colour,0.06
15,20,1,2,16,9,759,2370.2420973613334,2371.445056570199,"[50, 0, 204]",204,a,0.6799181743408553,colour,0.06
15,20,1,2,16,10,760,2373.4610719649063,2374.9170869342342,"[68, 0, 186]",186,l,0.9327608635649085,colour,0.06
15,20,1,2,16,11,761,2376.9316832981713,2377.6373854545236,"[88, 0, 166]",166,l,0.1827851836278569,colour,0.06
15,20,1,2,16,12,762,2379.6503894949856,2380.1814350760833,"[93, 0, 161]",161,l,0.007752090634312481,colour,0.06
15,20,1,2,16,13,763,2382.2130704430747,2384.2610839378613,"[56, 0, 198]",198,a,1.5247030688915402,colour,0.06
15,20,1,2,16,14,764,2386.2746460595517,2387.2131015569903,"[82, 0, 172]",172,l,0.4126740754581988,colour,0.06
15,20,1,2,16,15,765,2389.2306352318847,2390.261073697824,"[6, 0, 248]",248,a,0.511408369318815,colour,0.06
15,20,1,2,16,16,766,2392.279495103896,2393.1810963676544,"[63, 0, 191]",191,l,0.37833770568249747,colour,0.06
15,20,1,2,16,17,767,2395.2016768430185,2396.6450973727624,"[53, 0, 201]",201,a,0.9201743009325583,colour,0.06
15,20,1,2,16,18,768,2398.656931687641,2400.0371299265826,"[99, 0, 155]",155,l,0.8569240469951183,colour,0.06
15,20,1,2,16,19,769,2402.047831537464,2402.75712242772,"[73, 0, 181]",181,l,0.1844806949957274,colour,0.06
15,20,1,2,16,20,770,2404.7683577013086,2405.9411549248325,"[57, 0, 197]",197,l,0.6494694683933631,colour,0.06
15,20,1,2,16,21,771,2407.9592277763004,2409.149097873742,"[84, 0, 170]",170,l,0.6672953777888324,colour,0.06
15,20,1,2,16,22,772,2411.1623728809645,2411.789139038621,"[94, 0, 160]",160,l,0.10337420547148213,colour,0.06
15,20,1,2,16,23,773,2413.8032903554267,2414.4931771913834,"[59, 0, 195]",195,l,0.16661028092494234,colour,0.06
15,20,1,2,16,24,774,2416.506611706631,2417.645156449813,"[58, 0, 196]",196,l,0.6127755304332823,colour,0.06
15,20,1,2,16,25,775,2419.66440454073,2421.2291370378807,"[91, 0, 163]",163,l,1.0417572350706905,colour,0.06
15,20,1,2,16,26,776,2423.234801739396,2423.933180310647,"[65, 0, 189]",189,l,0.175398583029164,colour,0.06
15,20,1,2,16,27,777,2425.946565595019,2427.25320069617,"[54, 0, 200]",200,a,0.7917541827482637,colour,0.06
15,20,1,2,16,28,778,2429.267171237181,2430.7252361802093,"[74, 0, 180]",180,l,0.9348391942330636,colour,0.06
15,20,1,2,16,29,779,2432.7363800812745,2433.5412308585364,"[97, 0, 157]",157,l,0.2817089179006871,colour,0.06
15,20,1,2,16,30,780,2435.551250720251,2436.7811530028703,"[1, 0, 253]",253,a,0.7069888545374852,colour,0.06
15,20,1,2,16,31,781,2438.801185637014,2440.725249177165,"[77, 0, 177]",177,l,1.4014494357688818,colour,0.06
15,20,1,2,16,32,782,2442.7404130746145,2444.8852002928616,"[87, 0, 167]",167,l,1.6214740354334936,colour,0.06
15,20,1,2,16,33,783,2446.8822358064353,2449.4372091685946,"[66, 0, 188]",188,l,2.0316117361653596,colour,0.06
15,20,1,2,16,34,784,2451.445159758121,2453.685242198175,"[78, 0, 176]",176,l,1.7167011217097752,colour,0.06
15,20,1,2,16,35,785,2455.6966901491396,2456.581231142103,"[79, 0, 175]",175,l,0.3612679825455416,colour,0.06
15,20,1,2,16,36,786,2458.587544115784,2459.165231422521,"[80, 0, 174]",174,l,0.061281806585611776,colour,0.06
15,20,1,2,16,37,787,2461.1747306184843,2461.9492453300627,"[85, 0, 169]",169,l,0.2513937260955572,colour,0.06
15,20,1,2,16,38,788,2463.9578512810112,2465.2612131196656,"[90, 0, 164]",164,l,0.780067166662775,colour,0.06
15,20,1,2,16,39,789,2467.2694394020946,2467.7972672531614,"[95, 0, 159]",159,l,0.002116139978170395,colour,0.06
15,20,1,2,16,40,790,2469.8190304510645,2470.701308792981,"[71, 0, 183]",183,l,0.35898406375781633,colour,0.06
15,20,1,2,16,41,791,2472.7099115931487,2473.3172709395585,"[96, 0, 158]",158,l,0.08192175283329561,colour,0.06
15,20,1,2,16,42,792,2475.33714603493,2476.4852809527365,"[69, 0, 185]",185,l,0.624779987236252,colour,0.06
15,20,1,2,16,43,793,2478.4929751478485,2480.3893732988217,"[60, 0, 194]",194,l,1.3732901624462102,colour,0.06
15,20,1,2,16,44,794,2482.400353359524,2482.981290297932,"[98, 0, 156]",156,l,0.05761627250467427,colour,0.06
15,20,1,2,16,45,795,2484.994194695115,2486.485315217433,"[52, 0, 202]",202,a,0.9677793763694353,colour,0.06
15,20,1,2,16,46,796,2488.4960180098424,2489.3014126898197,"[75, 0, 179]",179,l,0.28210355259943753,colour,0.06
15,20,1,2,16,47,797,2491.3090454448247,2492.093294872844,"[67, 0, 187]",187,l,0.2613757784711197,colour,0.06
15,20,1,2,16,48,798,2494.1058286600164,2495.333335958974,"[81, 0, 173]",173,l,0.7041921469208319,colour,0.06
15,20,1,2,16,49,799,2497.342436975625,2498.1413253030623,"[11, 0, 243]",243,a,0.27599537940113805,colour,0.06
15,20,1,2,16,50,800,2500.1452755885257,2501.261319064506,"[62, 0, 192]",192,l,0.5927409270370845,colour,0.06
