id,age,condition,counterbalance,block,trialinblock,trial,tstart,tend,trialstim,trialintensity,response,RT,trialtype,colourfreq
42,21,0,1,Practice,1,NA,5.5138953030109406e-06,1.095745594240725,"[32, 0, 222]",222,a,0.5722822048701346,colour,0.5
42,21,0,1,Practice,2,NA,3.1105585447512567,7.215722184162587,"[11, 0, 243]",243,a,3.5837431303225458,colour,0.5
42,21,0,1,Practice,3,NA,9.236016292590648,10.111731812823564,"[83, 0, 171]",171,l,0.35346714640036225,colour,0.5
42,21,0,1,Practice,4,NA,12.126847237348557,18.015746366232634,"[44, 0, 210]",210,a,5.3666476043872535,colour,0.5
42,21,0,1,Practice,5,NA,20.034150800667703,20.72776482021436,"[97, 0, 157]",157,l,0.17177170142531395,colour,0.5
42,21,0,1,Practice,6,NA,22.73703320370987,23.40774979116395,"[92, 0, 162]",162,l,0.14837526623159647,colour,0.5
42,21,0,1,Practice,7,NA,25.42477576388046,28.551724219694734,"[67, 0, 187]",187,a,2.604648882523179,colour,0.5
42,21,0,1,Practice,8,NA,30.565944431349635,31.11972925439477,"[90, 0, 164]",164,l,0.03147382754832506,colour,0.5
42,21,0,1,Practice,9,NA,33.12867625942454,33.911738271825016,"[18, 0, 236]",236,a,0.261022771243006,colour,0.5
42,21,0,1,Practice,10,NA,35.9257379299961,36.47177146514878,"[22, 0, 232]",232,a,0.023723721504211426,colour,0.5
42,21,0,1,1,1,1,7.197193688247353,8.287983121350408,"[45, 0, 209]",209,a,0.5678502530790865,colour,0.5
42,21,0,1,1,2,2,10.307580516207963,11.095968117471784,"[12, 0, 242]",242,a,0.2661447417922318,colour,0.5
42,21,0,1,1,3,3,13.105017128400505,13.631992838345468,"[77, 0, 177]",177,l,0.00535355182364583,colour,0.5
42,21,0,1,1,4,4,15.651787943672389,16.687985957134515,"[50, 0, 204]",204,a,0.5141260828822851,colour,0.5
42,21,0,1,1,5,5,18.698894316330552,19.35197328776121,"[54, 0, 200]",200,a,0.13088613003492355,colour,0.5
42,21,0,1,1,6,6,21.370957070030272,23.167949424125254,"[62, 0, 192]",192,a,1.2750393650494516,colour,0.5
42,21,0,1,1,7,7,25.18361426377669,26.280016005970538,"[49, 0, 205]",205,a,0.573978106956929,colour,0.5
42,21,0,1,1,8,8,28.293367787264287,28.86399544402957,"[79, 0, 175]",175,l,0.048499406315386295,colour,0.5
42,21,0,1,1,9,9,30.8716754456982,31.7519950279966,"[21, 0, 233]",233,a,0.358259467408061,colour,0.5
42,21,0,1,1,10,10,33.76250402722508,34.66395700490102,"[83, 0, 171]",171,l,0.3792479271069169,colour,0.5
42,21,0,1,1,11,11,36.66905101202428,37.87199721811339,"[65, 0, 189]",189,a,0.6807057093828917,colour,0.5
42,21,0,1,1,12,12,39.88806771952659,40.64795778924599,"[33, 0, 221]",221,a,0.23809146834537387,colour,0.5
42,21,0,1,1,13,13,42.65387532906607,43.40800342801958,"[36, 0, 218]",218,a,0.23206719616428018,colour,0.5
42,21,0,1,1,14,14,45.41961165191606,46.047964957077056,"[41, 0, 213]",213,a,0.10609390400350094,colour,0.5
42,21,0,1,1,15,15,48.060479421168566,48.8399972114712,"[94, 0, 160]",160,l,0.2571280258707702,colour,0.5
42,21,0,1,1,16,16,50.85763797815889,51.67199461860582,"[58, 0, 196]",196,a,0.29228274058550596,colour,0.5
42,21,0,1,1,17,17,53.68608998134732,54.48798099486157,"[76, 0, 178]",178,l,0.2797422828152776,colour,0.5
42,21,0,1,1,18,18,56.49869636911899,57.384040642064065,"[90, 0, 164]",164,l,0.363005708437413,colour,0.5
42,21,0,1,1,19,19,59.389589147642255,59.99198444141075,"[24, 0, 230]",230,a,0.08081291429698467,colour,0.5
42,21,0,1,1,20,20,61.99917331710458,63.06398504646495,"[53, 0, 201]",201,a,0.5425058542750776,colour,0.5
42,21,0,1,1,21,21,65.07754832319915,66.14398466842249,"[81, 0, 173]",173,l,0.5441726115532219,colour,0.5
42,21,0,1,1,22,22,68.15588512597606,68.96002460783347,"[59, 0, 195]",195,a,0.2818064312450588,colour,0.5
42,21,0,1,1,23,23,70.9686254216358,72.03199528018013,"[37, 0, 217]",217,a,0.5411262111738324,colour,0.5
42,21,0,1,1,24,24,74.04709376953542,74.83197298878804,"[98, 0, 156]",156,l,0.26271315943449736,colour,0.5
42,21,0,1,1,25,25,76.8442854094319,78.0799925327301,"[70, 0, 184]",184,a,0.7136442512273788,colour,0.5
42,21,0,1,1,26,26,80.09433208033442,81.12803113926202,"[3, 0, 251]",251,a,0.5113900331780314,colour,0.5
42,21,0,1,1,27,27,83.1415325817652,84.06399725563824,"[17, 0, 237]",237,a,0.4002667125314474,colour,0.5
42,21,0,1,1,28,28,86.07927967095748,86.86402183165774,"[30, 0, 224]",224,a,0.26253356551751494,colour,0.5
42,21,0,1,1,29,29,88.8771030404605,89.75198163744062,"[9, 0, 245]",245,a,0.3533320571295917,colour,0.5
42,21,0,1,1,30,30,91.76715062512085,92.58401291491464,"[97, 0, 157]",157,l,0.2946485746651888,colour,0.5
42,21,0,1,1,31,31,94.59555812366307,95.52796426415443,"[29, 0, 225]",225,a,0.41013531759381294,colour,0.5
42,21,0,1,1,32,32,97.5331941479817,98.34398372331634,"[92, 0, 162]",162,l,0.28841320145875216,colour,0.5
42,21,0,1,1,33,33,100.36156659433618,101.19999472238123,"[42, 0, 212]",212,a,0.3161084679886699,colour,0.5
42,21,0,1,1,34,34,103.20558733912185,104.0959708741866,"[11, 0, 243]",243,a,0.3681639120914042,colour,0.5
42,21,0,1,1,35,35,106.11223751166835,107.27206661365926,"[34, 0, 220]",220,a,0.6377406301908195,colour,0.5
42,21,0,1,1,36,36,109.28421440673992,110.26401718426496,"[1, 0, 253]",253,a,0.4576004836708307,colour,0.5
42,21,0,1,1,37,37,112.28450900362805,113.1279933298938,"[73, 0, 181]",181,l,0.3212843956425786,colour,0.5
42,21,0,1,1,38,38,115.1439834870398,116.06401734193787,"[82, 0, 172]",172,l,0.39769883500412107,colour,0.5
42,21,0,1,1,39,39,118.08181722229347,118.89598639216274,"[22, 0, 232]",232,a,0.2919759345240891,colour,0.5
42,21,0,1,1,40,40,120.91005497332662,121.79199956543744,"[72, 0, 182]",182,l,0.35987344942986965,colour,0.5
42,21,0,1,1,41,41,123.80097847152501,124.59201823361218,"[4, 0, 250]",250,a,0.26873506838455796,colour,0.5
42,21,0,1,1,42,42,126.59796570567414,127.40001819562167,"[19, 0, 235]",235,a,0.2796536670066416,colour,0.5
42,21,0,1,1,43,43,129.41075286874548,130.19997266726568,"[80, 0, 174]",174,l,0.266941886395216,colour,0.5
42,21,0,1,1,44,44,132.20782241644338,133.03202836355194,"[40, 0, 214]",214,a,0.3017964903265238,colour,0.5
42,21,0,1,1,45,45,135.05177226895466,135.87200115667656,"[25, 0, 229]",229,a,0.2979876035824418,colour,0.5
42,21,0,1,1,46,46,137.8801935520023,139.09600080689415,"[51, 0, 203]",203,a,0.6934316689148545,colour,0.5
42,21,0,1,1,47,47,141.11481799185276,141.98400354152545,"[2, 0, 252]",252,a,0.3468938530422747,colour,0.5
42,21,0,1,1,48,48,143.99004553677514,144.8960131732747,"[63, 0, 191]",191,l,0.3837295030243695,colour,0.5
42,21,0,1,1,49,49,146.91218804428354,147.73602613899857,"[71, 0, 183]",183,l,0.30161925964057446,colour,0.5
42,21,0,1,1,50,50,149.7561012688093,150.62402139091864,"[28, 0, 226]",226,a,0.3459757976233959,colour,0.5
42,21,0,1,2,1,51,158.3654286507517,159.19998330110684,"[76, 0, 178]",178,l,0.3114992859773338,colour,0.5
42,21,0,1,2,2,52,161.21019573369995,162.13602188555524,"[59, 0, 195]",195,l,0.40363134117797017,colour,0.5
42,21,0,1,2,3,53,164.1478081275709,164.78400763776153,"[26, 0, 228]",228,a,0.11385425040498376,colour,0.5
42,21,0,1,2,4,54,166.80443053413182,167.43203238071874,"[2, 0, 252]",252,a,0.10563389165326953,colour,0.5
42,21,0,1,2,5,55,169.44522859249264,170.23199984896928,"[16, 0, 238]",238,a,0.26453548623248935,colour,0.5
42,21,0,1,2,6,56,172.2423997526057,172.8800159273669,"[17, 0, 237]",237,a,0.11544735822826624,colour,0.5
42,21,0,1,2,7,57,174.89878900162876,176.3759963326156,"[49, 0, 205]",205,l,0.9549715602770448,colour,0.5
42,21,0,1,2,8,58,178.38342624157667,179.20001914119348,"[4, 0, 250]",250,a,0.2944197505712509,colour,0.5
42,21,0,1,2,9,59,181.21174670010805,181.96801653550938,"[15, 0, 239]",239,a,0.233982864767313,colour,0.5
42,21,0,1,2,10,60,183.97762323264033,184.60804423084483,"[92, 0, 162]",162,l,0.10810527671128511,colour,0.5
42,21,0,1,2,11,61,186.61843783268705,187.1440303544514,"[33, 0, 221]",221,a,0.003307914361357689,colour,0.5
42,21,0,1,2,12,62,189.16550875874236,190.14400002826005,"[54, 0, 200]",200,l,0.4561692466959357,colour,0.5
42,21,0,1,2,13,63,192.15010818978772,192.73599305562675,"[87, 0, 167]",167,l,0.06352070160210133,colour,0.5
42,21,0,1,2,14,64,194.74409368494526,195.39202626794577,"[73, 0, 181]",181,l,0.12613280024379492,colour,0.5
42,21,0,1,2,15,65,197.4005420114845,197.92802026914433,"[93, 0, 161]",161,l,0.005150720942765474,colour,0.5
42,21,0,1,2,16,66,199.94763381127268,200.71203026967123,"[63, 0, 191]",191,l,0.24212957406416535,colour,0.5
42,21,0,1,2,17,67,202.72910862369463,203.78403048077598,"[58, 0, 196]",196,a,0.5326569420285523,colour,0.5
42,21,0,1,2,18,68,205.79189322702587,206.6160207982175,"[83, 0, 171]",171,l,0.3019071607850492,colour,0.5
42,21,0,1,2,19,69,208.63585843937472,209.48800856387243,"[45, 0, 209]",209,a,0.32990372041240335,colour,0.5
42,21,0,1,2,20,70,211.49539869464934,212.57605170737952,"[64, 0, 190]",190,l,0.5583904609084129,colour,0.5
42,21,0,1,2,21,71,214.58951140241697,215.60004127537832,"[79, 0, 175]",175,l,0.48832285311073065,colour,0.5
42,21,0,1,2,22,72,217.60625498741865,218.68001805385575,"[56, 0, 198]",198,a,0.5524993087165058,colour,0.5
42,21,0,1,2,23,73,220.699294464197,221.56803811807185,"[36, 0, 218]",218,a,0.34650000650435686,colour,0.5
42,21,0,1,2,24,74,223.57449443917722,224.35204614931718,"[5, 0, 249]",249,a,0.25523283798247576,colour,0.5
42,21,0,1,2,25,75,226.37152460264042,227.4000437958166,"[67, 0, 187]",187,l,0.5063574658706784,colour,0.5
42,21,0,1,2,26,76,229.41874794708565,230.4400227330625,"[77, 0, 177]",177,l,0.49900356912985444,colour,0.5
42,21,0,1,2,27,77,232.4502138979733,233.24003037344664,"[38, 0, 216]",216,a,0.26758109871298075,colour,0.5
42,21,0,1,2,28,78,235.24726178403944,235.87203030101955,"[94, 0, 160]",160,l,0.10240986617282033,colour,0.5
42,21,0,1,2,29,79,237.88816657522693,238.68802928039804,"[8, 0, 246]",246,a,0.27793846698477864,colour,0.5
42,21,0,1,2,30,80,240.70080801518634,241.8240235960111,"[13, 0, 241]",241,a,0.6008908012881875,colour,0.5
42,21,0,1,2,31,81,243.84184474451467,244.39201130205765,"[30, 0, 224]",224,a,0.028027279302477837,colour,0.5
42,21,0,1,2,32,82,246.40439382754266,246.95201338129118,"[12, 0, 242]",242,a,0.025607094168663025,colour,0.5
42,21,0,1,2,33,83,248.96713510761037,251.2727274876088,"[44, 0, 210]",210,a,1.7832904434762895,colour,0.5
42,21,0,1,2,34,84,253.29091451875865,253.86401277314872,"[98, 0, 156]",156,l,0.05089950514957309,colour,0.5
42,21,0,1,2,35,85,255.884781466797,256.9360070768744,"[40, 0, 214]",214,a,0.528929581400007,colour,0.5
42,21,0,1,2,36,86,258.94746366981417,259.4880952099338,"[95, 0, 159]",159,l,0.018408766482025385,colour,0.5
42,21,0,1,2,37,87,261.49458500836045,262.3520485125482,"[24, 0, 230]",230,a,0.33523049065843225,colour,0.5
42,21,0,1,2,38,88,264.3697593836114,265.13601243309677,"[69, 0, 185]",185,l,0.24400625098496675,colour,0.5
42,21,0,1,2,39,89,267.15131099615246,268.184028590098,"[32, 0, 222]",222,a,0.5104877310805023,colour,0.5
42,21,0,1,2,40,90,270.19840830983594,270.7440160973929,"[29, 0, 225]",225,a,0.023547672200948,colour,0.5
42,21,0,1,2,41,91,272.76116376835853,273.5440134978853,"[70, 0, 184]",184,l,0.26057536201551557,colour,0.5
42,21,0,1,2,42,92,275.5582474945113,276.2000463162549,"[89, 0, 165]",165,l,0.11949018947780132,colour,0.5
42,21,0,1,2,43,93,278.21455403603613,279.5520621393807,"[75, 0, 179]",179,l,0.8150856494903564,colour,0.5
42,21,0,1,2,44,94,281.55869726696983,283.4720168313943,"[57, 0, 197]",197,l,1.3910759170539677,colour,0.5
42,21,0,1,2,45,95,285.4809020026587,286.3360339370556,"[52, 0, 202]",202,a,0.33284181309863925,colour,0.5
42,21,0,1,2,46,96,288.35634970711544,289.00804312806576,"[28, 0, 226]",226,a,0.13069590274244547,colour,0.5
42,21,0,1,2,47,97,291.01257905503735,291.8800206533633,"[21, 0, 233]",233,a,0.34518889244645834,colour,0.5
42,21,0,1,2,48,98,293.88777706120163,294.5600599749014,"[37, 0, 217]",217,a,0.1503023556433618,colour,0.5
42,21,0,1,2,49,99,296.5755152888596,297.1280240500346,"[20, 0, 234]",234,a,0.03025251068174839,colour,0.5
42,21,0,1,2,50,100,299.1381880394183,299.8000123668462,"[88, 0, 166]",166,l,0.13975003361701965,colour,0.5
42,21,0,1,3,1,101,308.2944485009648,309.7200233787298,"[42, 0, 212]",212,a,0.9025715007446706,colour,0.5
42,21,0,1,3,2,102,311.73300730763003,312.5520278750919,"[28, 0, 226]",226,a,0.29684978164732456,colour,0.5
42,21,0,1,3,3,103,314.5613632122986,315.64004659978673,"[79, 0, 175]",175,l,0.5567256724461913,colour,0.5
42,21,0,1,3,4,104,317.6553735197522,318.5680519025773,"[47, 0, 207]",207,a,0.39046742441132665,colour,0.5
42,21,0,1,3,5,105,320.5774947600439,321.3680138573982,"[86, 0, 168]",168,l,0.26833964698016644,colour,0.5
42,21,0,1,3,6,106,323.37449144618586,324.20802997332066,"[44, 0, 210]",210,a,0.3111964180134237,colour,0.5
42,21,0,1,3,7,107,326.2184940739535,327.60801351070404,"[89, 0, 165]",165,l,0.8672226201742887,colour,0.5
42,21,0,1,3,8,108,329.62502294173464,330.3600384709425,"[37, 0, 217]",217,a,0.21270177699625492,colour,0.5
42,21,0,1,3,9,109,332.3752133664675,333.74402751913294,"[63, 0, 191]",191,a,0.8465618407353759,colour,0.5
42,21,0,1,3,10,110,335.75048620346934,336.5440320088528,"[72, 0, 182]",182,l,0.27175114303827286,colour,0.5
42,21,0,1,3,11,111,338.5632107448764,339.13606678368524,"[39, 0, 215]",215,a,0.05054031731560826,colour,0.5
42,21,0,1,3,12,112,341.14156724046916,341.84003659617156,"[15, 0, 239]",239,a,0.17622137628495693,colour,0.5
42,21,0,1,3,13,113,343.8605532278307,344.6880253418349,"[11, 0, 243]",243,a,0.30577512504532933,colour,0.5
42,21,0,1,3,14,114,346.70442628022283,347.4800308146514,"[64, 0, 190]",190,l,0.2535605668090284,colour,0.5
42,21,0,1,3,15,115,349.4860042803921,350.77602516207844,"[51, 0, 203]",203,a,0.7678898740559816,colour,0.5
42,21,0,1,3,16,116,352.78309627762064,353.360038864892,"[97, 0, 157]",157,l,0.05468121683225036,colour,0.5
42,21,0,1,3,17,117,355.37705341586843,356.19207132421434,"[75, 0, 179]",179,l,0.29274157155305147,colour,0.5
42,21,0,1,3,18,118,358.20543846534565,358.92006457503885,"[81, 0, 173]",173,l,0.19241830240935087,colour,0.5
42,21,0,1,3,19,119,360.9400601484813,361.6880410956219,"[29, 0, 225]",225,a,0.2255777921527624,colour,0.5
42,21,0,1,3,20,120,363.70597488386557,364.70406236639246,"[41, 0, 213]",213,a,0.47589227836579084,colour,0.5
42,21,0,1,3,21,121,366.7218382223509,367.5280583933927,"[92, 0, 162]",162,l,0.28419077582657337,colour,0.5
42,21,0,1,3,22,122,369.53458836395293,370.2720504659228,"[94, 0, 160]",160,l,0.21522042388096452,colour,0.5
42,21,0,1,3,23,123,372.28485716413707,373.60805801535025,"[77, 0, 177]",177,l,0.8010682687163353,colour,0.5
42,21,0,1,3,24,124,375.6287176129408,376.6000676630065,"[22, 0, 232]",232,a,0.4490071530453861,colour,0.5
42,21,0,1,3,25,125,378.613372576423,379.7600696636364,"[5, 0, 249]",249,a,0.6244963691569865,colour,0.5
42,21,0,1,3,26,126,381.76998671190813,382.392073135823,"[35, 0, 219]",219,a,0.09995226608589292,colour,0.5
42,21,0,1,3,27,127,384.41067961324006,385.05603210953996,"[4, 0, 250]",250,a,0.12308206735178828,colour,0.5
42,21,0,1,3,28,128,387.0671527516097,387.88804487651214,"[48, 0, 206]",206,a,0.2985385940410197,colour,0.5
42,21,0,1,3,29,129,389.89555946271867,390.5840542688966,"[20, 0, 234]",234,a,0.16634095553308725,colour,0.5
42,21,0,1,3,30,130,392.59886958263814,393.23202978121117,"[32, 0, 222]",222,a,0.11094884667545557,colour,0.5
42,21,0,1,3,31,131,395.2397089949809,395.81604742258787,"[33, 0, 221]",221,a,0.05402388796210289,colour,0.5
42,21,0,1,3,32,132,397.8336917334236,398.4720703945495,"[65, 0, 189]",189,l,0.11637447215616703,colour,0.5
42,21,0,1,3,33,133,400.49014872452244,401.3760577724315,"[88, 0, 166]",166,l,0.3636457081884146,colour,0.5
42,21,0,1,3,34,134,403.3809812441468,404.31208099704236,"[57, 0, 197]",197,a,0.4088438958860934,colour,0.5
42,21,0,1,3,35,135,406.31882167514414,407.4640371128917,"[46, 0, 208]",208,a,0.6230737962760031,colour,0.5
42,21,0,1,3,36,136,409.47535704122856,410.3200500817038,"[70, 0, 184]",184,l,0.32321581756696105,colour,0.5
42,21,0,1,3,37,137,412.334855155088,413.1680624578148,"[13, 0, 241]",241,a,0.31101249204948545,colour,0.5
42,21,0,1,3,38,138,415.1788195800036,416.13603409472853,"[18, 0, 236]",236,a,0.43494566110894084,colour,0.5
42,21,0,1,3,39,139,418.14793770294636,419.392073135823,"[74, 0, 180]",180,l,0.7220189976505935,colour,0.5
42,21,0,1,3,40,140,421.3980643246323,422.4640646823682,"[45, 0, 209]",209,a,0.5437366240657866,colour,0.5
42,21,0,1,3,41,141,424.47646926296875,425.4560727546923,"[67, 0, 187]",187,l,0.45809200406074524,colour,0.5
42,21,0,1,3,42,142,427.4766650046222,428.3760416251607,"[69, 0, 185]",185,l,0.37704947777092457,colour,0.5
42,21,0,1,3,43,143,430.3831989923492,431.2560571581125,"[73, 0, 181]",181,l,0.35065665980800986,colour,0.5
42,21,0,1,3,44,144,433.27404135884717,434.08805102063343,"[66, 0, 188]",188,l,0.2935359594412148,colour,0.5
42,21,0,1,3,45,145,436.1006765491329,436.91204468440264,"[62, 0, 192]",192,l,0.2890661987476051,colour,0.5
42,21,0,1,3,46,146,438.92904663225636,440.0160535662435,"[58, 0, 196]",196,l,0.5648841974325478,colour,0.5
42,21,0,1,3,47,147,442.02306560473517,442.83204466849566,"[3, 0, 251]",251,a,0.2865585791878402,colour,0.5
42,21,0,1,3,48,148,444.85141796479,446.0881073405035,"[55, 0, 199]",199,l,0.7146131130866706,colour,0.5
42,21,0,1,3,49,149,448.1016710107215,448.95204410143197,"[27, 0, 227]",227,a,0.32806760910898447,colour,0.5
42,21,0,1,3,50,150,450.9613124849275,452.05607582675293,"[40, 0, 214]",214,a,0.572526783682406,colour,0.5
42,21,0,1,4,1,151,459.8830678416416,460.6800692542456,"[96, 0, 158]",158,l,0.27403151243925095,colour,0.5
42,21,0,1,4,2,152,462.6966084325686,463.5280745411292,"[12, 0, 242]",242,a,0.3091818946413696,colour,0.5
42,21,0,1,4,3,153,465.54059570049867,466.528054848779,"[40, 0, 214]",214,a,0.4651942332275212,colour,0.5
42,21,0,1,4,4,154,468.54086666647345,471.2960825692862,"[90, 0, 164]",164,l,2.2329372027888894,colour,0.5
42,21,0,1,4,5,155,473.306830632966,473.9280435061082,"[86, 0, 168]",168,l,0.09898576745763421,colour,0.5
42,21,0,1,4,6,156,475.94765901751816,476.8640509764664,"[69, 0, 185]",185,l,0.3940719054080546,colour,0.5
42,21,0,1,4,7,157,478.8697593836114,479.60808243369684,"[48, 0, 206]",206,a,0.2161565963178873,colour,0.5
42,21,0,1,4,8,158,481.62001321744174,482.3120388556272,"[88, 0, 166]",166,l,0.16984618734568357,colour,0.5
42,21,0,1,4,9,159,484.32335248216987,485.35206584166735,"[77, 0, 177]",177,l,0.5065114595927298,colour,0.5
42,21,0,1,4,10,160,487.37040017172694,487.98407797841355,"[72, 0, 182]",182,l,0.09156137192621827,colour,0.5
42,21,0,1,4,11,161,489.99566532857716,490.95206182450056,"[95, 0, 159]",159,l,0.4341489099897444,colour,0.5
42,21,0,1,4,12,162,492.96465190686285,494.17603823775426,"[82, 0, 172]",172,l,0.6892163325101137,colour,0.5
42,21,0,1,4,13,163,496.1836705841124,496.94404784124345,"[26, 0, 228]",228,a,0.2382143484428525,colour,0.5
42,21,0,1,4,14,164,498.9495053687133,500.2400725148618,"[63, 0, 191]",191,a,0.768377061933279,colour,0.5
42,21,0,1,4,15,165,502.24661075649783,503.0481000463478,"[74, 0, 180]",180,l,0.27916057175025344,colour,0.5
42,21,0,1,4,16,166,505.05940894735977,506.01606616936624,"[67, 0, 187]",187,l,0.4345210948958993,colour,0.5
42,21,0,1,4,17,167,508.02837780257687,508.65604463405907,"[32, 0, 222]",222,a,0.10544563317671418,colour,0.5
42,21,0,1,4,18,168,510.66923730121925,511.53605189640075,"[73, 0, 181]",181,l,0.3446646830998361,colour,0.5
42,21,0,1,4,19,169,513.5444971411489,514.8081039376557,"[47, 0, 207]",207,a,0.7415640107356012,colour,0.5
42,21,0,1,4,20,170,516.8259534426033,517.6720993816853,"[2, 0, 252]",252,a,0.3240582547150552,colour,0.5
42,21,0,1,4,21,171,519.6854350152425,520.52006725315,"[41, 0, 213]",213,a,0.3124236427247524,colour,0.5
42,21,0,1,4,22,172,522.5294671813026,523.3521068016998,"[1, 0, 253]",253,a,0.30050034215673804,colour,0.5
42,21,0,1,4,23,173,525.3577931537293,526.1760929822922,"[71, 0, 183]",183,l,0.2959462981671095,colour,0.5
42,21,0,1,4,24,174,528.1862022276036,529.7120826509781,"[87, 0, 167]",167,l,1.0036442591808736,colour,0.5
42,21,0,1,4,25,175,531.7177532492206,532.5040861549787,"[0, 0, 254]",254,a,0.2641676338389516,colour,0.5
42,21,0,1,4,26,176,534.5147952274419,535.3840823895298,"[61, 0, 193]",193,l,0.3477520439773798,colour,0.5
42,21,0,1,4,27,177,537.3899865383282,538.4960977714509,"[44, 0, 210]",210,a,0.5837962995283306,colour,0.5
42,21,0,1,4,28,178,540.5152434245683,541.6640936695039,"[8, 0, 246]",246,a,0.6265711514279246,colour,0.5
42,21,0,1,4,29,179,543.671823295299,544.5040861549787,"[99, 0, 155]",155,l,0.3103468921035528,colour,0.5
42,21,0,1,4,30,180,546.5157298245467,547.6960783158429,"[60, 0, 194]",194,l,0.6581406835466623,colour,0.5
42,21,0,1,4,31,181,549.7035334310494,550.5280579994433,"[89, 0, 165]",165,l,0.3023923793807626,colour,0.5
42,21,0,1,4,32,182,552.5476238862611,553.5440761195496,"[51, 0, 203]",203,a,0.47433776734396815,colour,0.5
42,21,0,1,4,33,183,555.5633718278259,556.4481001254171,"[55, 0, 199]",199,a,0.362441326957196,colour,0.5
42,21,0,1,4,34,184,558.4542709081434,559.2480880734511,"[13, 0, 241]",241,a,0.27168694557622075,colour,0.5
42,21,0,1,4,35,185,561.2669214066118,562.456114502158,"[53, 0, 201]",201,a,0.6669187280349433,colour,0.5
42,21,0,1,4,36,186,564.470348498784,565.5200641024858,"[9, 0, 245]",245,a,0.5276027130894363,colour,0.5
42,21,0,1,4,37,187,567.5330287329853,568.384095386602,"[54, 0, 200]",200,a,0.3287974065169692,colour,0.5
42,21,0,1,4,38,188,570.3926383052021,570.9841079106554,"[24, 0, 230]",230,a,0.06914640124887228,colour,0.5
42,21,0,1,4,39,189,573.0022874590941,573.8080692794174,"[7, 0, 247]",247,a,0.2835870096459985,colour,0.5
42,21,0,1,4,40,190,575.8149757669307,576.6321094171144,"[15, 0, 239]",239,a,0.29488724609836936,colour,0.5
42,21,0,1,4,41,191,578.6432217881083,579.4560794499703,"[97, 0, 157]",157,l,0.2904037004336715,colour,0.5
42,21,0,1,4,42,192,581.4717557113618,582.3281097509898,"[45, 0, 209]",209,a,0.3343659983947873,colour,0.5
42,21,0,1,4,43,193,584.3468934590928,585.2080914136022,"[4, 0, 250]",250,a,0.33908860851079226,colour,0.5
42,21,0,1,4,44,194,587.2221150961705,588.0000846772455,"[92, 0, 162]",162,l,0.2559130107983947,colour,0.5
42,21,0,1,4,45,195,590.019179129973,590.8000868037343,"[18, 0, 236]",236,a,0.2585411462932825,colour,0.5
42,21,0,1,4,46,196,592.8162628561258,593.6001255582087,"[28, 0, 226]",226,a,0.2615662789903581,colour,0.5
42,21,0,1,4,47,197,595.6141961086541,596.5521105825901,"[16, 0, 238]",238,a,0.41645024809986353,colour,0.5
42,21,0,1,4,48,198,598.5668034101836,600.104113645386,"[39, 0, 215]",215,a,1.015059104654938,colour,0.5
42,21,0,1,4,49,199,602.113923960831,603.1280913976952,"[34, 0, 220]",220,a,0.4919545091688633,colour,0.5
42,21,0,1,4,50,200,605.1454438688233,605.9521023905836,"[20, 0, 234]",234,a,0.28447237610816956,colour,0.5
42,21,0,1,5,1,201,614.0672327023931,615.040094728116,"[8, 0, 246]",246,a,0.44982477789744735,colour,0.5
42,21,0,1,5,2,202,617.0527230137959,617.6801318754442,"[28, 0, 226]",226,a,0.1052715526893735,colour,0.5
42,21,0,1,5,3,203,619.693370229099,620.5120898978785,"[98, 0, 156]",156,l,0.29632399696856737,colour,0.5
42,21,0,1,5,4,204,622.5217879675329,623.6321066599339,"[11, 0, 243]",243,a,0.5882782698608935,colour,0.5
42,21,0,1,5,5,205,625.6470676967874,626.2160955504514,"[79, 0, 175]",175,l,0.04672079719603062,colour,0.5
42,21,0,1,5,6,206,628.2254655458964,628.8321108347736,"[71, 0, 183]",183,l,0.08448631828650832,colour,0.5
42,21,0,1,5,7,207,630.8506515398622,631.4801135221496,"[3, 0, 251]",251,a,0.1074294364079833,colour,0.5
42,21,0,1,5,8,208,633.4914657459594,634.75207497878,"[12, 0, 242]",242,a,0.7384183607064188,colour,0.5
42,21,0,1,5,9,209,636.7573391278274,637.4240680220537,"[40, 0, 214]",214,a,0.14477511774748564,colour,0.5
42,21,0,1,5,10,210,639.4294286631048,640.5041042715311,"[0, 0, 254]",254,a,0.5524654379114509,colour,0.5
42,21,0,1,5,11,211,642.5233680787496,643.3280999045819,"[66, 0, 188]",188,l,0.2833254956640303,colour,0.5
42,21,0,1,5,12,212,645.3361497279257,646.4961087992415,"[62, 0, 192]",192,a,0.6377520514652133,colour,0.5
42,21,0,1,5,13,213,648.5082455649972,649.336089075543,"[49, 0, 205]",205,a,0.30548092164099216,colour,0.5
42,21,0,1,5,14,214,651.3522442542017,652.1681152330711,"[59, 0, 195]",195,a,0.2936675036326051,colour,0.5
42,21,0,1,5,15,215,654.1806167000905,655.0000850707293,"[84, 0, 170]",170,l,0.2972180275246501,colour,0.5
42,21,0,1,5,16,216,657.0089556695893,657.8961273888126,"[64, 0, 190]",190,l,0.36492019472643733,colour,0.5
42,21,0,1,5,17,217,659.9154376694933,660.9681134214625,"[7, 0, 247]",247,a,0.5304525843821466,colour,0.5
42,21,0,1,5,18,218,662.9781257803552,663.808127568569,"[76, 0, 178]",178,l,0.30774435587227345,colour,0.5
42,21,0,1,5,19,219,665.8220535772853,666.5600914829411,"[99, 0, 155]",155,l,0.21597306430339813,colour,0.5
42,21,0,1,5,20,220,668.5723566422239,669.36010188004,"[47, 0, 207]",207,a,0.2657319903373718,colour,0.5
42,21,0,1,5,21,221,671.3694187067449,672.1040841066279,"[60, 0, 194]",194,a,0.21240166621282697,colour,0.5
42,21,0,1,5,22,222,674.1196303991601,675.320123730693,"[46, 0, 208]",208,a,0.6787790134549141,colour,0.5
42,21,0,1,5,23,223,677.3388574207202,678.2481215503067,"[34, 0, 220]",220,a,0.3877219222486019,colour,0.5
42,21,0,1,5,24,224,680.2607596823946,681.3920873142779,"[13, 0, 241]",241,a,0.609059960115701,colour,0.5
42,21,0,1,5,25,225,683.4016668363474,684.2321904706769,"[18, 0, 236]",236,a,0.308266990352422,colour,0.5
42,21,0,1,5,26,226,686.2456710394472,687.2080874750391,"[91, 0, 163]",163,l,0.44011410512030125,colour,0.5
42,21,0,1,5,27,227,689.2145508853719,690.0400742478669,"[52, 0, 202]",202,a,0.3032387550920248,colour,0.5
42,21,0,1,5,28,228,692.0585779314861,692.9281333028339,"[45, 0, 209]",209,a,0.3473247205838561,colour,0.5
42,21,0,1,5,29,229,694.933818473015,696.664101940114,"[4, 0, 250]",250,a,1.2080346993170679,colour,0.5
42,21,0,1,5,30,230,698.6841392610222,699.5520751364529,"[58, 0, 196]",196,a,0.34568395745009184,colour,0.5
42,21,0,1,5,31,231,701.5596019318327,702.3600963666104,"[54, 0, 200]",200,a,0.27849339647218585,colour,0.5
42,21,0,1,5,32,232,704.3720897720195,705.1600925857201,"[75, 0, 179]",179,l,0.26597893238067627,colour,0.5
42,21,0,1,5,33,233,707.1691963411868,708.0001012184657,"[19, 0, 235]",235,a,0.3086935253813863,colour,0.5
42,21,0,1,5,34,234,710.0132159041241,710.7921212636866,"[29, 0, 225]",225,a,0.25678183510899544,colour,0.5
42,21,0,1,5,35,235,712.8102291319519,713.6561064678244,"[16, 0, 238]",238,a,0.32380382996052504,colour,0.5
42,21,0,1,5,36,236,715.6699036890641,716.2001353255473,"[17, 0, 237]",237,a,0.007998622953891754,colour,0.5
42,21,0,1,5,37,237,718.2169820982963,718.9041201043874,"[37, 0, 217]",217,a,0.1649613124318421,colour,0.5
42,21,0,1,5,38,238,720.9202725258656,721.5681160995737,"[68, 0, 186]",186,l,0.12563694780692458,colour,0.5
42,21,0,1,5,39,239,723.5766897383146,724.5521160964854,"[6, 0, 248]",248,a,0.453132298309356,colour,0.5
42,21,0,1,5,40,240,726.5613604551181,727.6321295029484,"[5, 0, 249]",249,a,0.5486711231060326,colour,0.5
42,21,0,1,5,41,241,729.6396838678047,730.4081456065178,"[73, 0, 181]",181,l,0.24612002354115248,colour,0.5
42,21,0,1,5,42,242,732.4211653755046,733.2800817782991,"[70, 0, 184]",184,l,0.3367625526152551,colour,0.5
42,21,0,1,5,43,243,735.2963878000155,736.0961256558076,"[85, 0, 169]",169,l,0.27764583891257644,colour,0.5
42,21,0,1,5,44,244,738.1091182492673,739.59212102741,"[61, 0, 193]",193,a,0.9607748845592141,colour,0.5
42,21,0,1,5,45,245,741.6094140280038,742.4561121393926,"[20, 0, 234]",234,a,0.32517126435413957,colour,0.5
42,21,0,1,5,46,246,744.4690070585348,745.2801503078081,"[23, 0, 231]",231,a,0.28891614312306046,colour,0.5
42,21,0,1,5,47,247,747.2973397262394,748.3681414634921,"[72, 0, 182]",182,l,0.5485372156836092,colour,0.5
42,21,0,1,5,48,248,750.3758171326481,751.2801353414543,"[93, 0, 161]",161,l,0.38209385983645916,colour,0.5
42,21,0,1,5,49,249,753.2978796893731,754.3921089759097,"[55, 0, 199]",199,a,0.5720612574368715,colour,0.5
42,21,0,1,5,50,250,756.4072610279545,757.2960975351743,"[83, 0, 171]",171,l,0.36636364134028554,colour,0.5
42,21,0,1,6,1,251,764.9073220742866,765.9121269984171,"[12, 0, 242]",242,a,0.48164715990424156,colour,0.5
42,21,0,1,6,2,252,767.9238927606493,768.752118695993,"[87, 0, 167]",167,l,0.30585310654714704,colour,0.5
42,21,0,1,6,3,253,770.7680789204314,771.6161161093041,"[37, 0, 217]",217,a,0.325886488892138,colour,0.5
42,21,0,1,6,4,254,773.6275203204714,774.4401515205391,"[81, 0, 173]",173,l,0.2903166599571705,colour,0.5
42,21,0,1,6,5,255,776.4559794128872,777.2561213551089,"[88, 0, 166]",166,l,0.2781771379522979,colour,0.5
42,21,0,1,6,6,256,779.268660237547,780.1681053871289,"[76, 0, 178]",178,l,0.3772507328540087,colour,0.5
42,21,0,1,6,7,257,782.1751642930321,782.9921151986346,"[38, 0, 216]",216,a,0.29466905491426587,colour,0.5
42,21,0,1,6,8,258,785.0034512747079,785.8321242253296,"[95, 0, 159]",159,l,0.3063895246013999,colour,0.5
42,21,0,1,6,9,259,787.8474728069268,788.7440940788947,"[25, 0, 229]",229,a,0.37455603666603565,colour,0.5
42,21,0,1,6,10,260,790.7539555947296,791.7121180971153,"[2, 0, 252]",252,a,0.4362792242318392,colour,0.5
42,21,0,1,6,11,261,793.7229067268781,795.3441152679734,"[58, 0, 196]",196,a,1.099016487132758,colour,0.5
42,21,0,1,6,12,262,797.3638950134628,798.2481223382056,"[92, 0, 162]",162,l,0.3620206988416612,colour,0.5
42,21,0,1,6,13,263,800.2545451824553,801.0481390370987,"[85, 0, 169]",169,l,0.2713143671862781,colour,0.5
42,21,0,1,6,14,264,803.0673819701187,803.8241110299714,"[89, 0, 165]",165,l,0.23439049534499645,colour,0.5
42,21,0,1,6,15,265,805.8332770136185,807.1281465361826,"[35, 0, 219]",219,a,0.7726270570419729,colour,0.5
42,21,0,1,6,16,266,809.1460444843397,809.9841583231464,"[21, 0, 233]",233,a,0.3158827945590019,colour,0.5
42,21,0,1,6,17,267,811.9907138939016,812.7281267652288,"[78, 0, 176]",176,l,0.21592225786298513,colour,0.5
42,21,0,1,6,18,268,814.74021469336,816.1441382686608,"[67, 0, 187]",187,l,0.881624395493418,colour,0.5
42,21,0,1,6,19,269,818.1624123398215,818.9121191212907,"[77, 0, 177]",177,l,0.22746392153203487,colour,0.5
42,21,0,1,6,20,270,820.9282494876534,821.7601267714053,"[24, 0, 230]",230,a,0.3097695135511458,colour,0.5
42,21,0,1,6,21,271,823.77219028119,824.5761056644842,"[41, 0, 213]",213,a,0.2818379388190806,colour,0.5
42,21,0,1,6,22,272,826.5849384539761,827.360163714271,"[47, 0, 207]",207,a,0.2529772808775306,colour,0.5
42,21,0,1,6,23,273,829.3663683678024,830.5201263302006,"[62, 0, 192]",192,a,0.6315666968002915,colour,0.5
42,21,0,1,6,24,274,832.5385276139714,833.2802101722918,"[20, 0, 234]",234,a,0.21955430787056684,colour,0.5
42,21,0,1,6,25,275,835.2886270601302,836.1281835576519,"[52, 0, 202]",202,a,0.3150151511654258,colour,0.5
42,21,0,1,6,26,276,838.1348305004649,839.3841454051435,"[42, 0, 212]",212,a,0.7270956756547093,colour,0.5
42,21,0,1,6,27,277,841.4007267253473,842.2881445982493,"[63, 0, 191]",191,l,0.3651387793943286,colour,0.5
42,21,0,1,6,28,278,844.30724614067,844.9121588999406,"[26, 0, 228]",228,a,0.0827659978531301,colour,0.5
42,21,0,1,6,29,279,846.9324325285852,847.6641354169697,"[39, 0, 215]",215,a,0.20937298890203238,colour,0.5
42,21,0,1,6,30,280,849.6826989655383,850.5281497654505,"[16, 0, 238]",238,a,0.32319336803629994,colour,0.5
42,21,0,1,6,31,281,852.5423817932606,853.6561612123623,"[60, 0, 194]",194,l,0.5916054826229811,colour,0.5
42,21,0,1,6,32,282,855.6675272206776,856.688147040084,"[49, 0, 205]",205,a,0.4983903504908085,colour,0.5
42,21,0,1,6,33,283,858.6989522115327,859.3601266928017,"[23, 0, 231]",231,a,0.13895446434617043,colour,0.5
42,21,0,1,6,34,284,861.3711571441963,862.2001656517386,"[31, 0, 223]",223,a,0.3069669036194682,colour,0.5
42,21,0,1,6,35,285,864.2150703687221,865.0161563600414,"[32, 0, 222]",222,a,0.2788096545264125,colour,0.5
42,21,0,1,6,36,286,867.0277397716418,867.7361147543415,"[18, 0, 236]",236,a,0.18613448599353433,colour,0.5
42,21,0,1,6,37,287,869.7466485654004,870.4881775239483,"[93, 0, 161]",161,l,0.2197437477298081,colour,0.5
42,21,0,1,6,38,288,872.4970374889672,873.368161549326,"[9, 0, 245]",245,a,0.3489489424973726,colour,0.5
42,21,0,1,6,39,289,875.3878873381764,876.2081749089994,"[98, 0, 156]",156,l,0.2981762560084462,colour,0.5
42,21,0,1,6,40,290,878.2161818025634,879.0161209139042,"[1, 0, 253]",253,a,0.2776911314576864,colour,0.5
42,21,0,1,6,41,291,881.0289087072015,882.5921403258108,"[64, 0, 190]",190,l,1.0409926972351968,colour,0.5
42,21,0,1,6,42,292,884.6072592949495,885.4881365639158,"[57, 0, 197]",197,a,0.35922005819156766,colour,0.5
42,21,0,1,6,43,293,887.4982446273789,888.3521335832775,"[96, 0, 158]",158,l,0.33168666204437613,colour,0.5
42,21,0,1,6,44,294,890.3577683414333,891.2001597443596,"[84, 0, 170]",170,l,0.3203281369060278,colour,0.5
42,21,0,1,6,45,295,893.2173527074046,895.0401774356142,"[55, 0, 199]",199,a,1.3005350003950298,colour,0.5
42,21,0,1,6,46,296,897.045834642835,898.1121551976539,"[97, 0, 157]",157,l,0.5440308270044625,colour,0.5
42,21,0,1,6,47,297,900.1241714460775,901.0321748740971,"[27, 0, 227]",227,a,0.3861650484614074,colour,0.5
42,21,0,1,6,48,298,903.0462859906256,903.8081492302008,"[28, 0, 226]",226,a,0.23959871800616384,colour,0.5
42,21,0,1,6,49,299,905.8278135783039,906.39213693887,"[86, 0, 168]",168,l,0.04239754658192396,colour,0.5
42,21,0,1,6,50,300,908.406202763319,909.4321914943866,"[7, 0, 247]",247,a,0.5043602716177702,colour,0.5
42,21,0,1,7,1,301,919.093679476995,919.6961184879765,"[15, 0, 239]",239,a,0.07949983095750213,colour,0.5
42,21,0,1,7,2,302,921.7040737881325,922.4241491542198,"[91, 0, 163]",163,l,0.19799319561570883,colour,0.5
42,21,0,1,7,3,303,924.4386454527266,925.6481574694626,"[52, 0, 202]",202,a,0.6875594216398895,colour,0.5
42,21,0,1,7,4,304,927.6576129295863,928.6961673251353,"[69, 0, 185]",185,l,0.516867252998054,colour,0.5
42,21,0,1,7,5,305,930.7047118190676,931.2641664519906,"[47, 0, 207]",207,a,0.03736104117706418,colour,0.5
42,21,0,1,7,6,306,933.2831124248914,934.5841712411493,"[57, 0, 197]",197,a,0.7788490392267704,colour,0.5
42,21,0,1,7,7,307,936.5958314528689,937.4001505281776,"[21, 0, 233]",233,a,0.28208921244367957,colour,0.5
42,21,0,1,7,8,308,939.4086107388139,940.4881456224248,"[68, 0, 186]",186,l,0.5573507067747414,colour,0.5
42,21,0,1,7,9,309,942.5025485791266,943.2480443567038,"[82, 0, 172]",172,l,0.22325725015252829,colour,0.5
42,21,0,1,7,10,310,945.2683884836733,945.9921955433674,"[45, 0, 209]",209,a,0.2015567165799439,colour,0.5
42,21,0,1,7,11,311,948.002981022466,948.6001787274145,"[31, 0, 223]",223,a,0.07493633450940251,colour,0.5
42,21,0,1,7,12,312,950.6125269886106,951.2001743162982,"[90, 0, 164]",164,l,0.06609133584424853,colour,0.5
42,21,0,1,7,13,313,953.2065286315046,954.0401845248416,"[46, 0, 208]",208,a,0.3114981041289866,colour,0.5
42,21,0,1,7,14,314,956.0504910871387,956.7681533573195,"[98, 0, 156]",156,l,0.19566753366962075,colour,0.5
42,21,0,1,7,15,315,958.7851186776534,959.6081675044261,"[77, 0, 177]",177,l,0.30085637932643294,colour,0.5
42,21,0,1,7,16,316,961.613404083997,963.5361401177943,"[56, 0, 198]",198,a,1.4011997343041003,colour,0.5
42,21,0,1,7,17,317,965.5512775979005,966.4241412775591,"[5, 0, 249]",249,a,0.35058537358418107,colour,0.5
42,21,0,1,7,18,318,968.442142019514,969.2961530676112,"[65, 0, 189]",189,l,0.33173943776637316,colour,0.5
42,21,0,1,7,19,319,971.3017389886081,972.2001881012693,"[19, 0, 235]",235,a,0.3762196432799101,colour,0.5
42,21,0,1,7,20,320,974.2081800289452,975.3201709925197,"[49, 0, 205]",205,a,0.5896882391534746,colour,0.5
42,21,0,1,7,21,321,977.333471967373,978.040146715939,"[86, 0, 168]",168,l,0.1847363319247961,colour,0.5
42,21,0,1,7,22,322,980.0523780044168,980.8161762100644,"[35, 0, 219]",219,a,0.24152147537097335,colour,0.5
42,21,0,1,7,23,323,982.8338788105175,983.6321649490856,"[79, 0, 175]",175,l,0.2760070450603962,colour,0.5
42,21,0,1,7,24,324,985.6466773953289,986.4961643316783,"[85, 0, 169]",169,l,0.3272909442894161,colour,0.5
42,21,0,1,7,25,325,988.5062026842497,989.3201591768302,"[41, 0, 213]",213,a,0.29188731871545315,colour,0.5
42,21,0,1,7,26,326,991.3345625274815,992.5121875717305,"[39, 0, 215]",215,a,0.6553648551926017,colour,0.5
42,21,0,1,7,27,327,994.5223046937026,996.4641812606715,"[24, 0, 230]",230,a,1.419813694898039,colour,0.5
42,21,0,1,7,28,328,998.4757855460048,999.3041426325217,"[44, 0, 210]",210,a,0.3061339189298451,colour,0.5
42,21,0,1,7,29,329,1001.3197511523031,1002.0801662188023,"[74, 0, 180]",180,l,0.23822064977139235,colour,0.5
42,21,0,1,7,30,330,1004.0856580110267,1005.4641804732382,"[58, 0, 196]",196,a,0.8564450182020664,colour,0.5
42,21,0,1,7,31,331,1007.476584660355,1008.5521834441461,"[36, 0, 218]",218,a,0.5534276044927537,colour,0.5
42,21,0,1,7,32,332,1010.5705024139024,1011.3762188558467,"[48, 0, 206]",206,a,0.283468856010586,colour,0.5
42,21,0,1,7,33,333,1013.3832470416091,1014.1921977489255,"[34, 0, 220]",220,a,0.28678189031779766,colour,0.5
42,21,0,1,7,34,334,1016.2115482017398,1017.0401427773759,"[54, 0, 200]",200,a,0.30646238662302494,colour,0.5
42,21,0,1,7,35,335,1019.0555732785724,1020.1281819823198,"[62, 0, 192]",192,l,0.5506631978787482,colour,0.5
42,21,0,1,7,36,336,1022.1339092943817,1023.0081758541055,"[8, 0, 246]",246,a,0.3520737187936902,colour,0.5
42,21,0,1,7,37,337,1025.0247264541686,1025.816151003819,"[10, 0, 244]",244,a,0.2690525082871318,colour,0.5
42,21,0,1,7,38,338,1027.8218105742708,1028.6401891722344,"[28, 0, 226]",226,a,0.29637834755703807,colour,0.5
42,21,0,1,7,39,339,1030.6502141342498,1031.4881747672334,"[53, 0, 201]",201,l,0.31575440103188157,colour,0.5
42,21,0,1,7,40,340,1033.4940478019416,1034.2881898907945,"[71, 0, 183]",183,l,0.2717810752801597,colour,0.5
42,21,0,1,7,41,341,1036.3069164911285,1037.1441693822853,"[81, 0, 173]",173,l,0.31505138520151377,colour,0.5
42,21,0,1,7,42,342,1039.1508572851308,1039.8881626366638,"[29, 0, 225]",225,a,0.21504398109391332,colour,0.5
42,21,0,1,7,43,343,1041.90110363625,1042.6881931200624,"[26, 0, 228]",228,a,0.2647973936982453,colour,0.5
42,21,0,1,7,44,344,1044.6981601868756,1045.9921892415732,"[83, 0, 171]",171,l,0.7717787120491266,colour,0.5
42,21,0,1,7,45,345,1048.0108583406545,1048.9841803787276,"[37, 0, 217]",217,a,0.45094960276037455,colour,0.5
42,21,0,1,7,46,346,1050.9955440238118,1051.8081953101791,"[78, 0, 176]",176,l,0.2903966112062335,colour,0.5
42,21,0,1,7,47,347,1053.8238739348017,1054.632190155331,"[32, 0, 222]",222,a,0.28624625923112035,colour,0.5
42,21,0,1,7,48,348,1056.6522818268277,1057.5282127810642,"[70, 0, 184]",184,l,0.3537018788047135,colour,0.5
42,21,0,1,7,49,349,1059.543104894925,1060.8641809457913,"[92, 0, 162]",162,l,0.7988646989688277,colour,0.5
42,21,0,1,7,50,350,1062.871492701117,1063.6081911353394,"[38, 0, 216]",216,a,0.21450244216248393,colour,0.5
42,21,0,1,8,1,351,1075.7467470271513,1076.7601661561057,"[91, 0, 163]",163,l,0.49081196123734117,colour,0.5
42,21,0,1,8,2,352,1078.7790294210427,1079.392186563462,"[4, 0, 250]",250,a,0.09090561792254448,colour,0.5
42,21,0,1,8,3,353,1081.404213052243,1082.0561624728143,"[71, 0, 183]",183,l,0.1297561856918037,colour,0.5
42,21,0,1,8,4,354,1084.0763455168344,1085.664156684652,"[87, 0, 167]",167,l,1.0655245911329985,colour,0.5
42,21,0,1,8,5,355,1087.6703790612519,1088.5601698579267,"[56, 0, 198]",198,a,0.36756408447399735,colour,0.5
42,21,0,1,8,6,356,1090.5769863044843,1091.776236657519,"[81, 0, 173]",173,l,0.6771035916171968,colour,0.5
42,21,0,1,8,7,357,1093.7958297198638,1094.3681749403477,"[26, 0, 228]",228,a,0.05013229278847575,colour,0.5
42,21,0,1,8,8,358,1096.3740723938681,1097.616152736824,"[23, 0, 231]",231,a,0.720079698599875,colour,0.5
42,21,0,1,8,9,359,1099.6243845168501,1100.1681995163672,"[33, 0, 221]",221,a,0.021407905966043472,colour,0.5
42,21,0,1,8,10,360,1102.187144701369,1103.2321794428863,"[97, 0, 157]",157,l,0.5228891614824533,colour,0.5
42,21,0,1,8,11,361,1105.2498525045812,1106.1681995163672,"[5, 0, 249]",249,a,0.39610690902918577,colour,0.5
42,21,0,1,8,12,362,1108.1875283080153,1109.688222264871,"[57, 0, 197]",197,a,0.9783861124888062,colour,0.5
42,21,0,1,8,13,363,1111.703532249201,1112.5122159286402,"[37, 0, 217]",217,a,0.28653691802173853,colour,0.5
42,21,0,1,8,14,364,1114.5318909110501,1115.4242157144472,"[36, 0, 218]",218,a,0.3701150268316269,colour,0.5
42,21,0,1,8,15,365,1117.4383878773078,1118.2401749151759,"[86, 0, 168]",168,l,0.27963200584053993,colour,0.5
42,21,0,1,8,16,366,1120.2519650957547,1121.1682507162914,"[74, 0, 180]",180,l,0.39493048982694745,colour,0.5
42,21,0,1,8,17,367,1123.1887909788638,1124.0082018477842,"[80, 0, 174]",174,l,0.29739368287846446,colour,0.5
42,21,0,1,8,18,368,1126.0172291975468,1126.8242256394587,"[11, 0, 243]",243,a,0.28482644399628043,colour,0.5
42,21,0,1,8,19,369,1128.8299273513258,1129.8162215026096,"[77, 0, 177]",177,l,0.4642809038050473,colour,0.5
42,21,0,1,8,20,370,1131.830119154416,1132.5921997968107,"[31, 0, 223]",223,a,0.23980981949716806,colour,0.5
42,21,0,1,8,21,371,1134.6115837264806,1135.784206923563,"[25, 0, 229]",229,a,0.6503803371451795,colour,0.5
42,21,0,1,8,22,372,1137.799427505117,1138.624205710832,"[10, 0, 244]",244,a,0.302622779738158,colour,0.5
42,21,0,1,8,23,373,1140.6433293083683,1141.7042297511362,"[46, 0, 208]",208,a,0.5393326352350414,colour,0.5
42,21,0,1,8,24,374,1143.7216964378022,1144.4802037132904,"[41, 0, 213]",213,a,0.2363806003704667,colour,0.5
42,21,0,1,8,25,375,1146.487531222403,1147.264198353514,"[72, 0, 182]",182,l,0.2544703516177833,colour,0.5
42,21,0,1,8,26,376,1149.284679539036,1150.0721912267618,"[99, 0, 155]",155,l,0.2652574060484767,colour,0.5
42,21,0,1,8,27,377,1152.0816888283007,1153.0082195708528,"[54, 0, 200]",200,a,0.40413113171234727,colour,0.5
42,21,0,1,8,28,378,1155.0195371364243,1155.8161762100644,"[85, 0, 169]",169,l,0.27447892166674137,colour,0.5
42,21,0,1,8,29,379,1157.8321372224018,1158.6722076893784,"[15, 0, 239]",239,a,0.3181076319888234,colour,0.5
42,21,0,1,8,30,380,1160.6917743640952,1161.4881956409663,"[94, 0, 160]",160,l,0.27409610338509083,colour,0.5
42,21,0,1,8,31,381,1163.5045256870799,1164.2961999354884,"[43, 0, 211]",211,a,0.26947313640266657,colour,0.5
42,21,0,1,8,32,382,1166.301585782785,1167.472209028434,"[16, 0, 238]",238,a,0.6483559678308666,colour,0.5
42,21,0,1,8,33,383,1169.489420896396,1170.2482050457038,"[6, 0, 248]",248,a,0.23680044012144208,colour,0.5
42,21,0,1,8,34,384,1172.2552225980908,1173.256205638405,"[78, 0, 176]",176,l,0.47897845739498734,colour,0.5
42,21,0,1,8,35,385,1175.27104970254,1176.5362137672491,"[59, 0, 195]",195,a,0.7429302632808685,colour,0.5
42,21,0,1,8,36,386,1178.552552478388,1179.4402314713225,"[21, 0, 233]",233,a,0.3654325888492167,colour,0.5
42,21,0,1,8,37,387,1181.4600305152126,1182.4642261592671,"[73, 0, 181]",181,l,0.4828397259116173,colour,0.5
42,21,0,1,8,38,388,1184.474909632001,1185.6562155634165,"[83, 0, 171]",171,l,0.6590406224131584,colour,0.5
42,21,0,1,8,39,389,1187.662711662706,1188.520201948937,"[17, 0, 237]",237,a,0.3352399431169033,colour,0.5
42,21,0,1,8,40,390,1190.5379392076284,1191.592214369215,"[90, 0, 164]",164,l,0.5321717234328389,colour,0.5
42,21,0,1,8,41,391,1193.6006745798513,1194.784200228285,"[48, 0, 206]",206,a,0.6613154779188335,colour,0.5
42,21,0,1,8,42,392,1196.8039945461787,1199.3601873447187,"[62, 0, 192]",192,a,2.034394591115415,colour,0.5
42,21,0,1,8,43,393,1201.3668520106003,1202.3282298739068,"[49, 0, 205]",205,a,0.43906844314187765,colour,0.5
42,21,0,1,8,44,394,1204.3359248414636,1205.2082229582593,"[32, 0, 222]",222,a,0.35006785998120904,colour,0.5
42,21,0,1,8,45,395,1207.2266904078424,1207.8241913747042,"[39, 0, 215]",215,a,0.07513050083070993,colour,0.5
42,21,0,1,8,46,396,1209.8364065154456,1210.5602399627678,"[52, 0, 202]",202,a,0.20166226755827665,colour,0.5
42,21,0,1,8,47,397,1212.5709580942057,1213.6082293381914,"[28, 0, 226]",226,a,0.5150957321748137,colour,0.5
42,21,0,1,8,48,398,1215.618053832557,1216.3362099863589,"[70, 0, 184]",184,l,0.19596213102340698,colour,0.5
42,21,0,1,8,49,399,1218.3527164757252,1219.2002515103668,"[7, 0, 247]",247,a,0.32572776870802045,colour,0.5
42,21,0,1,8,50,400,1221.2122846944258,1222.424207443837,"[69, 0, 185]",185,l,0.6897838651202619,colour,0.5
42,21,0,1,9,1,401,1229.883992986288,1230.6162287490442,"[92, 0, 162]",162,l,0.2091784286312759,colour,0.5
42,21,0,1,9,2,402,1232.6350313620642,1233.3281960031018,"[39, 0, 215]",215,a,0.17100409511476755,colour,0.5
42,21,0,1,9,3,403,1235.3383020972833,1236.3682009340264,"[7, 0, 247]",247,a,0.5076973307877779,colour,0.5
42,21,0,1,9,4,404,1238.3854840882123,1239.4162289067172,"[66, 0, 188]",188,l,0.5085039278492332,colour,0.5
42,21,0,1,9,5,405,1241.4326416607946,1242.0402408451773,"[5, 0, 249]",249,a,0.08545596757903695,colour,0.5
42,21,0,1,9,6,406,1244.0577937839553,1244.896246330347,"[68, 0, 186]",186,l,0.31616872688755393,colour,0.5
42,21,0,1,9,7,407,1246.9017637223005,1247.8802297855727,"[20, 0, 234]",234,a,0.4562940956093371,colour,0.5
42,21,0,1,9,8,408,1249.886375756003,1250.6162027553655,"[4, 0, 250]",250,a,0.20740769617259502,colour,0.5
42,21,0,1,9,9,409,1252.636585873086,1255.1282193977386,"[2, 0, 252]",252,a,1.9693437973037362,colour,0.5
42,21,0,1,9,10,410,1257.1369379716925,1258.2802377413027,"[46, 0, 208]",208,a,0.6209761714562774,colour,0.5
42,21,0,1,9,11,411,1260.2934571900405,1261.2402060288005,"[9, 0, 245]",245,a,0.42496480979025364,colour,0.5
42,21,0,1,9,12,412,1263.2468860549852,1264.2722399062477,"[47, 0, 207]",207,a,0.5031700683757663,colour,0.5
42,21,0,1,9,13,413,1266.2783252242953,1267.2162314271554,"[77, 0, 177]",177,l,0.41569957695901394,colour,0.5
42,21,0,1,9,14,414,1269.2316977689043,1270.0882172235288,"[91, 0, 163]",163,l,0.3343029827810824,colour,0.5
42,21,0,1,9,15,415,1272.106909559574,1273.6882159635425,"[71, 0, 183]",183,l,1.0590824489481747,colour,0.5
42,21,0,1,9,16,416,1275.7009411351755,1276.5122269564308,"[16, 0, 238]",238,a,0.2889972752891481,colour,0.5
42,21,0,1,9,17,417,1278.529272227548,1279.6082529691048,"[18, 0, 236]",236,a,0.5570876174606383,colour,0.5
42,21,0,1,9,18,418,1281.6232506334782,1282.4802269502543,"[84, 0, 170]",170,l,0.33488666312769055,colour,0.5
42,21,0,1,9,19,419,1284.4985593105666,1285.6402246183716,"[51, 0, 203]",203,a,0.6194783742539585,colour,0.5
42,21,0,1,9,20,420,1287.6551171261817,1288.864236871712,"[73, 0, 181]",181,l,0.6870399382896721,colour,0.5
42,21,0,1,9,21,421,1290.8739873231389,1291.6082490305416,"[89, 0, 165]",165,l,0.2113193767145276,colour,0.5
42,21,0,1,9,22,422,1293.6253502280451,1294.6882242341526,"[36, 0, 218]",218,a,0.5405429247766733,colour,0.5
42,21,0,1,9,23,423,1296.7037665881217,1297.576217516791,"[82, 0, 172]",172,l,0.35031204437837005,colour,0.5
42,21,0,1,9,24,424,1299.5945829604752,1300.9042339259759,"[67, 0, 187]",187,a,0.7873502103611827,colour,0.5
42,21,0,1,9,25,425,1302.922962889541,1303.7522214897908,"[79, 0, 175]",175,l,0.307273315731436,colour,0.5
42,21,0,1,9,26,426,1305.766907228157,1306.5362566965632,"[49, 0, 205]",205,a,0.24710621498525143,colour,0.5
42,21,0,1,9,27,427,1308.5483855851926,1309.3842249619775,"[21, 0, 233]",233,a,0.31355358799919486,colour,0.5
42,21,0,1,9,28,428,1311.3924102680758,1312.2562635336071,"[45, 0, 209]",209,a,0.34164230711758137,colour,0.5
42,21,0,1,9,29,429,1314.2676319051534,1315.2482334030792,"[94, 0, 160]",160,l,0.4584259861148894,colour,0.5
42,21,0,1,9,30,430,1317.2678079544567,1318.0722223403864,"[52, 0, 202]",202,a,0.2820923631079495,colour,0.5
42,21,0,1,9,31,431,1320.0805557328276,1321.0402286355384,"[65, 0, 189]",189,a,0.4373315814882517,colour,0.5
42,21,0,1,9,32,432,1323.049528133124,1323.8162423763424,"[90, 0, 164]",164,l,0.2444024607539177,colour,0.5
42,21,0,1,9,33,433,1325.8309911298566,1326.6242435202003,"[80, 0, 174]",174,l,0.2710260720923543,colour,0.5
42,21,0,1,9,34,434,1328.6437306376174,1329.6642547524534,"[96, 0, 158]",158,l,0.4982489594258368,colour,0.5
42,21,0,1,9,35,435,1331.6752095855772,1332.4802434914745,"[23, 0, 231]",231,a,0.282871391158551,colour,0.5
42,21,0,1,9,36,436,1334.4879290070385,1336.096246960573,"[17, 0, 237]",237,a,1.0861148722469807,colour,0.5
42,21,0,1,9,37,437,1338.113285929896,1339.168322790414,"[87, 0, 167]",167,l,0.532778640743345,colour,0.5
42,21,0,1,9,38,438,1341.1760272099636,1342.0802256898023,"[3, 0, 251]",251,a,0.3819079645909369,colour,0.5
42,21,0,1,9,39,439,1344.0980673180893,1344.7362045510672,"[85, 0, 169]",169,l,0.1158085148781538,colour,0.5
42,21,0,1,9,40,440,1346.7545845671557,1348.1922591887414,"[30, 0, 224]",224,a,0.9154955646954477,colour,0.5
42,21,0,1,9,41,441,1350.2079819240607,1350.9522406305186,"[32, 0, 222]",222,a,0.22201072657480836,colour,0.5
42,21,0,1,9,42,442,1352.9581581703387,1354.976270370651,"[99, 0, 155]",155,l,1.4960079742595553,colour,0.5
42,21,0,1,9,43,443,1356.989741881378,1360.1042282544076,"[74, 0, 180]",180,a,2.592438073363155,colour,0.5
42,21,0,1,9,44,444,1362.1150842318311,1362.984237486031,"[42, 0, 212]",212,a,0.34682335425168276,colour,0.5
42,21,0,1,9,45,445,1364.9904153584503,1366.2962735844776,"[27, 0, 227]",227,a,0.7836252124980092,colour,0.5
42,21,0,1,9,46,446,1368.303218669258,1369.1602477608249,"[35, 0, 219]",219,a,0.3348401887342334,colour,0.5
42,21,0,1,9,47,447,1371.1783300288953,1372.0002544247545,"[10, 0, 244]",244,a,0.29958701273426414,colour,0.5
42,21,0,1,9,48,448,1374.0066760876216,1375.3202340076678,"[53, 0, 201]",201,a,0.7915868139825761,colour,0.5
42,21,0,1,9,49,449,1377.3350623184815,1378.7682715114206,"[37, 0, 217]",217,a,0.9109068624675274,colour,0.5
42,21,0,1,9,50,450,1380.788550260011,1381.7922370545566,"[69, 0, 185]",185,l,0.4816514919511974,colour,0.5
42,21,0,1,10,1,451,1391.1010550353676,1391.9682492986321,"[37, 0, 217]",217,a,0.3443740247748792,colour,0.5
42,21,0,1,10,2,452,1393.9770584572107,1394.792267380748,"[0, 0, 254]",254,a,0.29305861750617623,colour,0.5
42,21,0,1,10,3,453,1396.8053911249153,1397.5922687198035,"[12, 0, 242]",242,a,0.26476391684263945,colour,0.5
42,21,0,1,10,4,454,1399.6028375835158,1401.2322495472617,"[59, 0, 195]",195,l,1.107532624155283,colour,0.5
42,21,0,1,10,5,455,1403.2434182385914,1404.1122560221702,"[2, 0, 252]",252,a,0.3465716866776347,colour,0.5
42,21,0,1,10,6,456,1406.1187040726654,1406.720269926358,"[67, 0, 187]",187,l,0.07985783694311976,colour,0.5
42,21,0,1,10,7,457,1408.72813424794,1409.5282655563205,"[82, 0, 172]",172,l,0.277773838955909,colour,0.5
42,21,0,1,10,8,458,1411.5409253495745,1412.1682589869015,"[74, 0, 180]",180,l,0.10499467886984348,colour,0.5
42,21,0,1,10,9,459,1414.1818143865094,1414.824266992975,"[96, 0, 158]",158,l,0.12040863884612918,colour,0.5
42,21,0,1,10,10,460,1416.838310368359,1417.4242358007468,"[91, 0, 163]",163,l,0.06376803712919354,colour,0.5
42,21,0,1,10,11,461,1419.4322793222964,1420.2722552660853,"[86, 0, 168]",168,l,0.31782603170722723,colour,0.5
42,21,0,1,10,12,462,1422.2917955531739,1422.952264261432,"[33, 0, 221]",221,a,0.1381407780572772,colour,0.5
42,21,0,1,10,13,463,1424.9639189592563,1425.5762620214373,"[79, 0, 175]",175,l,0.09006042405962944,colour,0.5
42,21,0,1,10,14,464,1427.5891923867166,1428.4002454453148,"[50, 0, 204]",204,a,0.28902838937938213,colour,0.5
42,21,0,1,10,15,465,1430.4175833440386,1431.2322826306336,"[83, 0, 171]",171,l,0.29256434086710215,colour,0.5
42,21,0,1,10,16,466,1433.2458581160754,1434.1042959960178,"[57, 0, 197]",197,a,0.3363442877307534,colour,0.5
42,21,0,1,10,17,467,1436.120925759431,1437.6642756261863,"[80, 0, 174]",174,l,1.021506367251277,colour,0.5
42,21,0,1,10,18,468,1439.683826547116,1440.5602931319736,"[63, 0, 191]",191,a,0.35421112226322293,colour,0.5
42,21,0,1,10,19,469,1442.5746366176754,1443.3602897450328,"[70, 0, 184]",184,l,0.2633775779977441,colour,0.5
42,21,0,1,10,20,470,1445.3718298333697,1446.2562749553472,"[8, 0, 246]",246,a,0.36278791166841984,colour,0.5
42,21,0,1,10,21,471,1448.2626619595103,1449.2482424611226,"[21, 0, 233]",233,a,0.4634077465161681,colour,0.5
42,21,0,1,10,22,472,1451.2628372209147,1452.0322564002126,"[14, 0, 240]",240,a,0.2471156669780612,colour,0.5
42,21,0,1,10,23,473,1454.0442529567517,1454.8482376565225,"[22, 0, 232]",232,a,0.28166425274685025,colour,0.5
42,21,0,1,10,24,474,1456.8570365752093,1458.0642926404253,"[56, 0, 198]",198,l,0.6850427440367639,colour,0.5
42,21,0,1,10,25,475,1460.0758618735708,1460.9042599196546,"[27, 0, 227]",227,a,0.305814903229475,colour,0.5
42,21,0,1,10,26,476,1462.9200082551688,1464.072255817242,"[48, 0, 206]",206,a,0.6299810716882348,colour,0.5
42,21,0,1,10,27,477,1466.0922884121537,1467.8802593243308,"[45, 0, 209]",209,a,1.265755227766931,colour,0.5
42,21,0,1,10,28,478,1469.8902984648012,1470.4482537251897,"[98, 0, 156]",156,l,0.03680453635752201,colour,0.5
42,21,0,1,10,29,479,1472.467665224336,1474.048310754355,"[3, 0, 251]",251,a,1.0586484302766621,colour,0.5
42,21,0,1,10,30,480,1476.0617251568474,1476.920280402992,"[23, 0, 231]",231,a,0.33633601712062955,colour,0.5
42,21,0,1,10,31,481,1478.9367526276037,1479.7602933682501,"[95, 0, 159]",159,l,0.30130654526874423,colour,0.5
42,21,0,1,10,32,482,1481.7808194523677,1482.5362500012852,"[54, 0, 200]",200,a,0.23425422469154,colour,0.5
42,21,0,1,10,33,483,1484.546809412539,1486.6162547431886,"[31, 0, 223]",223,a,1.547189868055284,colour,0.5
42,21,0,1,10,34,484,1488.625239557121,1489.50426889956,"[41, 0, 213]",213,a,0.3568124766461551,colour,0.5
42,21,0,1,10,35,485,1491.516087830998,1492.1362609500065,"[18, 0, 236]",236,a,0.09798421617597342,colour,0.5
42,21,0,1,10,36,486,1494.1568858893588,1494.9682658398524,"[51, 0, 203]",203,a,0.2894360199570656,colour,0.5
42,21,0,1,10,37,487,1496.985216587782,1497.7122520050034,"[44, 0, 210]",210,a,0.20478428667411208,colour,0.5
42,21,0,1,10,38,488,1499.7198784435168,1500.5442533502355,"[35, 0, 219]",219,a,0.3021005392074585,colour,0.5
42,21,0,1,10,39,489,1502.5638373540714,1503.3202580325305,"[97, 0, 157]",157,l,0.23417112324386835,colour,0.5
42,21,0,1,10,40,490,1505.3297190065496,1506.1042621252127,"[42, 0, 212]",212,a,0.2523408248089254,colour,0.5
42,21,0,1,10,41,491,1508.111096539069,1508.7522490588017,"[11, 0, 243]",243,a,0.11887972801923752,colour,0.5
42,21,0,1,10,42,492,1510.767792594619,1511.528324633371,"[26, 0, 228]",228,a,0.23843568982556462,colour,0.5
42,21,0,1,10,43,493,1513.5334438467398,1514.2802798831835,"[1, 0, 253]",253,a,0.22459947830066085,colour,0.5
42,21,0,1,10,44,494,1516.2993215606548,1516.944265638478,"[81, 0, 173]",173,l,0.1227291813120246,colour,0.5
42,21,0,1,10,45,495,1518.955822268501,1519.6483902325854,"[73, 0, 181]",181,l,0.17046610126271844,colour,0.5
42,21,0,1,10,46,496,1521.6591182099655,1522.4482738114893,"[38, 0, 216]",216,a,0.26688792929053307,colour,0.5
42,21,0,1,10,47,497,1524.4562684963457,1525.2082584043965,"[28, 0, 226]",226,a,0.23078955942764878,colour,0.5
42,21,0,1,10,48,498,1527.2220658655278,1527.8162699453533,"[69, 0, 185]",185,l,0.07207228476181626,colour,0.5
42,21,0,1,10,49,499,1529.8317138375714,1530.7282752450556,"[55, 0, 199]",199,a,0.3743386338464916,colour,0.5
42,21,0,1,10,50,500,1532.7381442440674,1533.6962602725253,"[64, 0, 190]",190,l,0.43601613491773605,colour,0.5
42,21,0,1,11,1,501,1789.0076973307878,1789.800317991525,"[9, 0, 245]",245,a,0.26942508667707443,colour,0.5
42,21,0,1,11,2,502,1791.8056278266013,1792.496320294682,"[98, 0, 156]",156,l,0.1689663347788155,colour,0.5
42,21,0,1,11,3,503,1794.508968272712,1795.4323328854516,"[83, 0, 171]",171,l,0.4011564115062356,colour,0.5
42,21,0,1,11,4,504,1797.4466952756047,1798.1843121596612,"[53, 0, 201]",201,a,0.21537402411922812,colour,0.5
42,21,0,1,11,5,505,1800.196895152796,1801.4963372303173,"[7, 0, 247]",247,a,0.7771960669197142,colour,0.5
42,21,0,1,11,6,506,1803.5096539589576,1804.2963149384595,"[70, 0, 184]",184,l,0.26435786113142967,colour,0.5
42,21,0,1,11,7,507,1806.3067636787891,1807.5523610687815,"[58, 0, 196]",196,l,0.7235274286940694,colour,0.5
42,21,0,1,11,8,508,1809.5726067344658,1810.8403181964532,"[41, 0, 213]",213,a,0.7456147191114724,colour,0.5
42,21,0,1,11,9,509,1812.8542745313607,1813.7443492910825,"[18, 0, 236]",236,a,0.3680225214920938,colour,0.5
42,21,0,1,11,10,510,1815.760668309871,1816.5683055398986,"[6, 0, 248]",248,a,0.2859540255740285,colour,0.5
42,21,0,1,11,11,511,1818.5890549346805,1819.440322843846,"[61, 0, 193]",193,l,0.3291538371704519,colour,0.5
42,21,0,1,11,12,512,1821.448804716114,1822.1203082082793,"[82, 0, 172]",172,l,0.14945085998624563,colour,0.5
42,21,0,1,11,13,513,1824.136268039234,1824.8403158332221,"[74, 0, 180]",180,l,0.181758854072541,colour,0.5
42,21,0,1,11,14,514,1826.855224488303,1827.6643425803632,"[35, 0, 219]",219,a,0.2868378167040646,colour,0.5
42,21,0,1,11,15,515,1829.683633562643,1830.4163041315041,"[34, 0, 220]",220,a,0.21043401071801782,colour,0.5
42,21,0,1,11,16,516,1832.4338172916323,1833.2883635768667,"[30, 0, 224]",224,a,0.3322943667881191,colour,0.5
42,21,0,1,11,17,517,1835.2935493504629,1836.120298362337,"[15, 0, 239]",239,a,0.3046337584964931,colour,0.5
42,21,0,1,11,18,518,1838.1373841995373,1839.3443200681359,"[50, 0, 204]",204,a,0.6846551997587085,colour,0.5
42,21,0,1,11,19,519,1841.356434384361,1842.0643229666166,"[13, 0, 241]",241,a,0.18584500905126333,colour,0.5
42,21,0,1,11,20,520,1844.0754203717224,1844.6963378605433,"[1, 0, 253]",253,a,0.0986647829413414,colour,0.5
42,21,0,1,11,21,521,1846.7161971628666,1849.5443073073402,"[19, 0, 235]",235,a,2.305889734067023,colour,0.5
42,21,0,1,11,22,522,1851.560364024248,1852.1443513394333,"[36, 0, 218]",218,a,0.061651901341974735,colour,0.5
42,21,0,1,11,23,523,1854.154297532048,1855.1843637535349,"[38, 0, 216]",216,a,0.5078875585459173,colour,0.5
42,21,0,1,11,24,524,1857.2015653811395,1857.7843238962814,"[92, 0, 162]",162,l,0.06057315692305565,colour,0.5
42,21,0,1,11,25,525,1859.7953283535317,1860.4963443195447,"[62, 0, 192]",192,l,0.1787234814837575,colour,0.5
42,21,0,1,11,26,526,1862.5142899230123,1863.2323275287636,"[78, 0, 176]",176,l,0.19575221044942737,colour,0.5
42,21,0,1,11,27,527,1865.2489116061479,1866.1603690655902,"[85, 0, 169]",169,l,0.3892165687866509,colour,0.5
42,21,0,1,11,28,528,1868.1710505690426,1868.7763666268438,"[27, 0, 227]",227,a,0.08304326562210917,colour,0.5
42,21,0,1,11,29,529,1870.7963066678494,1871.6003295704722,"[31, 0, 223]",223,a,0.28188283694908023,colour,0.5
42,21,0,1,11,30,530,1873.6089650429785,1875.088334589731,"[86, 0, 168]",168,l,0.9571207789704204,colour,0.5
42,21,0,1,11,31,531,1877.0936097661033,1878.432344306726,"[64, 0, 190]",190,l,0.8163400497287512,colour,0.5
42,21,0,1,11,32,532,1880.4376096371561,1880.976363712456,"[40, 0, 214]",214,a,0.016498612705618143,colour,0.5
42,21,0,1,11,33,533,1882.98469828628,1884.3283421201631,"[77, 0, 177]",177,l,0.8213489865884185,colour,0.5
42,21,0,1,11,34,534,1886.3444212866016,1887.1923466227017,"[4, 0, 250]",250,a,0.32568720262497663,colour,0.5
42,21,0,1,11,35,535,1889.2039363356307,1890.064523828216,"[2, 0, 252]",252,a,0.3386089038103819,colour,0.5
42,21,0,1,11,36,536,1892.079163880553,1892.9043449903838,"[12, 0, 242]",242,a,0.30420801043510437,colour,0.5
42,21,0,1,11,37,537,1894.9230073941872,1895.720336092636,"[22, 0, 232]",232,a,0.2760251620784402,colour,0.5
42,21,0,1,11,38,538,1897.7359450063668,1898.4083433174528,"[5, 0, 249]",249,a,0.15017278026789427,colour,0.5
42,21,0,1,11,39,539,1900.4260088964365,1901.5123703163117,"[87, 0, 167]",167,l,0.5641059572808444,colour,0.5
42,21,0,1,11,40,540,1903.5206595980562,1904.4643596732058,"[16, 0, 238]",238,a,0.4221279355697334,colour,0.5
42,21,0,1,11,41,541,1906.47344216099,1908.232360218186,"[93, 0, 161]",161,l,1.2370631359517574,colour,0.5
42,21,0,1,11,42,542,1910.2393257827498,1911.5043453057297,"[76, 0, 178]",178,l,0.7429405031725764,colour,0.5
42,21,0,1,11,43,543,1913.520797050558,1914.6803327370435,"[95, 0, 159]",159,l,0.6373223653063178,colour,0.5
42,21,0,1,11,44,544,1916.6929574781097,1918.0083522973582,"[52, 0, 202]",202,a,0.793164168484509,colour,0.5
42,21,0,1,11,45,545,1920.0213181087747,1921.728348500561,"[72, 0, 182]",182,a,1.1848103748634458,colour,0.5
42,21,0,1,11,46,546,1923.74038995523,1924.5363468872383,"[49, 0, 205]",205,a,0.273981099948287,colour,0.5
42,21,0,1,11,47,547,1926.553099530749,1928.1363416886888,"[63, 0, 191]",191,l,1.061038289219141,colour,0.5
42,21,0,1,11,48,548,1930.147098810412,1930.8963629091159,"[68, 0, 186]",186,l,0.22689757123589516,colour,0.5
42,21,0,1,11,49,549,1932.912978887558,1933.9923822265118,"[59, 0, 195]",195,l,0.5572258573956788,colour,0.5
42,21,0,1,11,50,550,1936.0069533553906,1936.7923406362534,"[33, 0, 221]",221,a,0.26333937514573336,colour,0.5
42,21,0,1,12,1,551,1945.8038448845036,1947.2563702659681,"[60, 0, 194]",194,a,0.9295137338340282,colour,0.5
42,21,0,1,12,2,552,1949.2736045834608,1949.8403745163232,"[37, 0, 217]",217,a,0.04471533186733723,colour,0.5
42,21,0,1,12,3,553,1951.8519315402955,1952.5283309346996,"[96, 0, 158]",158,l,0.15406161779537797,colour,0.5
42,21,0,1,12,4,554,1954.5396776450798,1955.2163294949569,"[34, 0, 220]",220,a,0.15462009189650416,colour,0.5
42,21,0,1,12,5,555,1957.227394211106,1958.5923573351465,"[66, 0, 188]",188,a,0.8425883259624243,colour,0.5
42,21,0,1,12,6,556,1960.6026174235158,1961.2003353997134,"[99, 0, 155]",155,l,0.07544991048052907,colour,0.5
42,21,0,1,12,7,557,1963.212194503285,1964.0483820405789,"[46, 0, 208]",208,a,0.3138552741147578,colour,0.5
42,21,0,1,12,8,558,1966.0562239126302,1966.8003447731026,"[9, 0, 245]",245,a,0.22200166853144765,colour,0.5
42,21,0,1,12,9,559,1968.8064537220635,1969.4643407682888,"[15, 0, 239]",239,a,0.1357127157971263,colour,0.5
42,21,0,1,12,10,560,1971.4784459774382,1972.2243442656472,"[29, 0, 225]",225,a,0.22350970515981317,colour,0.5
42,21,0,1,12,11,561,1974.2443863130175,1975.0643332065083,"[85, 0, 169]",169,a,0.29773632949218154,colour,0.5
42,21,0,1,12,12,562,1977.0727351284586,1977.888361922931,"[16, 0, 238]",238,a,0.2934670364484191,colour,0.5
42,21,0,1,12,13,563,1979.901062282268,1981.1523574455641,"[65, 0, 189]",189,l,0.7290597865357995,colour,0.5
42,21,0,1,12,14,564,1983.1669565374032,1983.984346581623,"[78, 0, 176]",176,l,0.29517790442332625,colour,0.5
42,21,0,1,12,15,565,1985.9952628174797,1986.7444505100138,"[84, 0, 170]",170,l,0.22676917724311352,colour,0.5
42,21,0,1,12,16,566,1988.7611247776076,1989.6323744752444,"[13, 0, 241]",241,a,0.34898399468511343,colour,0.5
42,21,0,1,12,17,567,1991.6519726575352,1992.8243571841158,"[54, 0, 200]",200,a,0.650033752899617,colour,0.5
42,21,0,1,12,18,568,1994.8397872918285,1996.688336480409,"[72, 0, 182]",182,l,1.3264032150618732,colour,0.5
42,21,0,1,12,19,569,1998.6994823287241,1999.5924337413162,"[14, 0, 240]",240,a,0.3707459685392678,colour,0.5
42,21,0,1,12,20,570,2001.6059194300324,2002.3844967158511,"[11, 0, 243]",243,a,0.2564372196793556,colour,0.5
42,21,0,1,12,21,571,2004.4030642025173,2006.4083858528174,"[67, 0, 187]",187,l,1.4830969073809683,colour,0.5
42,21,0,1,12,22,572,2008.4242058680393,2009.0563452173956,"[91, 0, 163]",163,l,0.11020684009417892,colour,0.5
42,21,0,1,12,23,573,2011.0649676928297,2011.9843769078143,"[25, 0, 229]",229,a,0.397153751924634,colour,0.5
42,21,0,1,12,24,574,2014.00274432078,2014.8323802254163,"[86, 0, 168]",168,l,0.307322152890265,colour,0.5
42,21,0,1,12,25,575,2016.84675679449,2018.0883613713086,"[82, 0, 172]",172,l,0.7195515506900847,colour,0.5
42,21,0,1,12,26,576,2020.0969271329232,2020.9283700045198,"[39, 0, 215]",215,a,0.30924648558720946,colour,0.5
42,21,0,1,12,27,577,2022.9409266100265,2024.2723891739734,"[22, 0, 232]",232,a,0.8093772428110242,colour,0.5
42,21,0,1,12,28,578,2026.2849398716353,2029.656380978413,"[79, 0, 175]",175,l,2.849121447186917,colour,0.5
42,21,0,1,12,29,579,2031.675985462498,2032.840396177955,"[20, 0, 234]",234,a,0.6421528896316886,colour,0.5
42,21,0,1,12,30,580,2034.848123834934,2035.848390468862,"[5, 0, 249]",249,a,0.4780123527161777,colour,0.5
42,21,0,1,12,31,581,2037.8640328594483,2039.352388008032,"[59, 0, 195]",195,a,0.9661355256102979,colour,0.5
42,21,0,1,12,32,582,2041.3642813763581,2042.5844020349905,"[19, 0, 235]",235,a,0.6978746480308473,colour,0.5
42,21,0,1,12,33,583,2044.5988270472735,2045.4243933390826,"[94, 0, 160]",160,l,0.30328562296926975,colour,0.5
42,21,0,1,12,34,584,2047.4429033240303,2049.2643444705755,"[52, 0, 202]",202,a,1.2991774128749967,colour,0.5
42,21,0,1,12,35,585,2051.27128128428,2052.048415911384,"[23, 0, 231]",231,a,0.25479763792827725,colour,0.5
42,21,0,1,12,36,586,2054.0684126657434,2054.928401512094,"[95, 0, 159]",159,l,0.33768139546737075,colour,0.5
42,21,0,1,12,37,587,2056.9436000380665,2058.4803947284818,"[63, 0, 191]",191,a,1.0144899967126548,colour,0.5
42,21,0,1,12,38,588,2060.4907859675586,2061.2083710441366,"[88, 0, 166]",166,l,0.19549699826166034,colour,0.5
42,21,0,1,12,39,589,2063.225497053936,2064.040414925199,"[18, 0, 236]",236,a,0.29283806402236223,colour,0.5
42,21,0,1,12,40,590,2066.0537296845578,2066.9123826045543,"[7, 0, 247]",247,a,0.33641636185348034,colour,0.5
42,21,0,1,12,41,591,2068.9289910998195,2069.752369576134,"[92, 0, 162]",162,l,0.3012356534600258,colour,0.5
42,21,0,1,12,42,592,2071.7729858509265,2072.6243742769584,"[6, 0, 248]",248,a,0.3293354003690183,colour,0.5
42,21,0,1,12,43,593,2074.632571004797,2076.5283648055047,"[35, 0, 219]",219,a,1.373510374687612,colour,0.5
42,21,0,1,12,44,594,2078.5390789983794,2079.384365171194,"[41, 0, 213]",213,a,0.32302795303985476,colour,0.5
42,21,0,1,12,45,595,2081.39875158621,2082.040395232849,"[83, 0, 171]",171,l,0.11944844201207161,colour,0.5
42,21,0,1,12,46,596,2084.0551534388214,2084.752428259235,"[68, 0, 186]",186,l,0.1749748531728983,colour,0.5
42,21,0,1,12,47,597,2086.758456075564,2088.2563954722136,"[0, 0, 254]",254,a,0.9756484874524176,colour,0.5
42,21,0,1,12,48,598,2090.2743977895007,2091.0723794852383,"[51, 0, 203]",203,a,0.27602083003148437,colour,0.5
42,21,0,1,12,49,599,2093.0871223309077,2093.8484058286995,"[2, 0, 252]",252,a,0.23898825608193874,colour,0.5
42,21,0,1,12,50,600,2095.8685376727954,2096.5603695381433,"[30, 0, 224]",224,a,0.16992023028433323,colour,0.5
42,21,0,1,13,1,601,2104.446660223417,2105.088402331341,"[92, 0, 162]",162,l,0.11895534629002213,colour,0.5
42,21,0,1,13,2,602,2107.1038989988156,2107.9683997477405,"[43, 0, 211]",211,a,0.342333507258445,colour,0.5
42,21,0,1,13,3,603,2109.9790686485358,2110.752350671217,"[28, 0, 226]",226,a,0.250976147595793,colour,0.5
42,21,0,1,13,4,604,2112.7717850138433,2114.408399637323,"[44, 0, 210]",210,a,1.1099854982458055,colour,0.5
42,21,0,1,13,5,605,2116.4269592473283,2117.2403931058943,"[42, 0, 212]",212,a,0.29112640814855695,colour,0.5
42,21,0,1,13,6,606,2119.2553395703435,2119.9683733601123,"[13, 0, 241]",241,a,0.19076769286766648,colour,0.5
42,21,0,1,13,7,607,2121.974273176398,2122.8725285166875,"[21, 0, 233]",233,a,0.3765091202221811,colour,0.5
42,21,0,1,13,8,608,2124.880823705811,2126.0164021202363,"[67, 0, 187]",187,l,0.6137262498959899,colour,0.5
42,21,0,1,13,9,609,2128.0216434258036,2128.7844042405486,"[30, 0, 224]",224,a,0.24041673634201288,colour,0.5
42,21,0,1,13,10,610,2130.8030926384963,2131.8243674240075,"[56, 0, 198]",198,l,0.49894370464608073,colour,0.5
42,21,0,1,13,11,611,2133.834537321236,2134.6164221274666,"[10, 0, 244]",244,a,0.259576961863786,colour,0.5
42,21,0,1,13,12,612,2136.6316895768978,2138.4403901915066,"[52, 0, 202]",202,a,1.286389225628227,colour,0.5
42,21,0,1,13,13,613,2140.460178995505,2141.264401184395,"[93, 0, 161]",161,l,0.281910405959934,colour,0.5
42,21,0,1,13,14,614,2143.2728850259446,2144.016389123164,"[2, 0, 252]",252,a,0.22131361858919263,colour,0.5
42,21,0,1,13,15,615,2146.0230801771395,2146.9843989633955,"[76, 0, 178]",178,l,0.4391617849469185,colour,0.5
42,21,0,1,13,16,616,2148.992047063075,2149.9364214031957,"[55, 0, 199]",199,a,0.42206492042168975,colour,0.5
42,21,0,1,13,17,617,2151.945460961666,2152.624380184803,"[72, 0, 182]",182,l,0.1573529914021492,colour,0.5
42,21,0,1,13,18,618,2154.633176740259,2155.4163856576197,"[29, 0, 225]",225,a,0.26092352205887437,colour,0.5
42,21,0,1,13,19,619,2157.4301332542673,2158.1763946688734,"[22, 0, 232]",232,a,0.22401697980239987,colour,0.5
42,21,0,1,13,20,620,2160.1960649248213,2160.968494270928,"[3, 0, 251]",251,a,0.25013922480866313,colour,0.5
42,21,0,1,13,21,621,2162.9775121677667,2163.7123957588337,"[63, 0, 191]",191,l,0.21293099597096443,colour,0.5
42,21,0,1,13,22,622,2165.727832955774,2166.7683908469044,"[19, 0, 235]",235,a,0.518314637709409,colour,0.5
42,21,0,1,13,23,623,2168.774910577107,2169.6643693619408,"[49, 0, 205]",205,a,0.36730060167610645,colour,0.5
42,21,0,1,13,24,624,2171.681419752538,2172.6723731048405,"[65, 0, 189]",189,a,0.4687041905708611,colour,0.5
42,21,0,1,13,25,625,2174.6816942635924,2175.9444239647128,"[60, 0, 194]",194,a,0.7405207119882107,colour,0.5
42,21,0,1,13,26,626,2177.9631265406497,2178.632377232425,"[78, 0, 176]",176,l,0.14702831208705902,colour,0.5
42,21,0,1,13,27,627,2180.6508277468383,2181.416414408479,"[40, 0, 214]",214,a,0.24327448522672057,colour,0.5
42,21,0,1,13,28,628,2183.432248996105,2184.4564012223855,"[57, 0, 197]",197,a,0.501782154198736,colour,0.5
42,21,0,1,13,29,629,2186.4638279806823,2187.0964025300927,"[79, 0, 175]",175,l,0.11041124677285552,colour,0.5
42,21,0,1,13,30,630,2189.1046469132416,2190.5604766644537,"[62, 0, 192]",192,a,0.9337436426430941,colour,0.5
42,21,0,1,13,31,631,2192.573656728491,2193.3204037556425,"[8, 0, 246]",246,a,0.22469085035845637,colour,0.5
42,21,0,1,13,32,632,2195.3395092361607,2196.072424383834,"[84, 0, 170]",170,a,0.2107022199779749,colour,0.5
42,21,0,1,13,33,633,2198.0897414083593,2199.1844220426865,"[33, 0, 221]",221,a,0.572534266859293,colour,0.5
42,21,0,1,13,34,634,2201.1993263657205,2201.7286253743805,"[81, 0, 173]",173,l,0.006952567491680384,colour,0.5
42,21,0,1,13,35,635,2203.762084580958,2204.704407769721,"[45, 0, 209]",209,a,0.42005394119769335,colour,0.5
42,21,0,1,13,36,636,2206.7154823318124,2207.544419159647,"[24, 0, 230]",230,a,0.30668727261945605,colour,0.5
42,21,0,1,13,37,637,2209.559390042443,2210.208408853505,"[9, 0, 245]",245,a,0.12678579753264785,colour,0.5
42,21,0,1,13,38,638,2212.215871057939,2213.0484261512756,"[7, 0, 247]",247,a,0.31030159955844283,colour,0.5
42,21,0,1,13,39,639,2215.0598882581107,2215.8243949930184,"[64, 0, 190]",190,l,0.2422638749703765,colour,0.5
42,21,0,1,13,40,640,2217.841292571742,2218.672425880097,"[94, 0, 160]",160,a,0.309079100843519,colour,0.5
42,21,0,1,13,41,641,2220.6852829903364,2221.6804351373576,"[15, 0, 239]",239,a,0.47295182244852185,colour,0.5
42,21,0,1,13,42,642,2223.6854011444375,2224.4644321408123,"[96, 0, 158]",158,l,0.2566751027479768,colour,0.5
42,21,0,1,13,43,643,2226.482596722897,2227.2644248153083,"[50, 0, 204]",204,a,0.25953324511647224,colour,0.5
42,21,0,1,13,44,644,2229.2796914768405,2230.3924220837653,"[34, 0, 220]",220,a,0.5902486825361848,colour,0.5
42,21,0,1,13,45,645,2232.4049574215896,2233.232446076814,"[73, 0, 181]",181,l,0.3051099185831845,colour,0.5
42,21,0,1,13,46,646,2235.2489096368663,2236.60039573675,"[46, 0, 208]",208,a,0.8292345753870904,colour,0.5
42,21,0,1,13,47,647,2238.6086637508124,2239.400441580452,"[38, 0, 216]",216,a,0.26979766553267837,colour,0.5
42,21,0,1,13,48,648,2241.40560923703,2242.240421462804,"[83, 0, 171]",171,a,0.31241891672834754,colour,0.5
42,21,0,1,13,49,649,2244.249776492361,2245.024423192721,"[87, 0, 167]",167,l,0.2525554713793099,colour,0.5
42,21,0,1,13,50,650,2247.031132757198,2247.7363979299553,"[98, 0, 156]",156,l,0.18398881191387773,colour,0.5
42,21,0,1,14,1,651,2262.078337197192,2262.896403475199,"[16, 0, 238]",238,a,0.29451427329331636,colour,0.5
42,21,0,1,14,2,652,2264.908001065254,2266.2244068873115,"[89, 0, 165]",165,l,0.7944358978420496,colour,0.5
42,21,0,1,14,3,653,2268.236360120587,2269.680418201722,"[64, 0, 190]",190,a,0.9219475537538528,colour,0.5
42,21,0,1,14,4,654,2271.6897413297556,2272.76842432376,"[91, 0, 163]",163,l,0.5565657713450491,colour,0.5
42,21,0,1,14,5,655,2274.783674049657,2277.0324261481874,"[71, 0, 183]",183,a,1.7264812756329775,colour,0.5
42,21,0,1,14,6,656,2279.0496774008498,2280.0084405187517,"[84, 0, 170]",170,l,0.4365966646000743,colour,0.5
42,21,0,1,14,7,657,2282.0186533452943,2284.1764021515846,"[61, 0, 193]",193,a,1.6355705372989178,colour,0.5
42,21,0,1,14,8,658,2286.1908519761637,2287.272437616717,"[36, 0, 218]",218,a,0.5595263130962849,colour,0.5
42,21,0,1,14,9,659,2289.284850862343,2290.200396052096,"[58, 0, 196]",196,a,0.39332832396030426,colour,0.5
42,21,0,1,14,10,660,2292.2069035731256,2293.224419096485,"[78, 0, 176]",176,l,0.49521516216918826,colour,0.5
42,21,0,1,14,11,661,2295.238424268551,2295.888389491942,"[1, 0, 253]",253,a,0.12770188366994262,colour,0.5
42,21,0,1,14,12,662,2297.894984840881,2298.7524270773865,"[93, 0, 161]",161,l,0.33524624444544315,colour,0.5
42,21,0,1,14,13,663,2300.7701190439984,2301.728433177341,"[90, 0, 164]",164,l,0.43610750744119287,colour,0.5
42,21,0,1,14,14,664,2303.7402619551867,2304.8564367471263,"[45, 0, 209]",209,a,0.5950161907821894,colour,0.5
42,21,0,1,14,15,665,2306.8644365519285,2307.752444800455,"[69, 0, 185]",185,l,0.3658102871850133,colour,0.5
42,21,0,1,14,16,666,2309.7708988594823,2310.7204077728093,"[96, 0, 158]",158,l,0.42730465019121766,colour,0.5
42,21,0,1,14,17,667,2312.7398251798004,2314.1524275499396,"[70, 0, 184]",184,l,0.8903232766315341,colour,0.5
42,21,0,1,14,18,668,2316.1619877736084,2317.0003950279206,"[13, 0, 241]",241,a,0.3160966532304883,colour,0.5
42,21,0,1,14,19,669,2319.0059659830295,2319.8084119255655,"[55, 0, 199]",199,a,0.28057329822331667,colour,0.5
42,21,0,1,14,20,670,2321.8186200261116,2322.384448666591,"[76, 0, 178]",178,l,0.04356687609106302,colour,0.5
42,21,0,1,14,21,671,2324.3970170873217,2326.0324517479166,"[57, 0, 197]",197,a,1.1131937699392438,colour,0.5
42,21,0,1,14,22,672,2328.0379167585634,2329.1604525609873,"[15, 0, 239]",239,a,0.6003260258585215,colour,0.5
42,21,0,1,14,23,673,2331.178765622899,2332.208444299642,"[32, 0, 222]",222,a,0.5075795706361532,colour,0.5
42,21,0,1,14,24,674,2334.225922801532,2335.472463847138,"[5, 0, 249]",249,a,0.7243856196291745,colour,0.5
42,21,0,1,14,25,675,2337.491776490584,2338.3444579141214,"[25, 0, 229]",229,a,0.3303916957229376,colour,0.5
42,21,0,1,14,26,676,2340.351441201754,2341.4884654255584,"[41, 0, 213]",213,a,0.6147608840838075,colour,0.5
42,21,0,1,14,27,677,2343.507898980286,2344.328440581914,"[24, 0, 230]",230,a,0.29855119762942195,colour,0.5
42,21,0,1,14,28,678,2346.336238737218,2347.152449605521,"[30, 0, 224]",224,a,0.2941157007589936,colour,0.5
42,21,0,1,14,29,679,2349.1646403279155,2349.9764653248712,"[39, 0, 215]",215,a,0.28958765091374516,colour,0.5
42,21,0,1,14,30,680,2351.992973783519,2352.696448531002,"[4, 0, 250]",250,a,0.181505611166358,colour,0.5
42,21,0,1,14,31,681,2354.7119613466784,2355.528516830411,"[34, 0, 220]",220,a,0.29431971348822117,colour,0.5
42,21,0,1,14,32,682,2357.5403011036105,2358.3124263999052,"[44, 0, 210]",210,a,0.25002619065344334,colour,0.5
42,21,0,1,14,33,683,2360.3217290481552,2361.360431923531,"[66, 0, 188]",188,l,0.5164647419005632,colour,0.5
42,21,0,1,14,34,684,2363.368871654384,2364.336442355532,"[80, 0, 174]",174,l,0.4452695520594716,colour,0.5
42,21,0,1,14,35,685,2366.353567577433,2367.2004602486268,"[6, 0, 248]",248,a,0.324663202278316,colour,0.5
42,21,0,1,14,36,686,2369.2130267005414,2371.1044283285737,"[68, 0, 186]",186,l,1.3691071742214262,colour,0.5
42,21,0,1,14,37,687,2373.119631974492,2374.2644196953624,"[65, 0, 189]",189,l,0.6231486275792122,colour,0.5
42,21,0,1,14,38,688,2376.2761259865947,2377.656478652265,"[17, 0, 237]",237,a,0.8580444273538888,colour,0.5
42,21,0,1,14,39,689,2379.666996316053,2380.9284243551083,"[28, 0, 226]",226,a,0.7391788777895272,colour,0.5
42,21,0,1,14,40,690,2382.9486105497926,2383.800410545431,"[86, 0, 168]",168,l,0.3296296033076942,colour,0.5
42,21,0,1,14,41,691,2385.8081189040095,2386.336462441832,"[40, 0, 214]",214,a,0.00627515185624361,colour,0.5
42,21,0,1,14,42,692,2388.3552481192164,2389.656457778532,"[52, 0, 202]",202,a,0.7789727072231472,colour,0.5
42,21,0,1,14,43,693,2391.667982900981,2392.5764380707406,"[19, 0, 235]",235,a,0.38621112843975425,colour,0.5
42,21,0,1,14,44,694,2394.5900911442004,2395.7924674544483,"[59, 0, 195]",195,a,0.680269327480346,colour,0.5
42,21,0,1,14,45,695,2397.809139753226,2398.8084241347387,"[14, 0, 240]",240,a,0.4771328940987587,colour,0.5
42,21,0,1,14,46,696,2400.824991670437,2401.704451092519,"[48, 0, 206]",206,a,0.3575284886173904,colour,0.5
42,21,0,1,14,47,697,2403.71596085513,2404.6804501032457,"[31, 0, 223]",223,a,0.44238738529384136,colour,0.5
42,21,0,1,14,48,698,2406.700482304208,2407.9924637526274,"[62, 0, 192]",192,l,0.7697574933990836,colour,0.5
42,21,0,1,14,49,699,2409.997577452101,2411.1604438964278,"[53, 0, 201]",201,a,0.6409303909167647,colour,0.5
42,21,0,1,14,50,700,2413.1697244890966,2414.3604531912133,"[38, 0, 216]",216,a,0.6685307407751679,colour,0.5
42,21,0,1,15,1,701,2424.7950569936074,2426.1284809117205,"[66, 0, 188]",188,l,0.8104398399591446,colour,0.5
42,21,0,1,15,2,702,2428.1397559414618,2429.2244994412176,"[19, 0, 235]",235,a,0.5625156061723828,colour,0.5
42,21,0,1,15,3,703,2431.2337823971175,2432.128526991699,"[51, 0, 203]",203,a,0.37253678729757667,colour,0.5
42,21,0,1,15,4,704,2434.140175387729,2434.8884848025627,"[31, 0, 223]",223,a,0.22611893666908145,colour,0.5
42,21,0,1,15,5,705,2436.9061421109363,2438.0164730125107,"[65, 0, 189]",189,l,0.5881333341822028,colour,0.5
42,21,0,1,15,6,706,2440.0312965968624,2440.8564678612165,"[78, 0, 176]",176,l,0.30287090269848704,colour,0.5
42,21,0,1,15,7,707,2442.8753685415722,2444.432440405246,"[87, 0, 167]",167,l,1.0349424313753843,colour,0.5
42,21,0,1,15,8,708,2446.438175987918,2447.4804518362507,"[93, 0, 161]",161,l,0.5201216037385166,colour,0.5
42,21,0,1,15,9,709,2449.5008841850795,2450.4004604849033,"[4, 0, 250]",250,a,0.3772731819190085,colour,0.5
42,21,0,1,15,10,710,2452.407324043568,2453.5286215934902,"[38, 0, 216]",216,a,0.5991893857717514,colour,0.5
42,21,0,1,15,11,711,2455.548254827969,2456.680454041809,"[82, 0, 172]",172,l,0.6100059784948826,colour,0.5
42,21,0,1,15,12,712,2458.68909227103,2459.6484323740005,"[37, 0, 217]",217,a,0.4371472615748644,colour,0.5
42,21,0,1,15,13,713,2461.658086332958,2462.992465721909,"[20, 0, 234]",234,a,0.8123704739846289,colour,0.5
42,21,0,1,15,14,714,2465.002255163621,2466.1044476269744,"[91, 0, 163]",163,l,0.580189062282443,colour,0.5
42,21,0,1,15,15,715,2468.111961425282,2469.8484786902554,"[56, 0, 198]",198,a,1.2142940973863006,colour,0.5
42,21,0,1,15,16,716,2471.862264489755,2472.6964477435686,"[6, 0, 248]",248,a,0.3118462646380067,colour,0.5
42,21,0,1,15,17,717,2474.7071820222773,2476.0724409250543,"[97, 0, 157]",157,l,0.8439384307712317,colour,0.5
42,21,0,1,15,18,718,2478.0815639793873,2479.0964482161216,"[52, 0, 202]",202,a,0.49279261427000165,colour,0.5
42,21,0,1,15,19,719,2481.113034262322,2482.0644714464433,"[42, 0, 212]",212,l,0.4291702997870743,colour,0.5
42,21,0,1,15,20,720,2484.082002724055,2484.94443105394,"[33, 0, 221]",221,a,0.3402669965289533,colour,0.5
42,21,0,1,15,21,721,2486.957232631743,2488.0724582541734,"[88, 0, 166]",166,l,0.5930410521104932,colour,0.5
42,21,0,1,15,22,722,2490.082517086994,2491.152448424138,"[12, 0, 242]",242,a,0.5476691788062453,colour,0.5
42,21,0,1,15,23,723,2493.1608735825866,2493.8244469808415,"[2, 0, 252]",252,a,0.14126949245110154,colour,0.5
42,21,0,1,15,24,724,2495.833065518178,2496.7604560269974,"[55, 0, 199]",199,a,0.40525241242721677,colour,0.5
42,21,0,1,15,25,725,2498.7707397458144,2499.8484499393962,"[92, 0, 162]",162,l,0.5554976598359644,colour,0.5
42,21,0,1,15,26,726,2501.864699247293,2503.720451883506,"[53, 0, 201]",201,a,1.33352119801566,colour,0.5
42,21,0,1,15,27,727,2505.7400213149376,2507.5124687780626,"[47, 0, 207]",207,a,1.2502305968664587,colour,0.5
42,21,0,1,15,28,728,2509.521520545706,2510.792459971737,"[62, 0, 192]",192,a,0.7486122827976942,colour,0.5
42,21,0,1,15,29,729,2512.8031190261245,2513.7684585885145,"[83, 0, 171]",171,l,0.44309630896896124,colour,0.5
42,21,0,1,15,30,730,2515.7876546536572,2516.856490704231,"[27, 0, 227]",227,a,0.5466396645642817,colour,0.5
42,21,0,1,15,31,731,2518.8660481707193,2520.6244719508104,"[57, 0, 197]",197,a,1.2362179420888424,colour,0.5
42,21,0,1,15,32,732,2522.631899497006,2523.616461512167,"[15, 0, 239]",239,a,0.4621982448734343,colour,0.5
42,21,0,1,15,33,733,2525.6329199522734,2526.984489941504,"[71, 0, 183]",183,a,0.8301640525460243,colour,0.5
42,21,0,1,15,34,734,2528.991872589104,2529.864484995138,"[25, 0, 229]",229,a,0.35093392757698894,colour,0.5
42,21,0,1,15,35,735,2531.8827169248834,2532.752469612751,"[8, 0, 246]",246,a,0.34752991423010826,colour,0.5
42,21,0,1,15,36,736,2534.7579409247264,2535.7124776788987,"[10, 0, 244]",244,a,0.43242346961051226,colour,0.5
42,21,0,1,15,37,737,2537.7269160817377,2539.608501092065,"[64, 0, 190]",190,a,1.3593137934803963,colour,0.5
42,21,0,1,15,38,738,2541.6177994078025,2542.4324541897513,"[36, 0, 218]",218,a,0.2923626913689077,colour,0.5
42,21,0,1,15,39,739,2544.446217540186,2545.384450635873,"[90, 0, 164]",164,l,0.4164632451720536,colour,0.5
42,21,0,1,15,40,740,2547.3996566450223,2548.4244736838154,"[50, 0, 204]",204,a,0.5026202592998743,colour,0.5
42,21,0,1,15,41,741,2550.431115900632,2551.0404767589644,"[40, 0, 214]",214,a,0.08725190674886107,colour,0.5
42,21,0,1,15,42,742,2553.05626369128,2553.7924871467985,"[45, 0, 209]",209,a,0.2139341221190989,colour,0.5
42,21,0,1,15,43,743,2555.8064497835003,2556.424506372772,"[23, 0, 231]",231,a,0.09579797554761171,colour,0.5
42,21,0,1,15,44,744,2558.4317303006537,2559.184492147062,"[13, 0, 241]",241,a,0.2305036266334355,colour,0.5
42,21,0,1,15,45,745,2561.1975867468864,2563.040454703383,"[29, 0, 225]",225,a,1.3206743276678026,colour,0.5
42,21,0,1,15,46,746,2565.057224676013,2565.9124668873847,"[0, 0, 254]",254,a,0.3330627609975636,colour,0.5
42,21,0,1,15,47,747,2567.9323655744083,2569.2244773856364,"[61, 0, 193]",193,l,0.7697165329009295,colour,0.5
42,21,0,1,15,48,748,2571.2295631221496,2572.184480331838,"[17, 0, 237]",237,a,0.43265505135059357,colour,0.5
42,21,0,1,15,49,749,2574.1985244946554,2575.1684822980314,"[74, 0, 180]",180,l,0.447597183752805,colour,0.5
42,21,0,1,15,50,750,2577.1831447994336,2578.040462974459,"[77, 0, 177]",177,l,0.33513399865478277,colour,0.5
42,21,0,1,16,1,751,2610.669458642602,2611.896486970596,"[6, 0, 248]",248,a,0.7040198310278356,colour,0.5
42,21,0,1,16,2,752,2613.9048400553875,2614.6325032631867,"[26, 0, 228]",228,a,0.205344729591161,colour,0.5
42,21,0,1,16,3,753,2616.639510181267,2617.3764508310705,"[25, 0, 229]",229,a,0.2147808913141489,colour,0.5
42,21,0,1,16,4,754,2619.389728175476,2620.6004701736383,"[84, 0, 170]",170,l,0.68851213529706,colour,0.5
42,21,0,1,16,5,755,2622.608638544567,2623.9684840310365,"[96, 0, 158]",158,l,0.8378192419186234,colour,0.5
42,21,0,1,16,6,756,2625.9839515537024,2627.0404720325023,"[39, 0, 215]",215,a,0.5342630464583635,colour,0.5
42,21,0,1,16,7,757,2629.0466550248675,2630.0965002039447,"[95, 0, 159]",159,l,0.527402245439589,colour,0.5
42,21,0,1,16,8,758,2632.109414028004,2633.4804652272724,"[71, 0, 183]",183,l,0.8487118473276496,colour,0.5
42,21,0,1,16,9,759,2635.5003288616426,2636.0404956634156,"[42, 0, 212]",212,a,0.017891252879053354,colour,0.5
42,21,0,1,16,10,760,2638.0474159354344,2639.1924801366404,"[19, 0, 235]",235,a,0.622907199896872,colour,0.5
42,21,0,1,16,11,761,2641.2038678065874,2641.840511180926,"[27, 0, 227]",227,a,0.11428354261443019,colour,0.5
42,21,0,1,16,12,762,2643.8603586680256,2644.840473371558,"[61, 0, 193]",193,a,0.45781158516183496,colour,0.5
42,21,0,1,16,13,763,2646.860652083531,2647.9364954461344,"[76, 0, 178]",178,l,0.5535323675721884,colour,0.5
42,21,0,1,16,14,764,2649.9546399419196,2651.2164744306356,"[78, 0, 176]",176,l,0.7396002933382988,colour,0.5
42,21,0,1,16,15,765,2653.2360974252224,2654.376483520493,"[4, 0, 250]",250,a,0.6181810447014868,colour,0.5
42,21,0,1,16,16,766,2656.3925784407184,2656.9845190863125,"[51, 0, 203]",203,a,0.0696977861225605,colour,0.5
42,21,0,1,16,17,767,2659.0021322835237,2659.6724900770932,"[56, 0, 198]",198,a,0.14845757978037,colour,0.5
42,21,0,1,16,18,768,2661.6899221050553,2662.232496882789,"[57, 0, 197]",197,a,0.020370908547192812,colour,0.5
42,21,0,1,16,19,769,2664.2526362100616,2665.120501193218,"[24, 0, 230]",230,a,0.34561148984357715,colour,0.5
42,21,0,1,16,20,770,2667.1278326408938,2668.05651220819,"[15, 0, 239]",239,a,0.406934529542923,colour,0.5
42,21,0,1,16,21,771,2670.065588788595,2670.9684808799066,"[73, 0, 181]",181,l,0.38064568722620606,colour,0.5
42,21,0,1,16,22,772,2672.9876923053525,2676.088487008121,"[70, 0, 184]",184,l,2.578630218282342,colour,0.5
42,21,0,1,16,23,773,2678.097488363739,2679.584519795142,"[34, 0, 220]",220,a,0.9646641160361469,colour,0.5
42,21,0,1,16,24,774,2681.5977683886886,2682.3765055756085,"[30, 0, 224]",224,a,0.25662587210536003,colour,0.5
42,21,0,1,16,25,775,2684.3948174561374,2685.528509347234,"[99, 0, 155]",155,l,0.6114573017694056,colour,0.5
42,21,0,1,16,26,776,2687.5357474531047,2688.656526701525,"[89, 0, 165]",165,l,0.5986230345442891,colour,0.5
42,21,0,1,16,27,777,2690.6766553949565,2691.5285337655805,"[31, 0, 223]",223,a,0.32960518496111035,colour,0.5
42,21,0,1,16,28,778,2693.536230308935,2694.440533157438,"[37, 0, 217]",217,a,0.3820706228725612,colour,0.5
42,21,0,1,16,29,779,2696.4583503673784,2697.632518229075,"[77, 0, 177]",177,l,0.6520782080478966,colour,0.5
42,21,0,1,16,30,780,2699.6459984043613,2700.864505080972,"[80, 0, 174]",174,l,0.696200801525265,colour,0.5
42,21,0,1,16,31,781,2702.8807685673237,2703.7364912712947,"[7, 0, 247]",247,a,0.3335739732719958,colour,0.5
42,21,0,1,16,32,782,2705.7559527889825,2706.7525137239136,"[74, 0, 180]",180,l,0.4744177181273699,colour,0.5
42,21,0,1,16,33,783,2708.7717869826593,2709.744533217512,"[21, 0, 233]",233,a,0.4504427225328982,colour,0.5
42,21,0,1,16,34,784,2711.756393502932,2712.616516256705,"[17, 0, 237]",237,a,0.33784641698002815,colour,0.5
42,21,0,1,16,35,785,2714.631624985952,2715.3685014387593,"[12, 0, 242]",242,a,0.21472023893147707,colour,0.5
42,21,0,1,16,36,786,2717.3818835462444,2718.592522356659,"[68, 0, 186]",186,l,0.6883640494197607,colour,0.5
42,21,0,1,16,37,787,2720.6009010416456,2721.3684963188134,"[18, 0, 236]",236,a,0.24542724853381515,colour,0.5
42,21,0,1,16,38,788,2723.3823774293996,2724.08052895125,"[50, 0, 204]",204,a,0.17592047760263085,colour,0.5
42,21,0,1,16,39,789,2726.0855099246837,2726.664520992432,"[36, 0, 218]",218,a,0.05658231256529689,colour,0.5
42,21,0,1,16,40,790,2728.6797037646174,2729.2565289861523,"[46, 0, 208]",208,a,0.05458551226183772,colour,0.5
42,21,0,1,16,41,791,2731.2735683494247,2732.13650474092,"[92, 0, 162]",162,l,0.3407218889333308,colour,0.5
42,21,0,1,16,42,792,2734.148680496961,2734.9205249813385,"[97, 0, 157]",157,l,0.2496433723717928,colour,0.5
42,21,0,1,16,43,793,2736.9302903986536,2737.7125060358085,"[9, 0, 245]",245,a,0.2599771097302437,colour,0.5
42,21,0,1,16,44,794,2739.7273426172324,2740.7365038744174,"[93, 0, 161]",161,l,0.4868549881502986,colour,0.5
42,21,0,1,16,45,795,2742.7433048109524,2744.1284903637134,"[8, 0, 246]",246,a,0.8629163051955402,colour,0.5
42,21,0,1,16,46,796,2746.134189712815,2747.0725165437907,"[44, 0, 210]",210,a,0.41614698665216565,colour,0.5
42,21,0,1,16,47,797,2749.0875071189366,2749.9204934737645,"[82, 0, 172]",172,l,0.31153473211452365,colour,0.5
42,21,0,1,16,48,798,2751.9314865097404,2753.20852700714,"[67, 0, 187]",187,l,0.7548976745456457,colour,0.5
42,21,0,1,16,49,799,2755.2285796883516,2755.9605145524256,"[75, 0, 179]",179,l,0.20958605967462063,colour,0.5
42,21,0,1,16,50,800,2757.978928832803,2759.080494686961,"[23, 0, 231]",231,a,0.579327720683068,colour,0.5
