id,age,condition,counterbalance,block,trialinblock,trial,tstart,tend,trialstim,trialintensity,response,RT,trialtype,colourfreq
23,20,0,2,Practice,1,NA,5.5138953030109406e-06,0.9168031341396272,"[26, 0, 228]",228,a,0.3935193386860192,colour,0.5
23,20,0,2,Practice,2,NA,2.9228750616312027,4.548834175802767,"[87, 0, 167]",167,l,1.0998404137790203,colour,0.5
23,20,0,2,Practice,3,NA,6.567825441248715,7.348811489995569,"[5, 0, 249]",249,a,0.25882668467238545,colour,0.5
23,20,0,2,Practice,4,NA,9.36495485343039,9.892830501776189,"[64, 0, 190]",190,a,0.005667447112500668,colour,0.5
23,20,0,2,Practice,5,NA,11.909534308128059,12.516831412445754,"[43, 0, 211]",211,a,0.08548629377037287,colour,0.5
23,20,0,2,Practice,6,NA,14.534424917306751,15.596840092912316,"[1, 0, 253]",253,a,0.5402695955708623,colour,0.5
23,20,0,2,Practice,7,NA,17.612852699123323,18.156845323275775,"[79, 0, 175]",175,l,0.021863192319869995,colour,0.5
23,20,0,2,Practice,8,NA,20.175442742183805,20.748819052241743,"[10, 0, 244]",244,a,0.05115589965134859,colour,0.5
23,20,0,2,Practice,9,NA,22.75383035140112,23.588825322221965,"[52, 0, 202]",202,l,0.3127820431254804,colour,0.5
23,20,0,2,Practice,10,NA,25.597831797786057,26.21283607883379,"[75, 0, 179]",179,l,0.09278820268809795,colour,0.5
23,20,0,2,1,1,1,6.1003189366310835,6.800026151351631,"[4, 0, 250]",250,a,0.17735210852697492,colour,0.5
23,20,0,2,1,2,2,8.820065835490823,9.352007552515715,"[73, 0, 181]",181,l,0.008258561603724957,colour,0.5
23,20,0,2,1,3,3,11.368547125253826,12.168008501175791,"[62, 0, 192]",192,l,0.27718307031318545,colour,0.5
23,20,0,2,1,4,4,14.181335469707847,14.920022039674222,"[87, 0, 167]",167,l,0.21645237458869815,colour,0.5
23,20,0,2,1,5,5,16.931589697487652,17.52801034413278,"[1, 0, 253]",253,a,0.07423056242987514,colour,0.5
23,20,0,2,1,6,6,19.541108488105237,20.3040032107383,"[29, 0, 225]",225,a,0.2406404409557581,colour,0.5
23,20,0,2,1,7,7,22.323687251657248,23.056010447908193,"[39, 0, 215]",215,a,0.2101008165627718,colour,0.5
23,20,0,2,1,8,8,25.073896186891943,25.80801965482533,"[14, 0, 240]",240,a,0.21189281716942787,colour,0.5
23,20,0,2,1,9,9,27.824113393202424,28.50400620419532,"[18, 0, 236]",236,a,0.15768736647441983,colour,0.5
23,20,0,2,1,10,10,30.499923987779766,31.224005164112896,"[60, 0, 194]",194,l,0.2020269688218832,colour,0.5
23,20,0,2,1,11,11,33.23449250170961,33.89602105040103,"[57, 0, 197]",197,l,0.13997885817661881,colour,0.5
23,20,0,2,1,12,12,35.90666395705193,36.488015259150416,"[51, 0, 203]",203,l,0.05920454068109393,colour,0.5
23,20,0,2,1,13,13,38.50217993929982,39.17599412705749,"[70, 0, 184]",184,l,0.1515382449142635,colour,0.5
23,20,0,2,1,14,14,41.17929534614086,41.80801611021161,"[77, 0, 177]",177,l,0.10640779975801706,colour,0.5
23,20,0,2,1,15,15,43.82019619876519,44.488031406886876,"[92, 0, 162]",162,l,0.14555965922772884,colour,0.5
23,20,0,2,1,16,16,46.50789937423542,47.06402955111116,"[11, 0, 243]",243,a,0.03401925601065159,colour,0.5
23,20,0,2,1,17,17,49.070578820072114,49.720024954061955,"[61, 0, 193]",193,l,0.1271922462619841,colour,0.5
23,20,0,2,1,18,18,51.72711576195434,52.400051672942936,"[27, 0, 227]",227,a,0.15102073131129146,colour,0.5
23,20,0,2,1,19,19,54.414774826262146,55.00801792182028,"[16, 0, 238]",238,a,0.07088011270388961,colour,0.5
23,20,0,2,1,20,20,57.024370417464525,57.65606038784608,"[21, 0, 233]",233,a,0.1094778305850923,colour,0.5
23,20,0,2,1,21,21,59.665334285236895,60.320035903248936,"[69, 0, 185]",185,l,0.13254343532025814,colour,0.5
23,20,0,2,1,22,22,62.337287549860775,62.89601908111945,"[0, 0, 254]",254,a,0.03648867178708315,colour,0.5
23,20,0,2,1,23,23,64.91559638967738,65.53601841954514,"[7, 0, 247]",247,a,0.0981606594286859,colour,0.5
23,20,0,2,1,24,24,67.55648818379268,68.24004612723365,"[23, 0, 231]",231,a,0.1613312317058444,colour,0.5
23,20,0,2,1,25,25,70.26068879012018,70.88003837643191,"[66, 0, 188]",188,l,0.09814923768863082,colour,0.5
23,20,0,2,1,26,26,72.88563296245411,73.48002333147451,"[86, 0, 168]",168,l,0.07223927555605769,colour,0.5
23,20,0,2,1,27,27,75.49522737134248,76.08003231137991,"[72, 0, 182]",182,l,0.06251560617238283,colour,0.5
23,20,0,2,1,28,28,78.08922940865159,78.76006178697571,"[81, 0, 173]",173,l,0.14870452182367444,colour,0.5
23,20,0,2,1,29,29,80.77737408550456,81.35200637113303,"[22, 0, 232]",232,a,0.05260997964069247,colour,0.5
23,20,0,2,1,30,30,83.37131153186783,84.32004023529589,"[54, 0, 200]",200,l,0.4252408957108855,colour,0.5
23,20,0,2,1,31,31,86.32605938753113,86.9200015598908,"[76, 0, 178]",178,l,0.07181667862460017,colour,0.5
23,20,0,2,1,32,32,88.93563607381657,89.55203102575615,"[35, 0, 219]",219,a,0.09415524313226342,colour,0.5
23,20,0,2,1,33,33,91.56081655388698,92.15200928552076,"[78, 0, 176]",176,l,0.06922320136800408,colour,0.5
23,20,0,2,1,34,34,94.17043695691973,94.77604997437447,"[33, 0, 221]",221,a,0.08416100079193711,colour,0.5
23,20,0,2,1,35,35,96.79556229850277,97.36004398483783,"[67, 0, 187]",187,l,0.04219707893207669,colour,0.5
23,20,0,2,1,36,36,99.37394596915692,100.13604118395597,"[46, 0, 208]",208,a,0.24041831213980913,colour,0.5
23,20,0,2,1,37,37,102.15540345245972,102.85604880889878,"[99, 0, 155]",155,l,0.17838949989527464,colour,0.5
23,20,0,2,1,38,38,104.87433902779594,105.96002460783347,"[26, 0, 228]",228,a,0.5634462647140026,colour,0.5
23,20,0,2,1,39,39,107.96838714461774,108.59205367974937,"[32, 0, 222]",222,a,0.10149102285504341,colour,0.5
23,20,0,2,1,40,40,110.60926988022402,111.36002704966813,"[82, 0, 172]",172,l,0.2285883529111743,colour,0.5
23,20,0,2,1,41,41,113.37502589542419,114.36000302480534,"[6, 0, 248]",248,a,0.46276617096737027,colour,0.5
23,20,0,2,1,42,42,116.36487647797912,117.20002150395885,"[49, 0, 205]",205,a,0.3130262275226414,colour,0.5
23,20,0,2,1,43,43,119.20883263228461,119.76806474197656,"[34, 0, 220]",220,a,0.037079440895468,colour,0.5
23,20,0,2,1,44,44,121.78720763837919,122.47204243158922,"[8, 0, 246]",246,a,0.16267070267349482,colour,0.5
23,20,0,2,1,45,45,124.49055635510013,125.04005573736504,"[65, 0, 189]",189,l,0.027298270259052515,colour,0.5
23,20,0,2,1,46,46,127.05319169070572,127.68006098316982,"[75, 0, 179]",179,l,0.1046654237434268,colour,0.5
23,20,0,2,1,47,47,129.69400747213513,130.28005932923406,"[42, 0, 212]",212,a,0.06405357597395778,colour,0.5
23,20,0,2,1,48,48,132.287985090632,133.24807625822723,"[84, 0, 170]",170,l,0.43794361827895045,colour,0.5
23,20,0,2,1,49,49,135.25734661100432,135.87206062721089,"[97, 0, 157]",157,l,0.09252747660502791,colour,0.5
23,20,0,2,1,50,50,137.882401060313,138.41627774387598,"[24, 0, 230]",230,a,0.011560962535440922,colour,0.5
23,20,0,2,2,1,51,146.6167943123728,147.5200322009623,"[20, 0, 234]",234,a,0.38020969927310944,colour,0.5
23,20,0,2,2,2,52,149.53967173723504,150.06406420981511,"[79, 0, 175]",175,l,0.002221686765551567,colour,0.5
23,20,0,2,2,3,53,152.07109318347648,152.752059224993,"[43, 0, 211]",211,a,0.15882124938070774,colour,0.5
23,20,0,2,2,4,54,154.75887118978426,155.32007134938613,"[42, 0, 212]",212,a,0.039036463014781475,colour,0.5
23,20,0,2,2,5,55,157.33716309443116,158.160009090323,"[75, 0, 179]",179,l,0.3006011671386659,colour,0.5
23,20,0,2,2,6,56,160.1658884268254,161.04002422979102,"[72, 0, 182]",182,l,0.3522501620464027,colour,0.5
23,20,0,2,2,7,57,163.05634009744972,164.00804746011272,"[69, 0, 185]",185,l,0.42939518578350544,colour,0.5
23,20,0,2,2,8,58,166.02536172838882,166.64797787554562,"[95, 0, 159]",159,l,0.10049577383324504,colour,0.5
23,20,0,2,2,9,59,168.6661534854211,169.2960345200263,"[41, 0, 213]",213,a,0.10763108590617776,colour,0.5
23,20,0,2,2,10,60,171.30699486657977,171.92004055064172,"[99, 0, 155]",155,l,0.09088119957596064,colour,0.5
23,20,0,2,2,11,61,173.93223521159962,174.79202083311975,"[82, 0, 172]",172,l,0.3375687557272613,colour,0.5
23,20,0,2,2,12,62,176.80755373463035,177.4080357234925,"[34, 0, 220]",220,a,0.07826275983825326,colour,0.5
23,20,0,2,2,13,63,179.4170599221252,180.0160645940341,"[66, 0, 188]",188,l,0.07683506747707725,colour,0.5
23,20,0,2,2,14,64,182.02659683022648,182.84807381639257,"[18, 0, 236]",236,a,0.29934519110247493,colour,0.5
23,20,0,2,2,15,65,184.84812225960195,185.45605030516163,"[54, 0, 200]",200,l,0.08571708761155605,colour,0.5
23,20,0,2,2,16,66,187.4732298781164,188.19199491804466,"[26, 0, 228]",228,a,0.19657534966245294,colour,0.5
23,20,0,2,2,17,67,190.20780469337478,190.7920558853075,"[70, 0, 184]",184,l,0.0627783015370369,colour,0.5
23,20,0,2,2,18,68,192.80179333966225,193.49596780259162,"[36, 0, 218]",218,a,0.17197650158777833,colour,0.5
23,20,0,2,2,19,69,195.50512669654563,196.192018548958,"[89, 0, 165]",165,l,0.1646887711249292,colour,0.5
23,20,0,2,2,20,70,198.2084100348875,198.84810571791604,"[53, 0, 201]",201,a,0.11822554934769869,colour,0.5
23,20,0,2,2,21,71,200.8649938441813,201.92007875349373,"[87, 0, 167]",167,l,0.5329531137831509,colour,0.5
23,20,0,2,2,22,72,203.92774693993852,204.52806154405698,"[0, 0, 254]",254,a,0.07843565847724676,colour,0.5
23,20,0,2,2,23,73,206.53726888122037,207.74406375270337,"[5, 0, 249]",249,l,0.6845787931233644,colour,0.5
23,20,0,2,2,24,74,209.75619067205116,210.39200027426705,"[3, 0, 251]",251,a,0.11359864380210638,colour,0.5
23,20,0,2,2,25,75,212.398120644968,213.11202877294272,"[59, 0, 195]",195,a,0.191780271474272,colour,0.5
23,20,0,2,2,26,76,215.13266080152243,216.08807898359373,"[64, 0, 190]",190,l,0.4331906819716096,colour,0.5
23,20,0,2,2,27,77,218.10166904190555,219.28007508302107,"[91, 0, 163]",163,l,0.656173421535641,colour,0.5
23,20,0,2,2,28,78,221.2895600819029,221.8560968581587,"[85, 0, 169]",169,l,0.04452037811279297,colour,0.5
23,20,0,2,2,29,79,223.86774446628988,224.48006783612072,"[73, 0, 181]",181,l,0.0900734206661582,colour,0.5
23,20,0,2,2,30,80,226.49295960506424,227.46408634399995,"[1, 0, 253]",253,a,0.4489630423486233,colour,0.5
23,20,0,2,2,31,81,229.47758896788582,230.32002014946193,"[15, 0, 239]",239,a,0.32048213109374046,colour,0.5
23,20,0,2,2,32,82,232.33683423278853,232.99205021420494,"[84, 0, 170]",170,l,0.1328707216307521,colour,0.5
23,20,0,2,2,33,83,235.00895291287452,235.76006533158943,"[98, 0, 156]",156,l,0.22886798391118646,colour,0.5
23,20,0,2,2,34,84,237.77481172187254,238.48808339470997,"[40, 0, 214]",214,a,0.19107765005901456,colour,0.5
23,20,0,2,2,35,85,240.493755962234,241.44809618685395,"[63, 0, 191]",191,a,0.43225490348413587,colour,0.5
23,20,0,2,2,36,86,243.4627106389962,244.20007349178195,"[55, 0, 199]",199,a,0.21508651599287987,colour,0.5
23,20,0,2,2,37,87,246.21303182048723,247.17602405929938,"[45, 0, 209]",209,a,0.4408045173622668,colour,0.5
23,20,0,2,2,38,88,249.18199398042634,249.81602300377563,"[33, 0, 221]",221,a,0.11186532629653811,colour,0.5
23,20,0,2,2,39,89,251.82275383593515,252.4479922116734,"[88, 0, 166]",166,l,0.10298685124143958,colour,0.5
23,20,0,2,2,40,90,254.46363460225984,255.20805793674663,"[50, 0, 204]",204,a,0.22213163785636425,colour,0.5
23,20,0,2,2,41,91,257.2138392054476,258.1840258333832,"[74, 0, 180]",180,l,0.44783191569149494,colour,0.5
23,20,0,2,2,42,92,260.1984839285724,261.01606065547094,"[21, 0, 233]",233,a,0.29544493183493614,colour,0.5
23,20,0,2,2,43,93,263.026820928324,263.7040340094827,"[30, 0, 224]",224,a,0.15526206139475107,colour,0.5
23,20,0,2,2,44,94,265.7145575811155,266.24810303980485,"[9, 0, 245]",245,a,0.011301417835056782,colour,0.5
23,20,0,2,2,45,95,268.26163559639826,268.80005450872704,"[13, 0, 241]",241,a,0.016410784795880318,colour,0.5
23,20,0,2,2,46,96,270.80868643615395,271.44007078232244,"[49, 0, 205]",205,a,0.10914621222764254,colour,0.5
23,20,0,2,2,47,97,273.4495073379949,274.1360455160029,"[46, 0, 208]",208,a,0.16473997058346868,colour,0.5
23,20,0,2,2,48,98,276.15294033801183,276.82407400850207,"[8, 0, 246]",246,a,0.1489380723796785,colour,0.5
23,20,0,2,2,49,99,278.84064351348206,279.4400227330625,"[35, 0, 219]",219,a,0.0772222182713449,colour,0.5
23,20,0,2,2,50,100,281.4501256765798,282.0960524007678,"[39, 0, 215]",215,a,0.12366929231211543,colour,0.5
23,20,0,2,3,1,101,290.1252178954892,290.77609644830227,"[83, 0, 171]",171,l,0.12785902805626392,colour,0.5
23,20,0,2,3,2,102,292.78249172354117,293.56806805031374,"[47, 0, 207]",207,a,0.263353553134948,colour,0.5
23,20,0,2,3,3,103,295.57957072369754,296.46405877452344,"[65, 0, 189]",189,l,0.3622822128236294,colour,0.5
23,20,0,2,3,4,104,298.4704323881306,299.09605870209634,"[95, 0, 159]",159,l,0.103377940133214,colour,0.5
23,20,0,2,3,5,105,301.11282355478033,301.9520661570132,"[93, 0, 161]",161,l,0.31711789639666677,colour,0.5
23,20,0,2,3,6,106,303.97242328105494,304.6240844060667,"[32, 0, 222]",222,a,0.12963094236329198,colour,0.5
23,20,0,2,3,7,107,306.6444962746464,307.2480605044402,"[16, 0, 238]",238,a,0.08150253910571337,colour,0.5
23,20,0,2,3,8,108,309.2443551989272,309.7680698623881,"[85, 0, 169]",169,l,0.001756160520017147,colour,0.5
23,20,0,2,3,9,109,311.7914343960583,312.4400751143694,"[53, 0, 201]",201,a,0.12645378476008773,colour,0.5
23,20,0,2,3,10,110,314.4478512145579,315.120055753272,"[35, 0, 219]",219,a,0.1499983067624271,colour,0.5
23,20,0,2,3,11,111,317.1355354851112,317.8560885870829,"[22, 0, 232]",232,a,0.19830984808504581,colour,0.5
23,20,0,2,3,12,112,319.8702390883118,320.48007098725066,"[28, 0, 226]",226,a,0.08770089130848646,colour,0.5
23,20,0,2,3,13,113,322.49541169172153,323.0400738543831,"[23, 0, 231]",231,a,0.02249531541019678,colour,0.5
23,20,0,2,3,14,114,325.0580505714752,325.8160879886709,"[51, 0, 203]",203,a,0.23577762208878994,colour,0.5
23,20,0,2,3,15,115,327.82390386704355,328.4080577790737,"[89, 0, 165]",165,l,0.06197721837088466,colour,0.5
23,20,0,2,3,16,116,330.4178424947895,330.952075609006,"[25, 0, 229]",229,a,0.011994586791843176,colour,0.5
23,20,0,2,3,17,117,332.96500676264986,333.5440812394954,"[26, 0, 228]",228,a,0.0569371678866446,colour,0.5
23,20,0,2,3,18,118,335.55893593793735,336.3840414294973,"[55, 0, 199]",199,l,0.3029370685108006,colour,0.5
23,20,0,2,3,19,119,338.39275803463534,339.28804574301466,"[42, 0, 212]",212,a,0.3730495749041438,colour,0.5
23,20,0,2,3,20,120,341.29909903742373,341.96011322317645,"[38, 0, 216]",216,a,0.13856337498873472,colour,0.5
23,20,0,2,3,21,121,343.9714225176722,344.6880379449576,"[54, 0, 200]",200,a,0.19446709053590894,colour,0.5
23,20,0,2,3,22,122,346.70589690236375,347.30404574610293,"[5, 0, 249]",249,a,0.07592252548784018,colour,0.5
23,20,0,2,3,23,123,349.31561812991276,350.1120886374265,"[59, 0, 195]",195,a,0.2744017275981605,colour,0.5
23,20,0,2,3,24,124,352.1282162470743,352.6560631445609,"[9, 0, 245]",245,a,0.005828530061990023,colour,0.5
23,20,0,2,3,25,125,354.6752891424112,355.29606208903715,"[45, 0, 209]",209,a,0.09848243137821555,colour,0.5
23,20,0,2,3,26,126,357.31615179171786,357.9520968766883,"[75, 0, 179]",179,l,0.1137183727696538,colour,0.5
23,20,0,2,3,27,127,359.9570183795877,360.6160223740153,"[98, 0, 156]",156,l,0.1367402607575059,colour,0.5
23,20,0,2,3,28,128,362.6290689241141,363.24004809651524,"[12, 0, 242]",242,a,0.0889927064999938,colour,0.5
23,20,0,2,3,29,129,365.2543017854914,365.92010317230597,"[61, 0, 193]",193,l,0.143546711653471,colour,0.5
23,20,0,2,3,30,130,367.92630428122357,368.53608143515885,"[92, 0, 162]",162,l,0.08746025105938315,colour,0.5
23,20,0,2,3,31,131,370.5515241455287,371.176019333303,"[82, 0, 172]",172,l,0.102522112429142,colour,0.5
23,20,0,2,3,32,132,373.1924742287956,373.77605824545026,"[97, 0, 157]",157,l,0.06141835078597069,colour,0.5
23,20,0,2,3,33,133,375.78645499795675,376.44009559461847,"[56, 0, 198]",198,a,0.13150289375334978,colour,0.5
23,20,0,2,3,34,134,378.45845158584416,378.9921534014866,"[34, 0, 220]",220,a,0.011494008358567953,colour,0.5
23,20,0,2,3,35,135,381.0055638658814,381.68807102786377,"[76, 0, 178]",178,l,0.16030014213174582,colour,0.5
23,20,0,2,3,36,136,383.69332257378846,384.2320813750848,"[43, 0, 211]",211,a,0.016625430900603533,colour,0.5
23,20,0,2,3,37,137,386.24033127212897,386.89606988755986,"[27, 0, 227]",227,a,0.1334922108799219,colour,0.5
23,20,0,2,3,38,138,388.9123873305507,389.4401215882972,"[41, 0, 213]",213,a,0.005526843946427107,colour,0.5
23,20,0,2,3,39,139,391.4594779489562,391.9920722693205,"[29, 0, 225]",225,a,0.010293565224856138,colour,0.5
23,20,0,2,3,40,140,394.00662803836167,394.7040379480459,"[81, 0, 173]",173,l,0.17519225599244237,colour,0.5
23,20,0,2,3,41,141,396.7099188598804,397.39210700662807,"[15, 0, 239]",239,a,0.16003547748550773,colour,0.5
23,20,0,2,3,42,142,399.3976027369499,399.9361094767228,"[7, 0, 247]",247,a,0.016276482958346605,colour,0.5
23,20,0,2,3,43,143,401.9446913860738,402.6480952417478,"[49, 0, 205]",205,a,0.18137761112302542,colour,0.5
23,20,0,2,3,44,144,404.66357773076743,405.7041064770892,"[66, 0, 188]",188,l,0.5181574923917651,colour,0.5
23,20,0,2,3,45,145,407.7107652355917,408.39203650830314,"[2, 0, 252]",252,a,0.1592194284312427,colour,0.5
23,20,0,2,3,46,146,410.3985066139139,410.92808525357395,"[62, 0, 192]",192,l,0.007311361376196146,colour,0.5
23,20,0,2,3,47,147,412.94557084469125,413.5680459951982,"[72, 0, 182]",182,l,0.1003008196130395,colour,0.5
23,20,0,2,3,48,148,415.5864716973156,416.2640502676368,"[19, 0, 235]",235,a,0.15546134766191244,colour,0.5
23,20,0,2,3,49,149,418.27409570943564,419.03209177264944,"[64, 0, 190]",190,l,0.23636169591918588,colour,0.5
23,20,0,2,3,50,150,421.0399769679643,421.56807986600325,"[99, 0, 155]",155,l,0.005896666087210178,colour,0.5
23,20,0,2,4,1,151,429.2116624172777,430.07212112192065,"[96, 0, 158]",158,l,0.33741791266947985,colour,0.5
23,20,0,2,4,2,152,432.0877828113735,433.0161118558608,"[11, 0, 243]",243,a,0.4061574707739055,colour,0.5
23,20,0,2,4,3,153,435.02548145735636,435.6081186677329,"[34, 0, 220]",220,a,0.06039750110358,colour,0.5
23,20,0,2,4,4,154,437.6194070884958,438.22407999495044,"[32, 0, 222]",222,a,0.08232370857149363,colour,0.5
23,20,0,2,4,5,155,440.24461041158065,440.8400696795434,"[50, 0, 204]",204,a,0.07341530080884695,colour,0.5
23,20,0,2,4,6,156,442.8541768575087,443.49601703323424,"[16, 0, 238]",238,a,0.11955241719260812,colour,0.5
23,20,0,2,4,7,157,445.51068426063284,446.2000317443162,"[65, 0, 189]",189,l,0.16726216208189726,colour,0.5
23,20,0,2,4,8,158,448.2140231314115,448.88002577330917,"[6, 0, 248]",248,a,0.1437830189242959,colour,0.5
23,20,0,2,4,9,159,450.8861457500607,451.720111600589,"[52, 0, 202]",202,a,0.3117962460964918,colour,0.5
23,20,0,2,4,10,160,453.72997035924345,454.4560597576201,"[68, 0, 186]",186,l,0.2037157816812396,colour,0.5
23,20,0,2,4,11,161,456.46464442415163,457.0560297467746,"[83, 0, 171]",171,l,0.06905424129217863,colour,0.5
23,20,0,2,4,12,162,459.0742683717981,459.6641157246195,"[95, 0, 159]",159,l,0.06766908382996917,colour,0.5
23,20,0,2,4,13,163,461.6839001965709,462.2481101290323,"[20, 0, 234]",234,a,0.04223055578768253,colour,0.5
23,20,0,2,4,14,164,464.2498477785848,464.88007303513587,"[45, 0, 209]",209,a,0.10791504895314574,colour,0.5
23,20,0,2,4,15,165,466.878491348587,468.05609985115007,"[78, 0, 176]",176,l,0.6557850888930261,colour,0.5
23,20,0,2,4,16,166,470.0661488380283,470.8160978346132,"[14, 0, 240]",240,a,0.2276793555356562,colour,0.5
23,20,0,2,4,17,167,472.83208917314187,473.40011665737256,"[27, 0, 227]",227,a,0.045841338112950325,colour,0.5
23,20,0,2,4,18,168,475.40041795000434,475.9521181443706,"[4, 0, 250]",250,a,0.029585728887468576,colour,0.5
23,20,0,2,4,19,169,477.96315489755943,478.5680755334906,"[30, 0, 224]",224,a,0.08275181939825416,colour,0.5
23,20,0,2,4,20,170,480.58834207290784,481.3441042401828,"[41, 0, 213]",213,a,0.23360713524743915,colour,0.5
23,20,0,2,4,21,171,483.3541138423607,484.01604923419654,"[82, 0, 172]",172,l,0.13970789220184088,colour,0.5
23,20,0,2,4,22,172,486.0138377873227,486.5921005476266,"[81, 0, 173]",173,l,0.055945069529116154,colour,0.5
23,20,0,2,4,23,173,488.5955179515295,489.36012393562123,"[57, 0, 197]",197,a,0.24242062587291002,colour,0.5
23,20,0,2,4,24,174,491.3791175642982,492.0242369035259,"[5, 0, 249]",249,a,0.12180403620004654,colour,0.5
23,20,0,2,4,25,175,494.0249596112408,494.5761245689355,"[23, 0, 231]",231,a,0.02948963036760688,colour,0.5
23,20,0,2,4,26,176,496.57783464947715,497.1041506668553,"[91, 0, 163]",163,l,0.0047742039896547794,colour,0.5
23,20,0,2,4,27,177,499.12601031409577,499.76813642214984,"[37, 0, 217]",217,a,0.1194259924814105,colour,0.5
23,20,0,2,4,28,178,501.7782996241003,502.3041154569946,"[88, 0, 166]",166,l,0.0037214532494544983,colour,0.5
23,20,0,2,4,29,179,504.3255103658885,504.9520866367966,"[42, 0, 212]",212,a,0.10440627299249172,colour,0.5
23,20,0,2,4,30,180,506.9662824305706,507.82408621767536,"[35, 0, 219]",219,a,0.33558534597977996,colour,0.5
23,20,0,2,4,31,181,509.841529273428,510.5201208163053,"[61, 0, 193]",193,l,0.15628566732630134,colour,0.5
23,20,0,2,4,32,182,512.5296365353279,513.3760888865218,"[97, 0, 157]",157,l,0.3241413561627269,colour,0.5
23,20,0,2,4,33,183,515.3767143143341,516.3120888741687,"[7, 0, 247]",247,a,0.41319983545690775,colour,0.5
23,20,0,2,4,34,184,518.3300896161236,519.192247767467,"[53, 0, 201]",201,a,0.3399267131462693,colour,0.5
23,20,0,2,4,35,185,521.2054053819738,521.7441299189813,"[70, 0, 184]",184,a,0.016618735622614622,colour,0.5
23,20,0,2,4,36,186,523.7524113235995,524.4241436407901,"[69, 0, 185]",185,l,0.14948354940861464,colour,0.5
23,20,0,2,4,37,187,526.4423137363046,526.9681327198632,"[33, 0, 221]",221,a,0.0035513113252818584,colour,0.5
23,20,0,2,4,38,188,528.9894000226632,529.6241509662941,"[74, 0, 180]",180,l,0.11256558541208506,colour,0.5
23,20,0,2,4,39,189,531.6301606656052,532.4481320269406,"[51, 0, 203]",203,a,0.29570014448836446,colour,0.5
23,20,0,2,4,40,190,534.4585177521221,535.2481310027651,"[48, 0, 206]",206,a,0.26741725858300924,colour,0.5
23,20,0,2,4,41,191,537.2555955704302,537.9441061308607,"[79, 0, 175]",175,l,0.16628739284351468,colour,0.5
23,20,0,2,4,42,192,539.9589750072919,544.5121135287918,"[1, 0, 253]",253,a,4.030913778580725,colour,0.5
23,20,0,2,4,43,193,546.5220664166845,547.1121339299716,"[15, 0, 239]",239,a,0.06790460413321853,colour,0.5
23,20,0,2,4,44,194,549.131589146331,549.9601140106097,"[94, 0, 160]",160,l,0.3062398633919656,colour,0.5
23,20,0,2,4,45,195,551.9755130046979,552.5521353948861,"[40, 0, 214]",214,a,0.05440631229430437,colour,0.5
23,20,0,2,4,46,196,554.5695351278409,555.0961583452299,"[93, 0, 161]",161,l,0.004938831552863121,colour,0.5
23,20,0,2,4,47,197,557.1164461523294,557.9041476733983,"[63, 0, 191]",191,a,0.2653227844275534,colour,0.5
23,20,0,2,4,48,198,559.9137248322368,560.5361129427329,"[10, 0, 244]",244,a,0.10015430906787515,colour,0.5
23,20,0,2,4,49,199,562.5544890202582,563.1680801808834,"[76, 0, 178]",178,l,0.09137035626918077,colour,0.5
23,20,0,2,4,50,200,565.1797750508413,565.7921204762533,"[39, 0, 215]",215,a,0.09044363629072905,colour,0.5
23,20,0,2,5,1,201,573.7421559616923,574.5601300797425,"[88, 0, 166]",166,l,0.2951263105496764,colour,0.5
23,20,0,2,5,2,202,576.5713310665451,577.0961347143166,"[66, 0, 188]",188,l,0.003096418920904398,colour,0.5
23,20,0,2,5,3,203,579.1026985556819,579.9121459028684,"[62, 0, 192]",192,l,0.28798390878364444,colour,0.5
23,20,0,2,5,4,204,581.9311155066825,582.5121395224705,"[36, 0, 218]",218,a,0.05917933443561196,colour,0.5
23,20,0,2,5,5,205,584.5250234142877,585.1201561838388,"[71, 0, 183]",183,l,0.0729320514947176,colour,0.5
23,20,0,2,5,6,206,587.1345993126743,588.0401065433398,"[26, 0, 228]",228,a,0.38331123860552907,colour,0.5
23,20,0,2,5,7,207,590.056713857688,590.6561155263335,"[91, 0, 163]",163,l,0.07717850152403116,colour,0.5
23,20,0,2,5,8,208,592.6662499774247,593.2481054030359,"[98, 0, 156]",156,l,0.05950543936342001,colour,0.5
23,20,0,2,5,9,209,595.2602425622754,595.8001415487379,"[27, 0, 227]",227,a,0.017717566806823015,colour,0.5
23,20,0,2,5,10,210,597.8072433839552,598.3920892835595,"[10, 0, 244]",244,a,0.06253096600994468,colour,0.5
23,20,0,2,5,11,211,600.4012974086218,600.9361240491271,"[78, 0, 176]",176,l,0.012600322254002094,colour,0.5
23,20,0,2,5,12,212,602.9483541562222,603.5841543059796,"[74, 0, 180]",180,l,0.1135238129645586,colour,0.5
23,20,0,2,5,13,213,605.6048745564185,606.1361333439127,"[84, 0, 170]",170,l,0.009079731069505215,colour,0.5
23,20,0,2,5,14,214,608.1523503563367,608.6881442833692,"[16, 0, 238]",238,a,0.01359911635518074,colour,0.5
23,20,0,2,5,15,215,610.6994870547205,611.400105629582,"[42, 0, 212]",212,a,0.17841549357399344,colour,0.5
23,20,0,2,5,16,216,613.4184372024611,613.9601648170501,"[73, 0, 181]",181,l,0.019547770265489817,colour,0.5
23,20,0,2,5,17,217,615.965556178242,616.7920988146216,"[81, 0, 173]",173,l,0.3046227307058871,colour,0.5
23,20,0,2,5,18,218,618.8095127255656,619.4161359588616,"[4, 0, 250]",250,a,0.08451428124681115,colour,0.5
23,20,0,2,5,19,219,621.4346743011847,621.9761557616293,"[14, 0, 240]",240,a,0.019300828222185373,colour,0.5
23,20,0,2,5,20,220,623.9817613749765,624.6641011526808,"[2, 0, 252]",252,a,0.1601327578537166,colour,0.5
23,20,0,2,5,21,221,626.6694617937319,627.2961180154234,"[44, 0, 210]",210,a,0.10446338076144457,colour,0.5
23,20,0,2,5,22,222,629.3103216858581,629.9041386153549,"[75, 0, 179]",179,l,0.07169064832851291,colour,0.5
23,20,0,2,5,23,223,631.973565435037,632.6241580555215,"[20, 0, 234]",234,a,0.13510382967069745,colour,0.5
23,20,0,2,5,24,224,634.6388504891656,635.3841556450352,"[25, 0, 229]",229,a,0.22301385318860412,colour,0.5
23,20,0,2,5,25,225,637.4047482889146,637.9281730814837,"[90, 0, 164]",164,l,0.0012646401301026344,colour,0.5
23,20,0,2,5,26,226,639.9361433475278,640.672136797104,"[46, 0, 208]",208,a,0.21380454674363136,colour,0.5
23,20,0,2,5,27,227,642.6861939569935,643.7281523649581,"[85, 0, 169]",169,l,0.5195863666012883,colour,0.5
23,20,0,2,5,28,228,645.7334598368034,646.3921085819602,"[9, 0, 245]",245,a,0.13633341761305928,colour,0.5
23,20,0,2,5,29,229,648.4055497660302,648.9361531939358,"[22, 0, 232]",232,a,0.008390500210225582,colour,0.5
23,20,0,2,5,30,230,650.9526407783851,651.6241060676984,"[80, 0, 174]",174,l,0.14923542644828558,colour,0.5
23,20,0,2,5,31,231,653.6403506491333,654.2241630968638,"[99, 0, 155]",155,l,0.06159361219033599,colour,0.5
23,20,0,2,5,32,232,656.2342510740273,656.9041118337773,"[52, 0, 202]",202,a,0.14634617045521736,colour,0.5
23,20,0,2,5,33,233,658.9232795420103,659.5121686672792,"[45, 0, 209]",209,a,0.06666320096701384,colour,0.5
23,20,0,2,5,34,234,661.517157911323,662.0801894557662,"[33, 0, 221]",221,a,0.040622875560075045,colour,0.5
23,20,0,2,5,35,235,664.0834422321059,665.0081329247914,"[13, 0, 241]",241,a,0.40244153141975403,colour,0.5
23,20,0,2,5,36,236,667.021253912244,667.5521771428175,"[3, 0, 251]",251,a,0.008768198546022177,colour,0.5
23,20,0,2,5,37,237,669.5682949060574,670.6001661247574,"[59, 0, 195]",195,l,0.5100895529612899,colour,0.5
23,20,0,2,5,38,238,672.615550939925,673.1841727378778,"[93, 0, 161]",161,l,0.04647897509858012,colour,0.5
23,20,0,2,5,39,239,675.1938022784889,675.9521457138471,"[69, 0, 185]",185,l,0.23623093869537115,colour,0.5
23,20,0,2,5,40,240,677.959631155245,678.6721655479632,"[65, 0, 189]",189,l,0.19029625924304128,colour,0.5
23,20,0,2,5,41,241,680.6785813029855,681.2561694043688,"[70, 0, 184]",184,l,0.05565401678904891,colour,0.5
23,20,0,2,5,42,242,683.2725380477495,683.8721571196802,"[55, 0, 199]",199,a,0.07755147386342287,colour,0.5
23,20,0,2,5,43,243,685.8821403337643,686.8801392014138,"[54, 0, 200]",200,l,0.4756992938928306,colour,0.5
23,20,0,2,5,44,244,688.898120644968,689.4321851930581,"[15, 0, 239]",239,a,0.011952839326113462,colour,0.5
23,20,0,2,5,45,245,691.4451529742219,692.0721364822239,"[17, 0, 237]",237,a,0.10503879003226757,colour,0.5
23,20,0,2,5,46,246,694.0859246449545,694.6561761787161,"[0, 0, 254]",254,a,0.04800749244168401,colour,0.5
23,20,0,2,5,47,247,696.6642417553812,697.2241816073656,"[34, 0, 220]",220,a,0.03764185355976224,colour,0.5
23,20,0,2,5,48,248,699.2410169583745,699.8161439145915,"[83, 0, 171]",171,l,0.052813597954809666,colour,0.5
23,20,0,2,5,49,249,701.8350359308533,702.4001493467949,"[35, 0, 219]",219,a,0.04295129468664527,colour,0.5
23,20,0,2,5,50,250,704.4133368940093,705.0241471063346,"[47, 0, 207]",207,a,0.08870913740247488,colour,0.5
23,20,0,2,6,1,251,718.382328198757,718.960124250967,"[13, 0, 241]",241,a,0.0546942139044404,colour,0.5
23,20,0,2,6,2,252,720.9771691281348,721.6721041081473,"[11, 0, 243]",243,a,0.1728279972448945,colour,0.5
23,20,0,2,6,3,253,723.6805265094154,724.2801664555445,"[6, 0, 248]",248,a,0.07750539388507605,colour,0.5
23,20,0,2,6,4,254,726.2900665681809,727.2241248935461,"[39, 0, 215]",215,a,0.41470708465203643,colour,0.5
23,20,0,2,6,5,255,729.2405864843167,729.8641632227227,"[50, 0, 204]",204,l,0.10144258011132479,colour,0.5
23,20,0,2,6,6,256,731.8813861184753,732.4165825806558,"[16, 0, 238]",238,a,0.012940605636686087,colour,0.5
23,20,0,2,6,7,257,734.4284838261083,734.9521457138471,"[20, 0, 234]",234,a,0.001689994242042303,colour,0.5
23,20,0,2,6,8,258,736.9755216692574,737.504155471921,"[88, 0, 166]",166,l,0.006459078285843134,colour,0.5
23,20,0,2,6,9,259,739.5102529991418,740.1521636731923,"[70, 0, 184]",184,l,0.1197808482684195,colour,0.5
23,20,0,2,6,10,260,742.1666245250963,742.7441464606673,"[8, 0, 246]",246,a,0.05520227551460266,colour,0.5
23,20,0,2,6,11,261,744.7606840636581,745.3201339710504,"[63, 0, 191]",191,l,0.03746541077271104,colour,0.5
23,20,0,2,6,12,262,747.3389897532761,747.9841532032005,"[30, 0, 224]",224,a,0.12290050415322185,colour,0.5
23,20,0,2,6,13,263,749.9954388667829,750.8081043316051,"[4, 0, 250]",250,a,0.2907211403362453,colour,0.5
23,20,0,2,6,14,264,752.823844789993,753.3521938417107,"[91, 0, 163]",163,l,0.006148727145045996,colour,0.5
23,20,0,2,6,15,265,755.3622278622352,755.8961415672675,"[12, 0, 242]",242,a,0.011937872972339392,colour,0.5
23,20,0,2,6,16,266,757.9092857916839,758.6081556892022,"[42, 0, 212]",212,a,0.17667311802506447,colour,0.5
23,20,0,2,6,17,267,760.6282851700671,761.1521483133547,"[97, 0, 157]",157,l,0.00188888655975461,colour,0.5
23,20,0,2,6,18,268,763.1753584593534,764.0001354832202,"[73, 0, 181]",181,a,0.30261332727968693,colour,0.5
23,20,0,2,6,19,269,766.0208604596555,766.6721198619343,"[19, 0, 235]",235,a,0.12920952728018165,colour,0.5
23,20,0,2,6,20,270,768.6772497091442,769.2561540445313,"[36, 0, 218]",218,a,0.05681704496964812,colour,0.5
23,20,0,2,6,21,271,771.271200152114,771.8401590827852,"[82, 0, 172]",172,l,0.04680941253900528,colour,0.5
23,20,0,2,6,22,272,773.849532622844,775.0401620757766,"[64, 0, 190]",190,a,0.6684421254321933,colour,0.5
23,20,0,2,6,23,273,777.0528974873014,777.8481781855226,"[62, 0, 192]",192,l,0.2730307490564883,colour,0.5
23,20,0,2,6,24,274,779.8655629521236,780.4241810562089,"[96, 0, 158]",158,l,0.03632837673649192,colour,0.5
23,20,0,2,6,25,275,782.443916297052,783.440168062225,"[34, 0, 220]",220,a,0.4741562041454017,colour,0.5
23,20,0,2,6,26,276,785.45255058771,786.0881817773916,"[38, 0, 216]",216,a,0.12089307000860572,colour,0.5
23,20,0,2,6,27,277,788.1052321684547,788.6481956723146,"[24, 0, 230]",230,a,0.020710797980427742,colour,0.5
23,20,0,2,6,28,278,790.6679742364213,791.2962239598855,"[1, 0, 253]",253,a,0.10601631598547101,colour,0.5
23,20,0,2,6,29,279,793.3088211319409,793.8801730717532,"[45, 0, 209]",209,a,0.049110655672848225,colour,0.5
23,20,0,2,6,30,280,795.887148482725,796.9841858926229,"[93, 0, 161]",161,l,0.5748536270111799,colour,0.5
23,20,0,2,6,31,281,798.9967369842343,799.7121783560142,"[27, 0, 227]",227,a,0.19318512128666043,colour,0.5
23,20,0,2,6,32,282,801.7313177073374,802.304154841695,"[80, 0, 174]",174,l,0.05055213300511241,colour,0.5
23,20,0,2,6,33,283,804.3096954706125,804.90416933503,"[53, 0, 201]",201,a,0.07227669097483158,colour,0.5
23,20,0,2,6,34,284,806.919326113537,807.9441766291857,"[52, 0, 202]",202,a,0.5027443203143775,colour,0.5
23,20,0,2,6,35,285,809.9507455904968,810.7361931297928,"[72, 0, 182]",182,l,0.2631637193262577,colour,0.5
23,20,0,2,6,36,286,812.7478163195774,813.4881779178977,"[92, 0, 162]",162,l,0.2180466647259891,colour,0.5
23,20,0,2,6,37,287,815.4886879487894,816.184203851968,"[3, 0, 251]",251,a,0.17323680967092514,colour,0.5
23,20,0,2,6,38,288,818.1920599024743,818.8641848843545,"[85, 0, 169]",169,l,0.1498423432931304,colour,0.5
23,20,0,2,6,39,289,820.8798119151033,821.688184062019,"[65, 0, 189]",189,a,0.28615567507222295,colour,0.5
23,20,0,2,6,40,290,823.7085482752882,824.2721847677603,"[49, 0, 205]",205,a,0.04119631601497531,colour,0.5
23,20,0,2,6,41,291,826.2870678226463,827.2561662537046,"[77, 0, 177]",177,l,0.44685399578884244,colour,0.5
23,20,0,2,6,42,292,829.2716534691863,830.1521766702645,"[59, 0, 195]",195,a,0.3583606858737767,colour,0.5
23,20,0,2,6,43,293,832.1625025304966,832.6881911512464,"[43, 0, 211]",211,a,0.0036584376357495785,colour,0.5
23,20,0,2,6,44,294,834.7095833029598,835.2962168706581,"[76, 0, 178]",178,l,0.06436353269964457,colour,0.5
23,20,0,2,6,45,295,837.3035365031101,837.8322026007809,"[60, 0, 194]",194,a,0.0064236316829919815,colour,0.5
23,20,0,2,6,46,296,839.8505979767069,840.408176720608,"[2, 0, 252]",252,a,0.03526577912271023,colour,0.5
23,20,0,2,6,47,297,842.4133045985363,842.9841539910994,"[79, 0, 175]",175,l,0.04857226833701134,colour,0.5
23,20,0,2,6,48,298,844.9917115061544,845.6721253758296,"[5, 0, 249]",249,a,0.1709662862122059,colour,0.5
23,20,0,2,6,49,299,847.6825591498055,848.2164854584262,"[75, 0, 179]",179,l,0.01165824243798852,colour,0.5
23,20,0,2,6,50,300,850.2296497686766,850.7601645807736,"[25, 0, 229]",229,a,0.008375140372663736,colour,0.5
23,20,0,2,7,1,301,858.514063461218,859.0721809868701,"[13, 0, 241]",241,a,0.035192130133509636,colour,0.5
23,20,0,2,7,2,302,861.0775077571161,861.8001525760628,"[6, 0, 248]",248,a,0.20047757774591446,colour,0.5
23,20,0,2,7,3,303,863.8120770584792,864.4561243485659,"[43, 0, 211]",211,a,0.12194779049605131,colour,0.5
23,20,0,2,7,4,304,866.4686073046178,867.3441932494752,"[99, 0, 155]",155,l,0.35337341111153364,colour,0.5
23,20,0,2,7,5,305,869.3594343108125,869.8962010382675,"[28, 0, 226]",226,a,0.014537652023136616,colour,0.5
23,20,0,2,7,6,306,871.9065560433082,872.4402291085571,"[34, 0, 220]",220,a,0.01152866706252098,colour,0.5
23,20,0,2,7,7,307,874.4536127909087,875.0081841247156,"[94, 0, 160]",160,l,0.03257068945094943,colour,0.5
23,20,0,2,7,8,308,877.0071081370115,877.616098780185,"[81, 0, 173]",173,l,0.08686554338783026,colour,0.5
23,20,0,2,7,9,309,879.6322433245368,880.2322180396877,"[89, 0, 165]",165,l,0.07771295076236129,colour,0.5
23,20,0,2,7,10,310,882.2418026817031,882.9361795815639,"[70, 0, 184]",184,l,0.1721226186491549,colour,0.5
23,20,0,2,7,11,311,884.9346565781161,885.7761511928402,"[90, 0, 164]",164,l,0.3192903520539403,colour,0.5
23,20,0,2,7,12,312,887.7942574857734,888.3682017219253,"[36, 0, 218]",218,a,0.06412249896675348,colour,0.5
23,20,0,2,7,13,313,890.3758478527889,891.2481581782922,"[49, 0, 205]",205,a,0.3501812876202166,colour,0.5
23,20,0,2,7,14,314,893.2666409881786,893.8082055500709,"[30, 0, 224]",224,a,0.01931500667706132,colour,0.5
23,20,0,2,7,15,315,895.813795409631,896.4001847929321,"[8, 0, 246]",246,a,0.0642670402303338,colour,0.5
23,20,0,2,7,16,316,898.4076875634491,899.5921659260057,"[73, 0, 181]",181,a,0.6622343212366104,colour,0.5
23,20,0,2,7,17,317,901.6111170188524,902.2161262705922,"[88, 0, 166]",166,l,0.08292786870151758,colour,0.5
23,20,0,2,7,18,318,904.236312859226,905.1041620885953,"[32, 0, 222]",222,a,0.34570325585082173,colour,0.5
23,20,0,2,7,19,319,907.1115022008307,907.7122098635882,"[86, 0, 168]",168,l,0.07872434798628092,colour,0.5
23,20,0,2,7,20,320,909.7210832191631,910.6481629833579,"[77, 0, 177]",177,l,0.40488613536581397,colour,0.5
23,20,0,2,7,21,321,912.6588192805648,913.5042110038921,"[65, 0, 189]",189,a,0.3231283836066723,colour,0.5
23,20,0,2,7,22,322,915.5184111301787,916.1841242951341,"[15, 0, 239]",239,a,0.14357349323108792,colour,0.5
23,20,0,2,7,23,323,918.1904935762286,918.8641644041054,"[26, 0, 228]",228,a,0.1514429342932999,colour,0.5
23,20,0,2,7,24,324,920.8792609241791,921.4641954391263,"[98, 0, 156]",156,l,0.06317923683673143,colour,0.5
23,20,0,2,7,25,325,923.4732672935352,924.2001865259372,"[55, 0, 199]",199,a,0.20477837882936,colour,0.5
23,20,0,2,7,26,326,926.207851561252,926.8882158058695,"[54, 0, 200]",200,a,0.15815604338422418,colour,0.5
23,20,0,2,7,27,327,928.8954999917187,929.5521767488681,"[46, 0, 208]",208,a,0.13462885096669197,colour,0.5
23,20,0,2,7,28,328,931.5676300935447,932.7762031806633,"[10, 0, 244]",244,a,0.6867410088889301,colour,0.5
23,20,0,2,7,29,329,934.7742977528833,935.4562019361183,"[39, 0, 215]",215,a,0.15978380991145968,colour,0.5
23,20,0,2,7,30,330,937.4627346633933,938.1121898558922,"[52, 0, 202]",202,a,0.1282197912223637,colour,0.5
23,20,0,2,7,31,331,940.1184082943946,940.6641799216159,"[83, 0, 171]",171,l,0.023594933561980724,colour,0.5
23,20,0,2,7,32,332,942.6811653282493,943.8883485319093,"[1, 0, 253]",253,a,0.6849568854086101,colour,0.5
23,20,0,2,7,33,333,945.8883063904941,946.4482328514569,"[72, 0, 182]",182,l,0.03833620436489582,colour,0.5
23,20,0,2,7,34,334,948.4660449409857,949.4002285096794,"[69, 0, 185]",185,l,0.4119647331535816,colour,0.5
23,20,0,2,7,35,335,951.4193918858655,952.0721624759026,"[29, 0, 225]",225,a,0.13059783494099975,colour,0.5
23,20,0,2,7,36,336,954.0914105288684,954.7362246373668,"[51, 0, 203]",203,a,0.12252753181383014,colour,0.5
23,20,0,2,7,37,337,956.7478809105232,957.3602042803541,"[0, 0, 254]",254,a,0.09005687944591045,colour,0.5
23,20,0,2,7,38,338,959.373098412063,960.0561675927602,"[23, 0, 231]",231,a,0.16086294874548912,colour,0.5
23,20,0,2,7,39,339,962.0764108952135,962.656197052449,"[67, 0, 187]",187,l,0.05752793746069074,colour,0.5
23,20,0,2,7,40,340,964.6704464089125,965.4322155192494,"[17, 0, 237]",237,a,0.23966173361986876,colour,0.5
23,20,0,2,7,41,341,967.451864507515,968.1441788347438,"[62, 0, 192]",192,a,0.17016402119770646,colour,0.5
23,20,0,2,7,42,342,970.1554168430157,970.7761779744178,"[79, 0, 175]",175,l,0.09852339141070843,colour,0.5
23,20,0,2,7,43,343,972.7962720091455,973.3442476000637,"[71, 0, 183]",183,l,0.025792595464736223,colour,0.5
23,20,0,2,7,44,344,975.3590900893323,975.9442341309041,"[4, 0, 250]",250,a,0.06357623403891921,colour,0.5
23,20,0,2,7,45,345,977.9535994003527,978.5761690735817,"[2, 0, 252]",252,a,0.10103140445426106,colour,0.5
23,20,0,2,7,46,346,980.5937641542405,981.3282121508382,"[68, 0, 186]",186,l,0.21220277389511466,colour,0.5
23,20,0,2,7,47,347,983.3440183815546,983.9442097120918,"[19, 0, 235]",235,a,0.07810837216675282,colour,0.5
23,20,0,2,7,48,348,985.9535631663166,986.6002027522773,"[18, 0, 236]",236,a,0.12443296005949378,colour,0.5
23,20,0,2,7,49,349,988.610053634271,989.1522160549648,"[87, 0, 167]",167,l,0.019999512005597353,colour,0.5
23,20,0,2,7,50,350,991.1727531664073,991.9761821492575,"[14, 0, 240]",240,a,0.28125543985515833,colour,0.5
23,20,0,2,8,1,351,1000.90707749594,1001.5282155382447,"[50, 0, 204]",204,a,0.09806968085467815,colour,0.5
23,20,0,2,8,2,352,1003.5486754560843,1004.3603023481555,"[67, 0, 187]",187,l,0.28930526319891214,colour,0.5
23,20,0,2,8,3,353,1006.3773346222006,1006.9841677756049,"[39, 0, 215]",215,a,0.08465291513130069,colour,0.5
23,20,0,2,8,4,354,1009.0025863884948,1009.7442134143785,"[85, 0, 169]",169,l,0.2194113414734602,colour,0.5
23,20,0,2,8,5,355,1011.7527902037837,1012.2882013125345,"[81, 0, 173]",173,l,0.013268285896629095,colour,0.5
23,20,0,2,8,6,356,1014.2998579791747,1015.0402388758957,"[64, 0, 190]",190,a,0.21812267694622278,colour,0.5
23,20,0,2,8,7,357,1017.0501602562144,1017.6401864155196,"[28, 0, 226]",226,a,0.06796210585162044,colour,0.5
23,20,0,2,8,8,358,1019.6596755022183,1020.3201414542273,"[27, 0, 227]",227,a,0.13826838415116072,colour,0.5
23,20,0,2,8,9,359,1022.3317114748061,1022.9361768243834,"[8, 0, 246]",246,a,0.08210039744153619,colour,0.5
23,20,0,2,8,10,360,1024.9413637793623,1025.5921576553956,"[12, 0, 242]",242,a,0.12856086250394583,colour,0.5
23,20,0,2,8,11,361,1027.5977790225297,1028.2321814121678,"[22, 0, 232]",232,a,0.11212211428210139,colour,0.5
23,20,0,2,8,12,362,1030.23863694584,1030.9202012396418,"[63, 0, 191]",191,l,0.15938878199085593,colour,0.5
23,20,0,2,8,13,363,1032.9263802934438,1033.5762348459102,"[96, 0, 158]",158,l,0.12771724350750446,colour,0.5
23,20,0,2,8,14,364,1035.5829018750228,1036.192139459774,"[13, 0, 241]",241,a,0.08712075604125857,colour,0.5
23,20,0,2,8,15,365,1038.2080004350282,1038.9042087197304,"[21, 0, 233]",233,a,0.17466725874692202,colour,0.5
23,20,0,2,8,16,366,1040.911372388713,1041.4801985933445,"[35, 0, 219]",219,a,0.046743246261030436,colour,0.5
23,20,0,2,8,17,367,1043.4897363674827,1044.0802197819576,"[18, 0, 236]",236,a,0.068296086974442,colour,0.5
23,20,0,2,8,18,368,1046.099310690537,1046.944231767673,"[68, 0, 186]",186,l,0.3227077559567988,colour,0.5
23,20,0,2,8,19,369,1048.958886391949,1049.5522342505865,"[70, 0, 184]",184,l,0.07223848812282085,colour,0.5
23,20,0,2,8,20,370,1051.56844850583,1052.9442416136153,"[97, 0, 157]",157,l,0.8541559833101928,colour,0.5
23,20,0,2,8,21,371,1054.9552283482626,1055.5522169214673,"[93, 0, 161]",161,l,0.07470357185229659,colour,0.5
23,20,0,2,8,22,372,1057.5648452066816,1058.368230866734,"[61, 0, 193]",193,a,0.28154334193095565,colour,0.5
23,20,0,2,8,23,373,1060.3775567514822,1061.6081990124658,"[73, 0, 181]",181,a,0.7084899856708944,colour,0.5
23,20,0,2,8,24,374,1063.6278097978793,1064.1922284686007,"[10, 0, 244]",244,a,0.04229042027145624,colour,0.5
23,20,0,2,8,25,375,1066.1947939833626,1066.7442441345192,"[16, 0, 238]",238,a,0.027392792981117964,colour,0.5
23,20,0,2,8,26,376,1068.7574820937589,1069.312213723082,"[3, 0, 251]",251,a,0.032603378407657146,colour,0.5
23,20,0,2,8,27,377,1071.3212725804187,1073.0242290263996,"[65, 0, 189]",189,a,1.1808195309713483,colour,0.5
23,20,0,2,8,28,378,1075.0402778666466,1075.6481551062316,"[20, 0, 234]",234,a,0.08574268780648708,colour,0.5
23,20,0,2,8,29,379,1077.6654945802875,1078.264224741608,"[1, 0, 253]",253,a,0.07650266122072935,colour,0.5
23,20,0,2,8,30,380,1080.2750448789448,1081.040244389791,"[17, 0, 237]",237,a,0.2429452296346426,colour,0.5
23,20,0,2,8,31,381,1083.0566020053811,1084.104227073025,"[51, 0, 203]",203,a,0.5254609771072865,colour,0.5
23,20,0,2,8,32,382,1086.1192924790084,1086.7042073020712,"[95, 0, 159]",159,l,0.06270977249369025,colour,0.5
23,20,0,2,8,33,383,1088.7132657654583,1089.3362497650087,"[4, 0, 250]",250,a,0.10090931225568056,colour,0.5
23,20,0,2,8,34,384,1091.3552855346352,1091.9922491065226,"[79, 0, 175]",175,l,0.11461909953504801,colour,0.5
23,20,0,2,8,35,385,1094.0118342917413,1094.6162626198493,"[90, 0, 164]",164,l,0.08236624393612146,colour,0.5
23,20,0,2,8,36,386,1096.621415704023,1097.152232596185,"[53, 0, 201]",201,a,0.008658709470182657,colour,0.5
23,20,0,2,8,37,387,1099.1684854486957,1099.7762071192265,"[92, 0, 162]",162,l,0.08551858924329281,colour,0.5
23,20,0,2,8,38,388,1101.793643873185,1102.7362549635582,"[36, 0, 218]",218,a,0.42036704905331135,colour,0.5
23,20,0,2,8,39,389,1104.7470246888697,1105.6242116186768,"[15, 0, 239]",239,a,0.3549204394221306,colour,0.5
23,20,0,2,8,40,390,1107.6378749320284,1108.1922631273046,"[91, 0, 163]",163,l,0.0322205601260066,colour,0.5
23,20,0,2,8,41,391,1110.2005563471466,1110.864220724441,"[26, 0, 228]",228,a,0.1413581082597375,colour,0.5
23,20,0,2,8,42,392,1112.8726703012362,1113.5362456687726,"[32, 0, 222]",222,a,0.1413490492850542,colour,0.5
23,20,0,2,8,43,393,1115.5447708643042,1116.1042483407073,"[43, 0, 211]",211,a,0.03739806264638901,colour,0.5
23,20,0,2,8,44,394,1118.123094276525,1119.232234975323,"[99, 0, 155]",155,l,0.5868608173914254,colour,0.5
23,20,0,2,8,45,395,1121.2484815260395,1121.856202014722,"[23, 0, 231]",231,a,0.08560523530468345,colour,0.5
23,20,0,2,8,46,396,1123.86854358064,1124.808252417948,"[6, 0, 248]",248,a,0.4175073313526809,colour,0.5
23,20,0,2,8,47,397,1126.8219259711914,1127.816276641097,"[72, 0, 182]",182,l,0.47207905910909176,colour,0.5
23,20,0,2,8,48,398,1129.8222083589062,1130.5122561012395,"[46, 0, 208]",208,a,0.16788640851154923,colour,0.5
23,20,0,2,8,49,399,1132.5255708605982,1133.2161888917908,"[83, 0, 171]",171,l,0.16846654377877712,colour,0.5
23,20,0,2,8,50,400,1135.2288041803986,1135.7602524082176,"[57, 0, 197]",197,a,0.0093999276868999,colour,0.5
23,20,0,2,9,1,401,1145.9007842266,1146.464231279213,"[22, 0, 232]",232,a,0.04038105392828584,colour,0.5
23,20,0,2,9,2,402,1148.47993274685,1149.3041891064495,"[17, 0, 237]",237,a,0.302038311958313,colour,0.5
23,20,0,2,9,3,403,1151.3238640883937,1152.3122704369016,"[48, 0, 206]",206,a,0.466074479278177,colour,0.5
23,20,0,2,9,4,404,1154.3241291469894,1154.9042477104813,"[63, 0, 191]",191,l,0.057884762063622475,colour,0.5
23,20,0,2,9,5,405,1156.9181114919484,1157.4562295055948,"[30, 0, 224]",224,a,0.016676631290465593,colour,0.5
23,20,0,2,9,6,406,1159.4651583931409,1159.992253832519,"[8, 0, 246]",246,a,0.0048419455997645855,colour,0.5
23,20,0,2,9,7,407,1162.0123325074092,1162.5522645767778,"[68, 0, 186]",186,l,0.01803776388987899,colour,0.5
23,20,0,2,9,8,408,1164.5601722211577,1165.2002290613018,"[97, 0, 157]",157,l,0.1177856232970953,colour,0.5
23,20,0,2,9,9,409,1167.2166063687764,1167.7762756482698,"[15, 0, 239]",239,a,0.037365373224020004,colour,0.5
23,20,0,2,9,10,410,1169.7949983105063,1170.9282297953032,"[51, 0, 203]",203,a,0.6108838617801666,colour,0.5
23,20,0,2,9,11,411,1172.9362236922607,1173.8882614918984,"[69, 0, 185]",185,a,0.43056727247312665,colour,0.5
23,20,0,2,9,12,412,1175.9052248429507,1176.4482415160164,"[78, 0, 176]",176,l,0.020849825348705053,colour,0.5
23,20,0,2,9,13,413,1178.4678105539642,1179.2162806582637,"[9, 0, 245]",245,a,0.2261567460373044,colour,0.5
23,20,0,2,9,14,414,1181.2336161937565,1182.048224895727,"[36, 0, 218]",218,a,0.2923185806721449,colour,0.5
23,20,0,2,9,15,415,1184.0620260555297,1185.6242254031822,"[72, 0, 182]",182,a,1.0401924019679427,colour,0.5
23,20,0,2,9,16,416,1187.6404786491767,1188.5522783612832,"[71, 0, 183]",183,l,0.3895690613426268,colour,0.5
23,20,0,2,9,17,417,1190.5625557787716,1191.2882225802168,"[37, 0, 217]",217,a,0.2013597935438156,colour,0.5
23,20,0,2,9,18,418,1193.2997169820592,1193.872262276709,"[4, 0, 250]",250,a,0.05038868682458997,colour,0.5
23,20,0,2,9,19,419,1195.8779561114497,1196.4163108267821,"[96, 0, 158]",158,l,0.016203227918595076,colour,0.5
23,20,0,2,9,20,420,1198.425034520682,1199.0082644694485,"[38, 0, 216]",216,a,0.061045771930366755,colour,0.5
23,20,0,2,9,21,421,1201.0065378476866,1201.656174603384,"[28, 0, 226]",226,a,0.12740846816450357,colour,0.5
23,20,0,2,9,22,422,1203.6630381615832,1204.2242339891382,"[16, 0, 238]",238,a,0.039268044754862785,colour,0.5
23,20,0,2,9,23,423,1206.2413430633023,1207.0885220607743,"[34, 0, 220]",220,a,0.32493771333247423,colour,0.5
23,20,0,2,9,24,424,1209.1032901126891,1209.6722584958188,"[43, 0, 211]",211,a,0.05052889650687575,colour,0.5
23,20,0,2,9,25,425,1211.6777782505378,1212.4082298898138,"[61, 0, 193]",193,a,0.2083166935481131,colour,0.5
23,20,0,2,9,26,426,1214.4280340536498,1214.9602211369202,"[12, 0, 242]",242,a,0.010090734343975782,colour,0.5
23,20,0,2,9,27,427,1216.9751932015643,1217.576206095051,"[84, 0, 170]",170,l,0.07886652601882815,colour,0.5
23,20,0,2,9,28,428,1219.5846410999075,1220.2402458074503,"[59, 0, 195]",195,a,0.13319446332752705,colour,0.5
23,20,0,2,9,29,429,1222.25673614908,1222.856239036657,"[54, 0, 200]",200,a,0.07728483993560076,colour,0.5
23,20,0,2,9,30,430,1224.8663782137446,1225.5522630014457,"[24, 0, 230]",230,a,0.16369352163746953,colour,0.5
23,20,0,2,9,31,431,1227.560488873627,1228.360249966383,"[27, 0, 227]",227,a,0.27760921139270067,colour,0.5
23,20,0,2,9,32,432,1230.3731811200269,1232.0163205941208,"[41, 0, 213]",213,a,1.1209742021746933,colour,0.5
23,20,0,2,9,33,433,1234.029687735252,1234.6961574787274,"[20, 0, 234]",234,a,0.14448367152363062,colour,0.5
23,20,0,2,9,34,434,1236.7017871169373,1237.3362395246513,"[47, 0, 207]",207,a,0.1122702001594007,colour,0.5
23,20,0,2,9,35,435,1239.3426521290094,1240.2082328042015,"[91, 0, 163]",163,l,0.3434008304029703,colour,0.5
23,20,0,2,9,36,436,1242.217778455466,1243.3442357848398,"[14, 0, 240]",240,a,0.6155954441055655,colour,0.5
23,20,0,2,9,37,437,1245.3629966499284,1246.4722700747661,"[83, 0, 171]",171,a,0.5873799063265324,colour,0.5
23,20,0,2,9,38,438,1248.4882200593129,1249.3362556723878,"[75, 0, 179]",179,l,0.3257230422459543,colour,0.5
23,20,0,2,9,39,439,1251.3478678348474,1252.2882564510219,"[62, 0, 192]",192,l,0.41823043348267674,colour,0.5
23,20,0,2,9,40,440,1254.3011167119257,1255.0722479405813,"[57, 0, 197]",197,a,0.2487560366280377,colour,0.5
23,20,0,2,9,41,441,1257.0830180598423,1257.6162606505677,"[82, 0, 172]",172,l,0.010980038903653622,colour,0.5
23,20,0,2,9,42,442,1259.6301460936666,1260.2402414754033,"[95, 0, 159]",159,a,0.08800297137349844,colour,0.5
23,20,0,2,9,43,443,1262.2552903397009,1262.952218575403,"[55, 0, 199]",199,a,0.17473145574331284,colour,0.5
23,20,0,2,9,44,444,1264.9586945888586,1265.640216741711,"[3, 0, 251]",251,a,0.15940689900889993,colour,0.5
23,20,0,2,9,45,445,1267.64629575843,1268.4802663349546,"[70, 0, 184]",184,l,0.3118911632336676,colour,0.5
23,20,0,2,9,46,446,1270.4902767245658,1271.0482414374128,"[90, 0, 164]",164,l,0.0356367826461792,colour,0.5
23,20,0,2,9,47,447,1273.0686564566568,1273.6722293510102,"[98, 0, 156]",156,l,0.08142140693962574,colour,0.5
23,20,0,2,9,48,448,1275.678223297,1276.3282184526324,"[45, 0, 209]",209,a,0.12781137321144342,colour,0.5
23,20,0,2,9,49,449,1278.3346771369688,1279.2242725859396,"[73, 0, 181]",181,l,0.36738449102267623,colour,0.5
23,20,0,2,9,50,450,1281.2412406629883,1282.1122083668597,"[46, 0, 208]",208,a,0.34883669624105096,colour,0.5
23,20,0,2,10,1,451,1299.1793166138232,1299.9442605185322,"[92, 0, 162]",162,l,0.2421402079053223,colour,0.5
23,20,0,2,10,2,452,1301.961645678617,1302.7922602915205,"[77, 0, 177]",177,l,0.3085883683525026,colour,0.5
23,20,0,2,10,3,453,1304.8056683926843,1305.3682631617412,"[52, 0, 202]",202,a,0.04048069706186652,colour,0.5
23,20,0,2,10,4,454,1307.3753795693628,1307.9043142707087,"[85, 0, 169]",169,l,0.006834807805716991,colour,0.5
23,20,0,2,10,5,455,1309.922515874263,1310.8562453379855,"[38, 0, 216]",216,a,0.4114519455470145,colour,0.5
23,20,0,2,10,6,456,1312.8758072867058,1313.5842716721818,"[68, 0, 186]",186,a,0.18611164297908545,colour,0.5
23,20,0,2,10,7,457,1315.5948326587677,1316.1282509053126,"[51, 0, 203]",203,a,0.011302992701530457,colour,0.5
23,20,0,2,10,8,458,1318.1419488773681,1318.688254560344,"[64, 0, 190]",190,a,0.02408409072086215,colour,0.5
23,20,0,2,10,9,459,1320.704605480656,1321.3762141298503,"[5, 0, 249]",249,a,0.1493854820728302,colour,0.5
23,20,0,2,10,10,460,1323.392298415769,1323.9362937971018,"[36, 0, 218]",218,a,0.021705260034650564,colour,0.5
23,20,0,2,10,11,461,1325.9472100329585,1326.6082836892456,"[69, 0, 185]",185,l,0.13888042140752077,colour,0.5
23,20,0,2,10,12,462,1328.620518522337,1329.4802773622796,"[54, 0, 200]",200,a,0.33748486638069153,colour,0.5
23,20,0,2,10,13,463,1331.4957330701873,1332.4722708621994,"[31, 0, 223]",223,a,0.45452966447919607,colour,0.5
23,20,0,2,10,14,464,1334.4803840946406,1335.272295044735,"[90, 0, 164]",164,l,0.2697055055759847,colour,0.5
23,20,0,2,10,15,465,1337.2778963255696,1337.8962727184407,"[58, 0, 196]",196,a,0.0961630716919899,colour,0.5
23,20,0,2,10,16,466,1339.9031622703187,1340.4322864115238,"[16, 0, 238]",238,a,0.006852924358099699,colour,0.5
23,20,0,2,10,17,467,1342.450204052031,1343.2882552691735,"[13, 0, 241]",241,a,0.3157394342124462,colour,0.5
23,20,0,2,10,18,468,1345.2941700518131,1345.85627960274,"[61, 0, 193]",193,a,0.03986157104372978,colour,0.5
23,20,0,2,10,19,469,1347.8724907073192,1348.8242862918414,"[32, 0, 222]",222,a,0.4296240108087659,colour,0.5
23,20,0,2,10,20,470,1350.8414449905977,1351.39230904961,"[27, 0, 227]",227,a,0.02853731019422412,colour,0.5
23,20,0,2,10,21,471,1353.4042201414704,1353.944279029034,"[43, 0, 211]",211,a,0.01781012024730444,colour,0.5
23,20,0,2,10,22,472,1355.939669846557,1356.4962990269996,"[96, 0, 158]",158,l,0.03438592655584216,colour,0.5
23,20,0,2,10,23,473,1358.5030574286357,1359.1522755254991,"[26, 0, 228]",228,a,0.1269287634640932,colour,0.5
23,20,0,2,10,24,474,1361.1596231209114,1361.8482526224107,"[24, 0, 230]",230,a,0.16645477712154388,colour,0.5
23,20,0,2,10,25,475,1363.8629655363038,1364.5762911657803,"[57, 0, 197]",197,l,0.19145534839481115,colour,0.5
23,20,0,2,10,26,476,1366.5819204100408,1367.5283002150245,"[75, 0, 179]",179,l,0.4240254866890609,colour,0.5
23,20,0,2,10,27,477,1369.5354347396642,1370.4482789314352,"[78, 0, 176]",176,a,0.3907517814077437,colour,0.5
23,20,0,2,10,28,478,1372.4575016289018,1373.080290674232,"[39, 0, 215]",215,a,0.10082857357338071,colour,0.5
23,20,0,2,10,29,479,1375.0982669978403,1375.8082921961322,"[8, 0, 246]",246,a,0.18836129223927855,colour,0.5
23,20,0,2,10,30,480,1377.8174747209996,1378.448274992872,"[12, 0, 242]",242,a,0.10880671674385667,colour,0.5
23,20,0,2,10,31,481,1380.4581384779885,1381.4242625823244,"[70, 0, 184]",184,a,0.4439682844094932,colour,0.5
23,20,0,2,10,32,482,1383.4426611089148,1384.1683003408834,"[72, 0, 182]",182,l,0.2033711662515998,colour,0.5
23,20,0,2,10,33,483,1386.1772650689818,1387.8242772333324,"[10, 0, 244]",244,a,1.1247909660451114,colour,0.5
23,20,0,2,10,34,484,1389.8338122507557,1390.3683226327412,"[87, 0, 167]",167,l,0.012217110022902489,colour,0.5
23,20,0,2,10,35,485,1392.3808689983562,1393.1763084162958,"[66, 0, 188]",188,a,0.2731426013633609,colour,0.5
23,20,0,2,10,36,486,1395.1936549800448,1395.7523108930327,"[29, 0, 225]",225,a,0.03642093017697334,colour,0.5
23,20,0,2,10,37,487,1397.7719827243127,1398.592307316605,"[25, 0, 229]",229,a,0.29814789863303304,colour,0.5
23,20,0,2,10,38,488,1400.6002953061834,1401.2483102027327,"[50, 0, 204]",204,a,0.12576849246397614,colour,0.5
23,20,0,2,10,39,489,1403.2567251212895,1409.5603033718653,"[56, 0, 198]",198,a,5.781345630530268,colour,0.5
23,20,0,2,10,40,490,1411.569886832498,1412.1042869375087,"[19, 0, 235]",235,a,0.01264246366918087,colour,0.5
23,20,0,2,10,41,491,1414.1170877278782,1415.6163118509576,"[30, 0, 224]",224,a,0.9771293494850397,colour,0.5
23,20,0,2,10,42,492,1417.6329294047318,1418.8162845177576,"[67, 0, 187]",187,l,0.6611437606625259,colour,0.5
23,20,0,2,10,43,493,1420.8362848171964,1421.456287400797,"[14, 0, 240]",240,a,0.09778256714344025,colour,0.5
23,20,0,2,10,44,494,1423.4614861709997,1424.0562849589624,"[4, 0, 250]",250,a,0.07263706065714359,colour,0.5
23,20,0,2,10,45,495,1426.0714736389928,1426.9042591322213,"[23, 0, 231]",231,a,0.31091087963432074,colour,0.5
23,20,0,2,10,46,496,1428.9150477619842,1429.4483183161356,"[3, 0, 251]",251,a,0.011062746867537498,colour,0.5
23,20,0,2,10,47,497,1431.462152164895,1432.0162780587561,"[83, 0, 171]",171,l,0.03212564345449209,colour,0.5
23,20,0,2,10,48,498,1434.0249025034718,1434.6002752198838,"[49, 0, 205]",205,a,0.05322477361187339,colour,0.5
23,20,0,2,10,49,499,1436.618855703622,1437.4562925207429,"[6, 0, 248]",248,a,0.31535110203549266,colour,0.5
23,20,0,2,10,50,500,1439.4627244235016,1440.1042538546026,"[89, 0, 165]",165,l,0.11942914361134171,colour,0.5
23,20,0,2,11,1,501,1447.4322328483686,1447.9762904569507,"[15, 0, 239]",239,a,0.021001456305384636,colour,0.5
23,20,0,2,11,2,502,1449.9957665470429,1450.584277186077,"[65, 0, 189]",189,l,0.06650133011862636,colour,0.5
23,20,0,2,11,3,503,1452.5896831192076,1453.424275578931,"[51, 0, 203]",203,l,0.312322030775249,colour,0.5
23,20,0,2,11,4,504,1455.4336656611413,1456.1442564222962,"[27, 0, 227]",227,a,0.18834514450281858,colour,0.5
23,20,0,2,11,5,505,1458.152612657752,1458.7122957222164,"[99, 0, 155]",155,l,0.037432721350342035,colour,0.5
23,20,0,2,11,6,506,1460.7186362524517,1461.568312629126,"[61, 0, 193]",193,a,0.3274599043652415,colour,0.5
23,20,0,2,11,7,507,1463.5782375540584,1464.4082602160051,"[25, 0, 229]",229,a,0.30837057158350945,colour,0.5
23,20,0,2,11,8,508,1466.4221708648838,1467.0562684172764,"[21, 0, 233]",233,a,0.11185036040842533,colour,0.5
23,20,0,2,11,9,509,1469.0780414184555,1469.8323211488314,"[57, 0, 197]",197,a,0.23158158408477902,colour,0.5
23,20,0,2,11,10,510,1471.8445110833272,1472.464249396231,"[22, 0, 232]",232,a,0.09747221600264311,colour,0.5
23,20,0,2,11,11,511,1474.4696781728417,1475.0882904790342,"[54, 0, 200]",200,a,0.09636353887617588,colour,0.5
23,20,0,2,11,12,512,1477.0949271819554,1477.7682128283195,"[47, 0, 207]",207,a,0.15116921113803983,colour,0.5
23,20,0,2,11,13,513,1479.7826543818228,1480.7282933620736,"[46, 0, 208]",208,a,0.42338981898501515,colour,0.5
23,20,0,2,11,14,514,1482.735985178966,1483.408242098987,"[89, 0, 165]",165,l,0.15003926632925868,colour,0.5
23,20,0,2,11,15,515,1485.4114862103015,1485.96030896483,"[10, 0, 244]",244,a,0.026621642522513866,colour,0.5
23,20,0,2,11,16,516,1487.974192832131,1488.5602836799808,"[20, 0, 234]",234,a,0.06386846816167235,colour,0.5
23,20,0,2,11,17,517,1490.5680979830213,1491.1522869472392,"[38, 0, 216]",216,a,0.06242896011099219,colour,0.5
23,20,0,2,11,18,518,1493.162087416742,1494.0322961788625,"[83, 0, 171]",171,l,0.34807460382580757,colour,0.5
23,20,0,2,11,19,519,1496.0375748998486,1496.6563148126006,"[52, 0, 202]",202,a,0.0965384067967534,colour,0.5
23,20,0,2,11,20,520,1498.662741201464,1499.2163180736825,"[88, 0, 166]",166,l,0.03154078172519803,colour,0.5
23,20,0,2,11,21,521,1501.2255238355137,1501.8243209500797,"[67, 0, 187]",187,l,0.07657355349510908,colour,0.5
23,20,0,2,11,22,522,1503.8350402629003,1504.4722365979105,"[33, 0, 221]",221,a,0.114926693495363,colour,0.5
23,20,0,2,11,23,523,1506.491492527537,1507.1203003316186,"[93, 0, 161]",161,l,0.10658936249092221,colour,0.5
23,20,0,2,11,24,524,1509.1323027955368,1509.720277016051,"[19, 0, 235]",235,a,0.06636269623413682,colour,0.5
23,20,0,2,11,25,525,1511.726342247799,1512.3122944617644,"[35, 0, 219]",219,a,0.06372353248298168,colour,0.5
23,20,0,2,11,26,526,1514.3202450354584,1514.8962943796068,"[24, 0, 230]",230,a,0.05383365973830223,colour,0.5
23,20,0,2,11,27,527,1516.9149859282188,1517.54429903673,"[62, 0, 192]",192,l,0.10729552898555994,colour,0.5
23,20,0,2,11,28,528,1519.5556366881356,1520.6642842912115,"[7, 0, 247]",247,a,0.5864244354888797,colour,0.5
23,20,0,2,11,29,529,1522.6816651192494,1523.2963196649216,"[96, 0, 158]",158,l,0.09321867721155286,colour,0.5
23,20,0,2,11,30,530,1525.3061382514425,1525.9842500896193,"[8, 0, 246]",246,a,0.15595089877024293,colour,0.5
23,20,0,2,11,31,531,1527.9938654513098,1528.688296701759,"[41, 0, 213]",213,a,0.17218957236036658,colour,0.5
23,20,0,2,11,32,532,1530.6971818730235,1531.3442519325763,"[39, 0, 215]",215,a,0.12493511382490396,colour,0.5
23,20,0,2,11,33,533,1533.353598691523,1533.880327065941,"[23, 0, 231]",231,a,0.00443077040836215,colour,0.5
23,20,0,2,11,34,534,1535.900751143694,1536.6963020204566,"[5, 0, 249]",249,a,0.27304926002398133,colour,0.5
23,20,0,2,11,35,535,1538.7135410639457,1539.352291122079,"[68, 0, 186]",186,l,0.11684630019590259,colour,0.5
23,20,0,2,11,36,536,1541.3700212915428,1542.640313627664,"[72, 0, 182]",182,l,0.7481727502308786,colour,0.5
23,20,0,2,11,37,537,1544.651447266806,1545.24033363536,"[82, 0, 172]",172,l,0.06656670849770308,colour,0.5
23,20,0,2,11,38,538,1547.2453634454869,1547.7763185775839,"[98, 0, 156]",156,l,0.008793010842055082,colour,0.5
23,20,0,2,11,39,539,1549.7925088084303,1550.3763188929297,"[55, 0, 199]",199,a,0.06166883697733283,colour,0.5
23,20,0,2,11,40,540,1552.386446648743,1553.0482438006438,"[66, 0, 188]",188,a,0.13959840312600136,colour,0.5
23,20,0,2,11,41,541,1555.058528306894,1555.640274636913,"[29, 0, 225]",225,a,0.05956294061616063,colour,0.5
23,20,0,2,11,42,542,1557.6524929287843,1558.184797378257,"[17, 0, 237]",237,a,0.010150599293410778,colour,0.5
23,20,0,2,11,43,543,1560.1994992638938,1560.7763429959305,"[36, 0, 218]",218,a,0.05455321678891778,colour,0.5
23,20,0,2,11,44,544,1562.79357337486,1563.3283456647769,"[76, 0, 178]",178,l,0.012639706954360008,colour,0.5
23,20,0,2,11,45,545,1565.340550171677,1565.896321555134,"[45, 0, 209]",209,a,0.03355688042938709,colour,0.5
23,20,0,2,11,46,546,1567.903313507326,1568.4643435254693,"[94, 0, 160]",160,l,0.03893445711582899,colour,0.5
23,20,0,2,11,47,547,1570.4816703964025,1571.4563204837032,"[69, 0, 185]",185,l,0.45243519032374024,colour,0.5
23,20,0,2,11,48,548,1573.4662922765128,1574.3123149415478,"[74, 0, 180]",180,l,0.32383770076557994,colour,0.5
23,20,0,2,11,49,549,1576.3258474981412,1576.9363170336,"[73, 0, 181]",181,l,0.08826172817498446,colour,0.5
23,20,0,2,11,50,550,1578.9511343166232,1579.6722911847755,"[37, 0, 217]",217,a,0.19902507308870554,colour,0.5
23,20,0,2,12,1,551,1590.8418376552872,1591.9603219614364,"[60, 0, 194]",194,l,0.5954758091829717,colour,0.5
23,20,0,2,12,2,552,1593.969040535856,1594.5283293598332,"[47, 0, 207]",207,a,0.03714560763910413,colour,0.5
23,20,0,2,12,3,553,1596.5473056589253,1597.1922749425285,"[61, 0, 193]",193,a,0.12281700875610113,colour,0.5
23,20,0,2,12,4,554,1599.199193639215,1599.816276641097,"[14, 0, 240]",240,a,0.09482832672074437,colour,0.5
23,20,0,2,12,5,555,1601.8244769130833,1602.3843238172121,"[74, 0, 180]",180,l,0.03770998865365982,colour,0.5
23,20,0,2,12,6,556,1604.4027321902104,1604.9523583906703,"[65, 0, 189]",189,l,0.02746171597391367,colour,0.5
23,20,0,2,12,7,557,1606.9655526336282,1607.496354165487,"[69, 0, 185]",185,l,0.008250290527939796,colour,0.5
23,20,0,2,12,8,558,1609.5127657381818,1610.344321643468,"[56, 0, 198]",198,a,0.30941741494461894,colour,0.5
23,20,0,2,12,9,559,1612.3568707657978,1613.0003418587148,"[51, 0, 203]",203,a,0.12128573469817638,colour,0.5
23,20,0,2,12,10,560,1615.013327756431,1615.6802921709605,"[3, 0, 251]",251,a,0.14481450244784355,colour,0.5
23,20,0,2,12,11,561,1617.6854677041993,1618.2243170905858,"[25, 0, 229]",229,a,0.016597861889749765,colour,0.5
23,20,0,2,12,12,562,1620.2324543474242,1620.9362760735676,"[49, 0, 205]",205,a,0.18228266946971416,colour,0.5
23,20,0,2,12,13,563,1622.9514226121828,1623.5522791487165,"[13, 0, 241]",241,a,0.07857744302600622,colour,0.5
23,20,0,2,12,14,564,1625.5610946090892,1626.13628458092,"[22, 0, 232]",232,a,0.05302194273099303,colour,0.5
23,20,0,2,12,15,565,1628.154992670752,1628.76832822524,"[77, 0, 177]",177,l,0.0911360178142786,colour,0.5
23,20,0,2,12,16,566,1630.780237347819,1631.3603570926934,"[66, 0, 188]",188,l,0.0581907806918025,colour,0.5
23,20,0,2,12,17,567,1633.3740428555757,1633.9283188045956,"[20, 0, 234]",234,a,0.0319684986025095,colour,0.5
23,20,0,2,12,18,568,1635.9379247142933,1636.4883090686053,"[67, 0, 187]",187,l,0.02818166697397828,colour,0.5
23,20,0,2,12,19,569,1638.500629760325,1639.080351720564,"[76, 0, 178]",178,l,0.057482251431792974,colour,0.5
23,20,0,2,12,20,570,1641.0945561788976,1641.7602795837447,"[94, 0, 160]",160,l,0.14348290814086795,colour,0.5
23,20,0,2,12,21,571,1643.7666717078537,1644.3363568908535,"[16, 0, 238]",238,a,0.04742853855714202,colour,0.5
23,20,0,2,12,22,572,1646.3450018158183,1646.8963491246104,"[31, 0, 223]",223,a,0.04030031571164727,colour,0.5
23,20,0,2,12,23,573,1648.912141176872,1649.4803226548247,"[80, 0, 174]",174,l,0.04609182430431247,colour,0.5
23,20,0,2,12,24,574,1651.490838742815,1652.2883379771374,"[54, 0, 200]",200,a,0.2751976912841201,colour,0.5
23,20,0,2,12,25,575,1654.303549893666,1654.8803739333525,"[92, 0, 162]",162,l,0.055498053785413504,colour,0.5
23,20,0,2,12,26,576,1656.897552324459,1657.472336241044,"[4, 0, 250]",250,a,0.05261352425441146,colour,0.5
23,20,0,2,12,27,577,1659.4914822876453,1660.15232593799,"[73, 0, 181]",181,l,0.13867010734975338,colour,0.5
23,20,0,2,12,28,578,1662.163500143215,1662.744354411494,"[45, 0, 209]",209,a,0.05883156880736351,colour,0.5
23,20,0,2,12,29,579,1664.7575139952824,1665.3123409356922,"[28, 0, 226]",226,a,0.03255848027765751,colour,0.5
23,20,0,2,12,30,580,1667.3204947342165,1668.208367106039,"[52, 0, 202]",202,a,0.3660217830911279,colour,0.5
23,20,0,2,12,31,581,1670.2266604756005,1670.8323609270155,"[71, 0, 183]",183,l,0.08342647785320878,colour,0.5
23,20,0,2,12,32,582,1672.851806296967,1673.456249197945,"[41, 0, 213]",213,a,0.0821102443151176,colour,0.5
23,20,0,2,12,33,583,1675.4491213685833,1676.0483257202432,"[21, 0, 233]",233,a,0.07694455655291677,colour,0.5
23,20,0,2,12,34,584,1678.0587681592442,1678.6323453309014,"[70, 0, 184]",184,l,0.05144065013155341,colour,0.5
23,20,0,2,12,35,585,1680.6526717348024,1681.2563722352497,"[88, 0, 166]",166,l,0.08148205885663629,colour,0.5
23,20,0,2,12,36,586,1683.2627990180627,1683.8643534504808,"[36, 0, 218]",218,a,0.07977434201166034,colour,0.5
23,20,0,2,12,37,587,1685.8723816121928,1686.5363626410253,"[40, 0, 214]",214,a,0.14172477833926678,colour,0.5
23,20,0,2,12,38,588,1688.5444069504738,1689.0803777142428,"[59, 0, 195]",195,a,0.01362983649596572,colour,0.5
23,20,0,2,12,39,589,1691.091639353428,1691.6803295863792,"[26, 0, 228]",228,a,0.06651275139302015,colour,0.5
23,20,0,2,12,40,590,1693.685532295145,1694.3363005709834,"[75, 0, 179]",179,l,0.12849469622597098,colour,0.5
23,20,0,2,12,41,591,1696.3419605353847,1696.9363272739574,"[78, 0, 176]",176,l,0.07210182351991534,colour,0.5
23,20,0,2,12,42,592,1698.9514978369698,1699.632322487887,"[23, 0, 231]",231,a,0.15852704690769315,colour,0.5
23,20,0,2,12,43,593,1701.6393057755195,1702.3203434972093,"[85, 0, 169]",169,l,0.1589594897814095,colour,0.5
23,20,0,2,12,44,594,1704.3270117077045,1704.888341049198,"[91, 0, 163]",163,l,0.0391242909245193,colour,0.5
23,20,0,2,12,45,595,1706.905300855171,1707.504252357874,"[35, 0, 219]",219,a,0.07677205186337233,colour,0.5
23,20,0,2,12,46,596,1709.5148925078101,1710.0723712146282,"[18, 0, 236]",236,a,0.035216154996305704,colour,0.5
23,20,0,2,12,47,597,1712.0776727786288,1712.9123168322258,"[2, 0, 252]",252,a,0.3125130464322865,colour,0.5
23,20,0,2,12,48,598,1714.921613572631,1715.8563453750685,"[24, 0, 230]",230,a,0.41253069043159485,colour,0.5
23,20,0,2,12,49,599,1717.8749112864025,1718.4243716774508,"[17, 0, 237]",237,a,0.02716239308938384,colour,0.5
23,20,0,2,12,50,600,1720.4376253909431,1721.0323521052487,"[46, 0, 208]",208,a,0.07241374999284744,colour,0.5
23,20,0,2,13,1,601,1728.3749762708321,1729.0322650647722,"[29, 0, 225]",225,a,0.13428226625546813,colour,0.5
23,20,0,2,13,2,602,1731.0478070247918,1731.6403400152922,"[85, 0, 169]",169,l,0.07027280144393444,colour,0.5
23,20,0,2,13,3,603,1733.6577247818932,1734.2483574645594,"[2, 0, 252]",252,a,0.06874192133545876,colour,0.5
23,20,0,2,13,4,604,1736.267002538778,1737.1923481980339,"[10, 0, 244]",244,a,0.4037861223332584,colour,0.5
23,20,0,2,13,5,605,1739.204787043389,1739.8163439887576,"[37, 0, 217]",217,a,0.08939285483211279,colour,0.5
23,20,0,2,13,6,606,1741.8299931236543,1742.4963455009274,"[58, 0, 196]",196,a,0.14442301914095879,colour,0.5
23,20,0,2,13,7,607,1744.502031065058,1745.0403377311304,"[38, 0, 216]",216,a,0.015983461402356625,colour,0.5
23,20,0,2,13,8,608,1747.0491543728858,1747.6802728725597,"[36, 0, 218]",218,a,0.10890872310847044,colour,0.5
23,20,0,2,13,9,609,1749.689946129918,1750.21634485526,"[33, 0, 221]",221,a,0.004116087220609188,colour,0.5
23,20,0,2,13,10,610,1752.2370938560925,1752.8962585399859,"[76, 0, 178]",178,l,0.13665282726287842,colour,0.5
23,20,0,2,13,11,611,1754.9091609423049,1755.5442691044882,"[82, 0, 172]",172,l,0.11289759771898389,colour,0.5
23,20,0,2,13,12,612,1757.5499597885646,1758.1043397132307,"[83, 0, 171]",171,l,0.03209689259529114,colour,0.5
23,20,0,2,13,13,613,1760.112638446968,1760.6962965065613,"[49, 0, 205]",205,a,0.061441587284207344,colour,0.5
23,20,0,2,13,14,614,1762.7066448163241,1763.4242905452847,"[3, 0, 251]",251,a,0.19546037074178457,colour,0.5
23,20,0,2,13,15,615,1765.4412464131601,1766.52833369188,"[71, 0, 183]",183,l,0.5648841974325478,colour,0.5
23,20,0,2,13,16,616,1768.5352460872382,1769.208328508772,"[93, 0, 161]",161,l,0.15083444165065885,colour,0.5
23,20,0,2,13,17,617,1771.2229023948312,1771.7683463422582,"[42, 0, 212]",212,a,0.02314910013228655,colour,0.5
23,20,0,2,13,18,618,1773.785681877751,1774.7123571620323,"[15, 0, 239]",239,a,0.40440603671595454,colour,0.5
23,20,0,2,13,19,619,1776.72632491868,1777.3443543324247,"[54, 0, 200]",200,a,0.09587871422991157,colour,0.5
23,20,0,2,13,20,620,1779.3514093002304,1779.9203540519811,"[4, 0, 250]",250,a,0.04660461191087961,colour,0.5
23,20,0,2,13,21,621,1781.9298433833756,1782.6483543924987,"[87, 0, 167]",167,l,0.196506820153445,colour,0.5
23,20,0,2,13,22,622,1784.6662361929193,1785.2403710507788,"[14, 0, 240]",240,a,0.05181598570197821,colour,0.5
23,20,0,2,13,23,623,1787.2602004208602,1787.9364631506614,"[13, 0, 241]",241,a,0.15460709482431412,colour,0.5
23,20,0,2,13,24,624,1789.9478677562438,1790.8563654609025,"[98, 0, 156]",156,l,0.38627886958420277,colour,0.5
23,20,0,2,13,25,625,1792.870009476319,1793.4323419439606,"[94, 0, 160]",160,l,0.040047860238701105,colour,0.5
23,20,0,2,13,26,626,1795.4483573068865,1795.976362137124,"[89, 0, 165]",165,l,0.005759213585406542,colour,0.5
23,20,0,2,13,27,627,1797.9954290208407,1798.5604124674574,"[96, 0, 158]",158,l,0.04283510986715555,colour,0.5
23,20,0,2,13,28,628,1800.5737559776753,1801.1123883547261,"[86, 0, 168]",168,l,0.016982649452984333,colour,0.5
23,20,0,2,13,29,629,1803.1208517164923,1803.744324872736,"[27, 0, 227]",227,a,0.10127361956983805,colour,0.5
23,20,0,2,13,30,630,1805.7617486300878,1806.6883809850551,"[90, 0, 164]",164,l,0.4044237597845495,colour,0.5
23,20,0,2,13,31,631,1808.6993901687674,1809.3522832449526,"[61, 0, 193]",193,a,0.1305600255727768,colour,0.5
23,20,0,2,13,32,632,1811.3714974271134,1812.0803052466363,"[47, 0, 207]",207,a,0.18656023358926177,colour,0.5
23,20,0,2,13,33,633,1814.0903940116987,1814.6323591154069,"[22, 0, 232]",232,a,0.019626145251095295,colour,0.5
23,20,0,2,13,34,634,1816.6375307105482,1817.1763544962741,"[31, 0, 223]",223,a,0.01665575709193945,colour,0.5
23,20,0,2,13,35,635,1819.1847453904338,1819.8243449749425,"[24, 0, 230]",230,a,0.1175256846472621,colour,0.5
23,20,0,2,13,36,636,1821.8410539012402,1822.5523559488356,"[77, 0, 177]",177,l,0.1890662768855691,colour,0.5
23,20,0,2,13,37,637,1824.5600154702552,1825.5523689459078,"[12, 0, 242]",242,a,0.47017008624970913,colour,0.5
23,20,0,2,13,38,638,1827.5602698950097,1828.1363924946636,"[51, 0, 203]",203,a,0.053894312120974064,colour,0.5
23,20,0,2,13,39,639,1830.1542557845823,1830.8323337519541,"[40, 0, 214]",214,a,0.15585322491824627,colour,0.5
23,20,0,2,13,40,640,1832.8462345544249,1833.4883220656775,"[79, 0, 175]",175,l,0.11997501458972692,colour,0.5
23,20,0,2,13,41,641,1835.5028412067331,1836.2323889690451,"[68, 0, 186]",186,a,0.20746047142893076,colour,0.5
23,20,0,2,13,42,642,1838.2528673978522,1838.7843813975342,"[45, 0, 209]",209,a,0.00922190910205245,colour,0.5
23,20,0,2,13,43,643,1840.7877263338305,1841.3843391775154,"[44, 0, 210]",210,a,0.07431248249486089,colour,0.5
23,20,0,2,13,44,644,1843.3982793646865,1844.2403604169376,"[63, 0, 191]",191,a,0.3198826969601214,colour,0.5
23,20,0,2,13,45,645,1846.2578530972824,1847.1683802916668,"[72, 0, 182]",182,l,0.3882603100501001,colour,0.5
23,20,0,2,13,46,646,1849.1799613400362,1849.7523561851121,"[74, 0, 180]",180,l,0.050400108098983765,colour,0.5
23,20,0,2,13,47,647,1851.7583127156831,1852.4163277619518,"[30, 0, 224]",224,a,0.13575722044333816,colour,0.5
23,20,0,2,13,48,648,1854.4304030388594,1855.064344234299,"[88, 0, 166]",166,l,0.11233676038682461,colour,0.5
23,20,0,2,13,49,649,1857.0712156696245,1857.6083778184839,"[1, 0, 253]",253,a,0.014966156799346209,colour,0.5
23,20,0,2,13,50,650,1859.6182641466148,1860.152389741037,"[92, 0, 162]",162,l,0.011891792993992567,colour,0.5
23,20,0,2,14,1,651,1867.41499341093,1868.0323442281224,"[50, 0, 204]",204,a,0.09433562494814396,colour,0.5
23,20,0,2,14,2,652,1870.0411439342424,1870.6483228849247,"[83, 0, 171]",171,l,0.08494593668729067,colour,0.5
23,20,0,2,14,3,653,1872.6663897931576,1873.5683500445448,"[41, 0, 213]",213,a,0.379771348554641,colour,0.5
23,20,0,2,14,4,654,1875.5884267496876,1876.1523653226905,"[45, 0, 209]",209,a,0.0416779899969697,colour,0.5
23,20,0,2,14,5,655,1878.1668411409482,1878.8563079596497,"[47, 0, 207]",207,a,0.1672708266414702,colour,0.5
23,20,0,2,14,6,656,1880.8577139908448,1881.5123305381276,"[34, 0, 220]",220,a,0.13231421681120992,colour,0.5
23,20,0,2,14,7,657,1883.5298054954037,1884.112367874477,"[93, 0, 161]",161,l,0.06049005500972271,colour,0.5
23,20,0,2,14,8,658,1886.1238323445432,1886.6803996912204,"[31, 0, 223]",223,a,0.03435520688071847,colour,0.5
23,20,0,2,14,9,659,1888.6864743754268,1889.3844116451219,"[62, 0, 192]",192,a,0.1757842069491744,colour,0.5
23,20,0,2,14,10,660,1891.389782920014,1891.9444019091316,"[86, 0, 168]",168,l,0.03237297851592302,colour,0.5
23,20,0,2,14,11,661,1893.952548224479,1894.4804120580666,"[38, 0, 216]",216,a,0.016197714023292065,colour,0.5
23,20,0,2,14,12,662,1896.489078250248,1897.0163694312796,"[42, 0, 212]",212,a,0.005126302596181631,colour,0.5
23,20,0,2,14,13,663,1899.0240636109374,1899.576388052199,"[40, 0, 214]",214,a,0.030270627699792385,colour,0.5
23,20,0,2,14,14,664,1901.5743471411988,1902.120407457929,"[28, 0, 226]",226,a,0.02437750669196248,colour,0.5
23,20,0,2,14,15,665,1904.1370198917575,1904.7603362975642,"[94, 0, 160]",160,l,0.10111096128821373,colour,0.5
23,20,0,2,14,16,666,1906.7778766332194,1907.5363429486752,"[22, 0, 232]",232,a,0.2363719353452325,colour,0.5
23,20,0,2,14,17,667,1909.5437370180152,1910.160379305482,"[68, 0, 186]",186,l,0.09448961867019534,colour,0.5
23,20,0,2,14,18,668,1912.169502359815,1912.7363979299553,"[97, 0, 157]",157,l,0.04538605222478509,colour,0.5
23,20,0,2,14,19,669,1914.7472680858336,1915.8323971610516,"[36, 0, 218]",218,a,0.563100861851126,colour,0.5
23,20,0,2,14,20,670,1917.8412638213485,1918.7603520513512,"[67, 0, 187]",187,a,0.39691980741918087,colour,0.5
23,20,0,2,14,21,671,1920.7790376921184,1921.3204037556425,"[5, 0, 249]",249,a,0.01922442251816392,colour,0.5
23,20,0,2,14,22,672,1923.3144909422845,1924.224384832196,"[80, 0, 174]",174,a,0.3879865873605013,colour,0.5
23,20,0,2,14,23,673,1926.2365401084535,1926.8723607379943,"[76, 0, 178]",178,l,0.11365929618477821,colour,0.5
23,20,0,2,14,24,674,1928.8773614037782,1929.4004380358383,"[30, 0, 224]",224,a,0.0008125044405460358,colour,0.5
23,20,0,2,14,25,675,1931.4088242040016,1932.112368662376,"[64, 0, 190]",190,a,0.1813520109280944,colour,0.5
23,20,0,2,14,26,676,1934.1277708066627,1934.7443540175445,"[3, 0, 251]",251,a,0.09453727398067713,colour,0.5
23,20,0,2,14,27,677,1936.7530052438378,1937.3043868169188,"[26, 0, 228]",228,a,0.02919424558058381,colour,0.5
23,20,0,2,14,28,678,1939.3030497091822,1940.1363739841618,"[49, 0, 205]",205,a,0.3110873228870332,colour,0.5
23,20,0,2,14,29,679,1942.1532821967266,1942.6803796049207,"[23, 0, 231]",231,a,0.005009330343455076,colour,0.5
23,20,0,2,14,30,680,1944.6909311395139,1945.248390153516,"[2, 0, 252]",252,a,0.03528389614075422,colour,0.5
23,20,0,2,14,31,681,1947.2539075454697,1947.848383773584,"[73, 0, 181]",181,l,0.07245077146217227,colour,0.5
23,20,0,2,14,32,682,1949.8632140532136,1950.472345693037,"[98, 0, 156]",156,l,0.08712823875248432,colour,0.5
23,20,0,2,14,33,683,1952.48846739484,1953.2564576999284,"[72, 0, 182]",182,l,0.24578919308260083,colour,0.5
23,20,0,2,14,34,684,1955.2720004473813,1955.832420004066,"[81, 0, 173]",173,l,0.03811368113383651,colour,0.5
23,20,0,2,14,35,685,1957.8503656075336,1958.50433664117,"[60, 0, 194]",194,a,0.13166043208912015,colour,0.5
23,20,0,2,14,36,686,1960.5101446914487,1961.120428331662,"[69, 0, 185]",185,l,0.08806638047099113,colour,0.5
23,20,0,2,14,37,687,1963.135339349974,1963.808373328764,"[8, 0, 246]",246,a,0.15083168540149927,colour,0.5
23,20,0,2,14,38,688,1965.8230909686536,1966.4483447037637,"[32, 0, 222]",222,a,0.10308806924149394,colour,0.5
23,20,0,2,14,39,689,1968.4639323498122,1969.032402517274,"[99, 0, 155]",155,l,0.046982310712337494,colour,0.5
23,20,0,2,14,40,690,1971.0422683656216,1971.9363993476145,"[74, 0, 180]",180,a,0.37193774711340666,colour,0.5
23,20,0,2,14,41,691,1973.9487649379298,1974.6804119003937,"[79, 0, 175]",175,l,0.209459634963423,colour,0.5
23,20,0,2,14,42,692,1976.6989151900634,1977.360388206318,"[44, 0, 210]",210,a,0.1392624517902732,colour,0.5
23,20,0,2,14,43,693,1979.3710559257306,1979.9044261230156,"[10, 0, 244]",244,a,0.01118208235129714,colour,0.5
23,20,0,2,14,44,694,1981.9180890424177,1982.536417386029,"[59, 0, 195]",195,l,0.09607563773170114,colour,0.5
23,20,0,2,14,45,695,1984.5414964267984,1985.192349773366,"[13, 0, 241]",241,a,0.1286675943993032,colour,0.5
23,20,0,2,14,46,696,1987.1979187591933,1987.8163294163533,"[91, 0, 163]",163,l,0.09650217276066542,colour,0.5
23,20,0,2,14,47,697,1989.823135472834,1990.6563967326656,"[52, 0, 202]",202,a,0.3110991381108761,colour,0.5
23,20,0,2,14,48,698,1992.6671613375656,1993.1924076690339,"[21, 0, 233]",233,a,0.003117293119430542,colour,0.5
23,20,0,2,14,49,699,1995.214216509834,1996.0483686495572,"[19, 0, 235]",235,a,0.31221293518319726,colour,0.5
23,20,0,2,14,50,700,1998.0581431253813,1998.6404321757145,"[95, 0, 159]",159,l,0.06000995682552457,colour,0.5
23,20,0,2,15,1,701,2005.9955070023425,2006.5924227139913,"[95, 0, 159]",159,l,0.07406829809769988,colour,0.5
23,20,0,2,15,2,702,2008.605835935101,2009.1923804935068,"[15, 0, 239]",239,a,0.06451516365632415,colour,0.5
23,20,0,2,15,3,703,2011.199816704262,2012.0323914894834,"[50, 0, 204]",204,a,0.3102736361324787,colour,0.5
23,20,0,2,15,4,704,2014.0437838858925,2014.616406767629,"[23, 0, 231]",231,a,0.050372145138680935,colour,0.5
23,20,0,2,15,5,705,2016.622140774969,2017.2004062919877,"[98, 0, 156]",156,l,0.05611875560134649,colour,0.5
23,20,0,2,15,6,706,2019.2161172120832,2019.7525381422602,"[44, 0, 210]",210,a,0.014126082882285118,colour,0.5
23,20,0,2,15,7,707,2021.7632094058208,2022.4403850715607,"[22, 0, 232]",232,a,0.15508325537666678,colour,0.5
23,20,0,2,15,8,708,2024.450831449125,2025.0964738163166,"[43, 0, 211]",211,a,0.12326363055035472,colour,0.5
23,20,0,2,15,9,709,2027.1073408215307,2027.632435915526,"[88, 0, 166]",166,l,0.0028100931085646152,colour,0.5
23,20,0,2,15,10,710,2029.6387299722992,2030.2004287410527,"[58, 0, 196]",196,a,0.039483084343373775,colour,0.5
23,20,0,2,15,11,711,2032.2171187628992,2032.848425914999,"[62, 0, 192]",192,a,0.10910170758143067,colour,0.5
23,20,0,2,15,12,712,2034.8579502985813,2035.448406537529,"[11, 0, 243]",243,a,0.06819880707189441,colour,0.5
23,20,0,2,15,13,713,2037.4675974831916,2038.1364259715192,"[67, 0, 187]",187,a,0.14666833635419607,colour,0.5
23,20,0,2,15,14,714,2040.1552805723622,2040.7444343622774,"[24, 0, 230]",230,a,0.06691880710422993,colour,0.5
23,20,0,2,15,15,715,2042.7648021201603,2043.4724284010008,"[74, 0, 180]",180,l,0.1854767627082765,colour,0.5
23,20,0,2,15,16,716,2045.48381764628,2046.1444060839713,"[26, 0, 228]",228,a,0.13911791052669287,colour,0.5
23,20,0,2,15,17,717,2048.157110775821,2048.7524211700074,"[56, 0, 198]",198,a,0.07298167608678341,colour,0.5
23,20,0,2,15,18,718,2050.7667071544565,2051.3203880018555,"[30, 0, 224]",224,a,0.03136394452303648,colour,0.5
23,20,0,2,15,19,719,2053.3294342556037,2054.2083934936672,"[28, 0, 226]",226,a,0.3567967228591442,colour,0.5
23,20,0,2,15,20,720,2056.2202793788165,2056.744421365205,"[6, 0, 248]",248,a,0.001980652566999197,colour,0.5
23,20,0,2,15,21,721,2058.767373148352,2059.320452986285,"[71, 0, 183]",183,l,0.03076214762404561,colour,0.5
23,20,0,2,15,22,722,2061.317748444155,2061.8484369427897,"[46, 0, 208]",208,a,0.008484629448503256,colour,0.5
23,20,0,2,15,23,723,2063.852345866617,2064.384526648093,"[72, 0, 182]",182,l,0.00984261091798544,colour,0.5
23,20,0,2,15,24,724,2066.3995187990367,2067.0004131449386,"[0, 0, 254]",254,a,0.0786274615675211,colour,0.5
23,20,0,2,15,25,725,2069.0091675589792,2069.5684008505195,"[60, 0, 194]",194,a,0.03708259202539921,colour,0.5
23,20,0,2,15,26,726,2071.5875279926695,2072.1124328593723,"[20, 0, 234]",234,a,0.0026962715201079845,colour,0.5
23,20,0,2,15,27,727,2074.134555595927,2075.0484537202865,"[99, 0, 155]",155,l,0.3916887417435646,colour,0.5
23,20,0,2,15,28,728,2077.0566421775147,2077.6563656185754,"[82, 0, 172]",172,l,0.07759558456018567,colour,0.5
23,20,0,2,15,29,729,2079.666201928165,2080.3284145877697,"[32, 0, 222]",222,a,0.13997176894918084,colour,0.5
23,20,0,2,15,30,730,2082.3382902820595,2082.920441091992,"[68, 0, 186]",186,l,0.0599363069050014,colour,0.5
23,20,0,2,15,31,731,2084.9322367869318,2085.488444157876,"[97, 0, 157]",157,l,0.034002714324742556,colour,0.5
23,20,0,2,15,32,732,2087.494937106967,2088.1364338486455,"[47, 0, 207]",207,a,0.11926687881350517,colour,0.5
23,20,0,2,15,33,733,2090.138933196664,2090.6804063864984,"[36, 0, 218]",218,a,0.01928034843876958,colour,0.5
23,20,0,2,15,34,734,2092.685844221618,2093.2884305310436,"[14, 0, 240]",240,a,0.08028949284926057,colour,0.5
23,20,0,2,15,35,735,2095.295602864586,2095.824438316282,"[91, 0, 163]",163,l,0.006771398242563009,colour,0.5
23,20,0,2,15,36,736,2097.8426245599985,2098.664420561865,"[9, 0, 245]",245,a,0.299629548098892,colour,0.5
23,20,0,2,15,37,737,2100.6709918859415,2101.5844418136403,"[78, 0, 176]",176,l,0.39131537545472383,colour,0.5
23,20,0,2,15,38,738,2103.5930036371574,2104.176386791747,"[75, 0, 179]",179,l,0.06111902743577957,colour,0.5
23,20,0,2,15,39,739,2106.1869639260694,2106.7524451944046,"[27, 0, 227]",227,a,0.04327897448092699,colour,0.5
23,20,0,2,15,40,740,2108.765393283218,2109.4084173603915,"[49, 0, 205]",205,a,0.1208536853082478,colour,0.5
23,20,0,2,15,41,741,2111.421760083176,2112.1044251774438,"[59, 0, 195]",195,a,0.1604052991606295,colour,0.5
23,20,0,2,15,42,742,2114.1095168218017,2114.6964174173772,"[90, 0, 164]",164,l,0.0649227942340076,colour,0.5
23,20,0,2,15,43,743,2116.703504286241,2117.2724124109372,"[55, 0, 199]",199,a,0.04652151092886925,colour,0.5
23,20,0,2,15,44,744,2119.282285741996,2119.8804475828074,"[80, 0, 174]",174,l,0.07601074734702706,colour,0.5
23,20,0,2,15,45,745,2121.89177263109,2122.7923977440223,"[10, 0, 244]",244,a,0.3783538960851729,colour,0.5
23,20,0,2,15,46,746,2124.7982948035933,2125.3524305433966,"[63, 0, 191]",191,l,0.03197007393464446,colour,0.5
23,20,0,2,15,47,747,2127.3610148159787,2127.976431454066,"[41, 0, 213]",213,a,0.09325412288308144,colour,0.5
23,20,0,2,15,48,748,2129.9862260157242,2130.568442598451,"[77, 0, 177]",177,l,0.060062732081860304,colour,0.5
23,20,0,2,15,49,749,2132.5801674006507,2133.1124190744013,"[13, 0, 241]",241,a,0.010232912376523018,colour,0.5
23,20,0,2,15,50,750,2135.1272777114064,2135.8163715577684,"[25, 0, 229]",229,a,0.1669655959121883,colour,0.5
23,20,0,2,16,1,751,2144.2213593050838,2144.7924540638924,"[10, 0, 244]",244,a,0.04811698151752353,colour,0.5
23,20,0,2,16,2,752,2146.8009863486513,2147.408414997626,"[68, 0, 186]",186,l,0.08517082314938307,colour,0.5
23,20,0,2,16,3,753,2149.426721758209,2150.2964149755426,"[45, 0, 209]",209,a,0.3482857057824731,colour,0.5
23,20,0,2,16,4,754,2152.3014487242326,2152.8244938487187,"[28, 0, 226]",226,a,0.0008034463971853256,colour,0.5
23,20,0,2,16,5,755,2154.8485267395154,2155.736441252753,"[41, 0, 213]",213,a,0.36583903804421425,colour,0.5
23,20,0,2,16,6,756,2157.7549685672857,2158.3924524099566,"[9, 0, 245]",245,a,0.1152555551379919,colour,0.5
23,20,0,2,16,7,757,2160.4114306783304,2161.056364121847,"[6, 0, 248]",248,a,0.12270909454673529,colour,0.5
23,20,0,2,16,8,758,2163.0688809491694,2163.624449107796,"[2, 0, 252]",252,a,0.033275280613452196,colour,0.5
23,20,0,2,16,9,759,2165.6316675213166,2166.1604415331967,"[43, 0, 211]",211,a,0.00665245670825243,colour,0.5
23,20,0,2,16,10,760,2168.1787553830072,2168.744430423714,"[94, 0, 160]",160,l,0.0435546669177711,colour,0.5
23,20,0,2,16,11,761,2170.7570567401126,2171.4964364795014,"[14, 0, 240]",240,a,0.217144756577909,colour,0.5
23,20,0,2,16,12,762,2173.5073074232787,2174.0484454496764,"[82, 0, 172]",172,l,0.01899559749290347,colour,0.5
23,20,0,2,16,13,763,2176.0543334507383,2176.6884140679613,"[16, 0, 238]",238,a,0.11185232969000936,colour,0.5
23,20,0,2,16,14,764,2178.695161835756,2179.360420108307,"[56, 0, 198]",198,a,0.14314853306859732,colour,0.5
23,20,0,2,16,15,765,2181.368072933983,2181.9444546848536,"[89, 0, 165]",165,l,0.05495494045317173,colour,0.5
23,20,0,2,16,16,766,2183.961198663339,2184.5604104981758,"[87, 0, 167]",167,l,0.0769599168561399,colour,0.5
23,20,0,2,16,17,767,2186.5707942540757,2187.1524499994703,"[80, 0, 174]",174,l,0.06011117482557893,colour,0.5
23,20,0,2,16,18,768,2189.164767146576,2189.8404174456373,"[54, 0, 200]",200,a,0.15376426419243217,colour,0.5
23,20,0,2,16,19,769,2191.8524084878154,2192.424436662346,"[51, 0, 203]",203,a,0.049695517402142286,colour,0.5
23,20,0,2,16,20,770,2194.430731900502,2195.072455103509,"[75, 0, 179]",179,l,0.11800342006608844,colour,0.5
23,20,0,2,16,21,771,2197.0887323743664,2197.65646762494,"[58, 0, 196]",196,a,0.04552626144140959,colour,0.5
23,20,0,2,16,22,772,2199.667090051342,2200.224443515297,"[78, 0, 176]",176,l,0.035179920960217714,colour,0.5
23,20,0,2,16,23,773,2202.2297706794925,2202.8484322163276,"[71, 0, 183]",183,l,0.09652265254408121,colour,0.5
23,20,0,2,16,24,774,2204.854965337552,2205.4723882284015,"[21, 0, 233]",233,a,0.09523753263056278,colour,0.5
23,20,0,2,16,25,775,2207.4801521194167,2208.128470671829,"[99, 0, 155]",155,l,0.1262403205037117,colour,0.5
23,20,0,2,16,26,776,2210.1364570856094,2210.720419588033,"[20, 0, 234]",234,a,0.061619605869054794,colour,0.5
23,20,0,2,16,27,777,2212.7306371410377,2213.272441161331,"[8, 0, 246]",246,a,0.01978486543521285,colour,0.5
23,20,0,2,16,28,778,2215.277633630205,2215.9366297475062,"[59, 0, 195]",195,a,0.1367493192665279,colour,0.5
23,20,0,2,16,29,779,2217.9498157193884,2218.6804178082384,"[4, 0, 250]",250,a,0.20838325377553701,colour,0.5
23,20,0,2,16,30,780,2220.700040408876,2221.4004533961415,"[32, 0, 222]",222,a,0.1784395184367895,colour,0.5
23,20,0,2,16,31,781,2223.418911393266,2223.9527577511035,"[48, 0, 206]",206,a,0.011532211676239967,colour,0.5
23,20,0,2,16,32,782,2225.966025642585,2226.5204681889154,"[5, 0, 249]",249,a,0.03217054158449173,colour,0.5
23,20,0,2,16,33,783,2228.5286901225336,2229.2004255903885,"[30, 0, 224]",224,a,0.14954538317397237,colour,0.5
23,20,0,2,16,34,784,2231.216458282899,2231.7844479577616,"[47, 0, 207]",207,a,0.04583424888551235,colour,0.5
23,20,0,2,16,35,785,2233.7947702738456,2234.5284392428584,"[27, 0, 227]",227,a,0.21149739576503634,colour,0.5
23,20,0,2,16,36,786,2236.5449733012356,2237.0965561298653,"[61, 0, 193]",193,a,0.029282860923558474,colour,0.5
23,20,0,2,16,37,787,2239.1076901629567,2239.6644749124534,"[19, 0, 235]",235,a,0.03457024646922946,colour,0.5
23,20,0,2,16,38,788,2241.6704278984107,2242.296427184716,"[77, 0, 177]",177,l,0.1040616575628519,colour,0.5
23,20,0,2,16,39,789,2244.311169242952,2244.880481059663,"[3, 0, 251]",251,a,0.04705162765458226,colour,0.5
23,20,0,2,16,40,790,2246.8917970494367,2247.4404736869037,"[65, 0, 189]",189,l,0.026456620544195175,colour,0.5
23,20,0,2,16,41,791,2249.454528483562,2250.040444857441,"[39, 0, 215]",215,a,0.06371132330968976,colour,0.5
23,20,0,2,16,42,792,2252.048480501864,2252.6724077635445,"[74, 0, 180]",180,l,0.10169976158067584,colour,0.5
23,20,0,2,16,43,793,2254.6893049483187,2255.240641622804,"[44, 0, 210]",210,a,0.02929585799574852,colour,0.5
23,20,0,2,16,44,794,2257.24098584475,2257.8324089762755,"[63, 0, 191]",191,l,0.06910504726693034,colour,0.5
23,20,0,2,16,45,795,2259.850586161483,2260.3924468960613,"[50, 0, 204]",204,a,0.01952807791531086,colour,0.5
23,20,0,2,16,46,796,2262.397694502957,2263.272432496771,"[57, 0, 197]",197,a,0.35279366932809353,colour,0.5
23,20,0,2,16,47,797,2265.2885754662566,2265.8804294657893,"[26, 0, 228]",228,a,0.06973047507926822,colour,0.5
23,20,0,2,16,48,798,2267.8980773217045,2268.4804577440955,"[84, 0, 170]",170,l,0.06026319973170757,colour,0.5
23,20,0,2,16,49,799,2270.491969869472,2271.2884388016537,"[73, 0, 181]",181,l,0.27422134624794126,colour,0.5
23,20,0,2,16,50,800,2273.304827136919,2273.9124960321933,"[66, 0, 188]",188,l,0.08549101976677775,colour,0.5
